DTS Sentinel unit serial number:	SN410029Multiplexer serial number:	ORYXHardware model number:	OX2-SRSoftware version number:	ORYX F/W v4,00 Oryx Data Collector v3.7.2.0data status	okinstallation	B6 Nyhavnadifferential loss correction	single-endedforward channel	channel 2reverse channel	N/Adate	2023/12/11time	09:20:08forward acquisition time	300,00reverse acquisition time	0,00gamma	499,1914k internal	0,3137k external	0,3137temperature offset calibration	1,0000default loss term (dB/km)	0,3820temperature slope calibration	1,0000multiplexer offset coefficient	1,0000multiplexer slope coefficient	1,0000fibre end	0,00T internal ref (°C)	16,84T ext. ref 1 (°C)	-0,73T ext. ref 2 (°C)	-0,74length (m)	temperature (°C)	Stokes	anti-Stokes-744,400	-55,609	0,078	0,026
-743,385	-114,956	-0,212	-0,030
-742,371	-192,415	0,243	0,002
-741,356	-184,981	-0,201	0,002
-740,342	-61,489	0,206	0,064
-739,327	-96,687	-0,334	0,065
-738,312	-200,000	-0,017	-0,130
-737,298	-150,958	-0,329	-0,018
-736,283	-129,796	0,183	-0,018
-735,269	-171,715	-0,334	-0,008
-734,254	800,000	-0,024	0,052
-733,239	-47,839	-0,433	-0,155
-732,225	-103,698	0,145	0,025
-731,210	800,000	-0,073	-0,154
-730,196	255,852	0,061	-0,078
-729,181	286,119	0,071	-0,095
-728,167	-54,200	-0,127	-0,043
-727,152	800,000	-0,008	-0,021
-726,137	800,000	0,037	0,100
-725,123	-53,174	-0,156	-0,053
-724,108	53,307	-0,091	-0,064
-723,094	99,587	-0,067	0,058
-722,079	-13,559	-0,091	-0,043
-721,064	11,190	0,030	-0,017
-720,050	-11,862	-0,087	-0,042
-719,035	297,508	-0,036	-0,049
-718,021	-124,312	-0,074	0,008
-717,006	24,987	-0,034	-0,021
-715,991	-200,000	0,018	-0,157
-714,977	-200,000	-0,144	-0,000
-713,962	446,565	-0,082	-0,135
-712,948	-200,000	-0,020	-0,065
-711,933	-18,915	-0,093	-0,043
-710,918	-200,000	-0,017	0,089
-709,904	187,946	-0,025	0,028
-708,889	-91,717	0,032	0,007
-707,875	13,646	-0,127	0,073
-706,860	-44,334	-0,084	-0,031
-705,845	800,000	0,044	-0,092
-704,831	533,942	-0,051	0,090
-703,816	-50,928	-0,034	0,012
-702,802	16,704	0,039	-0,023
-701,787	-72,786	-0,184	0,050
-700,772	245,822	-0,021	-0,027
-699,758	-106,579	0,084	-0,014
-698,743	-44,992	0,134	0,049
-697,729	-200,000	0,012	0,062
-696,714	800,000	-0,035	0,101
-695,699	256,802	0,008	0,010
-694,685	-200,000	-0,021	-0,119
-693,670	800,000	-0,016	-0,033
-692,656	72,022	0,103	-0,080
-691,641	547,175	-0,116	-0,206
-690,627	800,000	-0,025	-0,060
-689,612	6,716	0,036	0,020
-688,597	431,681	-0,116	-0,187
-687,583	195,889	-0,140	-0,158
-686,568	191,507	-0,111	-0,124
-685,554	118,492	-0,057	0,052
-684,539	30,686	-0,141	-0,089
-683,524	800,000	0,028	0,074
-682,510	234,130	0,024	0,029
-681,495	-26,399	-0,089	0,039
-680,481	-65,903	0,076	-0,022
-679,466	369,949	-0,019	0,029
-678,451	800,000	-0,034	-0,100
-677,437	165,398	-0,049	-0,051
-676,422	614,694	-0,020	0,038
-675,408	84,700	0,034	-0,028
-674,393	-7,620	0,061	0,030
-673,378	63,948	-0,025	0,018
-672,364	-50,591	0,111	0,039
-671,349	128,208	0,012	-0,011
-670,335	-200,000	0,004	-0,044
-669,320	-2,626	0,181	0,094
-668,305	35,242	0,046	-0,030
-667,291	800,000	-0,031	-0,066
-666,276	-200,000	0,012	-0,057
-665,262	69,409	-0,147	-0,112
-664,247	-11,484	-0,118	-0,057
-663,232	701,729	0,052	0,101
-662,218	45,823	0,137	0,093
-661,203	-200,000	0,004	0,121
-660,189	-200,000	0,016	0,085
-659,174	29,416	-0,024	-0,015
-658,159	-62,210	-0,169	-0,052
-657,145	-200,000	0,011	-0,088
-656,130	800,000	0,036	-0,100
-655,116	164,626	0,068	-0,070
-654,101	-200,000	0,034	-0,116
-653,086	-200,000	0,017	-0,068
-652,072	-176,247	-0,085	-0,002
-651,057	-46,948	-0,101	-0,036
-650,043	330,353	-0,025	-0,036
-649,028	800,000	0,049	0,101
-648,014	74,019	0,037	-0,029
-646,999	45,442	-0,070	0,048
-645,984	800,000	-0,032	-0,073
-644,970	-200,000	-0,033	-0,128
-643,955	-42,250	-0,051	0,019
-642,941	154,536	0,099	-0,101
-641,926	-26,394	0,105	-0,045
-640,911	93,159	-0,022	-0,019
-639,897	-112,584	-0,160	0,023
-638,882	60,420	0,068	-0,050
-637,868	196,078	-0,052	0,059
-636,853	506,246	0,020	-0,034
-635,838	183,416	0,051	-0,055
-634,824	67,508	0,074	0,056
-633,809	194,823	0,036	0,041
-632,795	-200,000	-0,025	0,120
-631,780	-108,861	0,053	0,008
-630,765	-84,107	-0,256	0,060
-629,751	29,010	0,057	-0,036
-628,736	800,000	-0,029	-0,088
-627,722	-200,000	0,016	-0,071
-626,707	-200,000	-0,011	0,078
-625,692	-86,900	0,083	-0,019
-624,678	380,543	-0,053	0,081
-623,663	-181,040	-0,114	0,002
-622,649	800,000	-0,051	-0,118
-621,634	583,175	-0,037	-0,067
-620,619	800,000	0,024	-0,065
-619,605	-13,978	0,151	0,072
-618,590	-74,875	0,094	-0,025
-617,576	61,848	0,129	0,095
-616,561	195,377	-0,104	0,117
-615,546	-200,000	0,033	-0,109
-614,532	11,398	-0,138	-0,078
-613,517	4,248	-0,071	0,038
-612,503	461,937	-0,073	-0,121
-611,488	-200,000	0,003	0,073
-610,474	-145,905	0,077	-0,005
-609,459	113,538	0,026	0,023
-608,444	-20,076	0,032	-0,015
-607,430	-84,180	-0,067	0,016
-606,415	-200,000	0,030	-0,110
-605,401	28,523	0,021	0,013
-604,386	82,524	-0,008	0,007
-603,371	-200,000	0,000	-0,055
-602,357	6,051	0,165	-0,090
-601,342	52,062	0,049	-0,035
-600,328	-200,000	0,013	-0,058
-599,313	-200,000	0,016	-0,073
-598,298	-200,000	-0,024	-0,147
-597,284	90,807	0,111	-0,092
-596,269	800,000	-0,077	0,176
-595,255	501,966	0,022	-0,037
-594,240	-200,000	0,013	-0,215
-593,225	-200,000	0,034	-0,121
-592,211	800,000	-0,061	-0,128
-591,196	800,000	-0,039	-0,082
-590,182	-24,385	0,154	-0,068
-589,167	800,000	0,029	0,083
-588,152	-200,000	0,022	0,108
-587,138	-183,257	0,015	-0,000
-586,123	-200,000	-0,038	-0,128
-585,109	-44,528	-0,098	-0,036
-584,094	-76,842	-0,136	-0,035
-583,079	-145,392	0,047	0,003
-582,065	-200,000	-0,001	-0,066
-581,050	37,883	0,047	-0,031
-580,036	800,000	-0,030	0,097
-579,021	-115,715	-0,120	-0,016
-578,006	-200,000	0,010	-0,054
-576,992	211,793	0,014	-0,016
-575,977	-169,457	0,132	0,003
-574,963	76,461	-0,138	0,108
-573,948	-101,635	0,107	-0,019
-572,934	93,070	0,063	-0,052
-571,919	800,000	-0,083	-0,195
-570,904	13,716	-0,175	-0,100
-569,890	-200,000	0,021	0,082
-568,875	-200,000	-0,040	0,149
-567,861	-200,000	-0,017	0,067
-566,846	178,985	-0,009	-0,010
-565,831	247,487	0,148	0,185
-564,817	155,216	-0,058	-0,059
-563,802	27,100	-0,091	-0,056
-562,788	118,715	-0,074	-0,067
-561,773	712,481	-0,053	-0,105
-560,758	-95,564	0,104	-0,020
-559,744	800,000	0,024	-0,076
-558,729	-200,000	-0,007	-0,035
-557,715	-111,704	-0,056	0,008
-556,700	-200,000	0,002	-0,094
-555,685	-200,000	-0,006	0,022
-554,671	-15,673	-0,055	0,026
-553,656	786,308	0,066	0,135
-552,642	38,219	0,117	-0,076
-551,627	156,422	-0,059	0,060
-550,612	48,319	0,051	0,035
-549,598	-107,485	-0,122	-0,020
-548,583	-200,000	-0,012	-0,104
-547,569	205,017	0,026	-0,029
-546,554	244,197	0,022	0,027
-545,539	800,000	0,029	0,089
-544,525	-200,000	0,003	0,111
-543,510	160,495	-0,071	0,073
-542,496	31,254	-0,135	-0,085
-541,481	-200,000	-0,011	-0,046
-540,466	800,000	-0,022	-0,065
-539,452	-200,000	-0,026	-0,139
-538,437	191,570	-0,061	0,068
-537,423	-200,000	-0,013	-0,058
-536,408	-83,181	-0,117	-0,027
-535,393	707,225	-0,034	-0,066
-534,379	800,000	-0,044	-0,101
-533,364	-38,702	0,081	0,031
-532,350	-11,203	0,053	0,026
-531,335	-76,425	-0,029	-0,008
-530,321	14,256	0,113	-0,065
-529,306	800,000	0,028	-0,078
-528,291	-200,000	-0,032	0,126
-527,277	-65,023	-0,103	0,030
-526,262	140,815	0,080	-0,078
-525,248	47,353	0,084	0,057
-524,233	-95,982	-0,077	0,015
-523,218	-200,000	0,034	0,183
-522,204	9,357	-0,037	-0,020
-521,189	-200,000	-0,034	-0,120
-520,175	481,715	-0,041	-0,069
-519,160	36,002	0,069	-0,044
-518,145	-200,000	-0,008	0,093
-517,131	800,000	-0,043	-0,092
-516,116	-200,000	0,015	0,150
-515,102	-55,229	-0,107	0,035
-514,087	800,000	-0,065	0,134
-513,072	81,335	0,045	-0,036
-512,058	-200,000	-0,004	-0,078
-511,043	113,709	0,019	0,017
-510,029	-51,117	-0,063	0,022
-509,014	339,856	-0,078	0,112
-507,999	-56,810	-0,062	-0,020
-506,985	182,386	-0,024	0,026
-505,970	-16,880	0,044	0,021
-504,956	197,914	-0,079	0,089
-503,941	-200,000	0,003	0,011
-502,926	-90,059	0,074	-0,016
-501,912	423,277	-0,028	0,044
-500,897	271,684	0,070	-0,090
-499,883	528,374	0,062	0,109
-498,868	163,067	-0,117	-0,121
-497,853	156,624	0,081	-0,082
-496,839	800,000	0,028	-0,068
-495,824	35,661	0,103	-0,066
-494,810	-200,000	0,009	0,083
-493,795	-48,365	0,110	-0,039
-492,781	-200,000	0,003	0,012
-491,766	-200,000	-0,021	-0,086
-490,751	26,588	-0,101	0,062
-489,737	155,221	-0,058	0,058
-488,722	-135,039	0,069	0,006
-487,708	-200,000	0,008	0,090
-486,693	-31,707	-0,050	0,020
-485,678	137,357	-0,054	-0,052
-484,664	-65,835	0,029	0,009
-483,649	-200,000	0,011	-0,065
-482,635	-98,535	-0,110	-0,020
-481,620	-98,799	0,137	0,025
-480,605	-200,000	0,004	-0,066
-479,591	574,427	-0,048	0,087
-478,576	123,228	0,034	0,031
-477,562	-159,397	0,046	0,002
-476,547	-171,203	-0,017	-0,000
-475,532	800,000	0,018	-0,044
-474,518	-200,000	-0,033	-0,170
-473,503	-200,000	-0,013	0,154
-472,489	156,527	-0,046	-0,046
-471,474	-200,000	0,010	0,130
-470,459	505,934	0,016	0,027
-469,445	-20,393	-0,085	-0,038
-468,430	233,511	-0,040	0,049
-467,416	136,140	0,041	-0,039
-466,401	19,940	-0,099	-0,059
-465,386	113,278	0,044	0,039
-464,372	-200,000	0,019	0,101
-463,357	-200,000	0,001	-0,133
-462,343	-200,000	0,019	0,072
-461,328	-31,298	0,137	-0,056
-460,313	-12,092	-0,107	-0,051
-459,299	77,335	0,078	-0,061
-458,284	-46,270	-0,025	-0,009
-457,270	-200,000	0,016	0,066
-456,255	-172,991	-0,089	0,002
-455,241	260,028	-0,041	0,052
-454,226	-200,000	-0,013	-0,097
-453,211	155,245	0,051	-0,052
-452,197	339,426	-0,005	0,007
-451,182	188,950	0,025	0,028
-450,168	123,717	0,090	0,083
-449,153	253,939	0,017	0,021
-448,138	476,439	0,081	0,136
-447,124	800,000	0,021	0,045
-446,109	533,423	0,074	0,130
-445,095	-200,000	-0,001	-0,055
-444,080	196,302	0,030	0,034
-443,065	409,608	-0,055	0,085
-442,051	62,207	-0,056	-0,041
-441,036	-200,000	-0,005	-0,045
-440,022	-200,000	0,020	-0,074
-439,007	248,497	-0,078	-0,097
-437,992	-200,000	-0,006	-0,078
-436,978	166,444	-0,100	0,104
-435,963	-143,431	0,039	-0,003
-434,949	595,796	-0,014	-0,026
-433,934	37,315	-0,057	0,037
-432,919	148,092	-0,106	-0,105
-431,905	-200,000	0,047	-0,202
-430,890	333,866	-0,052	0,075
-429,876	-127,317	-0,149	0,016
-428,861	-200,000	0,005	0,020
-427,846	-121,593	-0,042	0,005
-426,832	-200,000	0,011	-0,053
-425,817	523,058	-0,089	-0,155
-424,803	-129,530	-0,101	-0,010
-423,788	-133,909	0,038	-0,003
-422,773	780,879	0,031	0,062
-421,759	-84,981	0,037	-0,008
-420,744	-200,000	-0,005	-0,059
-419,730	-18,425	-0,056	-0,026
-418,715	-69,842	-0,099	-0,027
-417,701	-28,391	0,037	-0,015
-416,686	-200,000	0,000	0,033
-415,671	263,921	0,110	0,140
-414,657	-5,846	0,131	0,065
-413,642	-200,000	-0,036	0,159
-412,628	-93,865	0,092	-0,018
-411,613	-23,663	-0,054	0,023
-410,598	61,730	-0,130	-0,094
-409,584	-200,000	0,001	0,013
-408,569	-0,653	0,053	0,027
-407,555	274,938	-0,020	-0,026
-406,540	800,000	0,019	-0,053
-405,525	-78,262	0,143	-0,036
-404,511	159,003	0,046	-0,047
-403,496	-200,000	0,011	0,068
-402,482	377,210	-0,048	-0,073
-401,467	145,756	-0,080	0,079
-400,452	14,595	0,060	-0,034
-399,438	368,608	0,056	0,083
-398,423	-50,597	-0,128	0,044
-397,409	744,831	0,036	-0,071
-396,394	11,983	-0,057	-0,032
-395,379	800,000	-0,018	-0,048
-394,365	-51,438	0,093	0,032
-393,350	190,556	-0,118	0,130
-392,336	282,404	0,097	0,128
-391,321	-147,131	-0,072	0,004
-390,306	-93,073	-0,094	0,019
-389,292	560,607	-0,077	-0,137
-388,277	78,478	0,128	-0,100
-387,263	-200,000	0,032	-0,122
-386,248	800,000	-0,017	0,038
-385,233	121,637	0,054	0,050
-384,219	401,085	-0,021	-0,032
-383,204	-200,000	0,015	-0,056
-382,190	226,676	0,019	0,022
-381,175	-87,312	0,050	0,011
-380,160	800,000	-0,035	0,104
-379,146	81,174	0,029	0,023
-378,131	461,627	0,017	0,029
-377,117	361,577	0,038	0,056
-376,102	96,793	-0,063	-0,053
-375,088	457,540	0,148	-0,242
-374,073	800,000	0,036	0,076
-373,058	-53,598	0,074	-0,025
-372,044	52,581	0,042	0,029
-371,029	10,320	0,050	-0,028
-370,015	224,858	-0,042	0,050
-369,000	-20,354	-0,063	-0,028
-367,985	158,495	-0,060	-0,061
-366,971	53,365	-0,079	-0,055
-365,956	-200,000	-0,009	0,059
-364,942	-84,106	-0,088	-0,020
-363,927	-146,256	0,121	-0,008
-362,912	-93,442	0,022	0,004
-361,898	325,134	-0,028	0,039
-360,883	215,399	-0,033	-0,039
-359,869	71,099	-0,062	-0,047
-358,854	537,021	0,081	0,142
-357,839	310,859	0,058	-0,079
-356,825	-200,000	-0,021	0,106
-355,810	-115,210	-0,060	-0,008
-354,796	91,988	-0,166	-0,137
-353,781	-200,000	0,000	-0,023
-352,766	800,000	-0,045	-0,096
-351,752	245,774	-0,022	-0,027
-350,737	-200,000	-0,012	0,053
-349,723	800,000	-0,041	0,098
-348,708	-113,040	0,164	0,023
-347,693	-158,296	-0,132	0,006
-346,679	217,147	-0,043	-0,050
-345,664	-200,000	-0,028	-0,123
-344,650	66,411	-0,089	-0,066
-343,635	241,980	0,151	0,185
-342,620	-15,148	0,020	0,010
-341,606	160,333	-0,028	0,029
-340,591	-200,000	-0,001	0,176
-339,577	-40,068	-0,019	0,007
-338,562	9,963	0,042	0,023
-337,548	-200,000	-0,003	0,071
-336,533	323,533	-0,019	-0,027
-335,518	-110,649	-0,063	-0,009
-334,504	-52,920	0,124	-0,041
-333,489	-76,153	-0,101	0,026
-332,475	361,089	-0,024	-0,035
-331,460	-200,000	0,054	-0,225
-330,445	-104,794	-0,036	-0,006
-329,431	800,000	0,011	-0,023
-328,416	-200,000	-0,006	0,082
-327,402	800,000	-0,048	0,133
-326,387	-89,626	-0,023	-0,005
-325,372	68,770	-0,036	-0,027
-324,358	772,649	-0,066	0,132
-323,343	-63,394	-0,130	0,039
-322,329	369,143	0,089	-0,131
-321,314	87,316	-0,063	-0,051
-320,299	-200,000	-0,014	-0,078
-319,285	-125,501	0,090	0,010
-318,270	478,791	0,058	-0,096
-317,256	800,000	-0,025	-0,076
-316,241	800,000	0,027	-0,074
-315,226	-200,000	-0,026	0,169
-314,212	800,000	-0,020	-0,059
-313,197	-64,510	0,254	-0,075
-312,183	399,267	0,082	0,125
-311,168	-116,052	-0,089	0,012
-310,153	135,877	0,051	-0,049
-309,139	-138,027	-0,088	0,007
-308,124	-21,758	0,147	0,065
-307,110	-200,000	0,009	0,051
-306,095	138,478	-0,042	0,040
-305,080	-92,701	0,102	0,021
-304,066	800,000	-0,025	-0,078
-303,051	110,739	0,136	0,120
-302,037	730,860	-0,011	0,021
-301,022	-200,000	-0,015	0,073
-300,008	-85,062	0,036	0,008
-298,993	-25,639	-0,086	-0,037
-297,978	-200,000	0,020	0,075
-296,964	800,000	-0,053	-0,117
-295,949	-200,000	-0,016	0,106
-294,935	189,328	-0,096	0,105
-293,920	146,364	-0,055	0,054
-292,905	336,052	0,042	-0,060
-291,891	-170,541	0,049	0,001
-290,876	800,000	0,049	0,117
-289,862	34,894	-0,066	-0,042
-288,847	-200,000	0,008	-0,095
-287,832	-200,000	0,014	-0,088
-286,818	-10,376	-0,036	-0,017
-285,803	239,679	0,067	0,081
-284,789	-127,624	0,113	0,012
-283,774	-200,000	-0,039	0,162
-282,759	790,764	0,019	0,038
-281,745	70,991	0,011	0,009
-280,730	-55,436	-0,096	0,031
-279,716	-27,802	-0,044	-0,018
-278,701	800,000	0,076	0,174
-277,686	-162,031	0,038	-0,001
-276,672	48,027	0,086	0,058
-275,657	-132,061	0,134	-0,013
-274,643	-25,385	-0,050	0,021
-273,628	526,150	0,074	-0,127
-272,613	800,000	0,013	-0,029
-271,599	-158,541	0,073	-0,003
-270,584	800,000	0,054	0,111
-269,570	-200,000	-0,000	0,149
-268,555	231,897	0,090	-0,108
-267,540	238,841	-0,040	-0,048
-266,526	-177,546	0,082	0,001
-265,511	-164,575	-0,049	-0,002
-264,497	-200,000	-0,064	-0,209
-263,482	-200,000	-0,012	0,112
-262,467	210,803	0,040	0,046
-261,453	64,129	0,037	-0,027
-260,438	643,123	0,021	-0,039
-259,424	-200,000	-0,009	0,073
-258,409	8,578	-0,071	0,039
-257,395	-123,390	-0,163	-0,019
-256,380	99,583	0,187	0,157
-255,365	-200,000	0,000	-0,004
-254,351	269,829	0,048	0,062
-253,336	204,046	0,096	-0,108
-252,322	-200,000	-0,007	-0,076
-251,307	-200,000	0,002	-0,064
-250,292	-91,694	0,041	-0,009
-249,278	12,610	0,107	0,060
-248,263	429,813	0,035	0,055
-247,249	333,857	0,038	-0,053
-246,234	588,547	-0,043	0,078
-245,219	-58,433	-0,146	-0,046
-244,205	-200,000	-0,008	-0,042
-243,190	512,516	-0,035	-0,059
-242,176	-200,000	-0,036	-0,121
-241,161	-67,653	0,100	0,028
-240,146	-142,665	-0,077	-0,005
-239,132	81,422	-0,086	-0,067
-238,117	800,000	-0,066	-0,146
-237,103	111,489	0,082	-0,072
-236,088	522,309	0,020	0,034
-235,073	158,966	0,110	0,111
-234,059	-159,661	-0,085	0,003
-233,044	410,878	-0,044	0,068
-232,030	800,000	-0,053	0,137
-231,015	-17,470	0,037	0,017
-230,000	-65,621	0,114	-0,033
-228,986	-44,598	0,084	-0,031
-227,971	-200,000	0,022	-0,107
-226,957	23,481	0,131	-0,078
-225,942	-200,000	0,027	0,108
-224,927	4,431	-0,010	0,005
-223,913	304,791	0,124	-0,168
-222,898	-48,176	-0,142	0,049
-221,884	149,200	-0,145	0,143
-220,869	-156,405	-0,048	-0,002
-219,855	215,349	-0,057	0,066
-218,840	341,882	0,101	0,144
-217,825	-200,000	-0,008	0,082
-216,811	-79,603	-0,044	0,011
-215,796	-124,616	-0,074	0,008
-214,782	129,573	0,063	0,058
-213,767	-200,000	0,015	0,059
-212,752	-116,920	0,055	0,007
-211,738	800,000	0,043	-0,107
-210,723	286,233	-0,051	-0,066
-209,709	-88,187	-0,114	0,025
-208,694	86,144	0,086	-0,069
-207,679	49,679	0,059	-0,040
-206,665	433,824	0,020	0,032
-205,650	-194,983	0,136	-0,001
-204,636	266,238	0,057	0,072
-203,621	27,214	-0,076	-0,046
-202,606	-93,335	-0,068	-0,014
-201,592	800,000	0,068	-0,185
-200,577	-3,856	-0,129	-0,065
-199,563	37,888	0,114	-0,073
-198,548	394,134	0,062	0,094
-197,533	-36,977	0,199	0,077
-196,519	62,511	0,029	0,021
-195,504	157,085	-0,017	-0,017
-194,490	154,373	-0,067	0,067
-193,475	800,000	0,068	0,214
-192,460	243,732	-0,005	0,006
-191,446	109,149	0,075	0,065
-190,431	800,000	0,041	0,124
-189,417	-166,172	-0,103	-0,003
-188,402	754,752	0,100	0,198
-187,387	800,000	-0,032	0,071
-186,373	467,667	-0,035	0,057
-185,358	1,691	0,102	0,053
-184,344	800,000	0,046	0,124
-183,329	800,000	-0,026	0,054
-182,315	800,000	0,048	0,098
-181,300	-144,601	-0,186	-0,012
-180,285	728,033	0,070	0,136
-179,271	-69,489	-0,133	-0,037
-178,256	141,019	-0,020	0,019
-177,242	691,252	-0,037	0,071
-176,227	-76,889	0,086	-0,022
-175,212	414,496	-0,045	-0,070
-174,198	-200,000	0,011	0,089
-173,183	-117,209	-0,095	-0,012
-172,169	800,000	-0,042	0,109
-171,154	587,168	0,077	-0,139
-170,139	-200,000	0,003	-0,024
-169,125	35,015	0,128	-0,081
-168,110	-84,599	-0,128	-0,029
-167,096	-200,000	-0,007	0,146
-166,081	-155,449	0,093	-0,004
-165,066	376,256	-0,099	-0,147
-164,052	-90,160	0,062	-0,013
-163,037	-200,000	0,053	0,175
-162,023	61,423	-0,059	-0,043
-161,008	-200,000	-0,002	-0,051
-159,993	-116,300	0,024	-0,003
-158,979	304,154	-0,068	-0,092
-157,964	-59,203	-0,054	-0,017
-156,950	800,000	0,020	0,062
-155,935	12,476	-0,059	0,033
-154,920	97,465	-0,048	0,040
-153,906	800,000	-0,023	0,066
-152,891	800,000	0,042	-0,087
-151,877	-172,202	-0,013	-0,000
-150,862	205,621	0,087	-0,098
-149,847	250,471	0,046	-0,057
-148,833	-2,965	-0,028	0,014
-147,818	-25,055	0,040	0,017
-146,804	-200,000	-0,001	0,063
-145,789	800,000	0,028	-0,070
-144,775	-90,678	-0,066	0,014
-143,760	-17,449	-0,111	-0,051
-142,745	-200,000	-0,004	-0,044
-141,731	-105,103	0,175	0,029
-140,716	128,119	0,056	-0,051
-139,702	-200,000	-0,005	0,123
-138,687	-61,110	-0,106	-0,032
-137,672	57,112	-0,038	-0,027
-136,658	118,352	-0,078	-0,069
-135,643	334,403	0,050	-0,070
-134,629	-7,482	-0,069	-0,034
-133,614	186,330	0,122	0,132
-132,599	212,362	-0,061	0,070
-131,585	-200,000	0,023	-0,109
-130,570	-146,878	0,157	0,010
-129,556	53,427	-0,162	0,112
-128,541	-75,154	-0,041	0,011
-127,526	119,231	0,094	0,084
-126,512	466,160	0,044	0,072
-125,497	232,055	-0,009	0,011
-124,483	-45,980	0,054	0,019
-123,468	-120,108	0,097	0,012
-122,453	-200,000	-0,003	-0,012
-121,439	-200,000	-0,005	-0,050
-120,424	-150,460	-0,071	0,004
-119,410	-78,722	0,124	0,030
-118,395	-200,000	-0,011	0,045
-117,380	-116,902	0,079	-0,010
-116,366	-200,000	0,024	-0,098
-115,351	-58,247	0,077	0,024
-114,337	349,208	-0,068	-0,098
-113,322	-70,620	0,065	-0,018
-112,307	-200,000	-0,001	0,007
-111,293	-200,000	-0,038	-0,150
-110,278	0,025	0,060	-0,031
-109,264	568,040	0,070	0,124
-108,249	-200,000	-0,044	-0,169
-107,234	62,147	0,059	-0,042
-106,220	37,101	-0,125	0,080
-105,205	-200,000	-0,018	-0,112
-104,191	114,285	0,042	0,037
-103,176	106,620	0,048	-0,041
-102,162	-14,022	0,080	-0,037
-101,147	18,805	-0,108	-0,062
-100,132	-27,467	-0,042	0,018
-99,118	0,125	-0,076	-0,039
-98,103	49,018	0,075	-0,051
-97,089	213,364	-0,087	0,099
-96,074	-86,237	0,194	-0,043
-95,059	-200,000	0,005	0,099
-94,045	-106,074	-0,115	-0,018
-93,030	-200,000	0,010	0,051
-92,016	-37,409	0,063	0,024
-91,001	75,849	-0,079	-0,060
-89,986	-14,178	-0,070	0,032
-88,972	-141,199	0,029	0,002
-87,957	-200,000	0,020	0,112
-86,943	-200,000	0,001	0,030
-85,928	-6,132	-0,067	-0,033
-84,913	80,193	-0,116	-0,090
-83,899	297,744	-0,013	0,017
-82,884	-200,000	0,015	-0,055
-81,870	138,890	0,059	0,056
-80,855	-200,000	0,003	0,151
-79,840	-200,000	-0,004	0,043
-78,826	58,393	-0,051	0,036
-77,811	37,279	-0,060	0,038
-76,797	369,870	-0,015	0,022
-75,782	492,942	-0,102	0,170
-74,767	230,642	0,100	0,119
-73,753	280,581	0,017	0,021
-72,738	-127,060	0,109	-0,011
-71,724	93,436	-0,043	0,035
-70,709	51,578	-0,095	-0,065
-69,694	-200,000	0,009	-0,034
-68,680	-120,767	-0,114	-0,014
-67,665	215,118	0,098	-0,112
-66,651	-200,000	-0,004	-0,133
-65,636	-61,677	0,041	-0,012
-64,622	-120,366	-0,087	0,011
-63,607	800,000	-0,039	0,116
-62,592	131,453	-0,039	0,036
-61,578	-200,000	-0,024	-0,099
-60,563	-31,994	-0,065	-0,026
-59,549	-200,000	-0,003	-0,035
-58,534	-5,087	-1,819	-0,901
-57,519	800,000	-0,324	-0,920
-56,505	-200,000	-1,324	-4,933
-55,490	-43,919	0,783	0,283
-54,476	800,000	5,283	12,102
-53,461	-200,000	16,782	274,130
-52,446	800,000	713,804	2211,626
-51,432	557,341	1624,289	2839,574
-50,417	114,624	1621,364	1426,987
-49,403	79,474	1282,282	992,605
-48,388	34,124	1027,693	645,506
-47,373	20,664	989,669	577,016
-46,359	19,321	978,149	565,844
-45,344	17,173	973,768	556,221
-44,330	17,270	972,393	555,732
-43,315	16,963	970,744	553,759
-42,300	16,907	969,620	552,911
-41,286	16,902	968,754	552,380
-40,271	16,865	967,704	551,637
-39,257	16,899	966,837	551,234
-38,242	16,960	965,959	550,910
-37,227	16,948	965,042	550,327
-36,213	16,883	964,332	549,686
-35,198	16,862	963,411	549,072
-34,184	16,841	962,869	548,672
-33,169	16,872	961,888	548,194
-32,154	16,941	960,735	547,738
-31,140	16,937	959,830	547,187
-30,125	16,906	959,145	546,675
-29,111	16,897	958,392	546,196
-28,096	16,907	957,581	545,742
-27,082	16,869	957,037	545,288
-26,067	16,886	956,297	544,900
-25,052	16,844	955,560	544,322
-24,038	16,854	954,911	543,963
-23,023	16,870	954,207	543,594
-22,009	16,866	953,514	543,163
-20,994	16,893	952,752	542,797
-19,979	16,858	952,325	542,418
-18,965	16,940	951,438	542,153
-17,950	16,854	951,200	541,720
-16,936	16,822	950,254	541,059
-15,921	16,773	949,655	540,539
-14,906	16,765	948,875	540,048
-13,892	16,790	948,097	539,662
-12,877	16,740	947,646	539,223
-11,863	16,744	946,893	538,786
-10,848	16,720	946,466	538,445
-9,833	16,756	946,087	538,325
-8,819	16,715	945,422	537,794
-7,804	16,736	944,583	537,363
-6,790	16,681	944,045	536,859
-5,775	16,797	943,455	536,871
-4,760	16,769	942,847	536,417
-3,746	16,707	942,160	535,807
-2,731	16,621	941,448	535,105
-1,717	16,573	941,011	534,685
-0,702	16,584	940,286	534,287
0,313	16,358	939,772	534,082
1,327	19,603	937,800	543,196
2,342	28,930	793,371	484,341
3,356	25,228	446,819	267,217
4,371	-5,519	294,611	145,367
5,386	-9,585	276,199	132,405
6,400	-11,059	270,277	128,182
7,415	-11,240	268,049	126,946
8,429	-10,894	266,855	126,688
9,444	-10,921	266,021	126,257
10,459	-10,722	265,440	126,151
11,473	-10,748	264,883	125,851
12,488	-10,817	264,385	125,541
13,502	-10,963	263,882	125,158
14,517	-10,664	263,482	125,229
15,531	-10,350	263,267	125,400
16,546	-9,990	262,841	125,512
17,561	-10,319	262,653	125,113
18,575	-10,076	262,259	125,134
19,590	-10,097	261,801	124,885
20,604	-9,967	261,660	124,924
21,619	-10,203	261,389	124,571
22,634	-10,343	261,018	124,257
23,648	-10,089	260,541	124,247
24,663	-10,167	260,396	124,096
25,677	-10,020	260,093	124,072
26,692	-9,991	259,906	123,998
27,707	-10,102	259,661	123,772
28,721	-10,175	259,401	123,572
29,736	-10,190	259,136	123,421
30,750	-10,124	258,908	123,360
31,765	-10,274	258,769	123,149
32,780	-10,212	258,305	122,973
33,794	-10,330	258,158	122,787
34,809	-10,269	257,870	122,693
35,823	-10,195	257,770	122,700
36,838	-10,226	257,472	122,520
37,853	-10,199	257,205	122,405
38,867	-10,330	257,023	122,192
39,882	-10,192	256,693	122,147
40,896	-10,179	256,461	122,037
41,911	-10,227	256,188	121,853
42,926	-10,150	256,069	121,853
43,940	-10,223	255,707	121,606
44,955	-10,206	255,625	121,572
45,969	-10,207	255,482	121,492
46,984	-10,517	255,305	121,125
47,999	-10,289	254,928	121,135
49,013	-10,356	254,836	121,022
50,028	-10,458	254,706	120,860
51,042	-10,379	254,437	120,791
52,057	-10,502	254,153	120,538
53,071	-10,335	253,966	120,584
54,086	-10,266	253,630	120,474
55,101	-10,312	253,429	120,327
56,115	-10,393	253,350	120,209
57,130	-10,168	253,093	120,272
58,144	-10,259	252,832	120,058
59,159	-10,311	252,585	119,885
60,174	-10,214	252,304	119,824
61,188	-10,536	252,292	119,530
62,203	-10,192	252,153	119,750
63,217	-10,144	251,979	119,699
64,232	-10,188	251,522	119,434
65,247	-10,186	251,358	119,346
66,261	-10,476	251,154	118,989
67,276	-10,125	250,824	119,123
68,290	-10,479	250,748	118,773
69,305	-10,392	250,352	118,649
70,320	-10,377	250,296	118,625
71,334	-10,306	250,045	118,557
72,349	-10,351	249,953	118,464
73,363	-10,251	249,752	118,444
74,378	-10,202	249,541	118,375
75,393	-10,252	249,341	118,227
76,407	-10,206	249,099	118,141
77,422	-9,972	248,804	118,189
78,436	-10,174	248,577	117,899
79,451	-10,257	248,472	117,768
80,466	-10,143	248,163	117,708
81,480	-10,182	248,116	117,642
82,495	-10,231	247,784	117,433
83,509	-10,327	247,823	117,360
84,524	-10,117	247,477	117,362
85,539	-10,376	247,368	117,082
86,553	-10,190	247,064	117,084
87,568	-10,333	247,051	116,947
88,582	-10,388	246,765	116,755
89,597	-10,154	246,480	116,807
90,611	-10,476	246,419	116,496
91,626	-10,260	246,163	116,547
92,641	-10,208	245,978	116,492
93,655	-10,240	245,744	116,345
94,670	-10,354	245,530	116,137
95,684	-10,282	245,414	116,132
96,699	-10,280	245,186	116,016
97,714	-10,395	245,082	115,860
98,728	-10,485	244,876	115,676
99,743	-10,200	244,619	115,783
100,757	-10,328	244,429	115,576
101,772	-10,346	244,264	115,473
102,787	-10,423	244,074	115,308
103,801	-10,298	243,778	115,262
104,816	-10,332	243,677	115,176
105,830	-10,213	243,603	115,230
106,845	-10,335	243,432	115,037
107,860	-10,439	243,242	114,851
108,874	-10,357	243,014	114,801
109,889	-10,437	242,792	114,619
110,903	-10,590	242,484	114,337
111,918	-10,514	242,316	114,310
112,933	-10,342	242,152	114,365
113,947	-10,391	242,131	114,304
114,962	-10,241	241,710	114,219
115,976	-10,424	241,686	114,047
116,991	-10,319	241,625	114,094
118,006	-10,276	241,413	114,020
119,020	-10,071	241,099	114,029
120,035	-10,257	241,056	113,846
121,049	-10,292	240,955	113,760
122,064	-10,252	240,568	113,600
123,079	-10,430	240,583	113,450
124,093	-10,323	240,280	113,385
125,108	-10,282	240,081	113,315
126,122	-10,236	239,931	113,271
127,137	-10,201	239,842	113,247
128,151	-10,314	239,659	113,059
129,166	-10,171	239,423	113,055
130,181	-10,457	239,142	112,679
131,195	-10,619	239,120	112,527
132,210	-10,527	238,852	112,465
133,224	-10,465	238,692	112,429
134,239	-10,461	238,411	112,291
135,254	-10,239	238,256	112,388
136,268	-10,428	238,061	112,132
137,283	-10,495	237,931	112,007
138,297	-10,432	237,697	111,938
139,312	-10,539	237,506	111,751
140,327	-10,458	237,342	111,729
141,341	-10,212	237,212	111,857
142,356	-10,278	237,049	111,717
143,370	-10,143	236,842	111,719
144,385	-10,148	236,777	111,674
145,400	-10,218	236,474	111,465
146,414	-10,220	236,571	111,499
147,429	-10,270	236,112	111,233
148,443	-10,419	236,091	111,093
149,458	-10,216	235,930	111,171
150,473	-10,301	235,732	110,999
151,487	-10,318	235,470	110,852
152,502	-10,240	235,423	110,883
153,516	-10,202	235,249	110,821
154,531	-10,433	235,089	110,551
155,546	-10,221	234,815	110,582
156,560	-10,089	234,635	110,592
157,575	-10,149	234,346	110,398
158,589	-10,579	234,328	110,038
159,604	-10,150	234,067	110,246
160,619	-10,103	234,038	110,261
161,633	-9,999	233,819	110,230
162,648	-10,110	233,644	110,049
163,662	-10,191	233,441	109,880
164,677	-10,286	233,449	109,799
165,692	-10,095	233,153	109,801
166,706	-10,063	232,996	109,742
167,721	-9,855	232,899	109,851
168,735	-10,119	232,919	109,642
169,750	-10,034	232,610	109,554
170,764	-10,240	232,360	109,264
171,779	-10,247	232,254	109,199
172,794	-10,012	232,146	109,324
173,808	-10,155	231,872	109,072
174,823	-10,428	231,583	108,712
175,837	-10,285	231,644	108,843
176,852	-10,471	231,473	108,607
177,867	-10,273	231,357	108,699
178,881	-10,436	231,139	108,459
179,896	-10,202	230,992	108,563
180,910	-10,225	230,895	108,490
181,925	-10,201	230,606	108,363
182,940	-10,379	230,518	108,173
183,954	-10,260	230,441	108,220
184,969	-10,196	230,366	108,225
185,983	-9,909	230,185	108,355
186,998	-9,992	230,048	108,216
188,013	-9,955	229,896	108,164
189,027	-9,954	229,511	107,974
190,042	-10,119	229,454	107,809
191,056	-9,991	229,188	107,774
192,071	-10,296	229,023	107,450
193,086	-10,229	228,847	107,410
194,100	-10,899	228,418	106,680
195,115	-11,896	227,849	105,635
196,129	-11,655	227,980	105,873
197,144	-7,019	229,480	110,163
198,159	-1,822	231,005	114,941
199,173	0,846	231,647	117,333
200,188	1,572	231,874	118,005
201,202	2,391	231,842	118,616
202,217	2,788	232,012	119,002
203,232	3,006	231,959	119,136
204,246	3,295	231,694	119,213
205,261	3,409	231,487	119,184
206,275	3,348	231,543	119,156
207,290	3,132	231,219	118,811
208,304	3,130	230,966	118,668
209,319	3,175	230,908	118,663
210,334	3,009	230,788	118,462
211,348	2,753	230,418	118,063
212,363	2,218	230,129	117,491
213,377	1,914	229,925	117,141
214,392	1,959	229,616	117,009
215,407	1,919	229,516	116,916
216,421	1,773	229,250	116,657
217,436	1,908	229,076	116,663
218,450	1,693	228,927	116,411
219,465	1,605	228,858	116,298
220,480	1,894	228,655	116,406
221,494	1,754	228,654	116,288
222,509	1,817	228,272	116,132
223,523	1,850	228,288	116,154
224,538	1,892	228,285	116,175
225,553	2,063	227,953	116,127
226,567	1,885	227,656	115,829
227,582	1,940	227,740	115,903
228,596	1,897	227,616	115,796
229,611	1,830	227,505	115,679
230,626	1,783	227,289	115,523
231,640	1,887	226,975	115,432
232,655	1,789	227,002	115,361
233,669	1,830	226,738	115,248
234,684	1,904	226,565	115,206
235,699	1,913	226,584	115,212
236,713	1,992	226,399	115,168
237,728	2,169	226,171	115,175
238,742	1,979	226,107	114,989
239,757	1,866	225,997	114,837
240,772	2,144	225,803	114,938
241,786	1,971	225,736	114,764
242,801	2,146	225,629	114,831
243,815	2,377	225,439	114,899
244,830	2,386	225,362	114,856
245,844	2,207	225,225	114,641
246,859	2,001	225,053	114,388
247,874	2,182	224,895	114,434
248,888	2,149	224,608	114,253
249,903	2,204	224,524	114,241
250,917	1,967	224,329	113,953
251,932	2,067	224,398	114,053
252,947	2,434	223,989	114,111
253,961	2,176	223,885	113,854
254,976	2,047	223,680	113,643
255,990	2,056	223,665	113,632
257,005	2,209	223,535	113,670
258,020	2,207	223,450	113,616
259,034	2,273	223,202	113,529
260,049	2,436	223,131	113,604
261,063	2,246	222,981	113,375
262,078	2,078	222,822	113,160
263,093	2,187	222,653	113,145
264,107	2,258	222,488	113,104
265,122	2,414	222,323	113,126
266,136	2,073	222,231	112,816
267,151	2,197	222,188	112,875
268,166	2,142	221,906	112,682
269,180	2,152	221,671	112,559
270,195	1,956	221,628	112,382
271,209	1,987	221,478	112,319
272,224	2,100	221,151	112,227
273,239	2,107	221,162	112,228
274,253	2,136	220,844	112,078
275,268	1,764	220,936	111,840
276,282	2,060	220,626	111,891
277,297	2,072	220,404	111,778
278,312	2,000	220,353	111,689
279,326	2,260	220,204	111,794
280,341	2,080	220,057	111,578
281,355	2,102	220,108	111,610
282,370	2,089	219,832	111,450
283,384	1,857	219,773	111,240
284,399	1,881	219,461	111,090
285,414	1,870	219,565	111,124
286,428	2,192	219,424	111,279
287,443	2,377	219,168	111,275
288,457	2,288	219,065	111,147
289,472	2,154	218,932	110,972
290,487	1,886	218,771	110,685
291,501	1,898	218,552	110,573
292,516	2,018	218,510	110,630
293,530	2,225	218,495	110,762
294,545	2,414	218,175	110,728
295,560	2,341	218,078	110,616
296,574	2,269	217,943	110,486
297,589	2,532	217,884	110,637
298,603	2,330	217,723	110,399
299,618	2,233	217,517	110,214
300,633	2,286	217,434	110,200
301,647	2,410	217,396	110,261
302,662	2,592	217,150	110,258
303,676	2,500	217,023	110,117
304,691	2,224	216,907	109,849
305,706	2,276	216,829	109,838
306,720	2,230	216,678	109,718
307,735	2,215	216,445	109,579
308,749	2,537	216,268	109,713
309,764	2,367	216,103	109,496
310,779	2,327	216,025	109,418
311,793	2,259	215,850	109,271
312,808	2,479	215,728	109,357
313,822	2,291	215,550	109,122
314,837	2,256	215,301	108,962
315,852	2,291	215,230	108,941
316,866	2,399	215,091	108,939
317,881	2,080	215,087	108,698
318,895	2,074	214,814	108,546
319,910	2,229	214,695	108,587
320,925	1,882	214,653	108,308
321,939	1,986	214,396	108,243
322,954	2,001	214,407	108,250
323,968	2,293	214,190	108,339
324,983	2,356	214,024	108,290
325,997	2,035	213,901	107,990
327,012	1,899	213,810	107,837
328,027	1,867	213,587	107,692
329,041	2,178	213,421	107,820
330,056	2,107	213,372	107,735
331,070	2,302	213,172	107,763
332,085	2,169	213,062	107,603
333,100	2,148	212,913	107,503
334,114	2,287	212,863	107,567
335,129	2,212	212,700	107,422
336,143	1,946	212,584	107,166
337,158	2,115	212,396	107,181
338,173	2,008	212,239	107,017
339,187	2,225	212,072	107,076
340,202	1,981	211,967	106,841
341,216	2,136	211,640	106,776
342,231	2,158	211,651	106,788
343,246	2,071	211,570	106,676
344,260	2,175	211,419	106,663
345,275	2,219	211,243	106,596
346,289	2,391	211,213	106,692
347,304	2,072	211,070	106,386
348,319	2,201	210,979	106,421
349,333	2,279	210,692	106,322
350,348	2,348	210,575	106,302
351,362	2,253	210,444	106,160
352,377	2,340	210,430	106,204
353,392	2,200	210,188	105,975
354,406	2,155	209,942	105,810
355,421	194,598	1342,153	1426,190
356,435	155,355	1480,109	1426,209
