DTS Sentinel unit serial number:	SN410029Multiplexer serial number:	ORYXHardware model number:	OX2-SRSoftware version number:	ORYX F/W v4,00 Oryx Data Collector v3.7.2.0data status	okinstallation	B6 Nyhavnadifferential loss correction	single-endedforward channel	channel 2reverse channel	N/Adate	2023/12/09time	11:05:08forward acquisition time	300,00reverse acquisition time	0,00gamma	499,1914k internal	0,3139k external	0,3139temperature offset calibration	1,0000default loss term (dB/km)	0,3820temperature slope calibration	1,0000multiplexer offset coefficient	1,0000multiplexer slope coefficient	1,0000fibre end	0,00T internal ref (°C)	18,69T ext. ref 1 (°C)	2,56T ext. ref 2 (°C)	2,56length (m)	temperature (°C)	Stokes	anti-Stokes-744,400	-24,402	-0,078	-0,034
-743,385	-183,349	-0,221	-0,003
-742,371	-200,000	0,032	-0,145
-741,356	122,615	-0,134	0,125
-740,342	-172,733	0,067	0,002
-739,327	141,530	-0,197	0,194
-738,312	-200,000	0,010	0,047
-737,298	-182,496	-0,266	-0,004
-736,283	295,751	0,065	-0,088
-735,269	-187,935	-0,268	0,003
-734,254	-1,504	0,032	-0,017
-733,239	-20,692	-0,451	-0,204
-732,225	-95,972	0,097	0,019
-731,210	33,978	0,052	0,033
-730,196	498,031	0,014	-0,024
-729,181	-30,857	-0,084	-0,035
-728,167	261,612	-0,039	0,050
-727,152	-200,000	-0,010	-0,061
-726,137	-200,000	0,005	-0,042
-725,123	-200,000	0,020	0,105
-724,108	800,000	0,058	-0,121
-723,094	25,567	-0,165	-0,102
-722,079	119,847	0,047	0,043
-721,064	-200,000	-0,002	0,036
-720,050	87,194	-0,119	-0,097
-719,035	-200,000	-0,006	0,054
-718,021	-82,315	0,089	-0,021
-717,006	19,556	0,084	-0,050
-715,991	104,411	-0,117	-0,102
-714,977	192,889	-0,061	-0,069
-713,962	-200,000	0,002	-0,141
-712,948	-200,000	0,032	0,130
-711,933	332,144	-0,038	0,055
-710,918	113,909	-0,084	0,075
-709,904	10,390	0,085	-0,048
-708,889	91,885	-0,097	-0,081
-707,875	800,000	0,039	-0,121
-706,860	-134,003	0,075	-0,007
-705,845	-200,000	-0,005	0,027
-704,831	109,974	0,043	0,038
-703,816	-200,000	0,004	0,102
-702,802	207,101	-0,075	0,086
-701,787	578,647	-0,021	0,037
-700,772	2,170	0,020	0,011
-699,758	-75,926	-0,103	0,027
-698,743	-53,220	0,060	-0,020
-697,729	800,000	0,055	-0,130
-696,714	-55,278	-0,037	-0,012
-695,699	358,682	-0,067	-0,100
-694,685	66,930	0,072	-0,054
-693,670	-200,000	0,005	-0,124
-692,656	-39,259	-0,039	0,015
-691,641	-111,683	-0,053	-0,008
-690,627	800,000	0,037	-0,080
-689,612	-200,000	-0,002	0,059
-688,597	328,715	-0,033	0,047
-687,583	78,629	-0,096	-0,076
-686,568	-38,468	-0,013	-0,005
-685,554	147,134	-0,048	0,048
-684,539	-200,000	-0,026	-0,097
-683,524	800,000	0,055	-0,128
-682,510	754,853	-0,088	-0,177
-681,495	-200,000	0,018	-0,163
-680,481	-200,000	-0,035	-0,146
-679,466	-200,000	0,017	-0,071
-678,451	-66,754	-0,093	-0,027
-677,437	8,772	0,098	0,055
-676,422	20,448	-0,065	0,039
-675,408	-110,588	-0,097	-0,015
-674,393	19,824	-0,132	0,078
-673,378	-84,448	-0,055	-0,013
-672,364	158,371	-0,050	-0,052
-671,349	-110,037	0,051	0,008
-670,335	234,362	0,095	0,116
-669,320	-200,000	-0,002	-0,081
-668,305	-16,564	0,054	0,025
-667,291	122,221	-0,167	-0,154
-666,276	-200,000	0,010	-0,059
-665,262	304,591	-0,044	-0,061
-664,247	800,000	-0,014	-0,030
-663,232	-200,000	0,002	-0,022
-662,218	527,780	-0,069	-0,122
-661,203	-200,000	0,003	0,035
-660,189	73,537	-0,048	0,037
-659,174	-56,053	-0,050	-0,016
-658,159	-105,009	-0,095	0,016
-657,145	-101,271	-0,131	-0,023
-656,130	-148,672	0,118	-0,007
-655,116	-200,000	0,027	-0,100
-654,101	471,624	0,061	-0,101
-653,086	-159,407	-0,112	0,005
-652,072	50,238	-0,010	0,007
-651,057	-126,299	-0,067	-0,007
-650,043	-113,456	0,065	-0,009
-649,028	-200,000	0,022	-0,115
-648,014	-200,000	-0,001	-0,083
-646,999	-200,000	0,010	-0,061
-645,984	79,893	-0,051	-0,040
-644,970	-200,000	-0,025	0,105
-643,955	389,094	0,043	0,065
-642,941	-94,216	-0,190	-0,038
-641,926	-200,000	-0,011	0,048
-640,911	94,397	-0,016	0,014
-639,897	230,593	0,033	0,041
-638,882	-200,000	0,005	0,090
-637,868	132,204	-0,054	0,051
-636,853	48,079	-0,122	-0,084
-635,838	795,707	-0,043	-0,087
-634,824	230,678	-0,097	-0,118
-633,809	420,882	0,015	-0,024
-632,795	36,299	0,056	0,036
-631,780	-122,738	-0,024	0,003
-630,765	248,523	0,015	-0,019
-629,751	17,643	-0,035	0,021
-628,736	-200,000	-0,008	-0,142
-627,722	42,644	0,162	-0,108
-626,707	70,879	0,121	-0,093
-625,692	375,368	0,044	-0,066
-624,678	-200,000	-0,011	0,078
-623,663	163,511	0,073	0,075
-622,649	-200,000	-0,078	-0,264
-621,634	222,591	-0,072	-0,086
-620,619	800,000	-0,020	-0,061
-619,605	-52,932	-0,212	-0,071
-618,590	139,371	0,023	0,023
-617,576	-200,000	0,002	0,180
-616,561	-99,443	-0,117	-0,022
-615,546	342,820	0,051	-0,074
-614,532	584,455	-0,040	-0,073
-613,517	-116,986	-0,125	0,017
-612,503	800,000	0,027	-0,055
-611,488	263,786	-0,031	0,040
-610,474	186,436	0,121	0,133
-609,459	-200,000	-0,010	-0,050
-608,444	800,000	-0,043	-0,099
-607,430	12,091	-0,152	-0,086
-606,415	800,000	-0,006	0,021
-605,401	-123,196	-0,006	-0,001
-604,386	363,113	0,067	-0,100
-603,371	-200,000	0,003	0,075
-602,357	-160,662	0,033	-0,001
-601,342	366,625	-0,057	-0,085
-600,328	-9,995	-0,083	0,041
-599,313	-200,000	0,023	-0,124
-598,298	114,900	-0,079	0,071
-597,284	-140,904	-0,073	0,005
-596,269	46,219	0,032	0,022
-595,255	800,000	0,037	0,079
-594,240	769,292	-0,009	-0,017
-593,225	800,000	-0,058	-0,169
-592,211	-31,812	0,107	-0,044
-591,196	47,099	-0,093	0,064
-590,182	-200,000	-0,020	-0,166
-589,167	-62,854	0,145	0,044
-588,152	262,421	0,070	0,090
-587,138	28,178	-0,094	0,059
-586,123	-120,122	-0,120	0,015
-585,109	-200,000	-0,032	-0,109
-584,094	-200,000	-0,012	0,046
-583,079	211,501	0,043	-0,050
-582,065	493,763	-0,014	-0,023
-581,050	297,111	0,109	-0,148
-580,036	214,029	0,056	0,065
-579,021	-200,000	-0,004	-0,079
-578,006	-200,000	-0,006	-0,175
-576,992	-200,000	-0,001	0,017
-575,977	135,360	0,047	0,045
-574,963	4,594	-0,056	-0,030
-573,948	800,000	-0,024	0,076
-572,934	-200,000	0,007	-0,111
-571,919	341,802	0,042	-0,061
-570,904	135,962	0,030	-0,029
-569,890	123,167	-0,080	-0,074
-568,875	-38,136	-0,099	-0,039
-567,861	511,053	0,035	0,060
-566,846	352,086	0,124	-0,181
-565,831	-64,270	0,108	0,032
-564,817	766,916	0,056	0,112
-563,802	-57,292	-0,194	-0,062
-562,788	30,826	0,036	-0,023
-561,773	-170,067	-0,096	-0,002
-560,758	495,739	0,026	0,044
-559,744	-17,610	-0,100	-0,046
-558,729	-200,000	0,005	0,043
-557,715	800,000	0,038	-0,080
-556,700	109,223	-0,036	-0,032
-555,685	800,000	-0,064	-0,176
-554,671	-115,898	0,092	0,013
-553,656	30,878	-0,056	0,035
-552,642	-74,709	0,195	0,051
-551,627	-171,532	-0,046	0,001
-550,612	-200,000	-0,013	-0,046
-549,598	-200,000	-0,003	0,014
-548,583	14,963	-0,028	0,016
-547,569	800,000	0,027	0,077
-546,554	171,526	0,124	0,131
-545,539	-200,000	-0,028	-0,132
-544,525	-200,000	0,010	0,105
-543,510	-200,000	0,014	0,051
-542,496	557,559	-0,015	0,027
-541,481	-200,000	0,010	0,043
-540,466	-200,000	0,016	-0,182
-539,452	-86,304	-0,048	0,011
-538,437	70,426	0,042	0,032
-537,423	-200,000	-0,005	-0,140
-536,408	-105,883	0,137	-0,023
-535,393	-33,609	-0,081	-0,033
-534,379	-167,106	-0,141	0,004
-533,364	154,058	-0,102	-0,103
-532,350	-200,000	-0,007	-0,075
-531,335	-200,000	0,013	-0,081
-530,321	-200,000	-0,004	0,053
-529,306	800,000	0,028	-0,065
-528,291	775,073	0,032	-0,064
-527,277	43,259	-0,141	0,095
-526,262	303,624	-0,064	0,087
-525,248	750,785	-0,026	0,052
-524,233	493,667	0,033	0,055
-523,218	14,652	0,077	-0,044
-522,204	800,000	-0,065	0,154
-521,189	526,456	0,032	0,056
-520,175	-54,311	-0,039	-0,013
-519,160	163,020	0,130	-0,135
-518,145	-154,851	-0,063	-0,003
-517,131	-140,964	0,073	0,005
-516,116	-51,389	0,063	0,022
-515,102	800,000	0,035	0,110
-514,087	-57,965	-0,092	0,029
-513,072	40,743	0,044	0,029
-512,058	-200,000	-0,046	0,168
-511,043	291,459	0,083	-0,111
-510,029	98,262	-0,065	0,055
-509,014	-200,000	-0,023	0,110
-507,999	-74,674	-0,020	-0,005
-506,985	554,245	-0,072	0,127
-505,970	98,459	-0,074	-0,062
-504,956	800,000	0,015	-0,045
-503,941	116,400	0,031	0,028
-502,926	-23,502	0,081	-0,036
-501,912	112,791	0,098	0,087
-500,897	-200,000	0,016	0,073
-499,883	-123,995	-0,203	-0,023
-498,868	118,309	-0,049	0,045
-497,853	230,763	0,032	-0,038
-496,839	-114,426	-0,082	0,011
-495,824	114,802	0,040	0,036
-494,810	-114,772	-0,074	0,010
-493,795	122,955	-0,054	0,049
-492,781	457,192	-0,020	-0,032
-491,766	186,914	0,033	-0,036
-490,751	-46,800	-0,043	-0,015
-489,737	-112,061	0,098	0,014
-488,722	92,608	0,079	0,066
-487,708	303,585	0,002	0,003
-486,693	-54,361	0,156	-0,051
-485,678	265,919	-0,006	0,008
-484,664	322,769	-0,032	0,045
-483,649	-14,273	0,002	-0,001
-482,635	-43,485	-0,143	-0,053
-481,620	-30,667	-0,058	0,024
-480,605	-112,798	0,093	0,013
-479,591	-200,000	0,005	-0,027
-478,576	-139,424	-0,021	-0,002
-477,562	54,630	0,047	-0,033
-476,547	532,566	-0,074	0,130
-475,532	124,713	0,091	0,084
-474,518	-153,301	0,108	0,005
-473,503	800,000	-0,027	0,057
-472,489	246,558	0,081	-0,101
-471,474	10,926	0,106	-0,059
-470,459	-124,521	-0,136	-0,015
-469,445	800,000	-0,045	-0,116
-468,430	261,096	0,060	-0,076
-467,416	253,063	-0,009	-0,011
-466,401	-200,000	0,018	-0,131
-465,386	49,804	0,077	0,053
-464,372	-71,932	-0,105	0,028
-463,357	-200,000	-0,007	-0,103
-462,343	-200,000	0,013	0,080
-461,328	81,243	0,060	0,048
-460,313	67,044	-0,112	-0,084
-459,299	-144,212	0,118	-0,008
-458,284	129,252	-0,119	0,111
-457,270	53,001	-0,040	0,028
-456,255	-200,000	0,003	-0,057
-455,241	-169,543	-0,086	-0,002
-454,226	-200,000	0,024	0,103
-453,211	-200,000	-0,002	-0,080
-452,197	-200,000	-0,010	0,117
-451,182	-42,835	0,051	-0,019
-450,168	-12,049	0,140	-0,067
-449,153	219,462	0,051	0,060
-448,138	-38,958	-0,078	-0,030
-447,124	99,803	0,133	0,113
-446,109	75,942	0,042	-0,033
-445,095	-83,428	0,059	0,014
-444,080	-200,000	0,034	0,136
-443,065	315,130	0,070	0,097
-442,051	-200,000	0,016	0,111
-441,036	525,397	0,038	-0,066
-440,022	800,000	0,016	-0,040
-439,007	-111,929	-0,206	0,030
-437,992	286,210	0,054	-0,071
-436,978	-52,801	0,126	0,042
-435,963	14,218	-0,161	-0,091
-434,949	-15,924	-0,120	-0,056
-433,934	-68,572	0,130	-0,037
-432,919	-54,936	-0,064	-0,021
-431,905	291,674	-0,054	0,072
-430,890	411,550	0,071	0,111
-429,876	-68,887	0,037	0,010
-428,861	159,075	0,011	-0,011
-427,846	-23,026	0,120	-0,053
-426,832	136,122	-0,052	-0,049
-425,817	-200,000	-0,006	-0,034
-424,803	209,965	-0,010	-0,012
-423,788	503,969	-0,033	0,056
-422,773	-76,277	0,057	0,014
-421,759	-93,207	0,136	0,027
-420,744	800,000	0,021	-0,055
-419,730	690,133	0,052	-0,100
-418,715	2,024	0,109	-0,058
-417,701	136,950	0,084	-0,081
-416,686	218,279	0,105	-0,123
-415,671	22,005	0,057	0,034
-414,657	58,343	0,139	0,100
-413,642	-41,619	0,116	-0,044
-412,628	-200,000	0,006	-0,116
-411,613	51,453	0,041	-0,029
-410,598	-200,000	0,008	-0,065
-409,584	-200,000	-0,005	-0,046
-408,569	800,000	0,014	-0,038
-407,555	-19,193	0,096	0,043
-406,540	-90,269	-0,148	-0,031
-405,525	-200,000	0,018	0,070
-404,511	210,843	-0,049	-0,056
-403,496	800,000	0,033	-0,078
-402,482	-5,727	0,091	0,045
-401,467	7,161	0,072	0,039
-400,452	-2,480	-0,124	0,063
-399,438	238,246	0,044	0,053
-398,423	-88,383	-0,073	-0,016
-397,409	-200,000	-0,022	0,111
-396,394	-200,000	0,017	0,067
-395,379	311,441	-0,018	0,025
-394,365	522,371	-0,065	-0,113
-393,350	-42,629	0,084	-0,031
-392,336	-200,000	-0,019	-0,078
-391,321	-61,482	0,071	-0,022
-390,306	-35,626	-0,060	0,024
-389,292	289,196	-0,070	-0,092
-388,277	-102,329	-0,101	0,018
-387,263	-71,833	0,096	-0,026
-386,248	142,199	0,071	-0,069
-385,233	71,377	-0,043	0,032
-384,219	128,326	-0,056	0,053
-383,204	800,000	-0,037	0,093
-382,190	76,683	-0,035	-0,027
-381,175	-200,000	0,036	0,165
-380,160	-55,701	0,027	0,009
-379,146	47,881	0,021	0,014
-378,131	-200,000	-0,038	0,142
-377,117	-186,132	-0,123	-0,001
-376,102	-200,000	-0,003	0,065
-375,088	464,181	0,065	-0,107
-374,073	509,960	-0,040	-0,067
-373,058	800,000	-0,034	0,081
-372,044	-200,000	0,018	0,099
-371,029	-200,000	0,011	0,048
-370,015	63,100	0,076	-0,056
-369,000	800,000	-0,045	-0,115
-367,985	725,581	-0,075	-0,148
-366,971	-64,167	-0,053	0,016
-365,956	800,000	0,011	-0,034
-364,942	-200,000	-0,055	0,221
-363,927	456,087	0,094	0,153
-362,912	-200,000	-0,000	-0,070
-361,898	29,015	0,070	-0,043
-360,883	-200,000	-0,014	0,049
-359,869	25,220	0,021	-0,013
-358,854	398,272	0,021	-0,032
-357,839	-164,471	-0,145	-0,005
-356,825	311,587	0,037	0,051
-355,810	85,574	0,104	0,083
-354,796	-61,779	-0,005	0,002
-353,781	800,000	-0,035	-0,090
-352,766	-44,110	0,107	0,039
-351,752	-200,000	-0,026	0,111
-350,737	644,332	0,019	0,035
-349,723	52,510	0,007	-0,005
-348,708	-200,000	-0,006	0,058
-347,693	31,451	0,036	0,022
-346,679	-129,390	0,158	-0,016
-345,664	-94,688	0,134	-0,026
-344,650	39,683	-0,025	-0,016
-343,635	-200,000	0,027	0,090
-342,620	302,915	0,037	-0,050
-341,606	18,356	0,057	0,033
-340,591	-200,000	-0,007	-0,112
-339,577	-36,098	-0,092	0,036
-338,562	325,684	0,026	-0,036
-337,548	-70,433	0,040	-0,011
-336,533	-23,228	-0,066	0,029
-335,518	-200,000	0,033	0,141
-334,504	-200,000	-0,016	-0,076
-333,489	82,063	0,106	0,084
-332,475	-200,000	0,006	-0,045
-331,460	800,000	0,015	-0,036
-330,445	-200,000	-0,019	0,075
-329,431	-200,000	0,020	-0,092
-328,416	-200,000	-0,014	-0,053
-327,402	16,790	0,155	0,089
-326,387	-200,000	-0,004	0,050
-325,372	-200,000	-0,035	-0,133
-324,358	800,000	-0,034	-0,090
-323,343	-200,000	-0,005	0,066
-322,329	178,038	0,049	0,052
-321,314	121,986	0,059	-0,054
-320,299	1,812	0,109	0,057
-319,285	598,585	0,014	-0,026
-318,270	26,286	0,114	0,070
-317,256	-190,292	0,094	-0,001
-316,241	91,126	0,110	0,090
-315,226	78,534	-0,097	-0,075
-314,212	34,616	-0,098	0,062
-313,197	-104,532	0,058	0,010
-312,183	800,000	-0,025	-0,055
-311,168	23,990	-0,076	-0,045
-310,153	-200,000	0,020	-0,217
-309,139	-58,930	0,060	-0,019
-308,124	711,526	0,024	-0,047
-307,110	-32,056	0,075	-0,031
-306,095	-128,138	0,092	-0,009
-305,080	359,687	0,029	-0,043
-304,066	383,669	0,059	-0,089
-303,051	-22,337	-0,044	0,019
-302,037	211,515	-0,036	-0,042
-301,022	800,000	-0,047	-0,121
-300,008	-4,796	0,028	-0,014
-298,993	275,730	0,070	0,090
-297,978	-49,509	0,096	0,033
-296,964	45,525	-0,044	0,029
-295,949	55,956	-0,002	0,001
-294,935	-123,133	-0,052	-0,006
-293,920	104,142	0,048	0,041
-292,905	800,000	-0,022	0,053
-291,891	152,340	-0,039	0,039
-290,876	152,528	0,082	-0,082
-289,862	-200,000	-0,011	-0,173
-288,847	-200,000	-0,001	-0,069
-287,832	179,475	-0,011	-0,012
-286,818	142,106	0,032	0,030
-285,803	-57,673	-0,121	0,038
-284,789	15,828	0,094	-0,054
-283,774	534,539	-0,100	0,173
-282,759	402,725	-0,054	0,083
-281,745	370,826	-0,047	0,070
-280,730	46,310	-0,065	0,044
-279,716	36,320	0,045	0,029
-278,701	362,067	-0,017	0,025
-277,686	48,334	-0,072	0,049
-276,672	800,000	-0,014	0,036
-275,657	800,000	0,047	-0,110
-274,643	-200,000	-0,002	0,037
-273,628	722,606	-0,024	-0,047
-272,613	135,386	-0,054	-0,051
-271,599	-20,130	0,047	0,021
-270,584	800,000	-0,029	0,069
-269,570	48,183	0,105	0,072
-268,555	17,158	-0,072	0,041
-267,540	581,826	0,032	0,057
-266,526	33,725	-0,095	-0,060
-265,511	149,988	0,100	0,098
-264,497	247,109	0,077	-0,095
-263,482	-24,731	0,175	0,075
-262,467	-66,805	0,038	0,011
-261,453	800,000	-0,037	0,094
-260,438	279,149	-0,049	-0,064
-259,424	268,039	0,031	-0,039
-258,409	-200,000	-0,010	0,137
-257,395	-28,463	0,060	0,025
-256,380	-200,000	-0,002	-0,151
-255,365	-200,000	-0,012	0,064
-254,351	-38,576	-0,136	0,052
-253,336	98,622	-0,094	-0,079
-252,322	-23,387	-0,093	-0,041
-251,307	-45,189	0,021	0,007
-250,292	-200,000	0,001	-0,014
-249,278	569,573	-0,038	0,067
-248,263	800,000	0,052	0,112
-247,249	-19,376	-0,082	0,037
-246,234	400,082	-0,093	0,142
-245,219	61,718	-0,079	-0,057
-244,205	243,601	0,035	-0,043
-243,190	84,611	-0,039	-0,031
-242,176	54,388	-0,039	0,027
-241,161	128,621	0,124	0,115
-240,146	252,369	-0,080	0,100
-239,132	-200,000	0,001	0,037
-238,117	800,000	-0,030	0,096
-237,103	800,000	-0,023	-0,051
-236,088	172,418	-0,054	-0,057
-235,073	-200,000	0,013	0,047
-234,059	-200,000	-0,014	0,152
-233,044	100,994	-0,135	-0,115
-232,030	-83,229	-0,012	0,003
-231,015	189,989	0,048	0,052
-230,000	-104,161	-0,123	-0,021
-228,986	-142,316	-0,127	0,009
-227,971	30,419	0,125	0,078
-226,957	40,295	-0,026	0,017
-225,942	-126,542	-0,030	0,003
-224,927	-200,000	-0,019	0,067
-223,913	461,485	0,032	-0,053
-222,898	13,789	0,013	-0,007
-221,884	-39,021	0,055	-0,021
-220,869	292,337	0,057	0,075
-219,855	-200,000	0,000	0,090
-218,840	151,046	0,011	0,011
-217,825	114,790	0,071	-0,063
-216,811	-102,200	-0,157	-0,027
-215,796	-200,000	-0,039	-0,136
-214,782	-106,562	-0,108	-0,017
-213,767	800,000	0,005	-0,015
-212,752	297,982	0,101	0,135
-211,738	800,000	-0,011	-0,026
-210,723	769,002	0,021	-0,042
-209,709	-35,199	0,127	0,050
-208,694	240,012	-0,125	-0,151
-207,679	-70,345	-0,067	0,018
-206,665	-25,717	-0,047	0,020
-205,650	-85,432	0,049	-0,011
-204,636	-200,000	-0,035	0,192
-203,621	-200,000	0,016	-0,061
-202,606	800,000	-0,030	-0,076
-201,592	353,039	-0,056	-0,080
-200,577	69,378	0,033	0,025
-199,563	-200,000	0,024	0,114
-198,548	2,343	-0,059	-0,031
-197,533	127,900	0,038	0,035
-196,519	3,471	0,134	0,071
-195,504	-117,534	-0,056	-0,007
-194,490	-123,401	-0,093	-0,011
-193,475	800,000	0,057	0,169
-192,460	-98,226	0,156	0,029
-191,446	800,000	-0,048	-0,116
-190,431	213,722	-0,050	0,058
-189,417	-200,000	0,023	0,095
-188,402	800,000	-0,019	0,057
-187,387	-200,000	-0,006	-0,067
-186,373	-96,665	-0,088	-0,017
-185,358	-16,428	-0,048	0,022
-184,344	800,000	-0,045	-0,114
-183,329	-103,366	0,096	0,016
-182,315	74,092	0,064	0,048
-181,300	800,000	-0,015	-0,039
-180,285	740,001	-0,090	0,175
-179,271	800,000	-0,031	-0,077
-178,256	-71,013	0,162	-0,044
-177,242	-103,110	-0,067	-0,011
-176,227	9,119	-0,039	0,021
-175,212	800,000	0,023	0,061
-174,198	488,118	0,040	-0,066
-173,183	28,553	-0,203	-0,124
-172,169	21,570	-0,080	-0,047
-171,154	-50,925	0,142	-0,048
-170,139	119,591	-0,125	0,112
-169,125	-200,000	0,003	0,094
-168,110	-4,431	-0,077	0,039
-167,096	503,589	-0,018	-0,031
-166,081	113,716	-0,103	-0,091
-165,066	369,152	0,029	0,043
-164,052	-200,000	-0,003	0,048
-163,037	-137,810	0,097	0,008
-162,023	-200,000	0,030	0,128
-161,008	-200,000	0,002	0,101
-159,993	87,155	0,101	-0,081
-158,979	93,141	-0,076	0,062
-157,964	-115,891	0,047	0,006
-156,950	800,000	-0,016	-0,046
-155,935	-200,000	-0,021	0,089
-154,920	-63,741	-0,145	0,043
-153,906	554,895	0,016	-0,028
-152,891	-200,000	-0,002	-0,098
-151,877	344,228	0,065	-0,092
-150,862	-55,252	-0,073	0,024
-149,847	-7,740	-0,018	-0,009
-148,833	32,912	0,087	0,055
-147,818	125,481	0,018	0,016
-146,804	-200,000	0,019	0,076
-145,789	-135,088	0,096	-0,008
-144,775	46,481	0,086	-0,058
-143,760	800,000	0,026	-0,056
-142,745	800,000	-0,024	-0,052
-141,731	190,414	0,044	-0,048
-140,716	77,015	0,068	0,052
-139,702	34,484	-0,013	-0,008
-138,687	-107,959	0,032	-0,005
-137,672	404,842	0,062	0,095
-136,658	-136,010	0,025	0,002
-135,643	356,347	-0,050	-0,072
-134,629	-65,656	0,027	-0,008
-133,614	-66,491	-0,082	-0,023
-132,599	-200,000	-0,018	0,075
-131,585	306,989	0,075	-0,101
-130,570	130,986	0,083	-0,077
-129,556	76,810	-0,052	-0,040
-128,541	169,664	0,042	-0,044
-127,526	57,529	-0,101	-0,071
-126,512	178,188	0,074	0,078
-125,497	14,790	0,121	0,068
-124,483	-119,666	0,066	-0,008
-123,468	-11,454	0,097	0,046
-122,453	90,415	-0,052	0,042
-121,439	463,286	-0,006	-0,010
-120,424	-200,000	0,011	-0,066
-119,410	258,372	-0,070	0,087
-118,395	-200,000	0,000	0,038
-117,380	84,822	-0,062	-0,049
-116,366	-117,189	0,150	-0,020
-115,351	-200,000	-0,012	0,045
-114,337	-200,000	-0,019	-0,128
-113,322	-21,908	-0,061	0,027
-112,307	49,614	0,043	-0,029
-111,293	-57,034	-0,052	0,017
-110,278	-28,475	0,093	0,039
-109,264	-156,019	-0,124	-0,006
-108,249	35,170	-0,122	-0,077
-107,234	-24,841	-0,097	0,041
-106,220	210,231	0,027	-0,030
-105,205	101,249	-0,048	0,040
-104,191	-34,142	-0,086	-0,034
-103,176	24,317	0,030	0,018
-102,162	99,329	-0,062	0,052
-101,147	29,073	0,089	0,055
-100,132	750,870	-0,080	-0,156
-99,118	288,778	-0,061	-0,080
-98,103	238,122	0,051	0,062
-97,089	-70,847	0,026	0,007
-96,074	4,727	0,061	0,032
-95,059	-53,182	-0,104	0,034
-94,045	-200,000	0,021	-0,114
-93,030	-200,000	0,018	0,109
-92,016	-175,211	-0,054	-0,001
-91,001	-41,523	-0,130	-0,048
-89,986	187,866	0,056	-0,060
-88,972	262,301	0,030	0,037
-87,957	183,071	-0,037	-0,040
-86,943	-129,856	-0,048	-0,005
-85,928	-200,000	0,014	-0,214
-84,913	38,413	-0,086	-0,056
-83,899	-48,911	0,147	0,051
-82,884	800,000	0,046	0,117
-81,870	-2,672	-0,058	0,029
-80,855	439,926	-0,077	0,121
-79,840	800,000	0,021	-0,057
-78,826	-200,000	0,001	0,046
-77,811	800,000	-0,029	-0,077
-76,797	33,388	0,046	-0,029
-75,782	-200,000	0,011	0,138
-74,767	192,499	-0,122	0,134
-73,753	508,743	0,093	-0,156
-72,738	326,371	0,043	0,060
-71,724	49,494	-0,106	0,072
-70,709	325,998	-0,053	-0,074
-69,694	-176,983	-0,020	0,000
-68,680	427,889	0,135	-0,211
-67,665	-200,000	-0,026	-0,088
-66,651	156,287	0,046	0,046
-65,636	800,000	-0,032	0,091
-64,622	-35,435	-0,187	0,073
-63,607	-200,000	-0,006	0,069
-62,592	-8,130	-0,062	0,030
-61,578	800,000	-0,033	0,067
-60,563	179,297	0,007	0,008
-59,549	59,293	-0,047	0,034
-58,534	-40,374	-1,759	-0,657
-57,519	800,000	-0,461	-1,254
-56,505	-200,000	-1,258	-4,827
-55,490	-154,263	0,776	-0,037
-54,476	800,000	5,232	12,231
-53,461	-200,000	15,662	276,955
-52,446	-200,000	702,203	2243,878
-51,432	562,484	1618,658	2839,059
-50,417	120,954	1623,592	1458,206
-49,403	80,894	1283,847	999,069
-48,388	36,668	1027,715	653,921
-47,373	21,625	989,389	579,822
-46,359	20,576	978,108	569,732
-45,344	18,930	973,967	561,889
-44,330	19,086	972,576	561,576
-43,315	18,817	970,911	559,710
-42,300	18,742	969,809	558,807
-41,286	18,794	968,871	558,413
-40,271	18,754	967,900	557,702
-39,257	18,732	967,203	557,207
-38,242	18,781	966,314	556,831
-37,227	18,676	965,644	556,081
-36,213	18,702	964,800	555,658
-35,198	18,703	963,746	555,033
-34,184	18,700	963,083	554,619
-33,169	18,705	962,248	554,134
-32,154	18,745	961,336	553,716
-31,140	18,710	960,538	553,120
-30,125	18,743	959,914	552,846
-29,111	18,746	958,860	552,226
-28,096	18,748	958,349	551,916
-27,082	18,731	957,571	551,390
-26,067	18,723	956,764	550,880
-25,052	18,730	955,956	550,414
-24,038	18,712	955,310	549,964
-23,023	18,694	954,713	549,540
-22,009	18,743	954,042	549,289
-20,994	18,764	953,206	548,855
-19,979	18,795	952,797	548,698
-18,965	18,744	952,179	548,155
-17,950	18,707	951,593	547,675
-16,936	18,711	950,881	547,260
-15,921	18,618	950,355	546,635
-14,906	18,541	949,739	546,014
-13,892	18,576	949,010	545,685
-12,877	18,603	948,221	545,296
-11,863	18,557	947,556	544,742
-10,848	18,628	947,102	544,686
-9,833	18,678	946,748	544,622
-8,819	18,674	945,887	544,094
-7,804	18,672	945,151	543,643
-6,790	18,609	944,542	543,068
-5,775	18,620	944,148	542,854
-4,760	18,617	943,485	542,443
-3,746	18,615	943,035	542,157
-2,731	18,478	942,165	541,198
-1,717	18,398	941,358	540,462
-0,702	18,461	940,669	540,244
0,313	18,263	940,165	540,141
1,327	21,308	938,530	548,790
2,342	30,398	795,946	489,612
3,356	27,414	449,495	271,996
4,371	-2,189	295,721	149,238
5,386	-6,245	276,987	135,912
6,400	-7,332	271,173	132,034
7,415	-7,823	268,865	130,444
8,429	-7,698	267,750	130,007
9,444	-7,789	266,739	129,421
10,459	-7,797	266,017	129,051
11,473	-7,705	265,317	128,784
12,488	-8,004	264,924	128,310
13,502	-8,124	264,333	127,903
14,517	-7,952	264,070	127,921
15,531	-7,862	263,410	127,671
16,546	-7,877	263,206	127,547
17,561	-8,213	262,979	127,122
18,575	-8,088	262,586	127,034
19,590	-8,216	262,271	126,755
20,604	-8,087	262,045	126,750
21,619	-8,040	261,525	126,530
22,634	-8,080	261,178	126,314
23,648	-8,118	260,861	126,116
24,663	-8,044	260,559	126,025
25,677	-8,275	260,521	125,789
26,692	-8,130	260,083	125,695
27,707	-7,950	259,814	125,715
28,721	-8,191	259,726	125,446
29,736	-8,317	259,416	125,174
30,750	-8,281	259,167	125,073
31,765	-8,305	258,878	124,902
32,780	-8,205	258,585	124,838
33,794	-8,123	258,414	124,817
34,809	-8,146	258,199	124,682
35,823	-8,353	257,836	124,312
36,838	-8,104	257,593	124,404
37,853	-8,399	257,484	124,080
38,867	-8,298	257,221	124,031
39,882	-8,206	256,883	123,938
40,896	-8,205	256,695	123,837
41,911	-8,121	256,368	123,743
42,926	-8,394	256,304	123,460
43,940	-8,202	255,914	123,430
44,955	-8,370	255,747	123,191
45,969	-8,517	255,680	123,019
46,984	-8,633	255,371	122,758
47,999	-8,724	255,029	122,502
49,013	-8,970	254,807	122,170
50,028	-9,134	254,517	121,877
51,042	-9,258	254,419	121,711
52,057	-9,149	254,234	121,707
53,071	-9,127	253,950	121,579
54,086	-8,779	253,679	121,741
55,101	-8,958	253,638	121,555
56,115	-8,628	253,359	121,697
57,130	-8,192	253,379	122,075
58,144	-7,811	253,119	122,268
59,159	-7,930	253,029	122,111
60,174	-8,023	252,829	121,923
61,188	-7,865	252,614	121,945
62,203	-8,015	252,477	121,738
63,217	-8,011	252,187	121,592
64,232	-7,921	251,742	121,443
65,247	-8,072	251,808	121,334
66,261	-7,903	251,422	121,282
67,276	-8,338	251,163	120,773
68,290	-8,511	250,905	120,489
69,305	-8,615	250,770	120,325
70,320	-8,507	250,661	120,354
71,334	-8,243	250,418	120,453
72,349	-8,092	250,252	120,492
73,363	-8,108	250,197	120,441
74,378	-7,941	249,883	120,422
75,393	-7,986	249,634	120,252
76,407	-8,039	249,464	120,115
77,422	-8,217	249,269	119,859
78,436	-8,210	249,223	119,832
79,451	-7,991	248,946	119,874
80,466	-8,226	248,651	119,522
81,480	-8,249	248,316	119,331
82,495	-8,466	248,267	119,113
83,509	-8,456	248,038	119,000
84,524	-8,519	247,786	118,816
85,539	-8,511	247,464	118,657
86,553	-8,687	247,516	118,522
87,568	-8,560	247,197	118,467
88,582	-8,241	246,770	118,520
89,597	-8,420	246,861	118,402
90,611	-8,423	246,770	118,346
91,626	-8,117	246,530	118,478
92,641	-8,303	246,565	118,327
93,655	-8,223	246,143	118,181
94,670	-8,188	245,879	118,073
95,684	-8,314	245,970	118,001
96,699	-8,223	245,537	117,859
97,714	-8,445	245,395	117,594
98,728	-8,577	245,076	117,321
99,743	-8,396	244,949	117,400
100,757	-8,606	244,761	117,125
101,772	-8,507	244,510	117,077
102,787	-8,516	244,383	116,998
103,801	-8,399	244,253	117,023
104,816	-8,454	244,139	116,912
105,830	-8,486	244,103	116,858
106,845	-8,107	243,970	117,099
107,860	-8,246	243,641	116,816
108,874	-8,236	243,402	116,699
109,889	-8,236	243,129	116,557
110,903	-8,081	242,951	116,590
111,918	-8,298	242,770	116,313
112,933	-8,409	242,608	116,133
113,947	-8,118	242,532	116,327
114,962	-8,078	242,350	116,262
115,976	-8,093	242,170	116,153
116,991	-8,240	241,805	115,847
118,006	-8,169	241,742	115,865
119,020	-8,104	241,608	115,844
120,035	-8,238	241,708	115,771
121,049	-7,908	241,435	115,901
122,064	-8,042	241,158	115,648
123,079	-8,172	241,013	115,461
124,093	-8,138	240,608	115,285
125,108	-8,482	240,592	114,985
126,122	-8,718	240,360	114,671
127,137	-8,781	240,153	114,510
128,151	-8,703	240,023	114,502
129,166	-8,410	239,772	114,612
130,181	-8,545	239,627	114,421
131,195	-8,675	239,539	114,263
132,210	-8,254	239,246	114,456
133,224	-8,346	239,229	114,363
134,239	-8,265	239,047	114,331
135,254	-7,963	238,818	114,457
136,268	-8,503	238,694	113,949
137,283	-8,483	238,339	113,785
138,297	-8,474	238,079	113,659
139,312	-8,697	238,046	113,452
140,327	-8,231	237,769	113,687
141,341	-7,925	237,932	114,002
142,356	-7,677	237,722	114,092
143,370	-7,982	237,627	113,790
144,385	-7,956	237,555	113,766
145,400	-7,821	237,252	113,720
146,414	-7,962	237,033	113,491
147,429	-7,988	237,037	113,462
148,443	-7,798	236,753	113,468
149,458	-7,955	236,557	113,239
150,473	-7,667	236,231	113,303
151,487	-7,891	236,151	113,075
152,502	-7,691	235,968	113,138
153,516	-7,815	235,820	112,957
154,531	-7,794	235,667	112,891
155,546	-7,836	235,505	112,770
156,560	-8,068	235,371	112,510
157,575	-8,267	235,213	112,265
158,589	-8,006	234,998	112,361
159,604	-7,654	234,844	112,558
160,619	-7,642	234,666	112,472
161,633	-7,754	234,606	112,345
162,648	-7,707	234,477	112,310
163,662	-7,836	234,299	112,112
164,677	-7,959	234,144	111,930
165,692	-7,936	233,997	111,868
166,706	-7,747	233,741	111,886
167,721	-7,735	233,726	111,879
168,735	-7,746	233,564	111,782
169,750	-7,823	233,436	111,649
170,764	-7,803	233,182	111,534
171,779	-7,689	233,064	111,558
172,794	-7,682	232,939	111,493
173,808	-7,851	232,741	111,256
174,823	-8,234	232,233	110,701
175,837	-8,570	232,221	110,421
176,852	-8,106	232,106	110,722
177,867	-7,902	232,171	110,903
178,881	-7,693	231,893	110,925
179,896	-7,693	231,777	110,859
180,910	-7,681	231,688	110,817
181,925	-7,645	231,503	110,746
182,940	-7,694	231,393	110,645
183,954	-7,795	231,264	110,495
184,969	-7,715	231,079	110,459
185,983	-7,565	231,062	110,558
186,998	-7,601	230,807	110,399
188,013	-7,702	230,729	110,272
189,027	-7,658	230,480	110,178
190,042	-7,667	230,423	110,134
191,056	-7,558	230,119	110,064
192,071	-7,600	229,962	109,946
193,086	-7,448	229,702	109,930
194,100	-7,598	229,680	109,793
195,115	-7,499	229,364	109,709
196,129	-8,195	229,089	109,028
197,144	-4,181	230,568	112,851
198,159	1,384	232,094	117,943
199,173	3,200	232,615	119,618
200,188	3,358	232,555	119,700
201,202	3,623	232,077	119,649
202,217	3,665	232,209	119,740
203,232	3,966	232,155	119,935
204,246	4,129	232,030	119,987
205,261	4,122	231,970	119,940
206,275	4,478	231,750	120,093
207,290	4,473	231,439	119,917
208,304	4,419	231,456	119,873
209,319	4,243	231,310	119,651
210,334	4,206	231,136	119,521
211,348	4,046	230,797	119,211
212,363	3,528	230,539	118,666
213,377	3,513	230,303	118,523
214,392	3,511	230,148	118,431
215,407	3,582	230,124	118,463
216,421	3,489	230,011	118,322
217,436	3,228	229,927	118,067
218,450	3,025	229,646	117,756
219,465	3,002	229,403	117,603
220,480	3,361	229,340	117,837
221,494	3,207	229,142	117,606
222,509	3,485	229,085	117,780
223,523	3,428	228,885	117,622
224,538	3,217	228,707	117,359
225,553	3,236	228,660	117,339
226,567	3,632	228,523	117,561
227,582	3,757	228,390	117,579
228,596	3,930	228,300	117,654
229,611	3,528	228,036	117,200
230,626	3,341	227,911	116,982
231,640	3,354	227,677	116,862
232,655	3,718	227,539	117,059
233,669	3,821	227,539	117,127
234,684	4,282	227,385	117,388
235,699	4,075	227,155	117,101
236,713	3,871	226,993	116,852
237,728	3,364	226,845	116,380
238,742	3,218	226,637	116,153
239,757	3,525	226,436	116,272
240,772	3,246	226,371	116,016
241,786	3,330	226,240	116,002
242,801	3,717	226,084	116,206
243,815	3,985	225,949	116,328
244,830	3,732	225,888	116,095
245,844	3,464	225,718	115,795
246,859	3,663	225,573	115,860
247,874	3,722	225,421	115,817
248,888	3,765	225,253	115,752
249,903	3,398	225,293	115,486
250,917	3,507	225,115	115,467
251,932	3,478	224,813	115,280
252,947	3,478	224,657	115,189
253,961	3,242	224,478	114,910
254,976	3,227	224,492	114,896
255,990	3,309	224,442	114,922
257,005	3,418	224,300	114,920
258,020	3,670	224,204	115,050
259,034	3,644	224,050	114,941
260,049	3,707	223,755	114,827
261,063	3,649	223,462	114,622
262,078	3,876	223,457	114,780
263,093	3,788	223,334	114,640
264,107	3,818	223,333	114,652
265,122	3,814	223,013	114,474
266,136	3,782	222,949	114,407
267,151	3,742	222,816	114,299
268,166	3,661	222,398	114,014
269,180	3,378	222,182	113,683
270,195	3,520	222,153	113,763
271,209	3,349	222,053	113,576
272,224	3,458	221,901	113,568
273,239	3,591	221,707	113,558
274,253	3,417	221,567	113,347
275,268	3,283	221,521	113,214
276,282	3,175	221,321	113,022
277,297	3,221	221,226	112,997
278,312	3,140	221,144	112,885
279,326	3,317	220,941	112,903
280,341	3,460	220,786	112,919
281,355	3,479	220,503	112,778
282,370	3,516	220,502	112,794
283,384	3,210	220,216	112,414
284,399	2,937	220,171	112,180
285,414	3,143	219,996	112,231
286,428	3,597	219,829	112,470
287,443	3,566	219,923	112,485
288,457	3,564	219,643	112,330
289,472	3,627	219,488	112,287
290,487	2,940	219,287	111,672
291,501	2,930	219,066	111,542
292,516	3,152	218,860	111,589
293,530	3,084	218,932	111,566
294,545	3,085	218,820	111,500
295,560	3,343	218,719	111,626
296,574	3,469	218,488	111,591
297,589	3,278	218,491	111,443
298,603	3,601	218,252	111,546
299,618	3,445	218,241	111,417
300,633	3,358	218,055	111,249
301,647	3,804	217,931	111,499
302,662	3,742	217,821	111,388
303,676	3,736	217,594	111,258
304,691	3,678	217,486	111,151
305,706	3,803	217,506	111,242
306,720	3,623	217,192	110,941
307,735	3,333	217,113	110,681
308,749	3,191	216,823	110,421
309,764	3,250	216,783	110,433
310,779	3,620	216,618	110,606
311,793	4,011	216,455	110,794
312,808	3,800	216,373	110,591
313,822	3,561	216,237	110,339
314,837	3,313	216,024	110,043
315,852	3,396	215,797	109,977
316,866	3,329	215,825	109,934
317,881	3,659	215,741	110,117
318,895	3,786	215,580	110,117
319,910	3,381	215,453	109,751
320,925	3,202	215,209	109,489
321,939	2,936	214,920	109,143
322,954	3,317	214,743	109,315
323,968	3,355	214,877	109,400
324,983	3,596	214,769	109,508
325,997	3,695	214,760	109,564
327,012	3,851	214,380	109,472
328,027	3,803	214,163	109,317
329,041	3,516	214,394	109,221
330,056	3,723	214,309	109,315
331,070	3,704	213,966	109,117
332,085	3,252	213,665	108,632
333,100	3,499	213,567	108,749
334,114	3,693	213,355	108,768
335,129	3,623	213,334	108,698
336,143	3,328	213,083	108,352
337,158	3,443	212,959	108,361
338,173	3,430	212,849	108,286
339,187	3,341	212,666	108,120
340,202	3,263	212,418	107,930
341,216	3,162	212,238	107,757
342,231	3,154	212,324	107,786
343,246	3,146	212,094	107,653
344,260	3,230	212,183	107,748
345,275	3,399	212,055	107,793
346,289	3,647	211,888	107,872
347,304	3,528	211,837	107,753
348,319	3,432	211,626	107,569
349,333	3,592	211,368	107,540
350,348	3,547	211,264	107,447
351,362	3,509	211,395	107,477
352,377	3,480	211,184	107,339
353,392	3,473	210,919	107,190
354,406	3,515	210,818	107,159
355,421	195,660	1341,275	1428,122
356,435	156,277	1479,042	1428,166
