DTS Sentinel unit serial number:	SN410029Multiplexer serial number:	ORYXHardware model number:	OX2-SRSoftware version number:	ORYX F/W v4,00 Oryx Data Collector v3.7.2.0data status	okinstallation	B6 Nyhavnadifferential loss correction	single-endedforward channel	channel 2reverse channel	N/Adate	2023/12/08time	02:10:08forward acquisition time	300,00reverse acquisition time	0,00gamma	499,1914k internal	0,3165k external	0,3165temperature offset calibration	1,0000default loss term (dB/km)	0,3820temperature slope calibration	1,0000multiplexer offset coefficient	1,0000multiplexer slope coefficient	1,0000fibre end	0,00T internal ref (°C)	13,19T ext. ref 1 (°C)	-3,73T ext. ref 2 (°C)	-3,73length (m)	temperature (°C)	Stokes	anti-Stokes-744,400	-48,323	0,058	0,020
-743,385	-71,958	-0,272	0,074
-742,371	800,000	0,040	0,102
-741,356	-93,122	-0,300	0,061
-740,342	800,000	-0,020	-0,043
-739,327	-59,649	-0,417	0,131
-738,312	239,335	0,090	0,110
-737,298	-124,726	-0,323	-0,036
-736,283	-33,890	0,109	-0,044
-735,269	-133,807	-0,291	0,026
-734,254	99,266	0,094	0,080
-733,239	-38,394	-0,510	-0,197
-732,225	158,349	0,092	0,094
-731,210	46,634	-0,042	-0,028
-730,196	800,000	-0,041	-0,102
-729,181	-18,293	0,097	-0,044
-728,167	-130,992	0,125	0,012
-727,152	150,314	-0,092	-0,092
-726,137	800,000	-0,065	-0,167
-725,123	73,021	-0,169	-0,130
-724,108	42,702	-0,104	-0,070
-723,094	59,635	-0,062	-0,045
-722,079	320,251	0,016	-0,022
-721,064	68,757	-0,082	-0,062
-720,050	523,553	-0,035	-0,061
-719,035	-5,480	0,068	-0,034
-718,021	-200,000	0,004	-0,090
-717,006	252,120	-0,050	-0,063
-715,991	800,000	-0,040	-0,083
-714,977	800,000	-0,019	-0,060
-713,962	211,215	0,090	0,105
-712,948	-139,272	0,106	-0,008
-711,933	29,118	-0,100	0,062
-710,918	39,199	-0,057	-0,038
-709,904	293,071	-0,032	-0,043
-708,889	-105,195	-0,175	0,029
-707,875	132,269	-0,103	-0,098
-706,860	61,041	0,042	0,031
-705,845	490,267	0,117	0,197
-704,831	102,459	-0,106	0,091
-703,816	-96,433	0,054	0,010
-702,802	141,737	0,093	0,090
-701,787	-200,000	-0,003	0,020
-700,772	-93,135	-0,072	-0,015
-699,758	-200,000	-0,001	-0,059
-698,743	-0,408	0,036	-0,019
-697,729	196,745	-0,076	0,086
-696,714	578,715	-0,086	0,155
-695,699	-200,000	0,018	0,074
-694,685	-200,000	0,025	-0,086
-693,670	-200,000	-0,022	-0,079
-692,656	375,908	-0,013	-0,020
-691,641	-8,215	0,052	0,025
-690,627	-200,000	-0,017	0,097
-689,612	800,000	0,023	0,068
-688,597	-60,094	-0,101	-0,031
-687,583	128,453	-0,031	0,029
-686,568	523,414	0,003	0,005
-685,554	-121,866	0,100	-0,012
-684,539	-200,000	-0,025	-0,094
-683,524	37,093	-0,070	-0,045
-682,510	497,963	-0,099	0,167
-681,495	-200,000	0,014	0,135
-680,481	620,581	-0,099	-0,183
-679,466	-91,394	-0,033	-0,007
-678,451	800,000	0,054	-0,155
-677,437	-200,000	-0,022	0,142
-676,422	56,510	0,135	0,096
-675,408	-17,583	0,067	-0,031
-674,393	505,243	-0,062	-0,106
-673,378	-200,000	-0,016	0,057
-672,364	-20,437	-0,159	0,071
-671,349	296,288	0,030	0,041
-670,335	506,312	0,037	-0,064
-669,320	-200,000	-0,004	-0,075
-668,305	515,776	-0,053	-0,091
-667,291	-34,640	0,009	0,003
-666,276	-200,000	-0,005	-0,039
-665,262	-106,926	-0,101	0,016
-664,247	-103,165	-0,131	0,022
-663,232	295,499	0,035	-0,047
-662,218	800,000	0,026	-0,076
-661,203	-22,224	-0,139	0,061
-660,189	-20,574	-0,033	-0,015
-659,174	428,120	0,069	0,110
-658,159	-68,855	-0,166	-0,047
-657,145	105,691	-0,057	-0,049
-656,130	-34,508	0,038	-0,015
-655,116	-19,700	-0,078	0,035
-654,101	31,504	-0,101	0,063
-653,086	601,683	0,022	0,040
-652,072	-93,680	-0,068	-0,014
-651,057	-184,885	0,019	0,000
-650,043	15,669	-0,107	-0,061
-649,028	-15,899	-0,043	0,020
-648,014	-29,844	0,093	0,039
-646,999	-87,610	-0,135	0,030
-645,984	-28,092	0,036	-0,015
-644,970	-159,520	-0,081	0,003
-643,955	297,662	-0,073	-0,098
-642,941	60,111	-0,043	0,031
-641,926	650,035	0,044	-0,083
-640,911	349,529	-0,017	-0,025
-639,897	-78,765	-0,127	-0,032
-638,882	80,278	0,120	0,094
-637,868	-200,000	0,003	-0,114
-636,853	-200,000	-0,046	-0,178
-635,838	-76,465	0,115	-0,029
-634,824	-200,000	-0,003	-0,048
-633,809	-100,414	0,169	0,030
-632,795	391,787	0,029	-0,045
-631,780	224,617	0,031	-0,037
-630,765	359,884	0,097	0,143
-629,751	-200,000	0,009	-0,036
-628,736	128,527	-0,185	-0,173
-627,722	-200,000	0,007	-0,146
-626,707	-33,604	-0,067	-0,027
-625,692	-39,784	0,083	0,032
-624,678	-200,000	-0,011	-0,133
-623,663	99,384	-0,095	-0,081
-622,649	47,353	-0,139	-0,095
-621,634	174,801	0,053	-0,056
-620,619	151,323	0,047	-0,047
-619,605	51,073	0,114	0,079
-618,590	707,930	-0,086	0,168
-617,576	128,640	0,045	0,042
-616,561	-112,492	0,078	-0,011
-615,546	-83,466	-0,085	-0,020
-614,532	-200,000	-0,026	-0,264
-613,517	300,102	0,039	-0,052
-612,503	-200,000	0,002	-0,026
-611,488	-77,448	-0,068	0,017
-610,474	-17,313	0,119	-0,055
-609,459	642,117	-0,067	0,125
-608,444	-46,615	0,058	-0,021
-607,430	-42,823	-0,030	-0,011
-606,415	168,657	-0,154	-0,160
-605,401	800,000	0,023	-0,047
-604,386	80,593	0,047	0,037
-603,371	-145,449	0,132	0,009
-602,357	-200,000	-0,022	0,167
-601,342	800,000	-0,003	0,009
-600,328	800,000	-0,033	0,077
-599,313	-200,000	-0,009	0,078
-598,298	80,199	0,083	0,065
-597,284	-16,120	0,074	-0,034
-596,269	35,355	-0,032	0,021
-595,255	-200,000	0,037	0,134
-594,240	-109,697	-0,075	-0,011
-593,225	-200,000	0,004	-0,156
-592,211	-200,000	0,033	-0,133
-591,196	124,034	-0,063	0,058
-590,182	51,563	0,038	0,026
-589,167	-139,207	0,096	0,007
-588,152	-39,482	-0,167	0,064
-587,138	190,117	0,065	0,071
-586,123	0,377	-0,093	0,049
-585,109	800,000	0,023	-0,056
-584,094	247,406	0,042	-0,052
-583,079	-200,000	0,006	0,053
-582,065	-200,000	-0,014	0,150
-581,050	462,286	-0,052	0,085
-580,036	44,386	-0,047	-0,031
-579,021	800,000	-0,081	-0,192
-578,006	229,651	0,075	0,090
-576,992	285,764	-0,112	-0,148
-575,977	-200,000	0,033	0,132
-574,963	-106,911	0,025	-0,004
-573,948	800,000	0,006	0,018
-572,934	800,000	0,017	-0,047
-571,919	-200,000	-0,059	-0,213
-570,904	288,557	-0,088	-0,117
-569,890	541,903	-0,029	-0,052
-568,875	-200,000	-0,021	0,144
-567,861	-200,000	0,015	0,074
-566,846	204,329	-0,037	0,042
-565,831	12,398	0,083	0,047
-564,817	562,773	-0,022	-0,039
-563,802	-200,000	-0,007	-0,098
-562,788	-200,000	-0,009	0,079
-561,773	-200,000	-0,047	0,242
-560,758	-181,900	-0,050	0,001
-559,744	800,000	-0,057	0,140
-558,729	-38,932	-0,059	-0,023
-557,715	-16,060	-0,062	0,029
-556,700	235,709	-0,060	-0,073
-555,685	-200,000	-0,011	0,059
-554,671	-12,103	-0,122	0,058
-553,656	800,000	-0,023	-0,058
-552,642	-200,000	0,011	0,112
-551,627	-200,000	0,032	-0,150
-550,612	20,520	-0,081	-0,048
-549,598	110,820	-0,161	-0,141
-548,583	158,808	0,046	0,046
-547,569	-159,590	0,188	0,007
-546,554	800,000	-0,007	0,022
-545,539	169,892	0,065	0,068
-544,525	800,000	-0,005	0,017
-543,510	-19,058	0,052	-0,023
-542,496	-30,787	-0,009	0,004
-541,481	85,867	0,049	-0,039
-540,466	112,360	-0,056	-0,050
-539,452	352,219	0,099	-0,143
-538,437	421,960	0,084	0,132
-537,423	125,873	-0,061	0,056
-536,408	272,609	-0,082	0,106
-535,393	-164,813	-0,135	0,004
-534,379	60,479	0,107	0,077
-533,364	194,748	-0,095	0,105
-532,350	800,000	0,029	0,088
-531,335	27,143	0,093	0,057
-530,321	66,440	0,081	-0,060
-529,306	-147,679	0,063	0,004
-528,291	-117,606	-0,159	0,021
-527,277	-76,303	-0,092	-0,023
-526,262	800,000	-0,041	-0,128
-525,248	361,593	0,033	-0,049
-524,233	-57,131	0,098	0,031
-523,218	83,154	0,069	0,055
-522,204	-200,000	-0,014	0,111
-521,189	-97,646	-0,134	0,025
-520,175	800,000	0,034	0,088
-519,160	111,277	0,096	-0,085
-518,145	-200,000	-0,033	-0,116
-517,131	-40,465	-0,014	0,005
-516,116	-35,946	0,044	0,017
-515,102	-200,000	-0,004	-0,021
-514,087	800,000	-0,021	-0,049
-513,072	409,526	0,026	0,040
-512,058	471,651	0,029	0,048
-511,043	-22,999	0,030	0,013
-510,029	155,094	0,043	0,043
-509,014	-200,000	0,008	-0,034
-507,999	203,652	0,012	0,013
-506,985	-200,000	-0,006	-0,020
-505,970	586,487	0,004	0,008
-504,956	-131,117	-0,127	-0,012
-503,941	166,988	-0,163	-0,168
-502,926	-177,252	0,147	0,003
-501,912	-28,717	-0,098	0,041
-500,897	-200,000	-0,037	0,203
-499,883	800,000	-0,032	0,102
-498,868	800,000	-0,027	0,055
-497,853	212,798	0,014	0,016
-496,839	85,688	-0,074	0,059
-495,824	-26,463	0,078	-0,033
-494,810	73,798	0,070	0,053
-493,795	-19,512	0,049	-0,022
-492,781	-200,000	-0,006	-0,122
-491,766	-116,805	-0,139	0,018
-490,751	-200,000	-0,015	-0,050
-489,737	395,886	-0,034	0,052
-488,722	38,290	0,126	0,081
-487,708	118,425	0,156	0,141
-486,693	-60,026	0,028	0,009
-485,678	39,641	0,036	-0,024
-484,664	55,559	-0,102	-0,072
-483,649	103,209	-0,065	-0,055
-482,635	-117,238	-0,086	-0,011
-481,620	-68,273	0,184	-0,052
-480,605	-61,600	0,127	0,039
-479,591	-64,649	-0,126	-0,037
-478,576	-200,000	-0,035	-0,128
-477,562	761,996	-0,043	-0,085
-476,547	-4,210	-0,030	0,015
-475,532	325,430	0,047	-0,066
-474,518	800,000	0,035	0,084
-473,503	76,949	0,169	0,130
-472,489	-200,000	-0,006	0,075
-471,474	100,034	-0,083	-0,070
-470,459	-57,936	0,085	-0,027
-469,445	800,000	-0,044	-0,108
-468,430	-200,000	-0,012	0,051
-467,416	-111,875	0,151	0,022
-466,401	-38,672	0,098	-0,037
-465,386	-200,000	0,012	-0,143
-464,372	-93,093	0,044	-0,009
-463,357	800,000	-0,040	0,103
-462,343	359,176	0,109	0,159
-461,328	57,244	-0,046	-0,033
-460,313	-73,334	0,026	-0,007
-459,299	-51,589	0,087	-0,029
-458,284	800,000	0,066	-0,136
-457,270	-96,027	-0,103	-0,020
-456,255	-200,000	-0,012	0,056
-455,241	-55,599	0,102	0,033
-454,226	-200,000	0,000	-0,051
-453,211	249,790	0,043	0,053
-452,197	75,107	0,045	-0,034
-451,182	40,286	-0,069	0,045
-450,168	4,123	-0,142	0,075
-449,153	-41,544	-0,047	0,017
-448,138	571,829	-0,046	-0,082
-447,124	-200,000	-0,004	-0,058
-446,109	105,492	-0,054	0,047
-445,095	47,373	0,108	-0,073
-444,080	-200,000	-0,003	-0,026
-443,065	800,000	-0,041	0,125
-442,051	102,844	-0,072	-0,061
-441,036	-200,000	-0,003	-0,025
-440,022	-4,326	0,179	0,090
-439,007	-96,229	0,061	-0,012
-437,992	-120,949	0,128	0,015
-436,978	-93,930	0,116	-0,023
-435,963	208,291	0,050	0,057
-434,949	61,128	-0,082	0,059
-433,934	-52,826	0,026	-0,009
-432,919	-200,000	0,007	0,091
-431,905	19,639	0,073	-0,043
-430,890	132,945	-0,033	0,031
-429,876	456,176	0,046	0,074
-428,861	261,601	0,086	0,108
-427,846	800,000	-0,068	-0,171
-426,832	-163,715	0,046	0,002
-425,817	216,407	-0,115	0,133
-424,803	569,901	0,102	-0,180
-423,788	-200,000	0,045	0,159
-422,773	-137,384	-0,147	-0,012
-421,759	800,000	0,036	-0,080
-420,744	379,919	-0,044	-0,066
-419,730	118,864	-0,143	-0,129
-418,715	-76,404	-0,084	0,021
-417,701	-95,856	0,060	-0,012
-416,686	328,864	0,059	0,083
-415,671	-200,000	0,010	0,069
-414,657	-58,414	-0,049	0,015
-413,642	800,000	-0,049	0,122
-412,628	283,935	0,019	0,025
-411,613	-176,871	-0,012	-0,000
-410,598	-200,000	0,022	-0,103
-409,584	162,045	0,089	0,090
-408,569	202,069	0,029	0,032
-407,555	-200,000	0,012	0,062
-406,540	-200,000	-0,022	0,088
-405,525	68,105	-0,051	-0,038
-404,511	800,000	-0,039	-0,088
-403,496	86,556	0,021	-0,017
-402,482	-200,000	0,006	-0,092
-401,467	39,373	0,027	-0,018
-400,452	-117,361	0,089	0,012
-399,438	-103,860	0,123	-0,021
-398,423	800,000	-0,022	-0,065
-397,409	-200,000	-0,005	0,041
-396,394	-0,427	-0,053	-0,027
-395,379	18,710	0,004	-0,002
-394,365	-200,000	0,018	-0,124
-393,350	117,221	0,084	0,075
-392,336	800,000	-0,072	0,156
-391,321	800,000	-0,047	0,143
-390,306	-54,980	-0,052	0,017
-389,292	-4,904	0,034	0,017
-388,277	-84,101	0,129	-0,030
-387,263	-200,000	0,012	-0,165
-386,248	800,000	-0,029	0,080
-385,233	-187,537	0,069	0,001
-384,219	37,822	-0,067	0,043
-383,204	-137,550	0,019	-0,002
-382,190	348,421	0,055	0,079
-381,175	-20,850	0,103	0,046
-380,160	177,362	0,063	-0,067
-379,146	-33,664	-0,095	-0,038
-378,131	-200,000	0,015	0,061
-377,117	-8,592	0,037	-0,018
-376,102	475,214	0,016	-0,026
-375,088	-89,795	-0,056	-0,012
-374,073	0,297	-0,118	-0,061
-373,058	287,434	0,044	-0,058
-372,044	-12,222	0,095	0,045
-371,029	-200,000	0,038	0,126
-370,015	-42,570	-0,013	-0,005
-369,000	98,297	-0,048	-0,040
-367,985	800,000	-0,038	-0,100
-366,971	298,811	-0,038	0,050
-365,956	-31,401	-0,094	0,038
-364,942	800,000	0,044	0,089
-363,927	-83,620	0,092	0,021
-362,912	677,363	0,036	0,067
-361,898	-88,903	0,104	0,022
-360,883	305,316	-0,082	0,111
-359,869	127,902	0,078	0,072
-358,854	499,923	-0,013	-0,022
-357,839	27,839	0,041	0,025
-356,825	-200,000	-0,014	0,169
-355,810	-200,000	0,014	0,065
-354,796	800,000	-0,033	0,081
-353,781	411,198	-0,071	-0,109
-352,766	-200,000	-0,002	-0,054
-351,752	139,375	-0,078	-0,074
-350,737	-96,001	-0,050	0,010
-349,723	33,850	0,109	-0,069
-348,708	672,408	-0,068	-0,128
-347,693	-200,000	-0,010	-0,121
-346,679	-22,214	-0,097	0,043
-345,664	800,000	-0,019	-0,040
-344,650	-117,615	0,148	0,019
-343,635	-200,000	-0,002	0,065
-342,620	-63,203	0,130	-0,038
-341,606	-200,000	-0,022	0,096
-340,591	-158,049	-0,062	0,003
-339,577	1,255	-0,067	0,034
-338,562	-60,332	0,063	-0,019
-337,548	-50,905	0,081	-0,027
-336,533	22,123	-0,080	0,047
-335,518	14,000	0,051	-0,029
-334,504	139,369	0,166	0,158
-333,489	-200,000	-0,000	-0,007
-332,475	228,973	-0,137	-0,162
-331,460	-4,098	-0,098	0,049
-330,445	290,597	0,110	-0,145
-329,431	506,113	0,057	0,097
-328,416	26,411	0,061	0,037
-327,402	-13,764	-0,030	-0,014
-326,387	-136,782	0,159	-0,013
-325,372	-200,000	0,004	0,030
-324,358	-41,884	-0,009	0,003
-323,343	-200,000	0,013	0,076
-322,329	728,765	-0,102	-0,198
-321,314	-200,000	0,008	-0,091
-320,299	-166,081	0,129	0,004
-319,285	90,692	0,033	-0,026
-318,270	-200,000	-0,010	-0,047
-317,256	66,926	0,114	-0,084
-316,241	-66,337	0,072	-0,021
-315,226	-200,000	0,002	0,072
-314,212	-200,000	0,003	0,049
-313,197	81,117	0,034	0,026
-312,183	-44,068	-0,108	-0,039
-311,168	162,801	-0,025	-0,025
-310,153	-200,000	-0,028	0,115
-309,139	173,699	-0,028	-0,030
-308,124	-80,205	-0,063	0,015
-307,110	80,377	-0,092	0,072
-306,095	240,166	0,080	0,096
-305,080	-99,603	-0,108	0,019
-304,066	800,000	-0,042	-0,093
-303,051	-200,000	-0,024	0,175
-302,037	35,894	-0,079	0,050
-301,022	-200,000	0,003	0,127
-300,008	-200,000	0,020	0,074
-298,993	-200,000	0,011	0,111
-297,978	800,000	-0,037	0,100
-296,964	3,012	-0,104	-0,055
-295,949	14,672	0,087	0,049
-294,935	24,474	-0,147	-0,088
-293,920	-75,158	0,113	0,029
-292,905	139,673	-0,033	0,032
-291,891	116,368	-0,100	-0,089
-290,876	800,000	0,037	0,102
-289,862	800,000	-0,027	-0,079
-288,847	401,502	-0,050	-0,075
-287,832	678,349	0,064	-0,121
-286,818	154,662	-0,149	-0,148
-285,803	-65,611	0,041	0,012
-284,789	562,566	0,101	-0,178
-283,774	263,831	-0,038	-0,048
-282,759	-200,000	0,002	-0,089
-281,745	255,621	-0,012	-0,015
-280,730	-0,890	-0,068	-0,035
-279,716	-200,000	-0,000	-0,014
-278,701	625,375	0,040	0,073
-277,686	59,367	0,055	0,039
-276,672	120,408	0,005	0,004
-275,657	-86,434	-0,130	0,029
-274,643	86,832	0,095	-0,076
-273,628	-200,000	0,003	0,023
-272,613	-63,629	-0,095	0,028
-271,599	31,870	-0,064	0,040
-270,584	26,903	-0,030	-0,018
-269,570	-152,511	0,125	-0,006
-268,555	-14,294	0,085	-0,039
-267,540	-8,709	-0,062	-0,030
-266,526	190,261	-0,070	0,076
-265,511	52,105	-0,102	-0,070
-264,497	800,000	-0,024	0,050
-263,482	122,648	0,077	0,070
-262,467	-99,974	0,157	0,028
-261,453	-200,000	-0,000	-0,033
-260,438	-200,000	0,027	0,101
-259,424	-191,700	-0,186	-0,001
-258,409	135,057	-0,041	0,039
-257,395	767,559	0,049	-0,096
-256,380	-200,000	0,001	-0,024
-255,365	6,313	0,052	0,028
-254,351	-189,357	0,135	0,001
-253,336	-200,000	0,001	0,082
-252,322	800,000	0,012	0,028
-251,307	-39,805	-0,110	0,041
-250,292	-14,082	0,160	0,074
-249,278	-200,000	0,028	0,111
-248,263	87,927	-0,116	0,092
-247,249	-76,934	-0,044	0,011
-246,234	-186,946	0,170	0,002
-245,219	800,000	0,001	0,002
-244,205	-200,000	0,010	0,054
-243,190	-200,000	-0,009	0,180
-242,176	171,041	0,075	0,077
-241,161	-200,000	-0,001	-0,129
-240,146	-29,124	-0,104	0,043
-239,132	-200,000	0,021	0,094
-238,117	123,908	-0,061	-0,055
-237,103	800,000	-0,004	0,012
-236,088	472,252	-0,057	-0,093
-235,073	-200,000	-0,016	0,168
-234,059	800,000	0,083	0,186
-233,044	435,760	-0,071	0,112
-232,030	228,817	-0,051	0,060
-231,015	-200,000	-0,007	-0,123
-230,000	278,613	0,080	-0,103
-228,986	416,872	0,036	0,056
-227,971	11,933	0,060	-0,033
-226,957	-200,000	-0,006	0,022
-225,942	8,391	0,057	0,031
-224,927	-200,000	-0,001	0,028
-223,913	800,000	-0,046	-0,101
-222,898	78,621	0,040	0,031
-221,884	139,936	0,064	-0,061
-220,869	90,908	-0,030	-0,024
-219,855	-200,000	0,010	-0,046
-218,840	311,452	0,117	0,158
-217,825	34,481	-0,086	0,054
-216,811	800,000	-0,022	-0,069
-215,796	-70,693	-0,042	0,011
-214,782	-200,000	-0,018	0,067
-213,767	-200,000	0,038	-0,133
-212,752	-200,000	0,039	-0,152
-211,738	68,924	-0,116	-0,085
-210,723	580,667	-0,029	0,052
-209,709	-119,748	-0,102	-0,012
-208,694	800,000	0,036	-0,097
-207,679	450,437	-0,066	0,105
-206,665	-156,672	-0,025	-0,001
-205,650	17,803	0,020	-0,011
-204,636	-59,711	0,060	-0,018
-203,621	-73,928	0,160	-0,042
-202,606	43,211	-0,149	-0,098
-201,592	-10,962	-0,093	0,044
-200,577	-143,012	-0,157	-0,011
-199,563	-93,315	0,006	0,001
-198,548	361,738	0,072	-0,104
-197,533	-200,000	0,025	-0,106
-196,519	463,761	-0,116	-0,188
-195,504	-134,890	-0,056	-0,005
-194,490	-200,000	-0,020	-0,192
-193,475	139,147	-0,105	-0,099
-192,460	-200,000	-0,020	-0,090
-191,446	624,482	-0,021	0,038
-190,431	39,007	0,136	-0,087
-189,417	29,747	0,135	0,083
-188,402	-19,572	-0,125	-0,055
-187,387	29,852	-0,105	-0,064
-186,373	-8,125	-0,054	-0,026
-185,358	-200,000	-0,001	-0,028
-184,344	154,662	0,032	0,032
-183,329	-200,000	0,012	0,045
-182,315	-12,863	0,056	-0,026
-181,300	-39,558	-0,062	0,023
-180,285	215,419	0,164	-0,187
-179,271	742,425	-0,033	0,065
-178,256	800,000	0,012	0,026
-177,242	429,520	0,051	-0,079
-176,227	-200,000	0,008	-0,052
-175,212	-200,000	-0,011	-0,099
-174,198	777,706	-0,051	-0,100
-173,183	595,981	-0,032	-0,057
-172,169	-134,971	0,078	-0,007
-171,154	-64,041	-0,056	0,016
-170,139	92,576	0,063	0,051
-169,125	0,998	-0,049	0,025
-168,110	800,000	-0,038	0,118
-167,096	428,940	-0,097	0,151
-166,081	-51,373	-0,073	-0,024
-165,066	-200,000	-0,001	-0,008
-164,052	-81,464	0,086	-0,020
-163,037	-200,000	-0,023	-0,089
-162,023	-200,000	0,003	-0,046
-161,008	-200,000	-0,002	0,076
-159,993	-123,389	-0,031	0,003
-158,979	153,741	0,064	-0,063
-157,964	-34,372	-0,093	-0,036
-156,950	64,358	0,058	0,042
-155,935	-111,872	0,095	0,014
-154,920	-104,971	-0,097	0,016
-153,906	-114,828	-0,064	-0,009
-152,891	-82,128	0,135	0,031
-151,877	800,000	-0,066	-0,148
-150,862	682,536	0,050	-0,094
-149,847	70,947	0,025	-0,019
-148,833	54,751	0,105	-0,073
-147,818	60,124	-0,080	0,057
-146,804	80,402	-0,080	0,062
-145,789	-109,736	0,061	-0,009
-144,775	800,000	0,024	-0,061
-143,760	-95,621	0,088	0,017
-142,745	-200,000	0,013	-0,094
-141,731	800,000	0,007	0,017
-140,716	647,585	0,037	0,069
-139,702	-2,224	0,124	-0,063
-138,687	96,515	-0,117	0,096
-137,672	-75,298	0,067	0,017
-136,658	-61,345	0,046	-0,014
-135,643	-103,507	0,031	0,005
-134,629	800,000	0,027	0,067
-133,614	260,152	-0,042	0,052
-132,599	-200,000	-0,024	0,127
-131,585	-200,000	-0,005	0,040
-130,570	800,000	0,028	0,065
-129,556	-200,000	-0,034	-0,124
-128,541	367,539	-0,121	-0,176
-127,526	625,288	-0,043	0,079
-126,512	412,482	0,046	0,071
-125,497	-200,000	-0,029	0,156
-124,483	-83,434	0,036	-0,008
-123,468	57,202	0,048	0,033
-122,453	800,000	-0,036	-0,091
-121,439	25,611	-0,099	-0,059
-120,424	103,816	0,040	-0,034
-119,410	-73,048	0,083	-0,022
-118,395	-53,206	0,113	0,037
-117,380	186,956	-0,084	-0,090
-116,366	44,341	-0,044	-0,029
-115,351	444,352	0,053	-0,083
-114,337	261,188	0,051	-0,064
-113,322	-200,000	-0,001	-0,041
-112,307	104,277	0,046	0,038
-111,293	-158,941	0,130	0,005
-110,278	-49,323	-0,110	-0,037
-109,264	-200,000	0,007	-0,094
-108,249	-60,097	0,104	0,032
-107,234	-200,000	-0,009	-0,148
-106,220	227,109	0,056	-0,066
-105,205	-29,501	0,025	0,010
-104,191	-200,000	0,006	0,105
-103,176	44,664	-0,033	0,022
-102,162	85,724	-0,164	-0,129
-101,147	325,395	0,025	0,034
-100,132	800,000	0,048	-0,151
-99,118	800,000	-0,033	-0,066
-98,103	68,621	-0,091	0,067
-97,089	775,400	0,041	-0,081
-96,074	-63,201	-0,095	0,028
-95,059	-200,000	0,029	0,110
-94,045	11,250	-0,036	-0,020
-93,030	148,128	-0,050	-0,049
-92,016	-9,055	-0,145	-0,069
-91,001	-8,636	-0,026	-0,013
-89,986	-200,000	-0,023	0,079
-88,972	-200,000	-0,025	0,084
-87,957	-200,000	-0,005	-0,051
-86,943	786,354	0,029	0,057
-85,928	-67,756	0,064	0,018
-84,913	-106,639	-0,027	-0,004
-83,899	-200,000	-0,016	-0,091
-82,884	84,943	0,062	-0,049
-81,870	365,874	0,027	-0,040
-80,855	-99,339	0,017	-0,003
-79,840	-170,714	-0,052	-0,001
-78,826	800,000	0,042	-0,115
-77,811	51,277	-0,166	0,113
-76,797	-22,611	-0,093	-0,040
-75,782	800,000	-0,017	-0,043
-74,767	335,479	0,085	-0,118
-73,753	800,000	-0,047	0,096
-72,738	-15,674	0,026	-0,012
-71,724	-200,000	-0,014	-0,060
-70,709	446,473	-0,049	-0,078
-69,694	-200,000	0,004	0,065
-68,680	263,231	0,040	-0,050
-67,665	406,999	0,034	0,051
-66,651	-191,572	-0,108	-0,001
-65,636	-113,531	0,036	0,005
-64,622	-100,507	0,067	0,012
-63,607	283,821	-0,042	-0,054
-62,592	43,790	0,127	-0,083
-61,578	-115,464	0,062	0,008
-60,563	800,000	0,045	-0,107
-59,549	-98,642	-0,182	0,033
-58,534	49,728	-2,226	-1,500
-57,519	-200,000	-0,071	-0,631
-56,505	-200,000	-1,476	-5,238
-55,490	76,706	0,957	0,726
-54,476	800,000	5,438	12,134
-53,461	-200,000	18,743	319,109
-52,446	800,000	741,219	2324,215
-51,432	549,993	1654,583	2851,961
-50,417	109,966	1637,641	1406,557
-49,403	73,575	1287,999	964,813
-48,388	29,571	1029,660	625,626
-47,373	19,619	992,588	570,203
-46,359	16,980	980,115	554,349
-45,344	13,593	976,426	541,131
-44,330	13,905	974,810	541,239
-43,315	13,283	972,875	538,107
-42,300	13,175	971,963	537,227
-41,286	13,196	971,134	536,816
-40,271	13,216	970,073	536,274
-39,257	13,268	968,976	535,815
-38,242	13,161	968,476	535,169
-37,227	13,224	967,459	534,792
-36,213	13,229	966,501	534,258
-35,198	13,158	965,729	533,579
-34,184	13,272	964,939	533,490
-33,169	13,237	963,927	532,795
-32,154	13,225	962,990	532,217
-31,140	13,212	962,130	531,680
-30,125	13,233	961,300	531,268
-29,111	13,182	960,613	530,701
-28,096	13,200	960,024	530,414
-27,082	13,249	959,336	530,169
-26,067	13,271	958,432	529,721
-25,052	13,229	957,743	529,185
-24,038	13,214	957,180	528,805
-23,023	13,220	956,404	528,373
-22,009	13,257	955,637	528,048
-20,994	13,199	955,265	527,633
-19,979	13,273	954,508	527,433
-18,965	13,250	954,073	527,098
-17,950	13,211	953,362	526,558
-16,936	13,187	952,740	526,117
-15,921	13,197	952,155	525,805
-14,906	13,133	951,363	525,142
-13,892	13,095	950,814	524,696
-12,877	13,121	949,963	524,290
-11,863	13,071	949,399	523,798
-10,848	13,123	948,794	523,609
-9,833	13,262	948,152	523,676
-8,819	13,148	947,635	523,008
-7,804	13,130	947,075	522,621
-6,790	13,082	946,535	522,148
-5,775	13,100	946,015	521,899
-4,760	13,104	945,390	521,546
-3,746	13,126	944,701	521,214
-2,731	12,981	944,024	520,362
-1,717	12,940	943,249	519,785
-0,702	12,956	942,538	519,423
0,313	12,815	941,899	519,407
1,327	16,199	939,690	528,830
2,342	25,318	790,442	468,871
3,356	21,242	445,339	258,094
4,371	-7,981	298,251	143,376
5,386	-11,725	280,076	131,045
6,400	-12,950	274,254	127,161
7,415	-13,030	272,034	126,046
8,429	-13,346	270,645	125,099
9,444	-13,426	269,512	124,491
10,459	-13,400	268,944	124,241
11,473	-13,473	268,304	123,867
12,488	-13,334	267,711	123,710
13,502	-13,633	267,051	123,121
14,517	-13,441	266,789	123,165
15,531	-13,398	266,256	122,946
16,546	-13,396	265,996	122,818
17,561	-13,440	265,610	122,588
18,575	-13,104	265,168	122,677
19,590	-13,293	264,832	122,340
20,604	-13,349	264,548	122,147
21,619	-13,525	264,366	121,893
22,634	-13,280	263,915	121,896
23,648	-13,360	263,508	121,625
24,663	-13,392	263,421	121,545
25,677	-13,250	263,016	121,475
26,692	-13,452	262,597	121,090
27,707	-13,468	262,435	120,990
28,721	-13,325	262,099	120,952
29,736	-13,331	261,892	120,840
30,750	-13,436	261,653	120,625
31,765	-13,445	261,450	120,513
32,780	-13,573	261,281	120,310
33,794	-13,389	260,975	120,322
34,809	-13,643	260,693	119,955
35,823	-13,411	260,350	119,993
36,838	-13,577	260,182	119,758
37,853	-13,552	259,970	119,672
38,867	-13,605	259,669	119,475
39,882	-13,395	259,352	119,505
40,896	-13,567	259,201	119,273
41,911	-13,563	259,062	119,202
42,926	-13,674	258,727	118,939
43,940	-13,610	258,451	118,857
44,955	-13,598	258,278	118,778
45,969	-13,823	258,148	118,509
46,984	-14,020	257,750	118,143
47,999	-14,215	257,510	117,852
49,013	-14,175	257,251	117,757
50,028	-14,254	256,966	117,548
51,042	-14,418	256,663	117,256
52,057	-14,436	256,472	117,142
53,071	-14,488	256,338	117,025
54,086	-14,231	256,166	117,160
55,101	-14,211	256,043	117,111
56,115	-13,784	255,873	117,395
57,130	-13,157	255,732	117,865
58,144	-13,198	255,457	117,692
59,159	-13,257	255,346	117,579
60,174	-13,367	255,104	117,362
61,188	-13,392	254,976	117,271
62,203	-13,305	254,735	117,225
63,217	-13,392	254,358	116,966
64,232	-13,270	254,150	116,965
65,247	-13,336	253,867	116,768
66,261	-13,379	253,646	116,618
67,276	-13,542	253,427	116,367
68,290	-13,968	253,261	115,914
69,305	-13,966	253,080	115,822
70,320	-13,949	252,865	115,728
71,334	-13,302	252,450	116,082
72,349	-13,213	252,389	116,121
73,363	-13,102	252,253	116,143
74,378	-13,128	251,861	115,930
75,393	-13,518	251,804	115,559
76,407	-13,384	251,567	115,555
77,422	-13,480	251,425	115,397
78,436	-13,502	251,232	115,280
79,451	-13,398	250,978	115,242
80,466	-13,585	250,734	114,960
81,480	-13,622	250,416	114,773
82,495	-13,664	250,127	114,595
83,509	-13,654	250,293	114,668
84,524	-13,613	249,914	114,520
85,539	-13,939	249,590	114,085
86,553	-13,868	249,331	114,016
87,568	-13,624	249,366	114,229
88,582	-13,818	249,038	113,905
89,597	-13,867	248,968	113,821
90,611	-13,504	248,860	114,068
91,626	-13,549	248,632	113,914
92,641	-13,522	248,375	113,810
93,655	-13,368	248,209	113,853
94,670	-13,538	247,901	113,559
95,684	-13,558	247,774	113,474
96,699	-13,599	247,563	113,332
97,714	-13,759	247,357	113,094
98,728	-13,871	247,139	112,891
99,743	-13,687	246,981	112,962
100,757	-13,616	246,636	112,854
101,772	-13,718	246,431	112,664
102,787	-13,664	246,358	112,666
103,801	-13,831	246,410	112,541
104,816	-13,728	246,141	112,493
105,830	-13,353	245,985	112,725
106,845	-13,249	245,697	112,669
107,860	-13,324	245,646	112,574
108,874	-13,633	245,266	112,133
109,889	-13,692	245,169	112,029
110,903	-13,659	244,969	111,955
111,918	-13,628	244,682	111,840
112,933	-13,692	244,627	111,752
113,947	-13,478	244,353	111,794
114,962	-13,644	244,294	111,619
115,976	-13,568	244,126	111,595
116,991	-13,548	243,738	111,424
118,006	-13,542	243,831	111,462
119,020	-13,584	243,696	111,356
120,035	-13,574	243,480	111,255
121,049	-13,365	243,302	111,336
122,064	-13,321	243,061	111,252
123,079	-13,374	242,771	111,066
124,093	-13,827	242,718	110,660
125,108	-13,867	242,444	110,492
126,122	-13,931	242,168	110,304
127,137	-13,956	241,948	110,174
128,151	-14,030	241,651	109,969
129,166	-13,691	241,684	110,251
130,181	-13,947	241,429	109,915
131,195	-13,820	241,139	109,877
132,210	-13,818	241,143	109,870
133,224	-13,717	241,032	109,892
134,239	-13,632	240,832	109,861
135,254	-13,718	240,711	109,726
136,268	-13,885	240,370	109,425
137,283	-13,721	240,032	109,395
138,297	-13,924	239,841	109,133
139,312	-13,902	239,783	109,115
140,327	-13,753	239,617	109,150
141,341	-13,303	239,662	109,525
142,356	-13,248	239,464	109,469
143,370	-13,228	239,202	109,356
144,385	-13,275	239,103	109,263
145,400	-13,175	238,877	109,230
146,414	-13,333	238,666	108,997
147,429	-13,441	238,629	108,884
148,443	-13,212	238,338	108,926
149,458	-13,129	238,107	108,877
150,473	-13,505	237,989	108,511
151,487	-13,251	237,793	108,616
152,502	-13,282	237,875	108,619
153,516	-13,151	237,535	108,558
154,531	-13,417	237,454	108,299
155,546	-13,341	237,109	108,193
156,560	-13,385	236,925	108,064
157,575	-13,437	236,733	107,925
158,589	-13,361	236,535	107,886
159,604	-13,064	236,481	108,089
160,619	-13,167	236,260	107,896
161,633	-13,335	236,260	107,752
162,648	-13,187	236,071	107,775
163,662	-13,052	235,680	107,694
164,677	-13,470	235,693	107,358
165,692	-13,189	235,564	107,513
166,706	-13,201	235,551	107,487
167,721	-13,062	235,212	107,434
168,735	-13,050	235,108	107,386
169,750	-12,980	234,843	107,311
170,764	-13,206	234,803	107,104
171,779	-13,273	234,670	106,981
172,794	-12,992	234,459	107,097
173,808	-13,409	234,225	106,652
174,823	-13,694	233,803	106,226
175,837	-13,813	233,705	106,078
176,852	-13,217	233,638	106,507
177,867	-13,337	233,727	106,443
178,881	-13,152	233,466	106,460
179,896	-12,972	233,386	106,557
180,910	-13,023	233,138	106,394
181,925	-13,125	233,057	106,267
182,940	-13,142	232,840	106,145
183,954	-13,148	232,789	106,108
184,969	-12,916	232,566	106,179
185,983	-12,950	232,507	106,116
186,998	-12,976	232,290	105,986
188,013	-12,951	232,097	105,908
189,027	-12,965	231,909	105,802
190,042	-13,124	231,785	105,612
191,056	-13,075	231,536	105,528
192,071	-13,216	231,492	105,388
193,086	-13,099	231,242	105,356
194,100	-12,875	231,005	105,413
195,115	-13,355	230,546	104,822
196,129	-13,308	230,784	104,957
197,144	-7,914	232,545	109,962
198,159	-2,533	234,121	114,918
199,173	1,683	235,466	118,885
200,188	2,829	235,621	119,854
201,202	2,903	235,285	119,730
202,217	2,824	235,201	119,614
203,232	3,029	235,166	119,747
204,246	2,894	234,980	119,536
205,261	3,147	234,880	119,672
206,275	3,271	234,700	119,667
207,290	3,183	234,628	119,550
208,304	3,184	234,499	119,475
209,319	3,202	234,406	119,431
210,334	3,047	234,061	119,124
211,348	2,681	233,886	118,739
212,363	2,654	233,469	118,495
213,377	2,231	233,320	118,081
214,392	2,412	233,216	118,159
215,407	2,450	233,196	118,167
216,421	2,668	233,015	118,234
217,436	2,495	232,634	117,896
218,450	2,333	232,440	117,662
219,465	2,238	232,270	117,491
220,480	2,136	232,406	117,472
221,494	2,055	232,165	117,276
222,509	2,425	232,096	117,517
223,523	2,540	231,903	117,497
224,538	2,302	231,787	117,244
225,553	2,474	231,562	117,253
226,567	2,738	231,399	117,363
227,582	2,631	231,393	117,267
228,596	2,860	231,189	117,330
229,611	2,480	230,996	116,929
230,626	2,190	230,717	116,555
231,640	2,189	230,604	116,487
232,655	2,483	230,537	116,667
233,669	2,776	230,529	116,878
234,684	2,833	230,385	116,838
235,699	2,875	230,275	116,804
236,713	2,584	229,932	116,397
237,728	2,372	229,705	116,110
238,742	2,367	229,449	115,967
239,757	2,458	229,469	116,036
240,772	2,397	229,351	115,919
241,786	2,257	229,145	115,698
242,801	2,468	228,971	115,760
243,815	2,921	229,004	116,112
244,830	2,676	228,772	115,797
245,844	2,505	228,678	115,610
246,859	2,385	228,508	115,423
247,874	2,627	228,389	115,535
248,888	2,576	228,270	115,427
249,903	2,716	228,012	115,392
250,917	2,639	227,766	115,199
251,932	2,632	227,523	115,060
252,947	2,379	227,506	114,850
253,961	2,410	227,231	114,724
254,976	2,386	227,222	114,692
255,990	2,693	227,091	114,846
257,005	2,643	227,025	114,765
258,020	2,663	226,815	114,663
259,034	2,665	226,751	114,622
260,049	2,687	226,682	114,594
261,063	2,657	226,463	114,451
262,078	2,926	226,184	114,501
263,093	2,896	226,143	114,448
264,107	2,792	226,081	114,328
265,122	2,883	225,983	114,336
266,136	2,875	225,987	114,322
267,151	2,946	225,673	114,207
268,166	2,462	225,444	113,719
269,180	2,351	225,171	113,488
270,195	2,388	224,989	113,414
271,209	2,295	224,848	113,263
272,224	2,404	224,756	113,288
273,239	2,717	224,618	113,441
274,253	2,586	224,451	113,249
275,268	2,211	224,235	112,852
276,282	2,332	224,044	112,835
277,297	2,413	223,789	112,757
278,312	2,588	223,834	112,900
279,326	2,689	223,657	112,875
280,341	2,453	223,712	112,718
281,355	2,521	223,605	112,705
282,370	2,467	223,473	112,587
283,384	2,496	222,991	112,356
284,399	2,165	222,933	112,072
285,414	2,356	222,762	112,118
286,428	2,436	222,679	112,125
287,443	2,718	222,543	112,254
288,457	2,895	222,399	112,301
289,472	2,369	222,233	111,821
290,487	1,998	221,883	111,362
291,501	2,160	221,961	111,510
292,516	2,175	221,709	111,385
293,530	2,058	221,552	111,210
294,545	2,047	221,491	111,162
295,560	2,281	221,402	111,279
296,574	2,532	221,309	111,405
297,589	2,321	221,084	111,128
298,603	2,366	221,075	111,147
299,618	2,596	220,790	111,161
300,633	2,443	220,779	111,034
301,647	2,687	220,741	111,183
302,662	2,780	220,569	111,154
303,676	2,589	220,427	110,934
304,691	2,712	220,166	110,882
305,706	2,769	220,188	110,925
306,720	2,695	219,883	110,707
307,735	2,713	219,701	110,619
308,749	2,428	219,714	110,409
309,764	2,712	219,408	110,451
310,779	2,703	219,455	110,458
311,793	2,831	219,093	110,359
312,808	2,469	219,149	110,116
313,822	2,770	218,763	110,129
314,837	2,396	218,810	109,873
315,852	1,960	218,672	109,479
316,866	2,394	218,551	109,721
317,881	2,676	218,391	109,835
318,895	2,672	218,104	109,678
319,910	2,235	217,987	109,295
320,925	2,244	217,700	109,148
321,939	1,922	217,612	108,862
322,954	2,012	217,743	108,983
323,968	2,618	217,542	109,307
324,983	2,948	217,399	109,463
325,997	2,760	217,275	109,255
327,012	2,508	217,060	108,958
328,027	2,457	217,065	108,914
329,041	2,962	217,002	109,234
330,056	3,046	216,792	109,178
331,070	2,539	216,450	108,635
332,085	2,370	216,288	108,423
333,100	2,419	216,346	108,477
334,114	2,767	216,031	108,557
335,129	2,563	216,053	108,413
336,143	2,324	215,882	108,148
337,158	2,316	215,711	108,048
338,173	2,442	215,443	107,993
339,187	2,338	215,385	107,880
340,202	2,401	215,343	107,894
341,216	2,595	215,278	107,989
342,231	2,648	215,116	107,937
343,246	2,491	214,912	107,713
344,260	2,653	214,793	107,758
345,275	2,569	214,778	107,682
346,289	2,895	214,402	107,714
347,304	2,766	214,354	107,589
348,319	2,784	214,227	107,529
349,333	2,448	214,017	107,177
350,348	2,500	214,094	107,243
351,362	2,806	213,969	107,385
352,377	2,749	213,771	107,237
353,392	2,816	213,526	107,151
354,406	2,686	213,418	106,996
355,421	198,123	1314,550	1395,772
356,435	158,553	1448,652	1395,715
