DTS Sentinel unit serial number:	SN410029Multiplexer serial number:	ORYXHardware model number:	OX2-SRSoftware version number:	ORYX F/W v4,00 Oryx Data Collector v3.7.2.0data status	okinstallation	B6 Nyhavnadifferential loss correction	single-endedforward channel	channel 2reverse channel	N/Adate	2023/12/10time	09:55:08forward acquisition time	300,00reverse acquisition time	0,00gamma	499,1914k internal	0,3123k external	0,3123temperature offset calibration	1,0000default loss term (dB/km)	0,3820temperature slope calibration	1,0000multiplexer offset coefficient	1,0000multiplexer slope coefficient	1,0000fibre end	0,00T internal ref (°C)	22,56T ext. ref 1 (°C)	6,36T ext. ref 2 (°C)	6,35length (m)	temperature (°C)	Stokes	anti-Stokes-744,400	800,000	-0,047	-0,143
-743,385	91,544	-0,221	0,185
-742,371	-120,570	0,072	-0,009
-741,356	103,662	-0,195	0,170
-740,342	371,412	0,120	0,182
-739,327	190,254	-0,220	0,246
-738,312	800,000	-0,034	-0,077
-737,298	-139,472	-0,345	0,027
-736,283	-14,490	0,037	-0,018
-735,269	164,957	-0,205	0,216
-734,254	214,879	-0,013	0,016
-733,239	-42,408	-0,454	-0,172
-732,225	-179,789	0,098	0,002
-731,210	-18,577	-0,044	0,020
-730,196	659,951	-0,048	0,093
-729,181	-71,411	-0,176	0,049
-728,167	-200,000	-0,011	0,088
-727,152	800,000	-0,054	0,159
-726,137	119,546	-0,056	-0,052
-725,123	-200,000	0,002	-0,131
-724,108	-78,900	-0,128	-0,032
-723,094	-200,000	0,018	-0,062
-722,079	201,911	-0,068	0,078
-721,064	274,230	0,081	-0,107
-720,050	640,615	-0,025	0,048
-719,035	-200,000	-0,022	-0,114
-718,021	5,979	-0,103	0,057
-717,006	450,866	-0,081	-0,133
-715,991	62,523	0,032	-0,024
-714,977	361,134	-0,078	-0,117
-713,962	-118,489	0,011	0,001
-712,948	-45,887	-0,058	-0,021
-711,933	-200,000	0,003	0,054
-710,918	-200,000	-0,007	0,105
-709,904	16,891	-0,073	-0,043
-708,889	-0,310	0,083	-0,044
-707,875	2,408	-0,070	-0,037
-706,860	-70,400	-0,110	-0,031
-705,845	92,055	-0,011	0,009
-704,831	-26,597	0,070	0,031
-703,816	5,886	-0,110	0,060
-702,802	104,308	0,053	0,047
-701,787	-200,000	-0,030	-0,159
-700,772	-67,243	0,104	0,030
-699,758	-200,000	0,020	0,108
-698,743	-200,000	0,009	0,084
-697,729	-62,496	-0,016	-0,005
-696,714	-200,000	0,011	0,079
-695,699	61,681	-0,129	0,096
-694,685	-200,000	0,049	0,197
-693,670	16,403	-0,095	0,055
-692,656	-200,000	-0,001	0,021
-691,641	18,460	0,144	0,085
-690,627	309,245	-0,034	-0,047
-689,612	140,506	-0,122	0,120
-688,597	800,000	-0,026	0,054
-687,583	-200,000	-0,001	-0,058
-686,568	-86,424	-0,060	0,014
-685,554	-104,372	-0,093	0,016
-684,539	-200,000	-0,030	-0,113
-683,524	162,985	0,028	-0,029
-682,510	-67,235	-0,129	0,037
-681,495	38,955	-0,100	-0,066
-680,481	800,000	-0,027	0,062
-679,466	800,000	-0,019	0,041
-678,451	-200,000	-0,019	-0,087
-677,437	-52,845	0,081	-0,028
-676,422	-74,677	0,082	-0,022
-675,408	800,000	-0,018	-0,051
-674,393	-200,000	-0,001	-0,048
-673,378	38,657	-0,096	0,064
-672,364	-200,000	-0,002	0,058
-671,349	-200,000	-0,011	0,169
-670,335	90,413	-0,104	0,086
-669,320	-200,000	-0,030	-0,120
-668,305	334,446	-0,060	0,087
-667,291	-84,038	0,052	0,012
-666,276	313,391	-0,041	0,058
-665,262	664,745	0,023	-0,044
-664,247	312,495	-0,062	-0,087
-663,232	420,551	0,050	0,080
-662,218	-67,542	0,103	-0,030
-661,203	800,000	-0,105	0,219
-660,189	140,348	0,065	0,063
-659,174	-58,291	-0,040	-0,013
-658,159	118,958	-0,144	-0,132
-657,145	400,359	0,039	-0,062
-656,130	313,180	-0,104	-0,146
-655,116	258,346	-0,106	-0,136
-654,101	-154,928	-0,199	-0,010
-653,086	95,618	0,082	-0,070
-652,072	-200,000	-0,012	-0,077
-651,057	129,198	-0,010	0,009
-650,043	126,099	0,110	-0,103
-649,028	171,618	0,036	-0,039
-648,014	195,121	-0,071	0,080
-646,999	-18,748	-0,071	-0,033
-645,984	-200,000	0,036	-0,148
-644,970	-60,627	-0,056	0,017
-643,955	800,000	0,034	-0,070
-642,941	151,805	0,098	-0,100
-641,926	321,093	0,050	0,071
-640,911	-200,000	-0,004	-0,050
-639,897	800,000	-0,043	-0,122
-638,882	-117,151	-0,134	-0,018
-637,868	53,087	-0,035	0,025
-636,853	71,219	-0,046	-0,035
-635,838	800,000	0,018	-0,039
-634,824	-200,000	0,003	-0,123
-633,809	-143,797	0,111	0,008
-632,795	575,227	-0,052	0,094
-631,780	-200,000	-0,005	0,156
-630,765	-200,000	-0,016	0,126
-629,751	-67,261	-0,028	0,008
-628,736	-200,000	0,025	-0,191
-627,722	-90,472	0,044	-0,009
-626,707	79,837	0,086	-0,068
-625,692	-51,475	-0,035	-0,012
-624,678	156,071	0,131	0,134
-623,663	32,042	-0,057	0,036
-622,649	-59,149	-0,106	0,034
-621,634	-127,081	-0,058	-0,006
-620,619	-67,019	-0,111	0,032
-619,605	81,165	0,116	-0,093
-618,590	149,608	-0,044	0,044
-617,576	787,011	-0,055	0,113
-616,561	120,811	-0,041	0,038
-615,546	-17,672	-0,089	0,041
-614,532	-88,065	-0,141	-0,031
-613,517	-200,000	0,011	-0,171
-612,503	141,742	-0,032	-0,032
-611,488	-200,000	0,024	0,175
-610,474	-49,697	0,065	-0,023
-609,459	800,000	-0,055	0,160
-608,444	-84,678	0,009	0,002
-607,430	116,094	0,092	-0,084
-606,415	-55,263	0,128	0,042
-605,401	-24,554	-0,063	0,028
-604,386	-200,000	0,018	0,093
-603,371	-164,703	-0,108	-0,004
-602,357	-29,223	0,038	0,016
-601,342	-200,000	-0,036	-0,121
-600,328	-200,000	0,014	-0,076
-599,313	244,077	0,075	0,094
-598,298	263,241	0,081	0,104
-597,284	103,518	-0,098	-0,085
-596,269	-19,548	0,116	0,053
-595,255	-200,000	-0,015	-0,081
-594,240	516,448	-0,023	0,040
-593,225	-107,535	-0,085	-0,014
-592,211	-200,000	-0,023	-0,095
-591,196	13,112	0,069	0,040
-590,182	213,608	0,041	0,048
-589,167	23,133	0,099	0,060
-588,152	100,908	-0,055	0,047
-587,138	470,270	-0,080	0,133
-586,123	-53,328	0,061	-0,020
-585,109	-200,000	-0,005	0,054
-584,094	800,000	-0,050	-0,133
-583,079	96,233	0,037	-0,031
-582,065	671,781	0,044	-0,086
-581,050	294,712	-0,083	-0,112
-580,036	-112,269	0,054	0,008
-579,021	-69,851	-0,101	0,028
-578,006	-47,151	-0,129	-0,046
-576,992	689,146	0,048	0,094
-575,977	210,649	-0,040	0,047
-574,963	-200,000	-0,020	0,101
-573,948	-10,074	-0,101	-0,050
-572,934	-200,000	0,001	0,026
-571,919	800,000	-0,029	-0,080
-570,904	-23,391	-0,046	-0,020
-569,890	-200,000	0,003	0,083
-568,875	-200,000	-0,001	0,013
-567,861	-200,000	0,035	-0,137
-566,846	73,665	0,078	0,060
-565,831	800,000	0,059	-0,159
-564,817	-41,032	-0,062	-0,024
-563,802	-13,233	-0,099	0,047
-562,788	800,000	-0,065	-0,189
-561,773	-150,622	0,112	-0,006
-560,758	-200,000	0,014	0,051
-559,744	566,145	0,020	0,037
-558,729	223,276	0,015	0,018
-557,715	129,506	-0,107	0,101
-556,700	-200,000	-0,113	0,000
-555,685	62,958	-0,067	0,049
-554,671	203,703	-0,044	-0,051
-553,656	394,227	0,058	0,090
-552,642	142,272	0,033	0,032
-551,627	6,105	0,098	0,054
-550,612	-107,910	-0,096	0,015
-549,598	-200,000	0,001	-0,096
-548,583	61,547	0,056	0,041
-547,569	-200,000	-0,004	-0,015
-546,554	132,805	-0,034	0,033
-545,539	-200,000	0,000	-0,076
-544,525	800,000	0,016	0,050
-543,510	-14,484	-0,063	-0,030
-542,496	800,000	0,021	0,046
-541,481	-43,705	-0,144	0,053
-540,466	497,616	0,058	-0,100
-539,452	-146,323	0,058	0,004
-538,437	752,904	0,042	-0,085
-537,423	-200,000	0,007	0,032
-536,408	154,455	-0,029	-0,030
-535,393	228,735	-0,085	0,103
-534,379	-80,994	-0,077	0,019
-533,364	142,899	-0,026	-0,026
-532,350	-200,000	0,185	0,000
-531,335	-200,000	0,030	0,099
-530,321	762,654	-0,041	0,083
-529,306	-200,000	0,003	-0,127
-528,291	-200,000	-0,005	-0,036
-527,277	134,153	-0,056	0,054
-526,262	612,908	0,087	-0,161
-525,248	310,656	-0,079	0,109
-524,233	19,514	0,041	0,024
-523,218	-64,464	-0,046	0,014
-522,204	-200,000	-0,011	-0,085
-521,189	62,423	0,109	0,080
-520,175	28,625	-0,122	-0,076
-519,160	107,880	-0,114	-0,100
-518,145	-86,136	0,047	0,011
-517,131	58,703	0,103	0,075
-516,116	231,560	0,027	0,033
-515,102	-6,298	0,027	0,014
-514,087	-200,000	-0,029	0,216
-513,072	171,091	0,059	0,063
-512,058	-154,092	-0,195	0,010
-511,043	800,000	-0,012	0,031
-510,029	-8,374	0,052	-0,026
-509,014	800,000	0,035	0,080
-507,999	30,252	0,075	0,047
-506,985	208,716	-0,095	-0,110
-505,970	46,593	-0,051	0,035
-504,956	-13,644	-0,097	0,046
-503,941	8,000	-0,035	0,019
-502,926	-54,219	0,079	-0,026
-501,912	-200,000	0,012	0,089
-500,897	-77,652	0,132	-0,033
-499,883	498,350	0,049	-0,084
-498,868	-68,994	0,095	-0,027
-497,853	238,666	0,048	-0,059
-496,839	103,219	0,030	-0,026
-495,824	-15,897	-0,072	0,034
-494,810	800,000	0,040	0,107
-493,795	732,346	-0,101	0,200
-492,781	800,000	-0,018	-0,056
-491,766	318,249	-0,018	0,025
-490,751	44,094	0,049	-0,033
-489,737	-174,148	-0,067	0,001
-488,722	800,000	-0,008	0,021
-487,708	551,947	0,095	-0,169
-486,693	365,137	0,087	0,130
-485,678	800,000	0,041	-0,103
-484,664	246,403	-0,056	-0,070
-483,649	-97,343	-0,088	0,017
-482,635	-200,000	0,011	-0,046
-481,620	-76,829	0,095	-0,024
-480,605	389,455	-0,022	-0,034
-479,591	-159,428	0,158	0,006
-478,576	-200,000	-0,006	0,043
-477,562	112,301	0,029	-0,026
-476,547	135,212	-0,015	0,014
-475,532	-200,000	0,014	0,066
-474,518	3,549	0,071	-0,038
-473,503	36,132	-0,098	0,063
-472,489	800,000	0,068	0,142
-471,474	654,672	0,022	0,041
-470,459	301,139	-0,072	-0,098
-469,445	201,196	-0,034	0,038
-468,430	-200,000	-0,026	-0,128
-467,416	29,074	-0,045	0,028
-466,401	-58,927	0,199	-0,063
-465,386	348,326	0,038	-0,056
-464,372	-200,000	0,025	-0,084
-463,357	-83,574	0,131	-0,031
-462,343	197,185	-0,055	0,062
-461,328	800,000	0,025	-0,056
-460,313	247,903	-0,039	0,048
-459,299	-4,207	-0,048	0,025
-458,284	-200,000	-0,012	-0,040
-457,270	-14,518	0,097	-0,046
-456,255	-35,417	0,166	0,066
-455,241	-50,749	-0,180	0,062
-454,226	-100,189	0,049	0,009
-453,211	59,296	-0,034	-0,024
-452,197	630,144	-0,043	0,080
-451,182	172,699	0,036	0,038
-450,168	-58,424	-0,060	0,019
-449,153	-74,666	0,080	0,021
-448,138	-200,000	0,010	-0,095
-447,124	800,000	-0,057	-0,125
-446,109	452,596	0,035	0,057
-445,095	79,953	0,023	0,018
-444,080	679,791	0,016	0,031
-443,065	14,171	0,060	0,034
-442,051	143,490	-0,045	0,044
-441,036	-200,000	0,002	-0,017
-440,022	-133,688	-0,045	0,004
-439,007	318,539	-0,030	-0,042
-437,992	756,243	-0,084	-0,169
-436,978	-200,000	0,010	-0,082
-435,963	-148,219	-0,070	-0,004
-434,949	95,964	0,027	0,022
-433,934	241,208	-0,035	-0,043
-432,919	-100,500	-0,062	0,011
-431,905	-200,000	0,008	0,068
-430,890	800,000	0,012	-0,036
-429,876	-52,394	0,035	-0,012
-428,861	-200,000	-0,005	-0,091
-427,846	800,000	0,023	-0,068
-426,832	115,171	0,019	-0,017
-425,817	-200,000	-0,023	0,172
-424,803	113,423	0,076	0,068
-423,788	195,370	-0,075	0,084
-422,773	102,541	-0,034	0,029
-421,759	45,167	-0,093	0,063
-420,744	-54,808	-0,036	-0,012
-419,730	656,300	-0,040	0,077
-418,715	515,971	-0,064	-0,111
-417,701	-200,000	0,003	-0,108
-416,686	-200,000	-0,046	0,156
-415,671	-138,517	-0,097	-0,008
-414,657	-146,072	0,088	0,006
-413,642	465,661	-0,021	0,035
-412,628	37,587	0,078	-0,051
-411,613	-200,000	-0,015	-0,054
-410,598	-51,908	0,129	0,044
-409,584	260,766	0,043	-0,055
-408,569	786,619	0,062	0,125
-407,555	311,021	0,034	-0,047
-406,540	18,762	-0,083	0,048
-405,525	-30,431	-0,072	0,030
-404,511	164,720	0,046	0,048
-403,496	-200,000	-0,006	-0,101
-402,482	-153,759	0,096	0,005
-401,467	686,373	0,042	0,081
-400,452	-200,000	-0,006	0,063
-399,438	-200,000	-0,008	-0,131
-398,423	324,506	-0,087	-0,122
-397,409	82,546	0,082	-0,065
-396,394	-60,518	-0,144	-0,045
-395,379	267,679	-0,077	-0,099
-394,365	385,665	0,057	-0,087
-393,350	115,901	0,056	0,050
-392,336	94,066	0,066	-0,055
-391,321	716,393	-0,012	0,024
-390,306	-200,000	0,008	-0,171
-389,292	-99,288	-0,055	0,010
-388,277	-200,000	0,030	0,099
-387,263	610,510	0,029	0,053
-386,248	432,621	-0,024	-0,038
-385,233	38,855	-0,061	0,040
-384,219	-200,000	0,009	-0,044
-383,204	718,072	0,102	-0,200
-382,190	-94,970	-0,147	-0,029
-381,175	-200,000	-0,009	-0,037
-380,160	0,141	0,067	0,035
-379,146	180,417	-0,026	0,028
-378,131	800,000	0,026	-0,071
-377,117	-84,008	0,122	0,028
-376,102	255,859	0,025	-0,032
-375,088	621,621	0,009	-0,017
-374,073	133,718	0,025	0,024
-373,058	69,856	0,114	0,086
-372,044	-59,059	-0,119	0,037
-371,029	798,585	0,005	-0,009
-370,015	-174,699	-0,075	0,002
-369,000	308,867	0,088	-0,121
-367,985	-200,000	0,031	-0,107
-366,971	-168,465	-0,097	-0,003
-365,956	800,000	-0,009	0,023
-364,942	285,525	0,081	0,108
-363,927	-200,000	0,004	0,040
-362,912	800,000	0,032	-0,082
-361,898	-13,230	-0,060	-0,029
-360,883	-44,741	-0,103	-0,038
-359,869	800,000	0,015	-0,036
-358,854	-41,399	0,047	0,018
-357,839	-200,000	0,028	0,105
-356,825	-126,481	0,054	-0,006
-355,810	8,171	0,053	-0,029
-354,796	198,060	-0,075	-0,084
-353,781	800,000	0,043	-0,108
-352,766	800,000	-0,035	-0,089
-351,752	789,502	0,024	-0,049
-350,737	119,036	0,079	0,072
-349,723	-200,000	-0,017	0,095
-348,708	-29,951	-0,020	0,008
-347,693	159,461	-0,037	0,038
-346,679	800,000	0,022	-0,070
-345,664	-200,000	-0,002	-0,013
-344,650	-200,000	-0,008	0,026
-343,635	-200,000	0,005	0,102
-342,620	-24,640	-0,068	-0,030
-341,606	-52,296	0,062	-0,021
-340,591	53,766	-0,110	-0,078
-339,577	251,884	-0,037	-0,047
-338,562	-144,824	0,023	0,002
-337,548	-200,000	0,009	0,107
-336,533	248,366	0,093	0,115
-335,518	-105,463	0,084	0,014
-334,504	-200,000	0,002	0,166
-333,489	650,203	0,034	0,064
-332,475	-200,000	0,007	0,085
-331,460	289,700	-0,061	-0,082
-330,445	-200,000	0,008	0,034
-329,431	800,000	0,022	0,068
-328,416	130,876	-0,031	-0,030
-327,402	-47,153	0,122	0,044
-326,387	32,631	-0,048	-0,031
-325,372	89,396	0,117	-0,096
-324,358	105,848	-0,035	-0,030
-323,343	-200,000	-0,026	-0,119
-322,329	800,000	0,035	-0,093
-321,314	-90,578	-0,063	-0,013
-320,299	-56,777	0,106	0,034
-319,285	-106,892	-0,115	0,018
-318,270	175,962	-0,098	0,105
-317,256	-200,000	0,027	0,142
-316,241	-200,000	-0,021	-0,069
-315,226	57,380	0,043	0,031
-314,212	-200,000	0,018	0,127
-313,197	-90,368	-0,019	-0,004
-312,183	70,300	0,043	0,032
-311,168	-200,000	0,012	0,083
-310,153	800,000	-0,009	-0,020
-309,139	123,313	-0,085	-0,078
-308,124	32,490	-0,031	-0,020
-307,110	-200,000	0,007	0,089
-306,095	613,655	0,035	0,065
-305,080	-142,340	0,053	0,004
-304,066	342,697	0,040	0,058
-303,051	-200,000	0,005	0,101
-302,037	-200,000	-0,035	-0,167
-301,022	800,000	0,032	-0,101
-300,008	111,766	-0,031	-0,027
-298,993	-200,000	0,003	-0,038
-297,978	-46,178	0,107	0,038
-296,964	800,000	-0,058	0,135
-295,949	-113,806	-0,097	0,014
-294,935	-200,000	0,023	-0,108
-293,920	-191,057	-0,041	-0,000
-292,905	-200,000	0,011	0,046
-291,891	-148,985	-0,175	0,010
-290,876	394,605	-0,049	-0,074
-289,862	-36,413	-0,107	-0,042
-288,847	-54,888	-0,138	-0,045
-287,832	-34,855	-0,061	-0,024
-286,818	-37,726	-0,063	0,025
-285,803	195,244	0,020	0,022
-284,789	-200,000	-0,001	-0,123
-283,774	-200,000	0,066	0,000
-282,759	-26,848	-0,133	-0,057
-281,745	-65,766	-0,128	0,037
-280,730	50,480	0,051	-0,035
-279,716	188,111	-0,044	-0,048
-278,701	-184,582	-0,048	0,001
-277,686	40,314	0,128	0,084
-276,672	-200,000	0,010	0,145
-275,657	800,000	-0,021	0,056
-274,643	-200,000	0,010	-0,108
-273,628	-200,000	-0,003	-0,192
-272,613	-65,139	0,062	0,018
-271,599	156,325	0,078	-0,079
-270,584	-200,000	0,005	0,041
-269,570	44,793	-0,025	0,017
-268,555	-80,470	0,058	0,014
-267,540	233,242	-0,030	-0,037
-266,526	-98,242	0,104	0,019
-265,511	-31,424	-0,019	-0,008
-264,497	800,000	-0,006	0,015
-263,482	-200,000	-0,024	0,081
-262,467	-200,000	-0,006	0,066
-261,453	800,000	-0,056	0,139
-260,438	202,332	0,019	-0,021
-259,424	800,000	0,004	-0,009
-258,409	109,136	0,060	-0,053
-257,395	42,845	-0,092	-0,061
-256,380	418,613	0,033	0,051
-255,365	800,000	0,031	-0,077
-254,351	-21,198	-0,033	0,015
-253,336	15,659	-0,074	-0,043
-252,322	255,793	-0,041	0,052
-251,307	-200,000	0,002	-0,127
-250,292	-65,027	0,120	0,035
-249,278	-89,575	0,212	-0,045
-248,263	-200,000	0,028	0,132
-247,249	800,000	-0,020	-0,055
-246,234	117,060	-0,084	0,076
-245,219	20,775	0,138	0,081
-244,205	211,331	-0,078	-0,089
-243,190	-200,000	0,004	-0,092
-242,176	-66,488	-0,161	-0,046
-241,161	800,000	0,087	0,193
-240,146	-200,000	-0,007	-0,109
-239,132	687,223	0,087	0,167
-238,117	-127,936	-0,084	-0,009
-237,103	-92,860	0,141	-0,028
-236,088	695,025	0,024	-0,046
-235,073	359,865	0,027	-0,040
-234,059	95,570	0,125	0,104
-233,044	-47,369	-0,085	0,030
-232,030	-200,000	-0,013	-0,060
-231,015	6,828	0,038	0,021
-230,000	-8,102	-0,114	-0,056
-228,986	-130,905	0,040	-0,004
-227,971	102,617	-0,116	0,099
-226,957	800,000	-0,035	-0,081
-225,942	-2,840	0,066	0,034
-224,927	800,000	0,009	0,021
-223,913	800,000	0,031	0,095
-222,898	-22,622	0,048	0,021
-221,884	-176,258	-0,088	0,002
-220,869	-80,153	0,119	-0,029
-219,855	-44,699	0,096	0,035
-218,840	-150,912	-0,083	-0,005
-217,825	-200,000	0,034	-0,137
-216,811	800,000	-0,019	-0,053
-215,796	59,617	0,063	-0,045
-214,782	77,206	0,085	-0,066
-213,767	-200,000	-0,021	0,097
-212,752	-20,909	0,041	-0,018
-211,738	-200,000	0,017	-0,176
-210,723	735,025	-0,024	-0,048
-209,709	-200,000	0,031	-0,102
-208,694	301,668	0,015	0,020
-207,679	800,000	-0,015	-0,037
-206,665	400,170	0,048	0,074
-205,650	155,880	0,122	0,122
-204,636	800,000	-0,043	0,101
-203,621	-70,705	0,067	-0,018
-202,606	373,969	-0,043	-0,064
-201,592	-13,634	0,092	-0,043
-200,577	-152,030	0,073	0,004
-199,563	-200,000	-0,004	-0,044
-198,548	-200,000	0,002	0,053
-197,533	75,452	-0,110	-0,085
-196,519	800,000	0,029	0,080
-195,504	-48,681	0,035	0,012
-194,490	201,177	-0,048	-0,054
-193,475	800,000	-0,015	0,048
-192,460	174,755	-0,061	-0,064
-191,446	-3,841	-0,106	-0,054
-190,431	-92,379	0,096	-0,020
-189,417	35,834	-0,043	0,028
-188,402	185,524	0,023	0,025
-187,387	159,206	-0,102	-0,104
-186,373	-104,157	0,116	0,019
-185,358	177,058	0,090	-0,096
-184,344	-200,000	-0,008	0,036
-183,329	30,251	0,112	0,069
-182,315	-119,403	-0,032	0,004
-181,300	-200,000	0,005	0,064
-180,285	137,796	0,006	-0,005
-179,271	800,000	-0,016	-0,048
-178,256	401,517	-0,025	-0,039
-177,242	-14,040	0,009	0,004
-176,227	366,559	-0,011	0,017
-175,212	-200,000	0,015	0,139
-174,198	2,244	0,088	0,046
-173,183	-139,564	-0,061	0,005
-172,169	-102,595	-0,079	0,014
-171,154	-200,000	0,016	0,058
-170,139	54,422	0,036	0,025
-169,125	-62,281	0,103	0,031
-168,110	-200,000	0,020	0,086
-167,096	800,000	-0,029	-0,082
-166,081	-31,269	-0,039	-0,016
-165,066	-129,681	0,066	-0,007
-164,052	35,492	-0,130	0,083
-163,037	145,454	0,070	0,069
-162,023	605,972	0,030	0,055
-161,008	-200,000	0,015	-0,062
-159,993	133,912	-0,074	0,070
-158,979	208,709	0,025	0,028
-157,964	29,120	-0,100	0,062
-156,950	506,876	0,020	-0,033
-155,935	800,000	-0,032	-0,101
-154,920	800,000	-0,019	0,054
-153,906	-42,410	0,007	-0,003
-152,891	800,000	-0,023	-0,050
-151,877	157,359	-0,098	-0,099
-150,862	-200,000	-0,026	-0,098
-149,847	45,717	0,088	-0,059
-148,833	-200,000	-0,007	-0,051
-147,818	-70,530	0,084	-0,023
-146,804	-200,000	0,054	0,216
-145,789	60,322	0,074	0,053
-144,775	-200,000	0,009	0,113
-143,760	800,000	-0,057	0,144
-142,745	-72,126	-0,148	0,040
-141,731	377,254	0,049	0,073
-140,716	-92,298	0,024	-0,005
-139,702	329,406	-0,022	-0,031
-138,687	-87,030	0,133	-0,029
-137,672	-200,000	-0,004	0,015
-136,658	-200,000	0,002	0,022
-135,643	-200,000	-0,021	-0,115
-134,629	800,000	-0,045	0,120
-133,614	5,660	0,113	0,061
-132,599	800,000	-0,035	0,106
-131,585	-41,611	0,196	0,073
-130,570	449,118	0,042	-0,067
-129,556	800,000	-0,045	-0,102
-128,541	-40,919	-0,162	0,061
-127,526	-200,000	0,014	0,072
-126,512	92,751	-0,023	0,019
-125,497	-200,000	0,007	0,045
-124,483	-200,000	-0,016	0,074
-123,468	313,602	-0,070	-0,096
-122,453	139,173	-0,059	0,057
-121,439	112,513	-0,053	-0,047
-120,424	-54,838	-0,150	-0,049
-119,410	-70,157	0,135	-0,037
-118,395	597,045	0,056	0,101
-117,380	-34,749	0,006	-0,002
-116,366	-110,991	-0,147	0,022
-115,351	-8,614	0,072	0,035
-114,337	132,443	-0,083	-0,078
-113,322	-200,000	-0,010	-0,079
-112,307	141,992	0,035	0,034
-111,293	518,943	-0,032	0,054
-110,278	-158,624	-0,092	0,004
-109,264	800,000	0,032	-0,077
-108,249	52,545	0,028	0,019
-107,234	800,000	0,020	-0,048
-106,220	109,045	-0,100	-0,087
-105,205	-200,000	0,009	0,070
-104,191	-200,000	0,011	0,178
-103,176	180,393	-0,029	0,031
-102,162	19,523	0,092	-0,054
-101,147	-34,494	0,025	-0,010
-100,132	-200,000	0,015	-0,108
-99,118	416,064	-0,051	-0,080
-98,103	-36,913	-0,177	0,069
-97,089	-62,506	0,076	0,023
-96,074	241,371	-0,039	0,048
-95,059	580,377	0,092	-0,165
-94,045	-200,000	0,014	0,072
-93,030	-62,599	0,056	0,017
-92,016	30,041	0,053	-0,032
-91,001	-103,369	0,054	-0,009
-89,986	-199,633	0,055	-0,000
-88,972	-200,000	0,016	0,176
-87,957	19,421	0,098	0,057
-86,943	-200,000	0,001	-0,117
-85,928	151,834	-0,056	-0,056
-84,913	242,608	-0,099	0,121
-83,899	86,901	0,081	0,065
-82,884	800,000	-0,011	-0,032
-81,870	-200,000	0,008	0,033
-80,855	-170,354	0,105	0,003
-79,840	187,128	-0,093	0,101
-78,826	-114,798	-0,103	0,014
-77,811	117,780	-0,073	-0,066
-76,797	309,286	-0,092	-0,126
-75,782	-200,000	0,025	0,147
-74,767	30,052	0,049	-0,030
-73,753	57,675	0,049	-0,035
-72,738	162,746	-0,077	0,078
-71,724	-19,328	-0,018	0,008
-70,709	800,000	-0,017	-0,043
-69,694	800,000	0,018	-0,042
-68,680	-200,000	0,039	0,130
-67,665	800,000	-0,013	0,038
-66,651	-200,000	0,028	0,102
-65,636	800,000	-0,017	0,048
-64,622	-30,955	-0,033	-0,013
-63,607	495,982	-0,044	-0,074
-62,592	7,039	-0,076	-0,041
-61,578	800,000	-0,037	0,092
-60,563	174,638	0,019	0,020
-59,549	-58,087	0,052	0,016
-58,534	-111,165	-1,405	-0,207
-57,519	447,372	-0,985	-1,579
-56,505	-200,000	-0,880	-4,468
-55,490	37,387	0,627	-0,402
-54,476	800,000	5,075	11,772
-53,461	-200,000	13,493	252,901
-52,446	-200,000	688,554	2267,035
-51,432	595,879	1622,300	2926,196
-50,417	120,663	1635,832	1475,224
-49,403	73,695	1289,851	979,702
-48,388	38,295	1024,932	660,979
-47,373	24,455	982,494	588,075
-46,359	23,735	972,065	579,450
-45,344	22,728	967,721	573,544
-44,330	22,655	966,337	572,464
-43,315	22,628	964,871	571,482
-42,300	22,580	964,003	570,791
-41,286	22,588	962,923	570,154
-40,271	22,615	961,923	569,629
-39,257	22,497	961,219	568,806
-38,242	22,559	960,169	568,364
-37,227	22,580	959,164	567,813
-36,213	22,545	958,533	567,303
-35,198	22,513	957,718	566,695
-34,184	22,558	957,086	566,443
-33,169	22,509	956,017	565,632
-32,154	22,625	955,047	565,408
-31,140	22,584	954,248	564,781
-30,125	22,591	953,369	564,260
-29,111	22,606	952,470	563,755
-28,096	22,615	952,005	563,485
-27,082	22,602	951,219	562,958
-26,067	22,554	950,561	562,389
-25,052	22,605	949,739	562,044
-24,038	22,625	948,934	561,611
-23,023	22,645	948,458	561,371
-22,009	22,668	947,840	561,056
-20,994	22,630	947,201	560,534
-19,979	22,653	946,546	560,197
-18,965	22,569	946,012	559,593
-17,950	22,563	945,340	559,154
-16,936	22,555	944,667	558,708
-15,921	22,539	944,136	558,319
-14,906	22,514	943,383	557,771
-13,892	22,470	942,575	557,133
-12,877	22,478	942,062	556,834
-11,863	22,474	941,337	556,369
-10,848	22,473	940,782	556,015
-9,833	22,537	940,494	556,028
-8,819	22,599	939,439	555,578
-7,804	22,490	939,057	554,985
-6,790	22,497	938,539	554,679
-5,775	22,547	937,864	554,415
-4,760	22,518	937,229	553,928
-3,746	22,491	936,649	553,477
-2,731	22,316	936,164	552,615
-1,717	22,255	935,253	551,864
-0,702	22,257	934,628	551,479
0,313	22,092	933,973	551,404
1,327	25,194	931,845	559,854
2,342	34,821	796,667	504,296
3,356	32,876	452,010	283,167
4,371	1,972	293,839	153,246
5,386	-2,563	274,820	139,022
6,400	-4,030	269,063	134,736
7,415	-4,616	266,737	133,020
8,429	-4,287	265,461	132,673
9,444	-4,247	264,606	132,271
10,459	-4,194	263,719	131,863
11,473	-4,348	263,236	131,470
12,488	-4,458	262,721	131,102
13,502	-4,659	262,234	130,665
14,517	-4,602	261,907	130,542
15,531	-4,265	261,354	130,558
16,546	-4,259	261,029	130,390
17,561	-4,372	260,633	130,079
18,575	-4,164	260,322	130,099
19,590	-4,597	259,961	129,518
20,604	-4,351	259,776	129,635
21,619	-4,369	259,356	129,398
22,634	-4,318	259,087	129,298
23,648	-4,571	258,921	128,978
24,663	-4,336	258,414	128,923
25,677	-4,557	258,289	128,653
26,692	-4,464	258,042	128,600
27,707	-4,461	257,752	128,448
28,721	-4,476	257,510	128,302
29,736	-4,392	257,173	128,197
30,750	-4,669	257,151	127,929
31,765	-4,597	256,874	127,844
32,780	-4,485	256,554	127,772
33,794	-4,525	256,416	127,657
34,809	-4,409	255,993	127,537
35,823	-4,341	255,745	127,462
36,838	-4,451	255,600	127,282
37,853	-4,508	255,485	127,162
38,867	-4,497	255,151	126,995
39,882	-4,498	255,022	126,918
40,896	-4,400	254,648	126,807
41,911	-4,710	254,500	126,450
42,926	-4,593	254,308	126,446
43,940	-4,648	253,912	126,189
44,955	-4,550	253,608	126,113
45,969	-4,607	253,527	126,011
46,984	-4,845	253,373	125,716
47,999	-5,163	253,147	125,316
49,013	-5,299	252,765	124,998
50,028	-5,211	252,593	124,978
51,042	-5,171	252,340	124,876
52,057	-5,298	252,136	124,654
53,071	-5,401	251,946	124,460
54,086	-5,245	251,820	124,521
55,101	-5,071	251,615	124,560
56,115	-5,046	251,654	124,589
57,130	-4,522	251,449	124,929
58,144	-4,540	251,352	124,854
59,159	-4,263	251,029	124,922
60,174	-4,264	250,758	124,775
61,188	-4,291	250,569	124,647
62,203	-4,323	250,402	124,525
63,217	-4,321	250,171	124,401
64,232	-4,193	249,850	124,340
65,247	-4,239	249,897	124,312
66,261	-4,308	249,491	124,041
67,276	-4,646	249,369	123,679
68,290	-4,724	249,012	123,424
69,305	-4,720	248,821	123,322
70,320	-4,758	248,631	123,185
71,334	-4,467	248,369	123,292
72,349	-4,421	248,446	123,359
73,363	-4,342	248,275	123,330
74,378	-4,125	247,910	123,322
75,393	-4,225	247,589	123,067
76,407	-4,493	247,653	122,860
77,422	-4,318	247,407	122,875
78,436	-4,232	247,156	122,813
79,451	-4,455	246,899	122,485
80,466	-4,524	246,704	122,319
81,480	-4,665	246,535	122,105
82,495	-4,546	246,191	122,024
83,509	-4,573	246,169	121,980
84,524	-4,836	246,043	121,685
85,539	-5,087	245,662	121,274
86,553	-4,751	245,495	121,464
87,568	-4,876	245,428	121,314
88,582	-4,722	245,110	121,276
89,597	-4,629	244,951	121,264
90,611	-4,511	244,852	121,304
91,626	-4,365	244,687	121,333
92,641	-4,456	244,436	121,122
93,655	-4,526	244,365	121,017
94,670	-4,617	244,145	120,821
95,684	-4,635	243,940	120,694
96,699	-4,579	243,658	120,590
97,714	-4,671	243,592	120,470
98,728	-4,786	243,301	120,220
99,743	-4,930	243,100	119,990
100,757	-4,973	243,009	119,899
101,772	-4,898	242,904	119,898
102,787	-4,759	242,502	119,805
103,801	-4,562	242,310	119,863
104,816	-4,607	242,249	119,784
105,830	-4,743	242,354	119,713
106,845	-4,537	241,928	119,662
107,860	-4,430	241,780	119,667
108,874	-4,774	241,508	119,237
109,889	-4,625	241,273	119,234
110,903	-4,593	241,272	119,249
111,918	-4,485	240,888	119,138
112,933	-4,438	240,798	119,122
113,947	-4,592	240,762	118,966
114,962	-4,581	240,642	118,906
115,976	-4,545	240,362	118,786
116,991	-4,515	240,192	118,715
118,006	-4,303	239,902	118,736
119,020	-4,598	239,992	118,528
120,035	-4,524	239,850	118,508
121,049	-4,258	239,563	118,573
122,064	-4,292	239,379	118,444
123,079	-4,590	239,273	118,137
124,093	-4,611	239,081	118,014
125,108	-4,781	238,882	117,767
126,122	-4,890	238,539	117,499
127,137	-4,879	238,422	117,440
128,151	-4,826	238,268	117,396
129,166	-4,705	238,005	117,354
130,181	-4,925	237,914	117,121
131,195	-4,760	237,620	117,099
132,210	-4,780	237,487	117,006
133,224	-4,584	237,375	117,100
134,239	-4,266	237,229	117,275
135,254	-4,322	236,983	117,098
136,268	-4,555	236,884	116,850
137,283	-4,775	236,639	116,541
138,297	-4,862	236,405	116,345
139,312	-4,894	236,154	116,186
140,327	-4,603	236,116	116,391
141,341	-4,179	236,052	116,691
142,356	-4,350	236,131	116,582
143,370	-4,512	236,006	116,379
144,385	-4,196	235,579	116,412
145,400	-4,141	235,574	116,443
146,414	-4,133	235,319	116,313
147,429	-4,252	235,142	116,120
148,443	-4,228	234,990	116,054
149,458	-4,214	234,844	115,983
150,473	-4,284	234,700	115,845
151,487	-4,285	234,429	115,700
152,502	-4,146	234,233	115,704
153,516	-4,205	234,139	115,600
154,531	-3,970	233,929	115,674
155,546	-4,312	233,815	115,334
156,560	-4,335	233,671	115,235
157,575	-4,441	233,496	115,053
158,589	-4,301	233,350	115,083
159,604	-4,076	233,012	115,085
160,619	-4,076	232,949	115,043
161,633	-4,129	232,904	114,969
162,648	-4,371	232,790	114,710
163,662	-4,317	232,689	114,693
164,677	-4,270	232,265	114,512
165,692	-4,238	232,271	114,529
166,706	-4,107	232,187	114,581
167,721	-4,264	231,884	114,298
168,735	-3,988	231,814	114,470
169,750	-4,255	231,676	114,182
170,764	-4,410	231,414	113,920
171,779	-4,048	231,266	114,122
172,794	-3,948	231,160	114,138
173,808	-4,164	230,934	113,847
174,823	-4,960	230,723	113,108
175,837	-4,685	230,405	113,157
176,852	-4,398	230,436	113,387
177,867	-4,357	230,414	113,399
178,881	-4,117	230,299	113,520
179,896	-4,176	230,187	113,409
180,910	-4,143	230,002	113,333
181,925	-4,074	229,759	113,257
182,940	-4,073	229,604	113,171
183,954	-3,969	229,436	113,159
184,969	-4,046	229,333	113,038
185,983	-3,964	229,179	113,016
186,998	-4,045	229,126	112,917
188,013	-4,122	228,867	112,719
189,027	-3,950	228,784	112,802
190,042	-4,362	228,572	112,367
191,056	-4,144	228,596	112,539
192,071	-4,003	228,205	112,446
193,086	-4,183	228,228	112,307
194,100	-3,997	227,962	112,310
195,115	-4,268	227,528	111,877
196,129	-4,851	227,507	111,406
197,144	-1,049	228,533	114,846
198,159	2,791	229,589	118,350
199,173	3,910	229,964	119,402
200,188	4,013	229,714	119,341
201,202	4,096	229,607	119,339
202,217	4,397	229,551	119,533
203,232	4,463	229,415	119,502
204,246	4,735	229,220	119,600
205,261	4,485	229,156	119,363
206,275	4,658	229,104	119,459
207,290	4,835	228,874	119,465
208,304	4,802	228,734	119,356
209,319	4,863	228,537	119,289
210,334	4,561	228,334	118,941
211,348	4,436	228,160	118,744
212,363	3,967	227,890	118,231
213,377	3,930	227,693	118,090
214,392	3,860	227,599	117,977
215,407	4,031	227,414	118,002
216,421	4,075	227,383	118,009
217,436	3,889	227,031	117,674
218,450	3,944	226,827	117,600
219,465	3,689	226,719	117,339
220,480	3,597	226,567	117,178
221,494	3,851	226,408	117,280
222,509	3,889	226,392	117,290
223,523	3,912	226,226	117,212
224,538	3,843	226,000	117,031
225,553	4,016	225,770	117,033
226,567	4,094	225,761	117,077
227,582	4,259	225,814	117,220
228,596	4,515	225,463	117,222
229,611	3,896	225,337	116,676
230,626	3,771	225,124	116,460
231,640	3,823	224,882	116,364
232,655	4,053	224,962	116,569
233,669	4,561	224,996	116,961
234,684	4,660	224,651	116,846
235,699	4,494	224,584	116,676
236,713	4,023	224,269	116,146
237,728	3,803	224,181	115,924
238,742	3,816	223,944	115,801
239,757	3,986	223,810	115,849
240,772	4,043	223,593	115,770
241,786	3,980	223,532	115,681
242,801	4,171	223,496	115,795
243,815	4,292	223,500	115,878
244,830	4,272	223,374	115,788
245,844	4,036	223,055	115,434
246,859	4,174	222,858	115,426
247,874	4,146	222,822	115,376
248,888	4,088	222,580	115,197
249,903	4,112	222,529	115,178
250,917	4,019	222,212	114,934
251,932	4,013	222,098	114,861
252,947	3,839	221,977	114,658
253,961	3,773	221,795	114,504
254,976	3,955	221,725	114,594
255,990	4,144	221,608	114,664
257,005	4,015	221,442	114,472
258,020	4,174	221,277	114,494
259,034	4,353	221,133	114,543
260,049	4,316	221,058	114,466
261,063	4,010	220,934	114,165
262,078	4,203	220,866	114,263
263,093	4,259	220,637	114,175
264,107	4,230	220,463	114,053
265,122	4,371	220,357	114,093
266,136	4,508	220,307	114,158
267,151	4,608	219,939	114,031
268,166	4,222	219,797	113,663
269,180	3,880	219,546	113,271
270,195	4,028	219,485	113,338
271,209	3,928	219,351	113,186
272,224	3,938	219,254	113,133
273,239	4,073	219,045	113,114
274,253	3,898	218,969	112,936
275,268	3,679	218,860	112,709
276,282	3,700	218,563	112,561
277,297	3,862	218,406	112,589
278,312	3,607	218,353	112,365
279,326	3,569	218,266	112,283
280,341	3,980	218,153	112,515
281,355	3,835	217,955	112,297
282,370	3,763	217,901	112,206
283,384	3,682	217,716	112,042
284,399	3,695	217,486	111,923
285,414	3,687	217,341	111,833
286,428	3,994	217,190	111,968
287,443	4,043	217,175	111,986
288,457	4,119	217,142	112,014
289,472	4,084	216,844	111,825
290,487	3,574	216,605	111,322
291,501	3,388	216,551	111,149
292,516	3,666	216,275	111,199
293,530	3,944	216,170	111,337
294,545	3,745	216,121	111,158
295,560	3,768	215,907	111,054
296,574	3,952	215,866	111,156
297,589	3,829	215,625	110,933
298,603	4,305	215,607	111,257
299,618	3,950	215,568	110,971
300,633	3,980	215,440	110,918
301,647	4,211	215,427	111,067
302,662	4,248	215,184	110,959
303,676	4,111	215,071	110,792
304,691	4,233	214,869	110,766
305,706	4,161	214,843	110,691
306,720	4,401	214,597	110,726
307,735	4,121	214,299	110,362
308,749	3,973	214,323	110,258
309,764	4,018	214,126	110,180
310,779	4,031	214,197	110,216
311,793	4,127	213,929	110,136
312,808	3,913	213,754	109,884
313,822	3,815	213,580	109,714
314,837	3,943	213,460	109,735
315,852	3,726	213,394	109,536
316,866	3,900	213,214	109,557
317,881	4,274	212,995	109,702
318,895	4,220	213,047	109,680
319,910	3,964	212,826	109,374
320,925	3,690	212,547	109,026
321,939	3,450	212,250	108,695
322,954	3,405	212,388	108,724
323,968	4,035	212,196	109,062
324,983	4,130	212,080	109,060
325,997	4,113	212,102	109,050
327,012	3,983	211,818	108,802
328,027	4,077	211,647	108,771
329,041	4,335	211,676	108,958
330,056	4,573	211,508	109,030
331,070	4,215	211,207	108,613
332,085	3,799	210,989	108,198
333,100	3,884	211,047	108,278
334,114	4,140	210,718	108,280
335,129	3,938	210,689	108,113
336,143	3,520	210,515	107,720
337,158	3,695	210,405	107,777
338,173	3,815	210,331	107,815
339,187	3,677	210,110	107,595
340,202	3,556	210,007	107,448
341,216	3,533	209,756	107,293
342,231	3,697	209,725	107,382
343,246	3,736	209,586	107,329
344,260	4,105	209,433	107,499
345,275	3,825	209,400	107,277
346,289	4,124	209,346	107,448
347,304	4,071	209,198	107,326
348,319	3,879	209,065	107,115
349,333	3,662	208,988	106,914
350,348	3,949	208,769	106,992
351,362	4,143	208,607	107,034
352,377	4,241	208,565	107,072
353,392	4,131	208,308	106,854
354,406	3,879	208,303	106,667
355,421	193,554	1346,923	1434,455
356,435	154,406	1485,757	1434,566
