DTS Sentinel unit serial number:	SN410029Multiplexer serial number:	ORYXHardware model number:	OX2-SRSoftware version number:	ORYX F/W v4,00 Oryx Data Collector v3.7.2.0data status	okinstallation	B6 Nyhavnadifferential loss correction	single-endedforward channel	channel 2reverse channel	N/Adate	2023/12/10time	12:25:08forward acquisition time	300,00reverse acquisition time	0,00gamma	499,1914k internal	0,3123k external	0,3123temperature offset calibration	1,0000default loss term (dB/km)	0,3820temperature slope calibration	1,0000multiplexer offset coefficient	1,0000multiplexer slope coefficient	1,0000fibre end	0,00T internal ref (°C)	22,79T ext. ref 1 (°C)	6,63T ext. ref 2 (°C)	6,65length (m)	temperature (°C)	Stokes	anti-Stokes-744,400	234,023	-0,056	-0,069
-743,385	9,772	-0,227	0,128
-742,371	-200,000	0,031	0,113
-741,356	160,324	-0,160	0,167
-740,342	-200,000	0,008	0,026
-739,327	755,168	-0,164	0,332
-738,312	800,000	0,024	-0,069
-737,298	-149,805	-0,268	0,015
-736,283	-200,000	0,004	-0,181
-735,269	76,685	-0,183	0,144
-734,254	112,445	0,086	-0,077
-733,239	-122,909	-0,384	-0,046
-732,225	125,638	0,085	-0,080
-731,210	-40,896	-0,132	0,051
-730,196	-61,813	-0,053	0,017
-729,181	-33,463	-0,049	-0,020
-728,167	-159,783	-0,044	0,002
-727,152	77,780	-0,046	-0,037
-726,137	-200,000	-0,051	-0,196
-725,123	680,297	-0,023	-0,044
-724,108	294,417	0,080	-0,109
-723,094	-86,079	-0,187	-0,043
-722,079	-45,473	0,150	0,055
-721,064	800,000	0,039	-0,090
-720,050	727,681	-0,011	-0,021
-719,035	-26,540	-0,052	-0,022
-718,021	223,122	-0,058	-0,070
-717,006	800,000	0,028	-0,091
-715,991	521,449	-0,045	-0,080
-714,977	152,550	0,102	-0,104
-713,962	-86,868	-0,097	0,022
-712,948	31,512	-0,019	-0,012
-711,933	470,278	0,075	0,127
-710,918	291,342	-0,014	-0,020
-709,904	-99,422	-0,058	0,011
-708,889	29,074	-0,106	0,067
-707,875	-34,878	-0,141	-0,057
-706,860	800,000	-0,031	0,065
-705,845	-200,000	-0,024	-0,177
-704,831	34,460	-0,080	-0,052
-703,816	-102,205	-0,038	0,007
-702,802	128,694	-0,102	-0,097
-701,787	583,754	0,081	-0,148
-700,772	29,478	-0,019	-0,012
-699,758	800,000	0,010	-0,030
-698,743	-132,615	0,129	-0,012
-697,729	85,014	0,031	-0,025
-696,714	191,931	-0,041	-0,046
-695,699	36,622	-0,064	-0,042
-694,685	-200,000	-0,012	0,057
-693,670	314,873	-0,018	-0,025
-692,656	-138,196	0,109	-0,009
-691,641	-37,572	0,159	-0,063
-690,627	168,737	0,112	-0,119
-689,612	800,000	-0,006	-0,015
-688,597	-24,378	0,054	-0,024
-687,583	134,406	0,035	-0,033
-686,568	-36,091	0,077	0,031
-685,554	-38,495	0,142	-0,056
-684,539	5,029	-0,058	0,031
-683,524	-200,000	0,001	0,054
-682,510	-100,448	0,060	0,011
-681,495	-200,000	0,042	-0,143
-680,481	137,433	-0,077	0,075
-679,466	800,000	-0,025	-0,079
-678,451	-44,075	0,137	0,051
-677,437	339,494	0,041	-0,059
-676,422	-176,446	0,065	-0,001
-675,408	66,234	-0,014	0,011
-674,393	-200,000	0,004	-0,115
-673,378	323,639	-0,045	-0,063
-672,364	259,931	-0,069	0,089
-671,349	-16,175	0,032	-0,015
-670,335	55,640	-0,014	-0,010
-669,320	800,000	-0,014	-0,044
-668,305	-57,428	0,095	-0,031
-667,291	114,994	-0,083	0,076
-666,276	-37,473	0,058	-0,023
-665,262	278,523	-0,094	0,125
-664,247	-200,000	0,009	-0,061
-663,232	21,343	-0,091	-0,055
-662,218	-200,000	-0,010	-0,085
-661,203	780,139	0,011	0,022
-660,189	-200,000	-0,002	0,027
-659,174	-36,740	0,102	0,040
-658,159	-79,319	-0,182	0,046
-657,145	-93,496	0,060	-0,012
-656,130	6,340	-0,059	-0,032
-655,116	343,110	0,044	-0,064
-654,101	-96,596	0,084	0,016
-653,086	558,441	-0,054	-0,097
-652,072	-200,000	-0,003	0,125
-651,057	23,048	-0,056	0,034
-650,043	-34,399	-0,100	-0,040
-649,028	28,415	0,086	-0,054
-648,014	75,006	0,042	0,033
-646,999	-14,063	0,109	0,052
-645,984	-200,000	0,006	0,161
-644,970	187,760	-0,056	-0,062
-643,955	194,348	-0,048	0,054
-642,941	-200,000	-0,022	-0,089
-641,926	-200,000	-0,019	-0,076
-640,911	-200,000	-0,004	0,043
-639,897	-7,285	0,073	0,036
-638,882	314,477	-0,015	0,021
-637,868	44,192	0,071	0,048
-636,853	475,789	0,047	0,079
-635,838	-91,262	-0,160	-0,034
-634,824	59,558	-0,096	-0,070
-633,809	800,000	0,002	0,005
-632,795	-200,000	-0,029	0,165
-631,780	-200,000	0,001	0,052
-630,765	84,850	-0,048	0,039
-629,751	-200,000	0,011	0,111
-628,736	-200,000	-0,024	-0,153
-627,722	-123,474	-0,036	0,004
-626,707	-168,591	0,103	-0,003
-625,692	-200,000	0,021	-0,124
-624,678	483,900	0,056	0,096
-623,663	-167,406	-0,017	0,001
-622,649	91,731	-0,063	0,053
-621,634	-108,275	-0,223	0,035
-620,619	800,000	-0,048	-0,117
-619,605	-4,375	0,158	-0,081
-618,590	-38,875	0,060	0,023
-617,576	-200,000	-0,024	0,142
-616,561	-32,835	-0,048	0,020
-615,546	283,517	-0,011	-0,014
-614,532	-128,854	-0,123	-0,013
-613,517	80,014	0,015	-0,012
-612,503	-176,005	0,165	-0,003
-611,488	800,000	0,034	0,079
-610,474	-24,734	0,071	0,031
-609,459	-130,639	-0,111	-0,011
-608,444	-59,954	0,121	0,038
-607,430	-18,949	0,026	-0,012
-606,415	99,406	0,019	-0,016
-605,401	800,000	-0,022	-0,057
-604,386	-200,000	0,029	-0,110
-603,371	-200,000	0,012	0,244
-602,357	-169,492	0,023	0,001
-601,342	785,283	0,034	-0,070
-600,328	800,000	-0,037	0,078
-599,313	-200,000	0,004	0,092
-598,298	15,959	-0,057	-0,033
-597,284	800,000	-0,022	-0,068
-596,269	-200,000	-0,050	0,168
-595,255	79,782	-0,056	0,044
-594,240	2,819	-0,134	0,072
-593,225	-119,817	-0,069	-0,009
-592,211	-186,417	0,037	0,000
-591,196	-152,932	0,060	0,003
-590,182	-200,000	0,010	0,076
-589,167	-20,671	0,114	0,052
-588,152	636,858	0,027	0,052
-587,138	-76,431	-0,124	-0,032
-586,123	129,442	-0,065	-0,061
-585,109	-200,000	-0,004	-0,201
-584,094	-65,226	0,020	0,006
-583,079	715,766	-0,036	0,070
-582,065	643,446	0,030	0,057
-581,050	688,807	-0,046	-0,090
-580,036	238,215	-0,094	-0,116
-579,021	-200,000	0,013	-0,065
-578,006	800,000	0,011	0,032
-576,992	800,000	0,011	-0,031
-575,977	-55,338	0,146	-0,048
-574,963	620,548	-0,056	0,105
-573,948	140,708	-0,045	-0,044
-572,934	59,408	0,084	0,061
-571,919	-142,304	-0,073	-0,005
-570,904	73,874	-0,046	0,036
-569,890	800,000	0,032	-0,086
-568,875	-200,000	0,012	-0,051
-567,861	92,306	-0,062	0,052
-566,846	21,744	0,073	0,044
-565,831	-200,000	0,004	-0,085
-564,817	70,586	-0,054	0,041
-563,802	-87,111	-0,076	-0,017
-562,788	4,723	-0,137	0,074
-561,773	800,000	0,030	-0,071
-560,758	296,640	0,068	0,093
-559,744	-200,000	-0,023	0,096
-558,729	800,000	0,082	-0,233
-557,715	200,215	-0,077	-0,088
-556,700	-200,000	0,011	-0,047
-555,685	-144,169	0,126	0,009
-554,671	597,822	-0,052	-0,095
-553,656	-63,604	0,143	-0,043
-552,642	295,164	0,107	-0,145
-551,627	-154,277	-0,155	0,008
-550,612	-187,368	-0,026	-0,000
-549,598	-144,457	-0,135	-0,009
-548,583	556,806	0,015	0,026
-547,569	-107,661	-0,075	0,012
-546,554	-89,284	0,083	-0,018
-545,539	-200,000	-0,017	-0,071
-544,525	147,486	-0,008	-0,008
-543,510	478,881	-0,042	-0,071
-542,496	110,989	-0,082	0,073
-541,481	-200,000	-0,010	0,041
-540,466	-142,082	0,224	-0,016
-539,452	726,464	0,052	0,102
-538,437	270,376	-0,035	0,046
-537,423	88,159	0,073	0,060
-536,408	800,000	-0,043	-0,129
-535,393	-200,000	0,022	0,080
-534,379	-200,000	-0,020	-0,129
-533,364	564,588	0,058	-0,105
-532,350	-21,485	0,039	0,018
-531,335	-41,728	-0,070	0,027
-530,321	122,330	0,061	-0,057
-529,306	114,250	-0,047	-0,043
-528,291	98,116	-0,059	0,050
-527,277	56,188	0,065	-0,046
-526,262	-127,528	-0,112	-0,012
-525,248	-200,000	-0,009	-0,052
-524,233	800,000	0,076	0,173
-523,218	-200,000	-0,013	-0,065
-522,204	17,889	-0,163	-0,096
-521,189	-200,000	-0,026	-0,106
-520,175	-177,167	-0,118	0,002
-519,160	-200,000	0,032	-0,131
-518,145	603,785	-0,040	0,073
-517,131	-200,000	-0,017	0,067
-516,116	57,793	-0,063	0,046
-515,102	500,448	0,038	0,064
-514,087	800,000	-0,020	-0,046
-513,072	531,654	-0,017	0,029
-512,058	-200,000	0,003	-0,064
-511,043	-200,000	0,015	-0,064
-510,029	220,819	-0,103	0,123
-509,014	125,082	-0,042	0,039
-507,999	168,279	-0,064	0,067
-506,985	555,670	-0,068	-0,122
-505,970	-200,000	-0,038	0,137
-504,956	-200,000	-0,002	0,032
-503,941	-200,000	0,005	-0,044
-502,926	790,647	-0,013	-0,026
-501,912	-200,000	-0,001	-0,076
-500,897	800,000	-0,034	-0,095
-499,883	26,445	-0,105	-0,064
-498,868	-200,000	-0,007	0,024
-497,853	61,684	-0,091	-0,067
-496,839	-9,917	-0,027	0,013
-495,824	-82,093	0,094	-0,022
-494,810	-53,969	0,120	0,040
-493,795	-74,701	-0,023	-0,006
-492,781	-95,268	0,077	0,015
-491,766	800,000	0,016	-0,048
-490,751	257,066	-0,094	-0,119
-489,737	800,000	0,081	-0,192
-488,722	-23,266	0,169	0,075
-487,708	121,538	0,039	0,036
-486,693	18,038	-0,051	-0,030
-485,678	-200,000	0,014	0,080
-484,664	-200,000	0,020	-0,069
-483,649	775,183	0,020	-0,040
-482,635	-200,000	0,026	-0,105
-481,620	-17,683	-0,115	-0,053
-480,605	-200,000	0,022	0,106
-479,591	-2,376	-0,111	0,057
-478,576	-200,000	-0,004	0,256
-477,562	800,000	0,046	0,113
-476,547	-200,000	0,014	-0,141
-475,532	-116,265	-0,041	-0,006
-474,518	220,246	0,010	-0,012
-473,503	-72,399	0,076	0,021
-472,489	800,000	0,014	-0,030
-471,474	53,039	-0,069	-0,048
-470,459	273,467	0,047	-0,062
-469,445	428,622	-0,075	-0,120
-468,430	800,000	0,022	-0,057
-467,416	-47,193	0,053	0,019
-466,401	11,629	0,101	0,057
-465,386	374,660	-0,119	0,180
-464,372	760,215	-0,022	-0,044
-463,357	-195,027	0,053	0,000
-462,343	-51,106	-0,024	-0,008
-461,328	208,896	0,053	-0,062
-460,313	-85,227	-0,038	-0,009
-459,299	49,748	-0,048	0,033
-458,284	-60,217	0,024	-0,008
-457,270	-153,383	0,011	-0,001
-456,255	512,949	0,059	0,102
-455,241	390,753	0,015	-0,022
-454,226	-200,000	-0,020	0,082
-453,211	217,508	-0,039	0,045
-452,197	-57,353	0,131	-0,042
-451,182	234,926	-0,057	0,069
-450,168	42,436	-0,024	-0,016
-449,153	800,000	-0,024	-0,062
-448,138	-5,464	-0,156	0,078
-447,124	719,296	0,032	-0,063
-446,109	800,000	0,028	0,078
-445,095	-200,000	0,021	0,091
-444,080	129,052	0,138	0,130
-443,065	800,000	0,035	-0,093
-442,051	-200,000	0,001	-0,068
-441,036	-100,497	0,042	-0,008
-440,022	4,566	-0,055	0,030
-439,007	-194,215	0,135	-0,001
-437,992	-130,222	0,031	0,003
-436,978	-77,311	-0,037	-0,009
-435,963	560,552	-0,023	-0,042
-434,949	-56,070	-0,119	-0,039
-433,934	270,636	0,028	0,036
-432,919	-47,678	0,050	-0,018
-431,905	121,163	0,013	-0,012
-430,890	222,519	0,074	0,088
-429,876	29,080	0,114	-0,071
-428,861	164,961	-0,026	-0,027
-427,846	-148,523	0,077	-0,005
-426,832	324,771	-0,064	0,090
-425,817	33,108	-0,107	0,068
-424,803	512,513	-0,011	-0,019
-423,788	448,260	0,067	0,109
-422,773	179,432	0,078	0,085
-421,759	800,000	-0,063	-0,148
-420,744	800,000	-0,014	0,037
-419,730	-200,000	-0,023	0,096
-418,715	25,377	0,050	-0,030
-417,701	193,515	-0,013	0,015
-416,686	-89,376	0,054	-0,012
-415,671	-200,000	0,008	0,074
-414,657	-167,993	-0,070	-0,002
-413,642	263,475	0,041	-0,053
-412,628	389,205	0,049	-0,074
-411,613	400,042	-0,011	-0,017
-410,598	44,298	-0,033	-0,022
-409,584	-200,000	-0,006	0,103
-408,569	95,255	-0,031	-0,026
-407,555	20,851	0,203	-0,120
-406,540	800,000	-0,018	0,057
-405,525	126,312	-0,112	0,105
-404,511	-149,219	-0,165	-0,010
-403,496	42,424	-0,019	-0,013
-402,482	138,676	0,096	0,093
-401,467	-200,000	0,042	0,159
-400,452	-141,699	-0,115	-0,008
-399,438	-112,110	-0,056	0,008
-398,423	-200,000	0,015	0,112
-397,409	82,819	-0,064	-0,051
-396,394	-23,803	0,049	-0,022
-395,379	-13,706	0,077	-0,036
-394,365	800,000	0,073	0,172
-393,350	3,604	0,035	-0,019
-392,336	-200,000	0,021	0,180
-391,321	250,969	-0,096	-0,121
-390,306	133,391	-0,026	0,025
-389,292	-200,000	-0,014	-0,053
-388,277	721,877	-0,065	-0,128
-387,263	-114,107	-0,017	0,002
-386,248	-200,000	0,006	-0,110
-385,233	-67,204	-0,029	-0,008
-384,219	-13,725	-0,044	0,021
-383,204	61,265	-0,118	0,086
-382,190	176,165	0,082	-0,087
-381,175	800,000	-0,028	0,075
-380,160	-139,315	-0,038	0,003
-379,146	103,446	0,123	-0,106
-378,131	-200,000	0,000	0,068
-377,117	-49,723	-0,024	0,008
-376,102	800,000	-0,041	-0,122
-375,088	655,399	-0,051	0,096
-374,073	334,537	0,074	-0,105
-373,058	800,000	0,059	0,127
-372,044	-200,000	0,024	0,088
-371,029	-93,351	-0,103	0,021
-370,015	-45,923	0,150	0,054
-369,000	-200,000	-0,046	-0,157
-367,985	40,509	0,023	-0,015
-366,971	-200,000	0,012	-0,103
-365,956	1,825	0,193	0,102
-364,942	-200,000	0,006	0,041
-363,927	-195,781	0,091	-0,000
-362,912	-49,667	0,166	0,058
-361,898	-200,000	0,022	-0,161
-360,883	347,997	-0,052	-0,075
-359,869	2,236	-0,077	0,041
-358,854	176,301	0,063	-0,068
-357,839	56,325	0,041	0,029
-356,825	5,643	-0,064	0,035
-355,810	16,334	0,170	0,098
-354,796	800,000	-0,052	0,118
-353,781	-200,000	0,003	-0,099
-352,766	-200,000	-0,008	0,058
-351,752	-200,000	0,009	0,058
-350,737	-61,553	0,152	0,046
-349,723	-200,000	-0,010	0,052
-348,708	178,006	0,099	0,106
-347,693	-200,000	-0,007	0,035
-346,679	-73,788	-0,090	0,024
-345,664	36,015	-0,071	0,046
-344,650	78,645	-0,029	0,023
-343,635	800,000	-0,022	0,050
-342,620	-76,846	-0,047	-0,012
-341,606	-149,205	0,063	0,004
-340,591	631,922	-0,030	0,056
-339,577	76,411	0,109	-0,085
-338,562	-74,034	0,069	-0,018
-337,548	-116,501	-0,067	-0,009
-336,533	-56,403	0,196	0,063
-335,518	-3,749	0,068	0,035
-334,504	432,476	-0,043	-0,069
-333,489	-200,000	-0,021	0,095
-332,475	12,579	-0,019	0,011
-331,460	126,916	-0,044	-0,041
-330,445	429,962	0,043	0,069
-329,431	214,337	-0,066	0,076
-328,416	-200,000	0,019	0,115
-327,402	204,718	0,024	-0,027
-326,387	-63,192	-0,058	-0,017
-325,372	-200,000	-0,018	-0,104
-324,358	361,090	-0,065	-0,095
-323,343	-40,541	0,119	-0,045
-322,329	-200,000	-0,010	-0,044
-321,314	62,063	0,134	0,098
-320,299	-200,000	0,006	-0,062
-319,285	84,446	-0,086	0,069
-318,270	-200,000	0,019	-0,102
-317,256	10,381	-0,258	-0,143
-316,241	171,706	0,052	-0,054
-315,226	-111,276	0,059	0,009
-314,212	71,538	0,074	-0,056
-313,197	39,482	0,055	0,036
-312,183	163,335	0,179	-0,184
-311,168	233,190	0,025	-0,031
-310,153	800,000	-0,041	-0,087
-309,139	701,787	0,022	0,042
-308,124	-200,000	-0,008	-0,067
-307,110	-44,231	-0,037	-0,014
-306,095	-48,947	0,109	0,038
-305,080	800,000	0,033	0,085
-304,066	380,386	0,022	-0,033
-303,051	-60,493	-0,044	-0,014
-302,037	-146,685	-0,056	-0,004
-301,022	275,729	0,068	-0,089
-300,008	182,829	0,031	-0,034
-298,993	-17,609	-0,124	0,057
-297,978	-200,000	0,004	-0,053
-296,964	800,000	-0,019	-0,050
-295,949	-41,498	-0,093	0,035
-294,935	-200,000	-0,026	-0,085
-293,920	257,975	-0,058	-0,073
-292,905	63,970	-0,074	-0,054
-291,891	-7,090	-0,040	-0,020
-290,876	617,742	0,041	0,076
-289,862	-200,000	-0,012	0,113
-288,847	2,399	-0,126	-0,067
-287,832	3,437	0,048	-0,025
-286,818	15,526	0,079	-0,045
-285,803	-30,190	0,085	0,035
-284,789	-200,000	0,004	0,087
-283,774	53,383	-0,048	0,034
-282,759	-200,000	-0,004	0,017
-281,745	233,787	-0,085	0,103
-280,730	-141,357	0,053	0,004
-279,716	-94,053	0,114	0,023
-278,701	236,811	0,076	-0,092
-277,686	234,653	0,070	-0,085
-276,672	-200,000	-0,001	0,021
-275,657	215,948	-0,082	0,096
-274,643	34,356	0,143	-0,091
-273,628	-82,898	-0,048	-0,011
-272,613	-157,699	0,082	0,004
-271,599	-61,986	-0,068	0,021
-270,584	-200,000	-0,006	0,117
-269,570	204,423	0,050	-0,057
-268,555	390,082	-0,077	0,118
-267,540	-158,650	-0,205	0,008
-266,526	-200,000	0,010	0,044
-265,511	742,586	-0,051	-0,101
-264,497	-200,000	-0,015	0,083
-263,482	-108,356	-0,065	0,010
-262,467	800,000	-0,023	-0,071
-261,453	-38,918	-0,083	-0,032
-260,438	-200,000	-0,010	-0,057
-259,424	357,145	0,058	-0,085
-258,409	-149,049	0,085	-0,005
-257,395	480,226	-0,030	-0,050
-256,380	652,643	0,011	-0,020
-255,365	800,000	0,068	0,148
-254,351	82,690	-0,017	0,014
-253,336	50,043	-0,080	0,055
-252,322	50,914	-0,041	-0,028
-251,307	-200,000	0,016	-0,083
-250,292	-200,000	-0,021	-0,084
-249,278	-110,108	0,120	-0,018
-248,263	17,161	0,040	0,023
-247,249	-151,595	-0,056	-0,003
-246,234	800,000	0,028	-0,068
-245,219	-58,929	-0,110	-0,034
-244,205	334,329	0,068	-0,096
-243,190	-44,841	0,059	-0,021
-242,176	129,013	-0,058	-0,054
-241,161	-37,163	-0,028	0,011
-240,146	-6,652	0,063	-0,031
-239,132	76,246	-0,079	0,061
-238,117	800,000	0,044	-0,091
-237,103	-48,178	-0,060	0,021
-236,088	216,081	0,005	0,006
-235,073	410,293	0,040	-0,062
-234,059	15,729	0,089	0,051
-233,044	386,040	0,030	0,045
-232,030	-200,000	-0,012	0,165
-231,015	-200,000	-0,000	0,095
-230,000	351,457	0,046	-0,066
-228,986	800,000	0,062	-0,127
-227,971	-200,000	0,013	0,080
-226,957	-79,966	-0,136	0,033
-225,942	32,087	-0,048	-0,030
-224,927	-200,000	-0,001	-0,058
-223,913	347,183	-0,025	-0,037
-222,898	294,181	0,014	-0,019
-221,884	-200,000	0,027	-0,225
-220,869	39,377	0,083	-0,054
-219,855	62,512	0,081	0,059
-218,840	425,742	-0,143	0,225
-217,825	-200,000	-0,001	0,137
-216,811	233,589	-0,084	0,101
-215,796	800,000	-0,083	-0,218
-214,782	-72,237	-0,062	-0,017
-213,767	-200,000	0,011	0,088
-212,752	9,346	-0,099	-0,055
-211,738	-62,890	0,148	0,044
-210,723	60,850	0,072	0,052
-209,709	-77,165	-0,041	-0,010
-208,694	-30,371	-0,096	-0,040
-207,679	94,000	0,051	0,042
-206,665	40,827	-0,077	0,051
-205,650	800,000	0,022	-0,062
-204,636	-200,000	0,023	0,097
-203,621	593,505	-0,071	0,129
-202,606	800,000	0,034	0,096
-201,592	-200,000	0,010	-0,094
-200,577	-12,149	-0,086	-0,041
-199,563	143,093	0,082	0,079
-198,548	137,606	-0,043	0,042
-197,533	-68,486	-0,083	-0,023
-196,519	26,394	0,056	-0,034
-195,504	-157,430	-0,056	-0,002
-194,490	279,170	0,058	-0,076
-193,475	800,000	0,079	-0,181
-192,460	391,066	0,045	-0,068
-191,446	-200,000	0,007	0,139
-190,431	-77,542	0,043	0,011
-189,417	-96,686	-0,023	0,004
-188,402	246,116	0,082	0,101
-187,387	-108,654	-0,079	0,012
-186,373	-200,000	-0,020	-0,122
-185,358	-142,541	0,072	0,005
-184,344	94,546	0,136	-0,113
-183,329	163,344	0,045	-0,046
-182,315	-97,267	-0,089	0,017
-181,300	-102,485	0,064	0,011
-180,285	96,997	-0,111	0,093
-179,271	47,504	-0,074	-0,050
-178,256	-5,208	0,123	-0,062
-177,242	800,000	0,043	0,090
-176,227	412,348	-0,018	0,028
-175,212	187,041	0,034	-0,037
-174,198	-200,000	0,003	-0,066
-173,183	567,944	-0,040	-0,071
-172,169	458,266	-0,048	-0,078
-171,154	384,693	0,017	-0,026
-170,139	441,967	-0,045	0,072
-169,125	-195,856	-0,028	-0,000
-168,110	800,000	0,041	0,083
-167,096	-123,758	-0,158	-0,018
-166,081	800,000	0,054	0,171
-165,066	-129,277	-0,086	0,009
-164,052	-98,055	-0,022	0,004
-163,037	128,427	0,060	0,056
-162,023	800,000	0,007	-0,018
-161,008	-200,000	-0,005	0,086
-159,993	756,461	0,027	0,054
-158,979	-50,041	0,009	0,003
-157,964	235,081	-0,035	0,042
-156,950	44,577	-0,095	-0,064
-155,935	-7,326	0,118	-0,058
-154,920	506,386	0,066	-0,112
-153,906	-40,775	0,022	0,008
-152,891	-200,000	0,012	-0,043
-151,877	364,056	0,058	0,085
-150,862	531,835	0,052	-0,090
-149,847	-200,000	-0,001	-0,037
-148,833	89,931	-0,105	-0,086
-147,818	304,327	0,017	0,023
-146,804	9,276	-0,081	-0,045
-145,789	800,000	0,027	0,061
-144,775	-200,000	0,002	-0,040
-143,760	-200,000	-0,042	-0,156
-142,745	81,504	0,089	-0,070
-141,731	-200,000	-0,019	0,064
-140,716	30,768	-0,097	-0,060
-139,702	-200,000	-0,010	0,056
-138,687	-49,977	0,204	-0,070
-137,672	151,687	-0,041	0,041
-136,658	-200,000	-0,026	0,097
-135,643	-198,868	-0,124	-0,000
-134,629	-15,711	-0,072	0,033
-133,614	234,022	0,058	0,070
-132,599	-200,000	0,004	0,043
-131,585	-200,000	0,003	-0,151
-130,570	-19,096	-0,034	0,015
-129,556	-200,000	-0,017	-0,078
-128,541	182,043	0,017	0,018
-127,526	194,018	0,010	0,011
-126,512	107,445	-0,135	0,117
-125,497	800,000	0,057	0,129
-124,483	-200,000	-0,015	0,087
-123,468	-200,000	0,007	-0,108
-122,453	-128,696	-0,087	0,009
-121,439	273,756	-0,125	-0,161
-120,424	164,067	-0,054	-0,055
-119,410	144,875	0,057	-0,056
-118,395	65,818	-0,110	0,081
-117,380	65,445	-0,088	0,065
-116,366	-200,000	-0,004	0,051
-115,351	591,403	0,041	-0,074
-114,337	547,253	0,011	-0,018
-113,322	166,505	-0,051	-0,053
-112,307	149,722	0,143	-0,141
-111,293	56,826	-0,022	-0,015
-110,278	-200,000	-0,015	0,057
-109,264	73,529	0,058	0,044
-108,249	800,000	-0,048	0,098
-107,234	249,665	0,076	-0,094
-106,220	-70,690	0,046	-0,013
-105,205	800,000	-0,072	0,165
-104,191	-200,000	-0,015	-0,103
-103,176	260,341	-0,070	0,089
-102,162	54,755	0,072	0,050
-101,147	800,000	0,072	-0,146
-100,132	-171,068	-0,091	-0,002
-99,118	800,000	-0,044	-0,097
-98,103	-53,053	-0,081	0,027
-97,089	162,366	0,090	-0,092
-96,074	436,139	0,079	0,125
-95,059	36,915	0,026	-0,016
-94,045	520,919	-0,044	-0,076
-93,030	800,000	0,024	0,061
-92,016	101,294	-0,127	-0,107
-91,001	800,000	-0,024	-0,063
-89,986	-200,000	0,021	0,080
-88,972	-45,735	-0,073	0,026
-87,957	800,000	-0,041	0,126
-86,943	-124,414	0,070	-0,008
-85,928	800,000	0,056	-0,142
-84,913	-200,000	-0,029	-0,106
-83,899	-200,000	-0,011	0,085
-82,884	-34,394	0,085	-0,034
-81,870	409,626	-0,138	-0,212
-80,855	314,333	-0,052	-0,071
-79,840	-200,000	-0,004	0,020
-78,826	-200,000	0,001	0,025
-77,811	-1,070	-0,180	-0,092
-76,797	-66,391	0,085	-0,024
-75,782	298,615	0,031	-0,041
-74,767	-74,320	0,070	-0,018
-73,753	-125,831	0,139	0,015
-72,738	-41,107	-0,166	0,062
-71,724	587,325	0,087	-0,156
-70,709	203,053	0,050	-0,056
-69,694	3,877	0,096	-0,051
-68,680	146,293	-0,065	-0,063
-67,665	-200,000	0,011	-0,122
-66,651	87,310	0,177	-0,142
-65,636	-200,000	-0,029	-0,114
-64,622	202,934	-0,117	-0,131
-63,607	-200,000	-0,007	-0,022
-62,592	150,113	-0,029	-0,029
-61,578	663,129	-0,023	0,043
-60,563	-200,000	0,003	-0,026
-59,549	-200,000	0,001	0,160
-58,534	-181,333	-1,211	-0,017
-57,519	765,719	-0,746	-1,479
-56,505	-200,000	-0,903	-4,480
-55,490	51,104	0,525	-0,361
-54,476	800,000	4,965	11,764
-53,461	-200,000	13,250	252,586
-52,446	-200,000	688,349	2274,275
-51,432	599,904	1623,515	2936,156
-50,417	121,416	1637,530	1480,332
-49,403	73,393	1291,855	979,998
-48,388	38,529	1026,198	662,594
-47,373	24,738	983,449	589,587
-46,359	23,898	973,316	580,731
-45,344	23,010	968,969	575,209
-44,330	22,931	967,572	574,097
-43,315	22,883	966,309	573,169
-42,300	22,848	965,144	572,342
-41,286	22,757	964,259	571,497
-40,271	22,796	963,179	570,961
-39,257	22,766	962,347	570,348
-38,242	22,740	961,413	569,686
-37,227	22,787	960,495	569,273
-36,213	22,789	959,660	568,763
-35,198	22,742	958,911	568,144
-34,184	22,841	958,001	567,903
-33,169	22,753	957,257	567,152
-32,154	22,840	956,359	566,881
-31,140	22,831	955,361	566,238
-30,125	22,839	954,743	565,873
-29,111	22,889	953,751	565,424
-28,096	22,817	953,106	564,788
-27,082	22,829	952,498	564,445
-26,067	22,850	951,732	564,035
-25,052	22,786	951,114	563,440
-24,038	22,838	950,245	563,069
-23,023	22,803	949,625	562,569
-22,009	22,851	949,004	562,331
-20,994	22,866	948,418	562,009
-19,979	22,876	947,781	561,643
-18,965	22,900	947,157	561,329
-17,950	22,838	946,439	560,681
-16,936	22,787	945,967	560,218
-15,921	22,768	945,248	559,709
-14,906	22,717	944,460	559,057
-13,892	22,730	943,768	558,665
-12,877	22,718	943,352	558,361
-11,863	22,672	942,625	557,760
-10,848	22,701	942,060	557,498
-9,833	22,814	941,512	557,509
-8,819	22,794	941,034	557,142
-7,804	22,694	940,468	556,465
-6,790	22,715	939,756	556,090
-5,775	22,756	939,127	555,824
-4,760	22,675	938,532	555,194
-3,746	22,675	937,986	554,849
-2,731	22,569	937,258	554,061
-1,717	22,533	936,418	553,428
-0,702	22,572	935,644	553,074
0,313	22,349	935,270	552,983
1,327	25,528	933,104	561,662
2,342	35,396	797,977	506,654
3,356	33,679	452,041	284,399
4,371	2,423	293,206	153,371
5,386	-2,036	273,971	139,091
6,400	-3,761	268,102	134,504
7,415	-4,272	265,828	132,882
8,429	-3,974	264,424	132,440
9,444	-3,969	263,620	132,031
10,459	-4,001	262,914	131,636
11,473	-4,055	262,378	131,307
12,488	-4,043	261,789	131,012
13,502	-4,033	261,258	130,743
14,517	-4,138	260,711	130,363
15,531	-4,278	260,427	130,084
16,546	-4,265	260,203	129,972
17,561	-4,057	259,784	129,937
18,575	-4,137	259,337	129,630
19,590	-4,093	259,095	129,538
20,604	-4,084	258,808	129,390
21,619	-4,205	258,649	129,192
22,634	-4,414	258,266	128,803
23,648	-4,013	257,713	128,871
24,663	-4,307	257,737	128,611
25,677	-4,057	257,377	128,642
26,692	-4,197	257,082	128,359
27,707	-4,201	256,738	128,172
28,721	-4,178	256,686	128,155
29,736	-4,265	256,208	127,828
30,750	-4,286	256,230	127,809
31,765	-4,327	255,848	127,571
32,780	-4,394	255,645	127,400
33,794	-4,216	255,378	127,411
34,809	-4,346	255,150	127,172
35,823	-4,400	255,137	127,107
36,838	-4,186	254,720	127,076
37,853	-4,228	254,443	126,889
38,867	-4,370	254,109	126,588
39,882	-4,310	253,983	126,565
40,896	-4,257	253,802	126,511
41,911	-4,281	253,614	126,385
42,926	-4,183	253,349	126,327
43,940	-4,399	253,140	126,023
44,955	-4,484	252,945	125,841
45,969	-4,557	252,708	125,648
46,984	-4,563	252,460	125,508
47,999	-4,774	252,103	125,137
49,013	-4,892	251,870	124,908
50,028	-5,146	251,803	124,644
51,042	-5,216	251,229	124,288
52,057	-5,211	251,236	124,285
53,071	-5,279	251,103	124,148
54,086	-5,118	250,839	124,146
55,101	-4,865	250,661	124,265
56,115	-4,603	250,654	124,476
57,130	-4,275	250,389	124,616
58,144	-4,174	250,414	124,704
59,159	-4,067	250,196	124,676
60,174	-4,045	249,932	124,552
61,188	-4,119	249,634	124,329
62,203	-4,209	249,414	124,132
63,217	-3,949	249,104	124,189
64,232	-4,344	249,098	123,837
65,247	-3,982	248,724	123,949
66,261	-4,000	248,548	123,835
67,276	-4,362	248,404	123,443
68,290	-4,475	248,137	123,203
69,305	-4,635	247,779	122,879
70,320	-4,538	247,582	122,852
71,334	-4,438	247,504	122,888
72,349	-3,975	247,442	123,239
73,363	-4,115	247,171	122,974
74,378	-3,974	247,057	123,026
75,393	-4,184	246,816	122,717
76,407	-4,289	246,702	122,560
77,422	-4,235	246,522	122,506
78,436	-4,260	246,268	122,348
79,451	-4,070	245,985	122,356
80,466	-4,128	245,766	122,188
81,480	-4,425	245,551	121,820
82,495	-4,426	245,361	121,714
83,509	-4,441	245,205	121,613
84,524	-4,590	244,992	121,371
85,539	-4,465	244,740	121,341
86,553	-4,466	244,430	121,176
87,568	-4,587	244,570	121,133
88,582	-4,600	244,356	121,005
89,597	-4,498	244,070	120,938
90,611	-4,280	243,867	121,008
91,626	-4,190	243,865	121,072
92,641	-3,971	243,531	121,078
93,655	-4,324	243,321	120,669
94,670	-4,431	243,335	120,576
95,684	-4,330	243,033	120,499
96,699	-4,209	242,706	120,427
97,714	-4,252	242,692	120,374
98,728	-4,445	242,466	120,091
99,743	-4,623	242,192	119,797
100,757	-4,683	242,000	119,641
101,772	-4,478	241,847	119,725
102,787	-4,560	241,726	119,586
103,801	-4,404	241,500	119,593
104,816	-4,393	241,492	119,587
105,830	-4,083	241,234	119,705
106,845	-4,310	241,193	119,486
107,860	-4,291	240,947	119,369
108,874	-4,354	240,698	119,184
109,889	-4,356	240,521	119,084
110,903	-4,417	240,271	118,899
111,918	-4,435	240,084	118,781
112,933	-4,361	239,997	118,789
113,947	-4,165	239,741	118,812
114,962	-4,239	239,664	118,702
115,976	-4,354	239,486	118,509
116,991	-4,282	239,237	118,434
118,006	-4,342	239,181	118,348
119,020	-4,122	238,902	118,378
120,035	-4,138	238,888	118,348
121,049	-4,181	238,735	118,226
122,064	-4,383	238,555	117,962
123,079	-4,255	238,381	117,970
124,093	-4,423	237,967	117,617
125,108	-4,503	237,927	117,522
126,122	-4,663	237,692	117,266
127,137	-4,881	237,497	116,982
128,151	-4,730	237,283	116,989
129,166	-4,370	237,067	117,163
130,181	-4,703	237,058	116,879
131,195	-4,592	236,779	116,821
132,210	-4,421	236,728	116,923
133,224	-4,518	236,673	116,807
134,239	-4,357	236,304	116,745
135,254	-4,220	236,097	116,743
136,268	-4,355	235,925	116,538
137,283	-4,510	235,614	116,249
138,297	-4,685	235,422	116,004
139,312	-4,768	235,346	115,889
140,327	-4,445	235,277	116,105
141,341	-4,055	235,206	116,372
142,356	-3,995	235,153	116,383
143,370	-3,892	234,909	116,335
144,385	-4,155	234,866	116,093
145,400	-3,908	234,678	116,187
146,414	-3,912	234,514	116,092
147,429	-3,851	234,315	116,032
148,443	-3,966	234,192	115,869
149,458	-3,899	233,990	115,812
150,473	-3,985	233,757	115,618
151,487	-4,126	233,495	115,366
152,502	-4,186	233,558	115,339
153,516	-3,896	233,303	115,433
154,531	-3,899	232,925	115,233
155,546	-3,894	232,944	115,237
156,560	-3,988	232,737	115,049
157,575	-4,330	232,548	114,675
158,589	-4,169	232,441	114,739
159,604	-3,831	232,250	114,902
160,619	-3,673	232,085	114,936
161,633	-3,800	232,034	114,800
162,648	-3,822	231,947	114,728
163,662	-3,857	231,596	114,517
164,677	-4,016	231,438	114,304
165,692	-3,961	231,403	114,320
166,706	-3,811	231,300	114,376
167,721	-3,892	231,167	114,237
168,735	-3,767	230,862	114,173
169,750	-3,880	230,735	114,012
170,764	-3,873	230,598	113,940
171,779	-3,768	230,464	113,946
172,794	-4,003	230,408	113,724
173,808	-3,873	230,039	113,633
174,823	-4,469	229,670	112,975
175,837	-4,492	229,639	112,932
176,852	-4,243	229,626	113,110
177,867	-3,787	229,516	113,402
178,881	-3,679	229,423	113,430
179,896	-3,940	229,276	113,144
180,910	-3,772	229,014	113,134
181,925	-3,737	228,910	113,101
182,940	-3,708	228,658	112,989
183,954	-3,973	228,622	112,754
184,969	-3,781	228,610	112,888
185,983	-3,766	228,482	112,826
186,998	-3,653	228,303	112,815
188,013	-3,740	227,997	112,587
189,027	-3,678	227,892	112,573
190,042	-3,589	227,625	112,500
191,056	-3,535	227,538	112,488
192,071	-3,721	227,442	112,287
193,086	-3,620	227,150	112,212
194,100	-3,676	227,047	112,107
195,115	-3,939	226,672	111,710
196,129	-4,495	226,622	111,247
197,144	-1,386	227,659	114,147
198,159	2,528	228,664	117,670
199,173	4,090	228,917	118,998
200,188	4,079	228,758	118,896
201,202	4,154	228,738	118,933
202,217	4,664	228,448	119,164
203,232	4,752	228,389	119,191
204,246	4,687	228,345	119,107
205,261	5,010	228,122	119,229
206,275	4,942	228,141	119,176
207,290	4,782	227,956	118,945
208,304	4,993	227,830	119,031
209,319	4,980	227,565	118,872
210,334	5,071	227,350	118,819
211,348	4,522	227,276	118,348
212,363	4,185	226,883	117,876
213,377	4,053	226,818	117,731
214,392	4,073	226,677	117,662
215,407	4,217	226,518	117,679
216,421	4,286	226,319	117,618
217,436	3,965	226,259	117,332
218,450	3,773	225,966	117,023
219,465	3,843	225,806	116,983
220,480	4,018	225,634	117,016
221,494	3,978	225,488	116,900
222,509	4,270	225,294	117,010
223,523	4,057	225,348	116,866
224,538	3,964	225,056	116,634
225,553	3,973	225,000	116,602
226,567	3,917	224,910	116,502
227,582	4,145	224,797	116,605
228,596	4,340	224,623	116,653
229,611	4,165	224,521	116,457
230,626	3,924	224,282	116,141
231,640	4,034	224,119	116,128
232,655	4,306	224,006	116,265
233,669	4,787	224,025	116,627
234,684	4,921	223,974	116,691
235,699	4,343	223,691	116,098
236,713	4,166	223,485	115,848
237,728	3,869	223,357	115,548
238,742	4,023	223,050	115,494
239,757	4,154	222,964	115,538
240,772	4,066	222,789	115,371
241,786	3,961	222,732	115,252
242,801	4,259	222,599	115,396
243,815	4,456	222,568	115,518
244,830	4,455	222,293	115,364
245,844	4,272	222,043	115,087
246,859	4,485	221,939	115,182
247,874	4,325	221,893	115,028
248,888	4,447	221,711	115,015
249,903	4,286	221,681	114,869
250,917	4,063	221,533	114,616
251,932	3,958	221,223	114,367
252,947	3,993	221,003	114,270
253,961	3,756	220,973	114,068
254,976	4,006	220,849	114,179
255,990	4,380	220,694	114,366
257,005	4,248	220,538	114,177
258,020	4,206	220,583	114,159
259,034	4,455	220,452	114,265
260,049	4,151	220,208	113,904
261,063	4,050	220,026	113,725
262,078	4,363	219,965	113,914
263,093	4,454	219,763	113,867
264,107	4,250	219,642	113,644
265,122	4,400	219,551	113,697
266,136	4,425	219,399	113,626
267,151	4,606	219,208	113,651
268,166	4,317	218,973	113,307
269,180	3,886	218,760	112,870
270,195	3,979	218,678	112,886
271,209	3,703	218,552	112,608
272,224	3,965	218,440	112,732
273,239	4,095	218,254	112,721
274,253	4,042	218,067	112,576
275,268	4,023	217,761	112,394
276,282	3,734	217,807	112,197
277,297	3,785	217,636	112,136
278,312	4,030	217,413	112,190
279,326	3,900	217,395	112,075
280,341	4,072	217,194	112,087
281,355	4,038	217,085	111,996
282,370	3,913	216,946	111,823
283,384	3,929	216,708	111,703
284,399	3,765	216,538	111,486
285,414	3,758	216,595	111,500
286,428	4,091	216,434	111,649
287,443	4,189	216,336	111,659
288,457	3,990	216,213	111,442
289,472	4,295	215,922	111,502
290,487	3,696	215,639	110,914
291,501	3,563	215,601	110,788
292,516	3,449	215,552	110,671
293,530	3,700	215,324	110,725
294,545	3,686	215,233	110,658
295,560	4,063	214,967	110,783
296,574	4,090	214,923	110,770
297,589	3,923	214,967	110,662
298,603	3,984	214,842	110,632
299,618	4,120	214,669	110,631
300,633	4,097	214,445	110,489
301,647	4,319	214,403	110,617
302,662	4,249	214,392	110,551
303,676	4,312	214,125	110,449
304,691	4,395	213,972	110,419
305,706	4,605	213,892	110,519
306,720	4,434	213,832	110,355
307,735	3,977	213,510	109,853
308,749	3,949	213,456	109,795
309,764	4,279	213,320	109,951
310,779	4,151	213,205	109,791
311,793	4,129	213,015	109,668
312,808	4,361	212,844	109,734
313,822	4,147	212,745	109,521
314,837	4,051	212,520	109,328
315,852	3,963	212,384	109,186
316,866	3,903	212,334	109,108
317,881	4,257	212,312	109,338
318,895	4,271	212,075	109,216
319,910	4,152	211,889	109,026
320,925	3,812	211,781	108,720
321,939	3,534	211,508	108,374
322,954	3,670	211,428	108,420
323,968	4,275	211,349	108,796
324,983	4,219	211,200	108,671
325,997	4,556	211,191	108,894
327,012	4,218	211,049	108,572
328,027	3,873	210,927	108,257
329,041	4,269	210,913	108,519
330,056	4,450	210,649	108,500
331,070	4,343	210,409	108,293
332,085	3,896	210,336	107,932
333,100	3,866	210,216	107,839
334,114	4,010	210,096	107,869
335,129	3,772	209,864	107,574
336,143	3,622	209,797	107,425
337,158	3,743	209,603	107,401
338,173	3,961	209,545	107,514
339,187	3,999	209,246	107,377
340,202	3,786	209,195	107,192
341,216	3,699	208,986	107,016
342,231	3,885	208,846	107,064
343,246	3,799	208,808	106,975
344,260	3,822	208,746	106,950
345,275	4,152	208,607	107,098
346,289	4,131	208,448	106,992
347,304	4,117	208,405	106,951
348,319	4,031	208,124	106,738
349,333	4,122	208,002	106,729
350,348	4,288	207,847	106,755
351,362	4,285	207,888	106,764
352,377	4,235	207,644	106,595
353,392	4,099	207,348	106,339
354,406	4,252	207,217	106,368
355,421	193,907	1346,263	1434,912
356,435	154,677	1485,153	1435,044
