DTS Sentinel unit serial number:	SN410029Multiplexer serial number:	ORYXHardware model number:	OX2-SRSoftware version number:	ORYX F/W v4,00 Oryx Data Collector v3.7.2.0data status	okinstallation	B6 Nyhavnadifferential loss correction	single-endedforward channel	channel 2reverse channel	N/Adate	2023/12/10time	21:25:08forward acquisition time	300,00reverse acquisition time	0,00gamma	499,1914k internal	0,3123k external	0,3123temperature offset calibration	1,0000default loss term (dB/km)	0,3820temperature slope calibration	1,0000multiplexer offset coefficient	1,0000multiplexer slope coefficient	1,0000fibre end	0,00T internal ref (°C)	22,26T ext. ref 1 (°C)	6,05T ext. ref 2 (°C)	6,04length (m)	temperature (°C)	Stokes	anti-Stokes-744,400	350,163	-0,017	-0,025
-743,385	-33,969	-0,106	0,043
-742,371	177,654	0,044	-0,048
-741,356	-32,479	-0,168	0,069
-740,342	124,798	0,082	0,077
-739,327	123,120	-0,221	0,206
-738,312	-168,598	0,087	0,002
-737,298	50,485	-0,226	0,159
-736,283	161,354	0,075	-0,078
-735,269	-60,730	-0,122	0,038
-734,254	-51,676	-0,076	0,026
-733,239	-61,073	-0,424	-0,133
-732,225	800,000	0,081	0,206
-731,210	-20,708	-0,090	0,041
-730,196	84,116	-0,035	0,028
-729,181	290,841	-0,069	-0,093
-728,167	800,000	-0,022	-0,061
-727,152	43,596	0,159	-0,108
-726,137	800,000	-0,053	-0,111
-725,123	67,619	-0,103	-0,078
-724,108	714,753	-0,050	-0,100
-723,094	62,100	-0,130	-0,096
-722,079	-108,896	-0,316	-0,050
-721,064	800,000	-0,075	-0,171
-720,050	-25,870	-0,178	-0,078
-719,035	-200,000	-0,014	0,083
-718,021	-197,122	0,031	0,000
-717,006	-74,202	0,040	-0,011
-715,991	-34,127	-0,122	-0,050
-714,977	-200,000	0,000	0,002
-713,962	286,904	0,014	0,018
-712,948	-108,065	0,059	-0,009
-711,933	-101,502	0,056	0,010
-710,918	-200,000	0,004	0,032
-709,904	368,306	-0,034	-0,051
-708,889	191,493	-0,065	-0,072
-707,875	-11,636	-0,116	-0,056
-706,860	240,715	0,047	0,058
-705,845	-154,957	-0,134	-0,006
-704,831	44,800	-0,081	-0,055
-703,816	-200,000	-0,021	-0,148
-702,802	28,002	-0,125	-0,078
-701,787	72,244	-0,053	0,041
-700,772	-66,726	-0,153	-0,045
-699,758	724,618	0,065	-0,130
-698,743	-20,946	0,088	0,040
-697,729	189,364	-0,031	0,035
-696,714	-183,444	-0,033	-0,000
-695,699	-39,892	0,051	-0,020
-694,685	349,147	0,052	-0,076
-693,670	87,325	0,050	0,041
-692,656	-22,640	-0,023	-0,010
-691,641	24,790	-0,134	0,082
-690,627	-27,457	0,039	-0,017
-689,612	240,627	-0,015	0,019
-688,597	-200,000	0,028	-0,132
-687,583	507,754	-0,051	-0,088
-686,568	-200,000	-0,014	0,162
-685,554	-200,000	-0,030	0,132
-684,539	800,000	0,018	-0,050
-683,524	-26,744	-0,109	0,047
-682,510	-200,000	0,032	0,144
-681,495	-200,000	0,038	-0,178
-680,481	800,000	0,032	-0,096
-679,466	-82,196	-0,078	-0,019
-678,451	800,000	-0,070	-0,145
-677,437	96,244	-0,028	-0,024
-676,422	-134,906	0,147	0,013
-675,408	-200,000	-0,007	0,050
-674,393	271,986	0,046	-0,060
-673,378	51,774	-0,042	-0,030
-672,364	59,205	0,050	-0,037
-671,349	490,224	-0,058	-0,099
-670,335	414,223	-0,039	-0,062
-669,320	97,216	0,025	0,021
-668,305	753,301	-0,023	-0,046
-667,291	498,622	-0,069	-0,118
-666,276	-126,050	0,069	0,008
-665,262	121,498	0,107	0,099
-664,247	23,714	-0,146	0,089
-663,232	-11,962	0,051	0,025
-662,218	118,921	-0,059	0,054
-661,203	-135,047	0,058	-0,005
-660,189	165,185	0,008	0,008
-659,174	-42,172	0,032	0,012
-658,159	115,741	-0,049	-0,045
-657,145	-200,000	0,041	-0,254
-656,130	-87,566	-0,059	-0,013
-655,116	800,000	-0,055	-0,132
-654,101	627,530	0,059	-0,111
-653,086	191,612	0,054	0,060
-652,072	332,141	-0,048	-0,069
-651,057	34,051	-0,078	0,050
-650,043	135,108	-0,093	-0,090
-649,028	110,366	-0,050	-0,045
-648,014	-200,000	0,003	0,045
-646,999	-57,833	0,050	-0,016
-645,984	61,974	-0,028	-0,021
-644,970	800,000	0,015	-0,032
-643,955	164,939	-0,039	0,041
-642,941	-200,000	-0,024	-0,134
-641,926	800,000	0,030	-0,079
-640,911	200,995	-0,157	0,180
-639,897	-113,563	0,108	-0,016
-638,882	800,000	-0,036	0,085
-637,868	-72,120	-0,160	0,044
-636,853	-200,000	0,002	-0,008
-635,838	-125,388	-0,105	-0,012
-634,824	-200,000	0,040	-0,164
-633,809	-200,000	-0,027	-0,118
-632,795	19,032	-0,151	-0,090
-631,780	0,893	-0,045	-0,024
-630,765	-75,899	0,034	0,009
-629,751	122,403	-0,039	0,037
-628,736	481,320	0,056	-0,095
-627,722	800,000	-0,044	-0,095
-626,707	214,856	0,019	-0,022
-625,692	-200,000	-0,038	0,133
-624,678	-200,000	0,014	0,110
-623,663	169,882	0,092	0,098
-622,649	-115,953	-0,115	-0,016
-621,634	-17,100	0,041	-0,019
-620,619	-200,000	-0,002	-0,106
-619,605	-200,000	-0,019	0,172
-618,590	548,945	0,072	0,129
-617,576	-200,000	0,003	0,091
-616,561	20,317	0,042	-0,025
-615,546	-67,321	-0,143	0,041
-614,532	306,697	-0,059	-0,082
-613,517	800,000	0,048	-0,144
-612,503	99,214	0,020	0,017
-611,488	-200,000	0,008	0,111
-610,474	10,227	0,031	0,018
-609,459	-199,826	-0,055	-0,000
-608,444	-8,200	-0,025	-0,012
-607,430	-200,000	-0,000	0,030
-606,415	-95,758	0,031	-0,006
-605,401	-200,000	-0,011	0,046
-604,386	150,182	0,059	0,060
-603,371	411,271	-0,050	0,079
-602,357	-200,000	0,003	0,031
-601,342	-33,967	-0,107	-0,043
-600,328	103,081	0,049	-0,043
-599,313	41,240	-0,101	0,067
-598,298	-200,000	-0,000	0,153
-597,284	348,570	-0,106	-0,155
-596,269	-91,260	-0,067	0,014
-595,255	-200,000	-0,003	0,041
-594,240	60,416	-0,048	-0,035
-593,225	800,000	0,076	-0,162
-592,211	73,658	-0,134	-0,104
-591,196	-200,000	-0,005	0,050
-590,182	154,115	0,080	0,081
-589,167	-200,000	-0,021	0,119
-588,152	-200,000	-0,001	0,004
-587,138	-126,007	0,120	-0,013
-586,123	25,870	-0,071	-0,043
-585,109	51,178	0,034	0,024
-584,094	396,573	0,058	-0,090
-583,079	33,206	-0,110	0,071
-582,065	-51,843	0,062	0,021
-581,050	-11,322	0,190	0,092
-580,036	224,715	0,047	0,057
-579,021	-54,939	-0,081	0,027
-578,006	-200,000	0,007	-0,063
-576,992	-200,000	-0,001	-0,029
-575,977	460,962	0,058	0,096
-574,963	190,552	0,038	-0,042
-573,948	-16,691	-0,089	0,042
-572,934	328,069	0,049	0,069
-571,919	7,516	-0,090	0,050
-570,904	482,032	-0,097	-0,163
-569,890	-118,558	-0,042	-0,005
-568,875	90,894	0,048	-0,040
-567,861	179,770	0,044	-0,048
-566,846	800,000	0,015	0,038
-565,831	-119,946	0,078	0,010
-564,817	-200,000	-0,027	-0,170
-563,802	-20,395	0,126	0,057
-562,788	489,707	-0,094	0,159
-561,773	-43,714	0,135	-0,050
-560,758	584,934	-0,051	0,093
-559,744	800,000	0,050	-0,127
-558,729	445,501	-0,032	0,052
-557,715	147,749	-0,105	-0,105
-556,700	167,007	-0,083	-0,087
-555,685	126,258	-0,082	0,076
-554,671	79,167	0,102	0,080
-553,656	-0,982	-0,042	-0,022
-552,642	-200,000	0,006	0,103
-551,627	219,147	-0,057	0,068
-550,612	110,452	-0,125	0,111
-549,598	-119,285	0,050	-0,006
-548,583	312,945	0,052	0,072
-547,569	330,454	0,061	0,087
-546,554	64,745	-0,042	0,031
-545,539	-96,932	-0,034	-0,006
-544,525	-73,270	-0,167	0,045
-543,510	64,439	-0,034	0,026
-542,496	-200,000	-0,006	0,062
-541,481	178,746	0,075	-0,081
-540,466	-56,423	-0,098	-0,032
-539,452	-12,361	0,135	0,065
-538,437	-200,000	0,023	0,078
-537,423	800,000	0,013	0,027
-536,408	49,857	-0,040	0,028
-535,393	-63,133	0,017	-0,005
-534,379	-200,000	-0,001	-0,027
-533,364	48,950	0,073	0,051
-532,350	240,041	0,052	-0,064
-531,335	-4,694	-0,084	0,043
-530,321	425,871	-0,016	0,025
-529,306	68,729	0,049	0,037
-528,291	800,000	0,040	-0,084
-527,277	568,397	-0,097	-0,175
-526,262	-200,000	-0,005	0,052
-525,248	13,253	0,127	0,072
-524,233	263,946	0,043	0,055
-523,218	306,252	-0,016	-0,022
-522,204	-114,320	0,056	0,008
-521,189	800,000	-0,057	0,118
-520,175	-35,470	0,166	-0,066
-519,160	0,252	-0,120	-0,063
-518,145	347,761	0,026	-0,037
-517,131	184,423	-0,070	-0,077
-516,116	-200,000	0,002	0,054
-515,102	-78,740	-0,026	-0,006
-514,087	103,911	-0,059	-0,051
-513,072	-35,802	-0,103	-0,041
-512,058	-200,000	0,016	-0,061
-511,043	268,687	0,056	-0,072
-510,029	-48,776	-0,178	0,063
-509,014	800,000	-0,049	0,113
-507,999	800,000	-0,006	-0,018
-506,985	-200,000	0,008	-0,032
-505,970	-185,875	-0,193	0,002
-504,956	254,763	0,042	0,054
-503,941	5,468	-0,048	0,026
-502,926	-200,000	0,004	0,039
-501,912	100,864	-0,063	0,054
-500,897	-87,484	0,085	-0,019
-499,883	118,736	-0,043	0,040
-498,868	-200,000	-0,001	0,011
-497,853	-66,245	0,075	-0,022
-496,839	401,447	0,016	0,026
-495,824	166,933	0,024	0,025
-494,810	279,596	0,094	0,124
-493,795	28,787	0,029	0,018
-492,781	-54,024	-0,079	-0,026
-491,766	40,512	-0,092	0,061
-490,751	-200,000	0,021	-0,078
-489,737	136,629	-0,017	-0,016
-488,722	281,827	-0,003	-0,004
-487,708	51,542	-0,040	-0,028
-486,693	-145,079	0,111	-0,007
-485,678	-102,339	-0,043	0,007
-484,664	-200,000	0,015	-0,192
-483,649	-200,000	-0,008	0,031
-482,635	484,583	-0,040	-0,068
-481,620	348,834	-0,065	-0,095
-480,605	799,204	0,031	0,064
-479,591	271,480	0,080	0,104
-478,576	234,590	-0,017	-0,021
-477,562	-122,144	-0,192	-0,023
-476,547	146,627	-0,023	-0,023
-475,532	300,522	0,029	-0,040
-474,518	-126,245	-0,184	0,020
-473,503	-200,000	0,028	0,099
-472,489	-111,218	0,063	-0,009
-471,474	800,000	-0,036	0,085
-470,459	-200,000	0,012	0,047
-469,445	800,000	-0,028	-0,089
-468,430	265,609	0,085	0,110
-467,416	-200,000	0,008	0,064
-466,401	267,725	-0,034	0,045
-465,386	498,681	-0,010	0,017
-464,372	800,000	-0,031	0,093
-463,357	-200,000	0,028	0,000
-462,343	-42,213	-0,084	0,031
-461,328	-200,000	0,081	0,000
-460,313	-197,078	0,086	-0,000
-459,299	16,439	0,043	0,025
-458,284	-200,000	-0,013	0,135
-457,270	-200,000	0,008	-0,036
-456,255	-42,223	-0,167	-0,063
-455,241	-200,000	-0,011	-0,053
-454,226	11,879	-0,112	-0,063
-453,211	-147,384	0,111	0,007
-452,197	-142,550	0,039	-0,003
-451,182	263,739	0,037	0,048
-450,168	-73,363	-0,107	-0,029
-449,153	-200,000	-0,038	-0,208
-448,138	-200,000	-0,021	-0,120
-447,124	-142,120	-0,025	-0,002
-446,109	-47,655	0,077	0,027
-445,095	-137,529	0,112	-0,009
-444,080	-20,011	0,087	0,039
-443,065	26,903	-0,068	-0,042
-442,051	-200,000	0,017	-0,083
-441,036	-35,251	0,093	0,037
-440,022	-175,452	-0,013	0,000
-439,007	-19,818	0,133	-0,060
-437,992	397,000	-0,061	0,095
-436,978	-200,000	-0,007	-0,047
-435,963	800,000	-0,042	0,126
-434,949	800,000	0,042	0,117
-433,934	-172,718	0,097	0,002
-432,919	-86,381	0,028	-0,006
-431,905	183,304	0,016	-0,017
-430,890	-78,384	-0,094	0,023
-429,876	-57,669	-0,106	0,034
-428,861	-62,386	0,100	-0,030
-427,846	295,693	-0,049	-0,066
-426,832	-112,253	-0,056	0,008
-425,817	589,757	-0,087	-0,159
-424,803	736,304	-0,045	-0,089
-423,788	670,825	-0,021	0,041
-422,773	-200,000	0,021	0,107
-421,759	202,690	0,121	0,137
-420,744	216,792	0,086	-0,101
-419,730	-200,000	0,027	-0,141
-418,715	-200,000	0,005	0,051
-417,701	-47,487	-0,067	0,024
-416,686	800,000	0,024	0,075
-415,671	242,721	0,159	-0,196
-414,657	125,915	-0,018	0,016
-413,642	289,319	-0,114	0,152
-412,628	800,000	0,022	0,057
-411,613	106,159	-0,029	-0,025
-410,598	-200,000	-0,046	-0,172
-409,584	800,000	-0,024	0,078
-408,569	-57,758	0,081	0,026
-407,555	-17,537	-0,081	0,037
-406,540	-200,000	0,001	0,022
-405,525	68,123	0,124	-0,093
-404,511	-200,000	0,020	-0,164
-403,496	-72,746	0,065	-0,018
-402,482	-8,040	0,138	-0,068
-401,467	60,647	-0,066	0,048
-400,452	498,295	0,023	0,040
-399,438	-200,000	0,013	-0,063
-398,423	800,000	-0,023	-0,071
-397,409	-171,047	0,047	-0,001
-396,394	800,000	0,052	-0,141
-395,379	-200,000	0,006	-0,028
-394,365	-200,000	-0,001	-0,061
-393,350	800,000	-0,029	-0,060
-392,336	-200,000	0,046	0,192
-391,321	374,339	-0,087	-0,131
-390,306	-58,021	-0,077	-0,025
-389,292	-70,722	0,026	0,007
-388,277	800,000	0,064	-0,145
-387,263	-200,000	-0,011	0,132
-386,248	800,000	0,033	0,074
-385,233	800,000	0,018	-0,050
-384,219	231,038	0,047	-0,057
-383,204	427,507	0,062	-0,098
-382,190	-200,000	-0,002	-0,011
-381,175	368,157	0,039	0,058
-380,160	-10,896	0,236	0,114
-379,146	529,535	0,042	0,073
-378,131	-50,306	-0,059	0,021
-377,117	-25,010	0,078	0,034
-376,102	486,939	-0,106	-0,179
-375,088	-113,559	-0,112	0,016
-374,073	800,000	-0,032	-0,080
-373,058	312,494	0,032	-0,044
-372,044	-200,000	-0,004	0,014
-371,029	800,000	-0,038	0,098
-370,015	-200,000	-0,001	0,039
-369,000	-200,000	0,007	-0,108
-367,985	800,000	0,039	0,120
-366,971	12,595	-0,136	0,077
-365,956	-23,701	-0,113	0,050
-364,942	-175,023	-0,090	-0,002
-363,927	-5,592	0,111	-0,056
-362,912	800,000	-0,021	0,057
-361,898	-120,686	-0,223	0,027
-360,883	-200,000	0,012	0,159
-359,869	-7,737	-0,021	0,010
-358,854	-102,698	0,105	0,018
-357,839	-154,053	0,080	0,004
-356,825	-76,059	0,038	0,010
-355,810	91,676	0,118	0,097
-354,796	-110,621	-0,094	-0,014
-353,781	-13,077	-0,089	0,042
-352,766	59,488	0,107	0,077
-351,752	156,289	-0,029	0,029
-350,737	497,045	0,016	-0,028
-349,723	328,197	0,087	-0,123
-348,708	800,000	0,039	0,090
-347,693	-171,880	0,031	-0,001
-346,679	91,246	-0,103	-0,085
-345,664	24,030	-0,043	0,026
-344,650	-200,000	0,031	-0,136
-343,635	160,304	0,050	-0,051
-342,620	0,389	0,168	0,088
-341,606	321,484	0,044	0,062
-340,591	79,527	0,077	-0,061
-339,577	59,739	-0,124	-0,089
-338,562	-9,827	0,069	0,033
-337,548	-200,000	0,043	0,147
-336,533	-96,242	-0,029	0,006
-335,518	-128,806	0,080	-0,008
-334,504	89,527	-0,013	0,011
-333,489	476,257	-0,029	0,048
-332,475	41,823	-0,079	0,053
-331,460	102,100	0,094	-0,080
-330,445	118,510	0,050	-0,045
-329,431	242,094	-0,054	0,067
-328,416	10,574	0,080	-0,044
-327,402	-21,288	0,089	0,040
-326,387	800,000	-0,028	0,063
-325,372	324,301	-0,046	0,065
-324,358	-200,000	0,000	-0,137
-323,343	-22,036	-0,035	0,015
-322,329	112,641	-0,029	0,026
-321,314	-104,359	-0,099	-0,017
-320,299	223,114	0,073	0,087
-319,285	192,946	0,047	-0,052
-318,270	-16,373	0,061	-0,028
-317,256	-3,399	0,143	-0,073
-316,241	5,043	-0,132	-0,071
-315,226	-200,000	0,008	-0,081
-314,212	-12,444	0,113	0,054
-313,197	317,026	-0,052	0,072
-312,183	-200,000	0,029	-0,135
-311,168	208,883	-0,048	0,055
-310,153	32,801	-0,107	0,068
-309,139	77,702	0,170	-0,133
-308,124	-200,000	0,015	-0,111
-307,110	-39,354	0,055	0,021
-306,095	311,278	-0,089	0,123
-305,080	-89,154	-0,082	0,018
-304,066	613,878	0,036	-0,067
-303,051	716,173	0,014	0,026
-302,037	39,274	-0,006	0,004
-301,022	800,000	-0,033	0,080
-300,008	-90,672	-0,044	0,009
-298,993	136,925	0,126	0,121
-297,978	205,011	0,011	-0,012
-296,964	-200,000	-0,053	-0,182
-295,949	800,000	0,056	-0,130
-294,935	-73,256	-0,126	-0,034
-293,920	34,871	0,046	-0,029
-292,905	754,021	0,100	0,200
-291,891	107,582	-0,111	0,097
-290,876	-200,000	0,000	0,016
-289,862	276,419	-0,028	-0,036
-288,847	175,136	0,010	0,010
-287,832	-30,857	0,011	-0,005
-286,818	-162,376	0,033	-0,001
-285,803	286,314	0,082	0,108
-284,789	-183,113	0,104	0,001
-283,774	-78,904	0,056	0,014
-282,759	65,289	-0,081	0,060
-281,745	800,000	-0,026	-0,079
-280,730	413,014	-0,032	-0,049
-279,716	623,174	0,074	-0,137
-278,701	486,305	0,029	-0,049
-277,686	-200,000	-0,007	-0,036
-276,672	228,356	0,069	0,082
-275,657	-200,000	0,011	0,062
-274,643	-87,273	-0,048	-0,011
-273,628	800,000	0,039	-0,122
-272,613	-200,000	0,014	-0,052
-271,599	-94,324	0,107	0,021
-270,584	-21,347	0,029	0,013
-269,570	800,000	-0,016	0,040
-268,555	387,725	-0,066	-0,100
-267,540	-28,071	0,092	0,039
-266,526	800,000	0,034	-0,086
-265,511	33,115	-0,130	0,082
-264,497	-38,569	0,034	-0,013
-263,482	-109,242	0,145	0,022
-262,467	501,439	-0,031	0,052
-261,453	14,294	-0,061	-0,035
-260,438	-13,581	0,097	0,046
-259,424	98,252	-0,109	-0,092
-258,409	-200,000	0,020	-0,167
-257,395	384,538	-0,101	0,152
-256,380	-94,967	-0,076	0,015
-255,365	-146,499	0,099	-0,006
-254,351	-200,000	0,034	-0,147
-253,336	800,000	-0,026	-0,063
-252,322	222,022	-0,061	-0,072
-251,307	114,351	-0,027	0,024
-250,292	-68,904	0,077	-0,022
-249,278	-200,000	-0,001	-0,109
-248,263	-200,000	-0,020	0,066
-247,249	-101,112	0,056	0,010
-246,234	800,000	0,023	-0,056
-245,219	341,912	0,056	-0,080
-244,205	177,691	0,072	-0,076
-243,190	-68,814	0,123	-0,035
-242,176	619,675	0,038	-0,070
-241,161	-68,879	-0,033	0,009
-240,146	-200,000	-0,011	0,046
-239,132	-200,000	0,025	0,102
-238,117	-147,817	-0,052	-0,003
-237,103	-49,188	-0,022	0,008
-236,088	-200,000	-0,023	-0,123
-235,073	-92,723	-0,107	0,022
-234,059	35,810	0,113	0,072
-233,044	-107,649	-0,030	0,005
-232,030	-200,000	-0,006	0,035
-231,015	-63,215	-0,052	-0,016
-230,000	-200,000	-0,023	0,091
-228,986	-200,000	-0,023	-0,170
-227,971	-15,666	-0,038	0,018
-226,957	181,931	0,011	0,012
-225,942	-200,000	-0,035	0,212
-224,927	302,521	-0,045	0,061
-223,913	-107,593	-0,118	0,019
-222,898	-36,450	0,161	-0,063
-221,884	-200,000	-0,013	-0,139
-220,869	-88,307	-0,041	0,009
-219,855	-200,000	-0,009	-0,030
-218,840	-200,000	0,008	0,103
-217,825	-19,944	-0,097	-0,044
-216,811	714,552	-0,026	-0,051
-215,796	-200,000	0,011	-0,104
-214,782	800,000	0,047	-0,112
-213,767	-59,760	-0,027	0,008
-212,752	-9,203	0,097	-0,047
-211,738	800,000	0,045	-0,145
-210,723	800,000	0,013	0,030
-209,709	800,000	-0,013	0,038
-208,694	-33,331	-0,089	0,036
-207,679	-72,097	-0,139	-0,037
-206,665	800,000	0,111	0,243
-205,650	-106,427	0,060	-0,010
-204,636	-200,000	0,015	0,123
-203,621	800,000	-0,047	0,124
-202,606	-15,184	0,086	-0,040
-201,592	191,468	-0,039	0,043
-200,577	-96,899	0,036	-0,007
-199,563	135,174	0,031	-0,029
-198,548	-200,000	-0,013	-0,071
-197,533	-35,990	0,109	-0,043
-196,519	-200,000	-0,006	0,034
-195,504	-200,000	-0,003	0,120
-194,490	-110,990	-0,192	0,028
-193,475	-200,000	-0,000	-0,009
-192,460	-200,000	-0,025	-0,085
-191,446	800,000	-0,013	-0,036
-190,431	800,000	-0,034	-0,089
-189,417	0,209	-0,100	0,052
-188,402	-200,000	-0,002	0,013
-187,387	249,630	0,032	-0,039
-186,373	541,970	-0,022	-0,038
-185,358	467,440	-0,081	-0,134
-184,344	800,000	-0,058	0,132
-183,329	681,975	0,045	0,086
-182,315	-143,071	0,084	-0,006
-181,300	34,897	0,060	-0,038
-180,285	-82,108	-0,047	0,011
-179,271	129,775	-0,022	-0,020
-178,256	-200,000	-0,013	-0,057
-177,242	-12,278	0,054	-0,026
-176,227	355,743	-0,097	0,141
-175,212	417,363	0,097	0,152
-174,198	-200,000	-0,007	0,100
-173,183	800,000	0,014	0,031
-172,169	253,421	-0,111	-0,138
-171,154	-200,000	-0,007	-0,140
-170,139	-116,642	0,087	-0,012
-169,125	-110,654	0,085	-0,013
-168,110	-200,000	-0,033	0,157
-167,096	130,238	0,067	0,063
-166,081	-200,000	0,007	-0,031
-165,066	263,631	0,053	-0,067
-164,052	-200,000	-0,004	-0,049
-163,037	27,242	-0,043	-0,027
-162,023	140,155	-0,023	0,022
-161,008	-103,196	-0,011	0,002
-159,993	800,000	0,012	-0,031
-158,979	120,128	0,018	-0,016
-157,964	94,597	-0,027	-0,022
-156,950	-200,000	-0,018	-0,109
-155,935	800,000	0,066	0,136
-154,920	219,342	-0,034	-0,039
-153,906	-135,357	0,057	0,005
-152,891	-10,836	0,180	-0,086
-151,877	-77,585	0,112	-0,028
-150,862	233,209	0,030	-0,036
-149,847	24,115	-0,107	0,064
-148,833	-1,665	0,084	0,043
-147,818	122,089	-0,078	0,071
-146,804	10,483	0,100	-0,056
-145,789	51,359	0,045	-0,031
-144,775	301,660	-0,033	0,044
-143,760	-200,000	0,012	-0,042
-142,745	-200,000	-0,010	-0,097
-141,731	187,489	-0,045	-0,048
-140,716	95,480	-0,084	-0,070
-139,702	-200,000	0,012	0,069
-138,687	182,589	0,094	-0,101
-137,672	-126,055	-0,139	0,015
-136,658	2,190	-0,029	-0,015
-135,643	-200,000	-0,020	-0,120
-134,629	0,704	-0,061	0,032
-133,614	-200,000	-0,008	-0,112
-132,599	318,906	0,064	0,088
-131,585	543,349	0,101	0,176
-130,570	-200,000	0,005	-0,070
-129,556	-200,000	-0,020	-0,101
-128,541	-200,000	-0,014	0,064
-127,526	-187,596	0,107	0,001
-126,512	-117,741	0,058	0,007
-125,497	-51,857	-0,081	-0,027
-124,483	227,958	0,129	0,153
-123,468	56,540	-0,093	0,066
-122,453	39,800	-0,038	0,025
-121,439	375,789	-0,071	-0,106
-120,424	-200,000	0,011	-0,041
-119,410	44,827	-0,169	-0,113
-118,395	-200,000	0,007	0,063
-117,380	31,044	-0,104	0,065
-116,366	-200,000	-0,017	-0,059
-115,351	285,005	0,081	0,107
-114,337	-200,000	-0,001	0,039
-113,322	-16,843	0,075	-0,034
-112,307	514,689	0,046	0,078
-111,293	-200,000	0,015	0,197
-110,278	-200,000	-0,031	0,169
-109,264	-17,252	0,033	0,015
-108,249	319,074	-0,032	-0,044
-107,234	182,308	-0,056	0,060
-106,220	90,893	0,099	-0,081
-105,205	-73,540	-0,034	0,009
-104,191	461,658	-0,077	0,126
-103,176	41,101	0,043	0,028
-102,162	-200,000	0,001	-0,003
-101,147	-200,000	-0,025	-0,099
-100,132	-200,000	-0,010	-0,037
-99,118	136,084	-0,024	-0,023
-98,103	496,741	-0,077	-0,129
-97,089	-200,000	0,013	0,073
-96,074	397,284	0,066	0,101
-95,059	800,000	0,031	0,082
-94,045	-200,000	-0,010	0,055
-93,030	-200,000	0,020	0,196
-92,016	-42,990	-0,062	-0,023
-91,001	-200,000	-0,011	0,082
-89,986	800,000	0,039	-0,106
-88,972	75,446	-0,070	-0,054
-87,957	13,538	0,165	0,093
-86,943	308,932	-0,051	-0,070
-85,928	-125,347	-0,128	-0,014
-84,913	-200,000	-0,017	-0,108
-83,899	-130,940	-0,154	0,015
-82,884	94,350	-0,057	0,047
-81,870	-200,000	0,016	0,127
-80,855	110,520	-0,064	0,056
-79,840	-29,936	-0,065	0,027
-78,826	-200,000	0,011	0,087
-77,811	800,000	-0,020	0,051
-76,797	8,663	0,023	0,012
-75,782	11,991	-0,035	-0,020
-74,767	-88,701	-0,040	0,009
-73,753	-148,991	-0,077	0,004
-72,738	-200,000	0,005	-0,049
-71,724	800,000	0,029	0,059
-70,709	421,377	-0,042	-0,066
-69,694	-193,496	0,056	0,000
-68,680	577,366	-0,039	-0,070
-67,665	167,079	-0,011	-0,012
-66,651	136,068	0,015	0,014
-65,636	800,000	-0,026	0,068
-64,622	657,640	0,042	-0,078
-63,607	48,226	-0,143	0,097
-62,592	-107,523	-0,049	-0,008
-61,578	118,253	0,038	0,034
-60,563	55,175	-0,019	0,013
-59,549	-200,000	0,008	0,078
-58,534	-142,476	-1,221	-0,086
-57,519	457,916	-0,878	-1,421
-56,505	-200,000	-0,939	-4,483
-55,490	67,268	0,626	-0,463
-54,476	800,000	4,855	11,953
-53,461	-200,000	13,702	253,816
-52,446	-200,000	690,740	2257,653
-51,432	588,966	1622,731	2913,808
-50,417	118,874	1634,811	1465,945
-49,403	73,005	1288,721	976,136
-48,388	37,919	1024,300	659,356
-47,373	24,288	981,855	587,198
-46,359	23,469	971,577	578,341
-45,344	22,474	967,344	572,547
-44,330	22,418	965,787	571,419
-43,315	22,336	964,385	570,301
-42,300	22,347	963,183	569,601
-41,286	22,254	962,629	568,949
-40,271	22,246	961,493	568,231
-39,257	22,276	960,550	567,747
-38,242	22,310	959,363	567,132
-37,227	22,227	958,833	566,529
-36,213	22,245	957,891	566,006
-35,198	22,218	956,866	565,293
-34,184	22,269	956,334	565,122
-33,169	22,257	955,511	564,574
-32,154	22,307	954,609	564,179
-31,140	22,304	953,569	563,534
-30,125	22,363	952,881	563,293
-29,111	22,297	952,011	562,544
-28,096	22,321	951,269	562,161
-27,082	22,301	950,666	561,719
-26,067	22,293	950,001	561,277
-25,052	22,332	949,161	560,884
-24,038	22,356	948,462	560,523
-23,023	22,351	947,730	560,055
-22,009	22,351	947,181	559,709
-20,994	22,367	946,592	559,388
-19,979	22,280	946,050	558,766
-18,965	22,308	945,553	558,542
-17,950	22,383	944,642	558,221
-16,936	22,267	944,068	557,490
-15,921	22,206	943,485	556,928
-14,906	22,178	942,660	556,331
-13,892	22,187	941,976	555,931
-12,877	22,133	941,528	555,473
-11,863	22,102	940,756	554,898
-10,848	22,152	940,287	554,759
-9,833	22,278	939,793	554,846
-8,819	22,277	939,300	554,528
-7,804	22,221	938,471	553,840
-6,790	22,182	937,798	553,298
-5,775	22,188	937,323	553,015
-4,760	22,146	936,862	552,588
-3,746	22,132	936,192	552,127
-2,731	22,003	935,507	551,293
-1,717	22,028	934,553	550,788
-0,702	22,024	933,930	550,387
0,313	21,787	933,331	550,117
1,327	24,988	931,362	558,974
2,342	34,800	795,705	503,679
3,356	32,812	451,713	282,913
4,371	1,806	294,200	153,282
5,386	-2,710	275,002	138,988
6,400	-4,383	269,156	134,467
7,415	-4,813	266,758	132,861
8,429	-4,273	265,442	132,689
9,444	-4,415	264,600	132,127
10,459	-4,381	264,070	131,881
11,473	-4,576	263,454	131,385
12,488	-4,731	263,064	131,038
13,502	-4,823	262,355	130,590
14,517	-4,842	262,044	130,406
15,531	-4,717	261,434	130,204
16,546	-4,725	261,223	130,079
17,561	-4,547	260,606	129,921
18,575	-4,511	260,479	129,878
19,590	-4,701	260,129	129,522
20,604	-4,642	259,825	129,412
21,619	-4,594	259,410	129,236
22,634	-4,703	259,197	129,021
23,648	-4,802	259,009	128,828
24,663	-4,827	258,612	128,596
25,677	-4,764	258,529	128,600
26,692	-4,778	258,190	128,407
27,707	-4,812	258,011	128,277
28,721	-4,789	257,600	128,082
29,736	-4,865	257,314	127,860
30,750	-4,896	257,112	127,721
31,765	-4,746	256,729	127,652
32,780	-4,847	256,641	127,508
33,794	-4,840	256,519	127,442
34,809	-4,921	256,317	127,258
35,823	-4,764	255,977	127,216
36,838	-4,917	255,767	126,966
37,853	-4,842	255,394	126,836
38,867	-4,714	255,304	126,892
39,882	-4,794	255,062	126,691
40,896	-4,815	254,735	126,498
41,911	-4,870	254,510	126,328
42,926	-4,730	254,323	126,346
43,940	-5,026	254,151	125,990
44,955	-5,031	253,961	125,881
45,969	-5,039	253,773	125,769
46,984	-5,135	253,407	125,493
47,999	-5,368	253,350	125,250
49,013	-5,430	252,894	124,959
50,028	-5,506	252,618	124,746
51,042	-5,639	252,430	124,527
52,057	-5,802	252,330	124,325
53,071	-5,741	252,057	124,231
54,086	-5,567	251,880	124,285
55,101	-5,429	251,595	124,252
56,115	-5,313	251,650	124,368
57,130	-4,882	251,485	124,648
58,144	-4,549	251,273	124,820
59,159	-4,358	251,002	124,839
60,174	-4,660	250,937	124,534
61,188	-4,762	250,672	124,305
62,203	-4,796	250,522	124,190
63,217	-4,796	250,312	124,075
64,232	-4,645	250,120	124,098
65,247	-4,666	249,932	123,976
66,261	-4,562	249,614	123,896
67,276	-4,646	249,202	123,609
68,290	-5,134	249,139	123,149
69,305	-5,187	248,807	122,928
70,320	-5,074	248,725	122,973
71,334	-4,841	248,441	123,021
72,349	-4,716	248,539	123,165
73,363	-4,671	248,296	123,072
74,378	-4,581	248,091	123,036
75,393	-4,749	247,795	122,735
76,407	-4,521	247,467	122,756
77,422	-4,992	247,473	122,348
78,436	-4,851	247,237	122,340
79,451	-4,779	247,082	122,314
80,466	-4,818	246,707	122,084
81,480	-5,079	246,537	121,768
82,495	-5,007	246,304	121,703
83,509	-4,985	246,169	121,644
84,524	-4,830	245,865	121,613
85,539	-4,942	245,759	121,456
86,553	-5,285	245,661	121,108
87,568	-4,939	245,331	121,225
88,582	-4,977	245,164	121,100
89,597	-5,019	245,017	120,981
90,611	-4,885	244,947	121,048
91,626	-4,708	244,863	121,144
92,641	-4,782	244,676	120,979
93,655	-5,006	244,508	120,698
94,670	-4,991	244,106	120,501
95,684	-4,740	243,875	120,586
96,699	-4,936	243,857	120,402
97,714	-4,902	243,566	120,276
98,728	-5,116	243,399	120,005
99,743	-5,375	243,193	119,677
100,757	-5,291	242,983	119,633
101,772	-5,360	242,793	119,472
102,787	-5,090	242,600	119,590
103,801	-4,957	242,485	119,633
104,816	-5,036	242,343	119,486
105,830	-4,676	242,279	119,743
106,845	-4,730	242,212	119,654
107,860	-4,815	241,835	119,388
108,874	-5,014	241,686	119,138
109,889	-4,888	241,313	119,048
110,903	-4,835	241,172	119,012
111,918	-4,787	240,866	118,890
112,933	-4,972	240,892	118,739
113,947	-4,814	240,677	118,753
114,962	-4,814	240,531	118,671
115,976	-4,998	240,484	118,485
116,991	-4,896	240,261	118,449
118,006	-4,977	239,955	118,221
119,020	-4,755	239,932	118,381
120,035	-4,727	239,802	118,329
121,049	-4,725	239,665	118,252
122,064	-4,829	239,494	118,072
123,079	-5,008	239,179	117,760
124,093	-4,770	238,970	117,841
125,108	-5,085	238,744	117,462
126,122	-5,225	238,489	117,213
127,137	-5,278	238,459	117,144
128,151	-5,351	238,281	116,987
129,166	-5,019	238,044	117,130
130,181	-5,066	237,841	116,982
131,195	-5,331	237,707	116,690
132,210	-4,969	237,578	116,910
133,224	-4,811	237,454	116,966
134,239	-4,954	237,307	116,767
135,254	-4,832	237,094	116,752
136,268	-4,960	236,874	116,529
137,283	-5,420	236,541	115,983
138,297	-5,359	236,431	115,968
139,312	-5,322	236,267	115,907
140,327	-5,071	236,169	116,051
141,341	-4,518	236,245	116,524
142,356	-4,361	235,927	116,483
143,370	-4,321	235,797	116,441
144,385	-4,428	235,689	116,291
145,400	-4,544	235,496	116,092
146,414	-4,426	235,168	116,015
147,429	-4,604	235,065	115,811
148,443	-4,432	234,983	115,898
149,458	-4,828	234,951	115,555
150,473	-4,707	234,779	115,557
151,487	-4,561	234,387	115,470
152,502	-4,514	234,244	115,427
153,516	-4,544	234,132	115,338
154,531	-4,477	233,962	115,297
155,546	-4,496	233,802	115,193
156,560	-4,531	233,669	115,089
157,575	-4,697	233,375	114,802
158,589	-4,778	233,207	114,644
159,604	-4,465	233,208	114,884
160,619	-4,370	233,095	114,893
161,633	-4,564	232,962	114,663
162,648	-4,516	232,778	114,601
163,662	-4,535	232,645	114,510
164,677	-4,750	232,534	114,275
165,692	-4,490	232,270	114,340
166,706	-4,304	232,070	114,379
167,721	-4,341	231,974	114,292
168,735	-4,088	231,751	114,371
169,750	-4,589	231,698	113,941
170,764	-4,397	231,427	113,947
171,779	-4,387	231,347	113,906
172,794	-4,544	231,289	113,744
173,808	-4,520	230,909	113,566
174,823	-5,125	230,661	112,959
175,837	-5,369	230,506	112,681
176,852	-4,902	230,502	113,036
177,867	-4,477	230,256	113,238
178,881	-4,471	230,261	113,235
179,896	-4,545	230,076	113,076
180,910	-4,249	229,863	113,192
181,925	-4,382	229,891	113,092
182,940	-4,436	229,483	112,839
183,954	-4,294	229,467	112,932
184,969	-4,389	229,400	112,815
185,983	-4,325	229,194	112,754
186,998	-4,283	229,078	112,719
188,013	-4,124	228,905	112,748
189,027	-4,268	228,772	112,560
190,042	-4,373	228,590	112,379
191,056	-4,360	228,465	112,317
192,071	-4,171	228,244	112,345
193,086	-4,311	228,106	112,159
194,100	-4,223	227,964	112,147
195,115	-4,415	227,553	111,787
196,129	-5,149	227,608	111,237
197,144	-2,084	228,439	114,009
198,159	2,255	229,385	117,841
199,173	4,358	229,903	119,729
200,188	4,296	229,948	119,694
201,202	4,484	229,762	119,733
202,217	4,376	229,617	119,563
203,232	4,676	229,673	119,813
204,246	4,734	229,535	119,776
205,261	4,956	229,299	119,814
206,275	5,114	229,164	119,855
207,290	4,923	229,073	119,649
208,304	4,949	228,895	119,565
209,319	4,891	228,759	119,438
210,334	4,897	228,466	119,279
211,348	4,818	228,275	119,109
212,363	4,380	228,094	118,667
213,377	4,257	227,728	118,371
214,392	4,110	227,679	118,222
215,407	4,022	227,518	118,061
216,421	4,323	227,413	118,227
217,436	4,180	227,300	118,048
218,450	3,940	226,896	117,644
219,465	3,807	226,877	117,522
220,480	4,058	226,754	117,639
221,494	3,935	226,619	117,465
222,509	3,865	226,372	117,273
223,523	3,923	226,284	117,261
224,538	4,082	226,196	117,326
225,553	3,902	226,094	117,125
226,567	4,173	226,026	117,286
227,582	4,567	225,786	117,451
228,596	4,628	225,648	117,415
229,611	4,353	225,381	117,056
230,626	4,132	225,213	116,792
231,640	4,168	225,131	116,766
232,655	4,376	225,121	116,908
233,669	4,638	225,070	117,070
234,684	4,865	224,902	117,143
235,699	4,431	224,712	116,706
236,713	3,947	224,549	116,246
237,728	4,054	224,225	116,148
238,742	4,124	224,092	116,122
239,757	4,340	223,852	116,150
240,772	4,202	223,760	115,987
241,786	3,927	223,588	115,681
242,801	4,154	223,643	115,870
243,815	4,467	223,686	116,117
244,830	4,454	223,454	115,977
245,844	4,471	223,093	115,792
246,859	4,131	223,114	115,537
247,874	4,399	222,870	115,602
248,888	4,646	222,882	115,782
249,903	4,523	222,500	115,482
250,917	4,152	222,298	115,090
251,932	4,138	222,236	115,036
252,947	3,964	222,021	114,785
253,961	4,039	221,800	114,717
254,976	3,949	221,719	114,598
255,990	4,291	221,702	114,834
257,005	4,208	221,536	114,675
258,020	4,165	221,486	114,607
259,034	4,464	221,532	114,843
260,049	4,432	221,180	114,627
261,063	4,240	221,114	114,439
262,078	4,621	220,876	114,589
263,093	4,439	220,795	114,401
264,107	4,502	220,632	114,354
265,122	4,412	220,529	114,224
266,136	4,514	220,468	114,257
267,151	4,632	220,210	114,200
268,166	4,142	219,928	113,683
269,180	3,815	219,843	113,387
270,195	3,905	219,697	113,368
271,209	3,976	219,522	113,320
272,224	4,172	219,415	113,399
273,239	4,086	219,197	113,213
274,253	4,258	218,994	113,224
275,268	4,322	218,762	113,141
276,282	3,825	218,744	112,757
277,297	3,863	218,579	112,690
278,312	3,973	218,512	112,726
279,326	3,976	218,402	112,661
280,341	4,102	218,264	112,672
281,355	3,925	218,272	112,537
282,370	4,005	217,996	112,443
283,384	3,904	217,889	112,304
284,399	4,013	217,693	112,272
285,414	3,896	217,532	112,094
286,428	4,117	217,446	112,201
287,443	4,309	217,381	112,297
288,457	4,359	217,104	112,180
289,472	4,242	216,914	111,987
290,487	3,814	216,660	111,536
291,501	3,745	216,581	111,434
292,516	3,828	216,460	111,423
293,530	3,702	216,477	111,331
294,545	3,746	216,284	111,253
295,560	4,118	216,089	111,411
296,574	3,929	216,172	111,308
297,589	3,938	215,884	111,156
298,603	4,175	215,805	111,277
299,618	4,388	215,571	111,300
300,633	4,170	215,503	111,097
301,647	4,350	215,600	111,267
302,662	4,603	215,334	111,303
303,676	4,553	215,094	111,133
304,691	4,336	215,061	110,950
305,706	4,357	214,862	110,852
306,720	4,206	214,831	110,718
307,735	4,237	214,564	110,593
308,749	4,023	214,393	110,341
309,764	4,181	214,308	110,400
310,779	4,259	214,102	110,340
311,793	4,342	214,032	110,354
312,808	4,227	213,766	110,125
313,822	4,394	213,594	110,146
314,837	4,081	213,485	109,856
315,852	3,946	213,444	109,729
316,866	3,999	213,274	109,669
317,881	4,359	213,115	109,834
318,895	4,417	212,954	109,783
319,910	3,985	212,837	109,406
320,925	3,885	212,700	109,255
321,939	3,582	212,433	108,893
322,954	3,729	212,421	108,982
323,968	4,332	212,306	109,339
324,983	4,086	212,262	109,133
325,997	4,316	212,259	109,285
327,012	4,127	211,885	108,949
328,027	4,164	211,916	108,981
329,041	4,519	211,675	109,099
330,056	4,444	211,763	109,081
331,070	4,069	211,494	108,668
332,085	3,785	211,198	108,307
333,100	3,837	211,221	108,345
334,114	4,003	210,998	108,338
335,129	4,249	210,703	108,350
336,143	3,781	210,620	107,968
337,158	3,929	210,559	108,031
338,173	4,075	210,399	108,042
339,187	3,824	210,337	107,824
340,202	3,720	210,087	107,614
341,216	3,738	210,051	107,598
342,231	3,845	209,786	107,528
343,246	3,842	209,680	107,462
344,260	3,876	209,688	107,481
345,275	4,159	209,451	107,547
346,289	3,858	209,424	107,313
347,304	3,959	209,274	107,298
348,319	4,139	209,173	107,361
349,333	3,955	208,922	107,095
350,348	3,966	208,869	107,066
351,362	4,181	208,741	107,140
352,377	4,289	208,620	107,144
353,392	4,215	208,412	106,976
354,406	4,193	208,334	106,911
355,421	194,017	1345,138	1434,214
356,435	154,806	1483,757	1434,338
