DTS Sentinel unit serial number:	SN410029Multiplexer serial number:	ORYXHardware model number:	OX2-SRSoftware version number:	ORYX F/W v4,00 Oryx Data Collector v3.7.2.0data status	okinstallation	B6 Nyhavnadifferential loss correction	single-endedforward channel	channel 2reverse channel	N/Adate	2023/12/10time	02:00:08forward acquisition time	300,00reverse acquisition time	0,00gamma	499,1914k internal	0,3125k external	0,3125temperature offset calibration	1,0000default loss term (dB/km)	0,3820temperature slope calibration	1,0000multiplexer offset coefficient	1,0000multiplexer slope coefficient	1,0000fibre end	0,00T internal ref (°C)	21,94T ext. ref 1 (°C)	5,70T ext. ref 2 (°C)	5,68length (m)	temperature (°C)	Stokes	anti-Stokes-744,400	141,417	0,059	-0,059
-743,385	-30,160	-0,348	0,147
-742,371	33,912	0,184	0,119
-741,356	492,835	-0,084	0,143
-740,342	164,476	-0,043	0,045
-739,327	-95,080	-0,327	0,065
-738,312	-11,499	-0,120	-0,059
-737,298	-92,636	-0,146	0,030
-736,283	-57,164	-0,087	-0,028
-735,269	-143,297	-0,184	0,013
-734,254	800,000	0,017	-0,041
-733,239	-80,724	-0,411	-0,101
-732,225	-12,194	0,123	0,060
-731,210	-70,072	0,109	-0,031
-730,196	326,195	-0,086	0,123
-729,181	-200,000	0,001	0,075
-728,167	416,388	0,041	-0,065
-727,152	341,675	-0,051	-0,075
-726,137	272,442	-0,038	-0,050
-725,123	-200,000	-0,030	-0,144
-724,108	-25,071	-0,170	-0,075
-723,094	800,000	0,041	-0,113
-722,079	361,575	-0,016	-0,024
-721,064	624,566	-0,012	-0,023
-720,050	-68,733	-0,131	0,037
-719,035	199,143	0,071	0,081
-718,021	60,754	0,084	-0,062
-717,006	59,387	-0,122	-0,089
-715,991	497,430	-0,064	-0,110
-714,977	-200,000	-0,022	-0,166
-713,962	195,078	0,066	-0,075
-712,948	293,166	-0,047	-0,064
-711,933	453,966	0,002	-0,004
-710,918	-200,000	0,017	-0,086
-709,904	113,791	-0,119	-0,108
-708,889	374,776	-0,044	-0,067
-707,875	1,456	0,082	-0,044
-706,860	-200,000	0,009	0,051
-705,845	-114,614	-0,007	-0,001
-704,831	362,689	-0,063	-0,094
-703,816	-70,343	-0,074	-0,021
-702,802	561,494	-0,054	0,097
-701,787	-200,000	0,009	-0,096
-700,772	-30,332	-0,058	0,024
-699,758	800,000	-0,043	-0,095
-698,743	44,765	-0,128	-0,087
-697,729	-200,000	0,002	0,039
-696,714	800,000	-0,027	0,070
-695,699	58,013	0,126	-0,092
-694,685	360,339	0,031	-0,047
-693,670	-95,411	-0,181	0,036
-692,656	-119,341	-0,035	-0,004
-691,641	800,000	0,025	-0,054
-690,627	70,866	0,065	0,050
-689,612	-134,175	-0,044	0,004
-688,597	89,388	-0,124	-0,103
-687,583	-130,526	-0,155	-0,015
-686,568	-200,000	-0,013	-0,071
-685,554	-35,267	-0,014	-0,006
-684,539	508,007	-0,047	-0,081
-683,524	-200,000	-0,004	0,117
-682,510	230,416	-0,073	-0,088
-681,495	-39,932	-0,069	0,027
-680,481	-43,413	-0,133	0,050
-679,466	-200,000	-0,004	0,042
-678,451	-35,695	0,069	-0,028
-677,437	-135,808	0,100	0,009
-676,422	-39,346	-0,092	0,036
-675,408	109,707	-0,038	0,034
-674,393	46,228	-0,056	0,039
-673,378	-49,444	-0,094	-0,033
-672,364	-109,219	-0,118	-0,018
-671,349	-200,000	0,003	0,017
-670,335	233,081	0,053	0,064
-669,320	44,464	-0,079	-0,054
-668,305	-38,325	-0,054	0,021
-667,291	67,324	-0,036	0,027
-666,276	-200,000	-0,009	-0,045
-665,262	-120,861	-0,113	0,014
-664,247	28,275	-0,035	0,022
-663,232	800,000	0,014	-0,039
-662,218	-200,000	-0,009	0,098
-661,203	-72,994	0,066	-0,018
-660,189	101,638	0,096	0,083
-659,174	168,464	-0,091	-0,096
-658,159	793,028	0,015	-0,031
-657,145	-200,000	0,066	-0,278
-656,130	-200,000	-0,010	0,087
-655,116	-200,000	0,004	0,033
-654,101	-97,761	-0,088	-0,017
-653,086	-47,519	-0,089	-0,032
-652,072	800,000	-0,043	-0,094
-651,057	-200,000	0,013	-0,082
-650,043	165,599	0,093	-0,098
-649,028	513,893	0,021	-0,037
-648,014	3,188	0,121	-0,065
-646,999	502,694	0,083	-0,143
-645,984	357,645	0,011	-0,017
-644,970	-13,147	-0,104	-0,050
-643,955	800,000	-0,036	0,092
-642,941	518,803	0,059	-0,103
-641,926	-156,180	-0,046	0,002
-640,911	-17,841	0,109	0,050
-639,897	209,714	-0,018	-0,021
-638,882	-58,124	-0,122	0,039
-637,868	800,000	-0,047	0,119
-636,853	-200,000	-0,002	0,116
-635,838	-9,099	-0,086	0,042
-634,824	-123,690	-0,055	0,006
-633,809	800,000	-0,037	0,090
-632,795	-94,513	0,042	-0,008
-631,780	-200,000	-0,012	-0,080
-630,765	-38,533	0,026	-0,010
-629,751	71,259	-0,032	-0,025
-628,736	358,563	-0,083	-0,123
-627,722	77,442	0,034	0,027
-626,707	370,720	-0,022	0,033
-625,692	331,285	-0,032	0,046
-624,678	-1,243	0,058	-0,030
-623,663	21,370	-0,087	-0,053
-622,649	800,000	-0,019	-0,051
-621,634	-129,172	-0,100	0,010
-620,619	-53,678	0,030	0,010
-619,605	70,923	0,076	0,058
-618,590	800,000	-0,006	-0,019
-617,576	47,103	-0,013	-0,009
-616,561	-200,000	-0,017	0,103
-615,546	-99,653	-0,142	0,026
-614,532	-5,024	0,099	-0,050
-613,517	488,089	0,055	0,093
-612,503	-200,000	0,004	-0,046
-611,488	800,000	0,031	-0,072
-610,474	-47,436	0,190	0,068
-609,459	-166,168	0,178	0,005
-608,444	335,589	-0,066	-0,095
-607,430	285,675	0,039	-0,052
-606,415	-133,593	0,216	-0,020
-605,401	438,073	-0,069	0,111
-604,386	285,092	0,081	0,108
-603,371	800,000	-0,035	0,074
-602,357	-200,000	-0,017	0,056
-601,342	441,360	-0,044	-0,072
-600,328	77,046	-0,081	-0,064
-599,313	-106,101	-0,083	0,014
-598,298	-200,000	0,045	-0,195
-597,284	11,683	0,055	-0,031
-596,269	133,449	0,027	-0,026
-595,255	800,000	-0,026	-0,078
-594,240	67,769	-0,105	-0,080
-593,225	-200,000	0,001	-0,137
-592,211	-108,403	-0,122	-0,019
-591,196	-200,000	0,048	-0,266
-590,182	292,577	0,033	0,044
-589,167	-200,000	-0,006	0,026
-588,152	225,102	0,043	-0,052
-587,138	-8,580	-0,102	0,051
-586,123	-87,771	0,013	-0,003
-585,109	158,106	-0,009	-0,009
-584,094	-200,000	0,009	-0,094
-583,079	-130,796	0,220	-0,022
-582,065	-120,160	0,122	0,015
-581,050	126,189	-0,062	-0,058
-580,036	314,055	0,021	0,030
-579,021	-36,419	-0,083	0,033
-578,006	594,218	-0,055	-0,102
-576,992	214,557	-0,076	-0,089
-575,977	-47,469	-0,029	0,010
-574,963	748,347	-0,055	-0,109
-573,948	42,399	0,177	0,119
-572,934	-32,662	-0,134	-0,055
-571,919	-150,229	-0,138	0,008
-570,904	194,151	-0,034	-0,038
-569,890	800,000	-0,041	-0,094
-568,875	-200,000	-0,023	-0,115
-567,861	130,150	0,075	-0,071
-566,846	-86,067	0,093	-0,021
-565,831	256,189	-0,030	-0,039
-564,817	59,496	-0,047	-0,034
-563,802	-128,736	-0,024	0,002
-562,788	800,000	-0,040	0,118
-561,773	-36,576	-0,232	0,092
-560,758	-50,197	0,018	0,006
-559,744	-44,602	-0,067	0,025
-558,729	-200,000	-0,010	0,038
-557,715	-52,049	-0,098	-0,034
-556,700	-200,000	-0,004	0,037
-555,685	-139,212	0,077	-0,006
-554,671	-40,025	0,145	0,056
-553,656	-200,000	-0,001	-0,081
-552,642	626,880	0,026	-0,049
-551,627	5,123	0,095	0,052
-550,612	196,864	0,046	-0,052
-549,598	227,905	-0,033	-0,040
-548,583	-200,000	-0,007	0,037
-547,569	800,000	-0,030	-0,064
-546,554	800,000	0,028	0,081
-545,539	99,700	0,080	-0,069
-544,525	800,000	0,030	-0,064
-543,510	-79,019	-0,035	-0,009
-542,496	-200,000	-0,000	-0,068
-541,481	75,260	0,061	0,048
-540,466	37,126	0,013	0,008
-539,452	302,310	-0,033	-0,046
-538,437	-200,000	0,001	-0,100
-537,423	93,785	-0,128	0,107
-536,408	103,767	0,039	0,033
-535,393	-200,000	0,000	-0,005
-534,379	129,624	-0,050	-0,047
-533,364	97,638	-0,078	-0,066
-532,350	-200,000	0,018	0,098
-531,335	-200,000	0,021	-0,094
-530,321	244,656	-0,162	-0,201
-529,306	-200,000	0,016	0,176
-528,291	45,573	0,055	-0,038
-527,277	-19,670	-0,079	-0,036
-526,262	28,167	0,014	0,009
-525,248	388,598	-0,056	0,086
-524,233	-96,372	0,222	-0,043
-523,218	297,276	0,015	-0,020
-522,204	-200,000	0,024	0,112
-521,189	800,000	0,024	-0,064
-520,175	-147,374	0,076	-0,005
-519,160	361,593	-0,118	-0,175
-518,145	147,022	-0,099	-0,098
-517,131	-36,790	-0,070	0,028
-516,116	451,727	-0,057	-0,093
-515,102	800,000	-0,029	0,082
-514,087	-91,621	-0,032	0,007
-513,072	-149,959	-0,080	-0,005
-512,058	184,775	0,114	0,125
-511,043	520,014	-0,022	-0,038
-510,029	68,121	0,047	-0,036
-509,014	-200,000	-0,034	-0,121
-507,999	-166,868	0,063	-0,002
-506,985	-27,754	-0,107	0,046
-505,970	-200,000	-0,049	-0,209
-504,956	-80,289	-0,134	0,033
-503,941	-36,566	0,123	0,049
-502,926	341,999	-0,064	0,093
-501,912	19,419	-0,058	-0,034
-500,897	-47,923	0,115	0,041
-499,883	-200,000	-0,004	-0,075
-498,868	499,481	-0,036	0,062
-497,853	320,249	0,086	-0,120
-496,839	-200,000	0,007	-0,123
-495,824	180,698	-0,130	0,141
-494,810	-200,000	0,012	0,136
-493,795	-87,062	-0,120	0,027
-492,781	-200,000	0,001	0,007
-491,766	-117,840	-0,081	-0,011
-490,751	-135,330	-0,109	-0,009
-489,737	215,712	0,030	-0,035
-488,722	800,000	-0,012	0,034
-487,708	800,000	0,052	0,122
-486,693	108,632	-0,148	0,130
-485,678	122,554	-0,088	-0,082
-484,664	206,557	-0,073	0,084
-483,649	800,000	-0,038	0,083
-482,635	346,183	-0,114	0,165
-481,620	-40,582	0,128	0,049
-480,605	-150,908	-0,069	-0,004
-479,591	154,087	0,043	0,044
-478,576	-200,000	-0,033	-0,110
-477,562	-125,232	-0,050	0,006
-476,547	471,500	0,138	-0,231
-475,532	184,591	0,045	0,049
-474,518	728,326	-0,030	-0,059
-473,503	65,702	0,043	-0,032
-472,489	-200,000	-0,006	0,050
-471,474	630,608	0,051	0,096
-470,459	-130,665	-0,088	-0,009
-469,445	800,000	0,016	-0,041
-468,430	-147,482	0,076	0,005
-467,416	-88,176	-0,056	-0,012
-466,401	-186,266	0,094	0,001
-465,386	800,000	0,084	0,209
-464,372	-105,584	-0,054	-0,009
-463,357	103,836	0,094	-0,082
-462,343	-172,951	-0,150	-0,003
-461,328	-200,000	0,012	-0,163
-460,313	-121,065	0,042	0,005
-459,299	483,098	-0,057	0,096
-458,284	-4,617	-0,114	0,058
-457,270	-194,469	0,025	-0,000
-456,255	-200,000	-0,001	0,010
-455,241	-97,484	0,020	0,004
-454,226	-200,000	-0,001	-0,040
-453,211	-73,335	-0,152	-0,041
-452,197	91,124	-0,054	0,044
-451,182	-19,389	0,106	0,048
-450,168	-180,670	0,125	0,002
-449,153	102,884	-0,173	-0,149
-448,138	-200,000	0,000	-0,009
-447,124	-200,000	-0,044	-0,155
-446,109	64,050	-0,019	-0,014
-445,095	-48,841	-0,064	-0,023
-444,080	728,943	0,051	0,101
-443,065	59,969	-0,034	-0,025
-442,051	128,151	0,045	-0,042
-441,036	-200,000	-0,001	-0,081
-440,022	-200,000	-0,001	0,067
-439,007	-200,000	0,005	0,029
-437,992	0,708	0,070	-0,037
-436,978	800,000	-0,021	0,067
-435,963	-140,079	0,151	0,012
-434,949	137,803	0,095	0,091
-433,934	149,590	0,060	0,060
-432,919	256,109	-0,199	-0,252
-431,905	-200,000	-0,016	-0,067
-430,890	62,611	0,035	0,026
-429,876	800,000	0,037	0,101
-428,861	-119,438	-0,078	-0,010
-427,846	-120,316	-0,093	0,012
-426,832	201,255	-0,136	-0,154
-425,817	800,000	0,020	-0,062
-424,803	-200,000	0,004	0,044
-423,788	203,140	-0,047	-0,053
-422,773	-200,000	0,030	0,126
-421,759	49,124	0,054	0,038
-420,744	137,105	0,114	0,110
-419,730	800,000	-0,013	0,036
-418,715	-171,511	-0,112	0,003
-417,701	-200,000	0,001	0,048
-416,686	-3,682	-0,113	-0,058
-415,671	-72,576	0,078	-0,021
-414,657	143,579	0,052	-0,051
-413,642	503,456	0,024	0,041
-412,628	257,114	-0,059	-0,075
-411,613	-54,046	0,064	0,021
-410,598	800,000	0,019	0,041
-409,584	298,666	-0,069	-0,094
-408,569	158,132	0,071	-0,073
-407,555	315,328	0,084	-0,117
-406,540	140,498	0,031	0,030
-405,525	800,000	0,030	0,093
-404,511	488,789	-0,058	-0,098
-403,496	800,000	-0,065	0,187
-402,482	267,103	0,022	0,028
-401,467	38,137	0,126	0,083
-400,452	-200,000	0,003	0,138
-399,438	800,000	-0,025	0,053
-398,423	-200,000	0,042	-0,147
-397,409	454,947	-0,085	0,140
-396,394	-200,000	0,004	-0,091
-395,379	239,595	-0,055	0,068
-394,365	-200,000	-0,003	0,053
-393,350	-117,355	-0,052	0,007
-392,336	800,000	-0,068	0,150
-391,321	-179,046	0,053	-0,001
-390,306	22,281	-0,012	-0,007
-389,292	800,000	0,055	0,140
-388,277	-200,000	-0,031	0,191
-387,263	405,889	-0,081	0,125
-386,248	14,481	-0,024	0,014
-385,233	441,345	0,098	0,158
-384,219	461,573	-0,111	0,183
-383,204	800,000	0,027	-0,071
-382,190	169,732	0,099	-0,104
-381,175	800,000	0,044	-0,110
-380,160	-200,000	0,016	-0,091
-379,146	34,240	0,064	0,041
-378,131	282,096	0,090	0,119
-377,117	-200,000	0,024	0,106
-376,102	190,184	-0,043	-0,047
-375,088	-60,119	0,121	-0,038
-374,073	-200,000	-0,010	-0,044
-373,058	279,652	-0,051	0,067
-372,044	800,000	0,038	0,085
-371,029	-42,135	0,070	0,026
-370,015	24,828	-0,091	0,055
-369,000	661,305	-0,095	-0,181
-367,985	186,420	-0,132	0,144
-366,971	337,636	-0,063	0,090
-365,956	-187,639	-0,065	0,001
-364,942	-200,000	0,019	0,094
-363,927	150,246	0,119	-0,118
-362,912	86,417	-0,031	-0,025
-361,898	284,541	-0,054	-0,072
-360,883	800,000	-0,042	-0,093
-359,869	800,000	0,040	0,086
-358,854	-13,780	-0,091	-0,043
-357,839	-13,695	0,061	-0,029
-356,825	-133,402	0,087	0,008
-355,810	43,913	-0,115	-0,077
-354,796	-138,883	-0,037	0,003
-353,781	21,616	-0,106	0,063
-352,766	84,538	0,080	-0,065
-351,752	24,190	-0,086	-0,052
-350,737	-200,000	0,032	-0,168
-349,723	-200,000	0,020	0,172
-348,708	-200,000	-0,023	0,127
-347,693	-171,396	0,084	0,002
-346,679	125,685	-0,013	-0,012
-345,664	233,236	-0,026	0,032
-344,650	-117,101	0,127	0,017
-343,635	510,304	0,044	-0,075
-342,620	-100,634	0,055	-0,010
-341,606	-200,000	-0,002	-0,011
-340,591	-18,723	0,085	-0,039
-339,577	-141,977	-0,075	0,005
-338,562	-200,000	-0,000	0,050
-337,548	800,000	0,019	0,045
-336,533	-17,790	0,133	-0,061
-335,518	51,431	-0,047	-0,033
-334,504	-92,025	0,079	0,016
-333,489	0,070	0,092	0,048
-332,475	800,000	0,031	-0,085
-331,460	306,895	-0,034	0,047
-330,445	247,244	0,005	-0,006
-329,431	-163,285	0,090	0,003
-328,416	-151,211	0,030	-0,002
-327,402	36,655	-0,080	0,052
-326,387	-194,234	0,055	-0,000
-325,372	800,000	0,030	0,066
-324,358	65,803	-0,040	-0,030
-323,343	800,000	-0,013	0,038
-322,329	-70,328	0,137	-0,038
-321,314	228,149	0,111	0,133
-320,299	10,942	-0,047	0,026
-319,285	188,907	0,036	-0,039
-318,270	800,000	-0,029	0,068
-317,256	41,561	-0,073	-0,048
-316,241	350,840	-0,093	-0,134
-315,226	610,763	-0,059	0,108
-314,212	0,242	0,188	0,098
-313,197	-124,932	0,028	-0,003
-312,183	-151,091	-0,158	0,009
-311,168	495,679	0,058	0,098
-310,153	-26,015	-0,031	-0,013
-309,139	-160,403	0,076	-0,003
-308,124	-26,493	0,046	0,020
-307,110	289,954	-0,046	0,061
-306,095	358,819	0,032	-0,047
-305,080	221,001	0,096	0,113
-304,066	-135,365	-0,041	0,004
-303,051	-118,382	0,076	-0,010
-302,037	-116,656	-0,091	0,012
-301,022	-200,000	-0,005	-0,076
-300,008	800,000	-0,016	0,052
-298,993	-180,334	0,176	-0,003
-297,978	218,403	-0,064	-0,075
-296,964	-11,798	0,072	0,034
-295,949	800,000	-0,026	-0,082
-294,935	242,769	0,052	0,063
-293,920	-117,864	-0,159	0,021
-292,905	800,000	-0,051	0,136
-291,891	138,629	0,107	0,103
-290,876	117,552	0,036	0,032
-289,862	-96,766	0,087	-0,017
-288,847	-92,705	-0,112	-0,023
-287,832	2,785	0,188	-0,099
-286,818	-200,000	0,016	-0,207
-285,803	-39,706	0,096	-0,037
-284,789	-17,828	0,141	-0,064
-283,774	68,254	-0,057	-0,043
-282,759	-171,113	-0,043	0,001
-281,745	-61,445	-0,068	0,021
-280,730	162,842	-0,067	-0,069
-279,716	557,420	0,046	-0,082
-278,701	17,792	-0,095	0,055
-277,686	-163,782	-0,051	-0,002
-276,672	-200,000	-0,018	-0,068
-275,657	612,744	0,048	-0,088
-274,643	7,471	-0,139	-0,076
-273,628	203,003	0,096	0,108
-272,613	522,343	0,033	-0,058
-271,599	-200,000	0,021	0,113
-270,584	-200,000	0,021	0,171
-269,570	576,781	0,043	0,077
-268,555	-200,000	-0,014	0,120
-267,540	-165,783	0,059	-0,002
-266,526	547,583	0,071	-0,125
-265,511	-167,281	0,022	-0,001
-264,497	640,812	-0,069	0,129
-263,482	50,200	0,105	-0,072
-262,467	289,138	0,049	-0,066
-261,453	314,251	-0,041	0,056
-260,438	89,176	-0,087	0,070
-259,424	-31,283	-0,015	0,006
-258,409	800,000	-0,062	-0,146
-257,395	532,918	-0,022	-0,039
-256,380	-200,000	-0,009	0,067
-255,365	24,931	-0,141	-0,085
-254,351	-11,633	0,146	0,070
-253,336	-98,440	0,096	-0,018
-252,322	745,548	-0,008	-0,017
-251,307	491,875	-0,035	0,059
-250,292	199,680	-0,043	-0,049
-249,278	-144,172	0,026	0,002
-248,263	-61,825	0,081	0,024
-247,249	800,000	0,009	-0,020
-246,234	-133,908	0,049	0,004
-245,219	800,000	0,036	-0,078
-244,205	-161,599	-0,066	-0,002
-243,190	190,008	-0,013	0,014
-242,176	38,294	0,122	0,079
-241,161	-80,945	0,128	-0,031
-240,146	109,136	-0,021	0,018
-239,132	-47,211	-0,048	-0,017
-238,117	17,810	0,021	-0,012
-237,103	-200,000	-0,023	0,092
-236,088	49,618	0,151	-0,104
-235,073	33,479	0,038	0,024
-234,059	-48,446	0,049	-0,017
-233,044	-200,000	0,034	0,210
-232,030	419,169	-0,019	0,030
-231,015	-166,107	-0,195	0,006
-230,000	136,509	-0,045	-0,043
-228,986	-84,683	-0,168	-0,038
-227,971	-200,000	0,021	0,125
-226,957	17,548	0,108	-0,063
-225,942	114,228	0,127	0,113
-224,927	800,000	-0,034	0,104
-223,913	-134,126	0,037	-0,003
-222,898	-9,985	-0,025	-0,012
-221,884	82,512	-0,066	0,052
-220,869	252,948	-0,115	0,144
-219,855	800,000	0,052	0,151
-218,840	285,064	0,024	-0,032
-217,825	31,799	-0,044	0,028
-216,811	596,354	0,023	-0,042
-215,796	-200,000	0,019	-0,112
-214,782	-200,000	0,030	0,116
-213,767	-200,000	-0,062	-0,000
-212,752	-89,375	-0,032	0,007
-211,738	175,604	0,093	0,098
-210,723	8,311	0,033	0,018
-209,709	-181,186	0,066	0,001
-208,694	-200,000	0,004	-0,047
-207,679	113,013	0,059	0,052
-206,665	210,687	0,076	0,088
-205,650	477,272	-0,008	-0,013
-204,636	420,946	0,033	0,052
-203,621	123,302	0,075	-0,069
-202,606	800,000	0,044	-0,107
-201,592	-200,000	-0,010	-0,037
-200,577	-200,000	-0,009	-0,067
-199,563	800,000	0,016	0,043
-198,548	63,063	0,135	0,098
-197,533	-92,981	0,143	0,029
-196,519	8,759	0,117	-0,064
-195,504	800,000	-0,074	0,185
-194,490	-133,291	-0,108	0,010
-193,475	160,143	-0,020	-0,021
-192,460	800,000	-0,007	-0,014
-191,446	-174,554	0,055	-0,001
-190,431	30,285	-0,122	0,076
-189,417	390,278	-0,053	0,080
-188,402	678,924	-0,017	0,033
-187,387	10,234	0,109	-0,060
-186,373	-130,354	0,030	-0,003
-185,358	-200,000	0,006	-0,122
-184,344	800,000	0,015	0,033
-183,329	55,689	-0,033	0,023
-182,315	4,446	0,068	-0,036
-181,300	800,000	-0,010	0,030
-180,285	706,706	-0,065	-0,126
-179,271	23,482	-0,220	0,132
-178,256	-200,000	0,005	0,027
-177,242	800,000	0,043	-0,116
-176,227	69,869	-0,093	-0,069
-175,212	465,877	0,041	-0,067
-174,198	-200,000	-0,002	-0,097
-173,183	84,272	0,068	-0,054
-172,169	409,006	0,038	-0,058
-171,154	-200,000	-0,009	0,114
-170,139	-116,542	-0,033	-0,004
-169,125	604,599	0,050	0,090
-168,110	-200,000	-0,029	0,155
-167,096	-200,000	-0,011	-0,194
-166,081	-134,739	-0,123	0,011
-165,066	800,000	-0,037	-0,090
-164,052	121,537	0,049	0,045
-163,037	-200,000	0,015	-0,168
-162,023	219,884	-0,097	-0,113
-161,008	74,166	-0,093	0,071
-159,993	418,251	-0,043	-0,067
-158,979	-200,000	-0,018	-0,145
-157,964	616,938	-0,002	0,004
-156,950	-87,323	-0,016	-0,004
-155,935	800,000	0,024	-0,077
-154,920	-16,214	0,088	0,041
-153,906	-19,877	0,057	0,026
-152,891	-111,209	-0,035	-0,005
-151,877	53,830	0,077	-0,054
-150,862	200,816	0,016	-0,018
-149,847	800,000	-0,028	-0,062
-148,833	800,000	0,042	-0,104
-147,818	-200,000	0,006	0,063
-146,804	118,153	0,051	-0,046
-145,789	-155,180	0,099	-0,005
-144,775	361,150	0,064	-0,093
-143,760	119,779	-0,136	-0,123
-142,745	-8,026	-0,185	-0,091
-141,731	276,169	0,051	-0,066
-140,716	368,624	0,132	0,195
-139,702	-200,000	0,010	0,064
-138,687	-200,000	-0,017	0,054
-137,672	135,648	-0,028	0,026
-136,658	0,924	-0,070	-0,036
-135,643	211,404	0,071	-0,081
-134,629	-26,011	-0,161	-0,069
-133,614	-200,000	0,003	0,101
-132,599	198,104	0,059	0,066
-131,585	-200,000	0,047	0,159
-130,570	226,677	-0,046	-0,055
-129,556	-102,215	0,027	0,005
-128,541	-84,033	-0,125	-0,029
-127,526	385,699	0,031	-0,047
-126,512	-64,978	0,139	0,040
-125,497	-200,000	-0,006	0,041
-124,483	754,214	-0,006	0,012
-123,468	-59,179	-0,004	0,001
-122,453	21,811	0,084	-0,049
-121,439	-172,731	-0,053	-0,001
-120,424	20,305	0,090	0,053
-119,410	800,000	0,045	0,101
-118,395	800,000	-0,028	-0,058
-117,380	-200,000	-0,009	-0,070
-116,366	-200,000	0,017	-0,144
-115,351	528,418	-0,039	-0,066
-114,337	227,375	-0,024	-0,028
-113,322	242,823	-0,032	-0,039
-112,307	110,026	0,023	-0,020
-111,293	-71,803	-0,045	0,012
-110,278	-155,480	0,070	0,003
-109,264	106,031	0,122	0,105
-108,249	800,000	0,015	-0,034
-107,234	57,751	-0,176	-0,125
-106,220	-39,921	-0,114	0,043
-105,205	-200,000	-0,027	-0,089
-104,191	723,658	0,070	0,136
-103,176	176,550	0,052	0,055
-102,162	800,000	-0,018	0,052
-101,147	-199,880	0,154	0,001
-100,132	-118,081	-0,026	-0,003
-99,118	256,641	-0,039	0,049
-98,103	301,959	0,014	-0,019
-97,089	-200,000	-0,001	0,014
-96,074	-200,000	0,007	0,048
-95,059	-200,000	0,002	0,102
-94,045	33,515	-0,059	0,037
-93,030	-115,338	-0,100	-0,013
-92,016	23,258	0,093	0,056
-91,001	608,901	0,080	-0,145
-89,986	420,592	0,012	-0,019
-88,972	15,273	0,055	-0,031
-87,957	-30,609	-0,103	0,042
-86,943	-31,813	-0,163	-0,066
-85,928	-97,883	-0,039	0,007
-84,913	-80,002	0,050	0,012
-83,899	12,934	-0,056	0,031
-82,884	393,630	-0,024	-0,036
-81,870	226,176	-0,083	0,098
-80,855	-26,663	0,180	0,076
-79,840	800,000	0,044	-0,115
-78,826	800,000	-0,087	-0,200
-77,811	800,000	0,036	-0,087
-76,797	-163,937	-0,055	-0,002
-75,782	-200,000	0,008	0,056
-74,767	800,000	0,006	0,017
-73,753	800,000	0,014	0,043
-72,738	-200,000	0,002	0,068
-71,724	-200,000	-0,012	0,144
-70,709	-108,086	-0,101	0,016
-69,694	-109,964	-0,107	0,016
-68,680	-36,517	0,051	-0,020
-67,665	89,907	0,133	-0,107
-66,651	800,000	-0,064	0,155
-65,636	61,616	-0,119	0,085
-64,622	800,000	0,042	-0,086
-63,607	388,848	-0,042	0,063
-62,592	-200,000	-0,002	0,077
-61,578	-71,911	-0,060	-0,016
-60,563	800,000	-0,034	-0,069
-59,549	-200,000	-0,020	0,076
-58,534	-114,612	-1,361	-0,187
-57,519	800,000	-0,677	-1,389
-56,505	-200,000	-0,897	-4,377
-55,490	-38,669	0,619	-0,236
-54,476	800,000	4,868	11,485
-53,461	-200,000	14,022	252,670
-52,446	-200,000	692,641	2239,073
-51,432	575,263	1623,481	2885,418
-50,417	117,622	1633,020	1457,059
-49,403	72,347	1286,923	971,226
-48,388	37,569	1023,151	656,836
-47,373	23,934	981,310	585,170
-46,359	23,106	970,946	576,257
-45,344	22,249	966,263	570,656
-44,330	22,081	965,158	569,435
-43,315	22,010	963,668	568,300
-42,300	22,009	962,656	567,680
-41,286	22,012	961,617	567,054
-40,271	21,956	960,633	566,270
-39,257	21,904	959,743	565,554
-38,242	21,850	958,936	564,879
-37,227	21,955	957,846	564,556
-36,213	21,930	957,039	563,976
-35,198	21,882	956,336	563,384
-34,184	21,964	955,550	563,164
-33,169	21,923	954,658	562,482
-32,154	21,996	953,793	562,186
-31,140	22,024	952,857	561,704
-30,125	21,987	952,170	561,158
-29,111	21,993	951,241	560,606
-28,096	22,003	950,499	560,177
-27,082	21,999	949,920	559,802
-26,067	21,953	949,173	559,191
-25,052	21,997	948,445	558,881
-24,038	21,991	947,718	558,412
-23,023	22,016	947,059	558,082
-22,009	21,992	946,507	557,657
-20,994	22,009	945,775	557,258
-19,979	21,985	945,179	556,808
-18,965	22,024	944,509	556,517
-17,950	21,938	944,051	555,951
-16,936	21,948	943,215	555,469
-15,921	21,944	942,665	555,109
-14,906	21,884	941,796	554,386
-13,892	21,904	940,975	553,944
-12,877	21,860	940,551	553,531
-11,863	21,855	939,924	553,125
-10,848	21,893	939,383	552,906
-9,833	21,957	938,970	552,842
-8,819	21,911	938,326	552,296
-7,804	21,848	937,729	551,722
-6,790	21,836	937,062	551,269
-5,775	21,875	936,429	551,000
-4,760	21,859	935,779	550,546
-3,746	21,853	935,245	550,191
-2,731	21,668	934,737	549,288
-1,717	21,682	933,844	548,785
-0,702	21,709	932,997	548,350
0,313	21,444	932,606	548,114
1,327	24,501	930,683	556,534
2,342	34,080	794,985	500,865
3,356	31,894	450,834	280,725
4,371	1,218	293,659	152,268
5,386	-3,342	274,648	138,086
6,400	-4,672	269,019	134,009
7,415	-5,069	266,722	132,489
8,429	-4,866	265,400	132,006
9,444	-4,744	264,636	131,725
10,459	-4,807	264,063	131,371
11,473	-4,894	263,476	130,988
12,488	-5,072	262,910	130,534
13,502	-5,083	262,448	130,283
14,517	-5,195	261,983	129,939
15,531	-4,953	261,685	129,998
16,546	-4,788	261,285	129,936
17,561	-5,067	260,922	129,493
18,575	-4,857	260,707	129,564
19,590	-4,932	260,195	129,231
20,604	-4,854	260,050	129,217
21,619	-4,854	259,751	129,057
22,634	-4,856	259,308	128,823
23,648	-5,105	258,994	128,434
24,663	-5,095	258,800	128,335
25,677	-5,043	258,479	128,211
26,692	-5,122	258,139	127,961
27,707	-5,031	257,936	127,929
28,721	-4,984	257,760	127,872
29,736	-4,927	257,365	127,716
30,750	-5,240	257,291	127,390
31,765	-4,978	256,954	127,444
32,780	-4,921	256,760	127,387
33,794	-5,085	256,576	127,139
34,809	-5,074	256,289	126,995
35,823	-4,972	256,091	126,976
36,838	-5,062	255,803	126,742
37,853	-5,022	255,647	126,689
38,867	-4,883	255,296	126,626
39,882	-5,026	255,135	126,409
40,896	-5,137	254,874	126,171
41,911	-5,146	254,641	126,037
42,926	-5,151	254,389	125,896
43,940	-5,152	254,277	125,829
44,955	-5,319	254,037	125,553
45,969	-5,142	253,847	125,602
46,984	-5,357	253,503	125,234
47,999	-5,671	253,410	124,903
49,013	-5,726	253,126	124,704
50,028	-5,669	252,740	124,552
51,042	-5,862	252,592	124,300
52,057	-5,722	252,340	124,287
53,071	-5,928	252,233	124,044
54,086	-5,689	251,950	124,101
55,101	-5,727	251,943	124,054
56,115	-5,249	251,660	124,316
57,130	-5,116	251,649	124,415
58,144	-4,889	251,354	124,454
59,159	-4,633	251,139	124,557
60,174	-4,935	250,897	124,166
61,188	-4,876	250,856	124,186
62,203	-4,808	250,632	124,122
63,217	-4,905	250,443	123,934
64,232	-5,001	250,245	123,743
65,247	-4,925	249,929	123,640
66,261	-5,071	249,780	123,431
67,276	-5,069	249,479	123,272
68,290	-5,123	249,159	123,057
69,305	-5,532	248,937	122,587
70,320	-5,269	248,768	122,717
71,334	-4,924	248,535	122,886
72,349	-4,955	248,517	122,840
73,363	-5,037	248,405	122,704
74,378	-4,906	248,165	122,685
75,393	-4,950	247,967	122,540
76,407	-5,127	247,823	122,307
77,422	-5,126	247,529	122,152
78,436	-4,975	247,325	122,168
79,451	-4,899	247,166	122,143
80,466	-5,177	246,914	121,772
81,480	-5,138	246,641	121,659
82,495	-5,262	246,363	121,407
83,509	-5,107	246,166	121,430
84,524	-5,317	246,066	121,192
85,539	-5,340	245,857	121,059
86,553	-5,258	245,679	121,030
87,568	-5,384	245,578	120,864
88,582	-5,265	245,178	120,756
89,597	-5,288	245,137	120,706
90,611	-5,082	244,985	120,793
91,626	-5,089	244,867	120,718
92,641	-4,977	244,631	120,685
93,655	-5,173	244,555	120,472
94,670	-4,986	244,227	120,457
95,684	-5,050	243,997	120,278
96,699	-5,053	243,894	120,215
97,714	-5,125	243,668	120,033
98,728	-5,323	243,319	119,685
99,743	-5,503	243,344	119,536
100,757	-5,293	243,052	119,557
101,772	-5,296	242,920	119,479
102,787	-5,117	242,675	119,496
103,801	-5,324	242,572	119,264
104,816	-5,154	242,378	119,299
105,830	-4,918	242,226	119,409
106,845	-5,093	242,182	119,232
107,860	-5,046	241,831	119,087
108,874	-5,283	241,714	118,823
109,889	-5,064	241,437	118,857
110,903	-5,103	241,388	118,790
111,918	-5,243	241,079	118,512
112,933	-5,121	240,962	118,544
113,947	-5,054	240,916	118,566
114,962	-4,996	240,622	118,459
115,976	-5,167	240,445	118,220
116,991	-5,195	240,270	118,101
118,006	-5,271	240,182	117,984
119,020	-5,137	240,088	118,037
120,035	-4,972	239,763	118,002
121,049	-5,019	239,732	117,938
122,064	-5,123	239,723	117,838
123,079	-5,102	239,344	117,659
124,093	-5,198	239,122	117,461
125,108	-5,171	238,923	117,375
126,122	-5,353	238,704	117,108
127,137	-5,423	238,450	116,916
128,151	-5,448	238,338	116,830
129,166	-5,294	238,201	116,878
130,181	-5,511	238,106	116,645
131,195	-5,174	237,883	116,798
132,210	-5,220	237,719	116,670
133,224	-5,122	237,533	116,648
134,239	-5,020	237,463	116,686
135,254	-5,111	237,236	116,490
136,268	-5,107	236,993	116,364
137,283	-5,180	236,741	116,170
138,297	-5,491	236,472	115,777
139,312	-5,412	236,306	115,749
140,327	-4,964	236,201	116,049
141,341	-4,701	236,220	116,259
142,356	-4,815	236,133	116,114
143,370	-4,902	235,911	115,925
144,385	-4,710	235,758	115,993
145,400	-4,776	235,645	115,874
146,414	-4,763	235,493	115,800
147,429	-4,710	235,130	115,654
148,443	-4,884	235,050	115,465
149,458	-4,875	234,957	115,416
150,473	-4,716	234,762	115,437
151,487	-4,948	234,753	115,237
152,502	-4,833	234,491	115,190
153,516	-4,935	234,331	115,019
154,531	-4,755	234,082	115,030
155,546	-4,748	233,831	114,903
156,560	-4,717	233,730	114,867
157,575	-5,087	233,435	114,418
158,589	-4,977	233,286	114,422
159,604	-4,789	233,151	114,495
160,619	-4,677	233,173	114,584
161,633	-4,571	232,891	114,520
162,648	-4,763	232,811	114,318
163,662	-4,932	232,648	114,094
164,677	-4,654	232,672	114,316
165,692	-4,822	232,377	114,028
166,706	-4,749	232,254	114,015
167,721	-4,693	232,071	113,959
168,735	-4,583	231,745	113,876
169,750	-4,861	231,872	113,709
170,764	-4,890	231,776	113,628
171,779	-4,845	231,500	113,519
172,794	-4,923	231,333	113,365
173,808	-4,735	231,043	113,360
174,823	-5,375	230,771	112,715
175,837	-5,334	230,616	112,661
176,852	-4,883	230,461	112,929
177,867	-5,070	230,561	112,821
178,881	-4,685	230,311	112,990
179,896	-4,584	230,209	113,009
180,910	-4,677	229,970	112,809
181,925	-4,543	229,886	112,862
182,940	-4,767	229,818	112,644
183,954	-4,650	229,558	112,598
184,969	-4,613	229,442	112,560
185,983	-4,673	229,473	112,518
186,998	-4,537	229,162	112,462
188,013	-4,485	229,075	112,449
189,027	-4,585	228,792	112,222
190,042	-4,560	228,613	112,144
191,056	-4,571	228,444	112,043
192,071	-4,621	228,242	111,895
193,086	-4,525	228,194	111,936
194,100	-4,610	227,915	111,723
195,115	-4,914	227,668	111,357
196,129	-5,418	227,375	110,815
197,144	-2,919	228,224	113,153
198,159	1,249	229,306	116,915
199,173	3,759	229,938	119,175
200,188	4,079	229,896	119,391
201,202	4,165	229,702	119,346
202,217	4,275	229,685	119,412
203,232	4,512	229,670	119,577
204,246	4,413	229,505	119,404
205,261	4,460	229,403	119,377
206,275	4,493	229,344	119,361
207,290	4,839	229,166	119,525
208,304	4,679	228,940	119,272
209,319	4,450	228,712	118,967
210,334	4,652	228,421	118,960
211,348	4,189	228,368	118,566
212,363	3,917	228,196	118,256
213,377	3,860	227,800	117,998
214,392	3,845	227,717	117,932
215,407	3,984	227,628	117,982
216,421	3,894	227,479	117,826
217,436	3,853	227,159	117,618
218,450	3,584	227,008	117,324
219,465	3,528	226,774	117,149
220,480	3,494	226,868	117,161
221,494	3,661	226,650	117,166
222,509	3,621	226,632	117,116
223,523	3,703	226,434	117,065
224,538	3,625	226,227	116,889
225,553	3,765	226,032	116,884
226,567	3,751	226,019	116,856
227,582	3,840	226,064	116,936
228,596	3,997	225,839	116,929
229,611	3,854	225,534	116,652
230,626	3,544	225,331	116,302
231,640	3,743	225,196	116,373
232,655	3,949	225,127	116,482
233,669	4,374	225,113	116,787
234,684	4,455	225,042	116,800
235,699	4,169	224,657	116,374
236,713	4,033	224,473	116,166
237,728	3,725	224,392	115,882
238,742	3,765	224,238	115,822
239,757	3,805	224,090	115,765
240,772	3,662	223,829	115,513
241,786	3,616	223,815	115,460
242,801	3,960	223,736	115,668
243,815	4,159	223,699	115,788
244,830	4,234	223,488	115,724
245,844	3,929	223,238	115,357
246,859	4,057	222,990	115,314
247,874	3,984	222,973	115,239
248,888	4,135	222,842	115,275
249,903	4,081	222,712	115,157
250,917	3,776	222,401	114,758
251,932	3,764	222,321	114,697
252,947	3,687	222,150	114,542
253,961	3,671	221,983	114,433
254,976	3,832	221,848	114,474
255,990	3,856	221,907	114,512
257,005	4,091	221,551	114,492
258,020	3,978	221,593	114,420
259,034	4,257	221,556	114,598
260,049	3,940	221,340	114,241
261,063	4,023	221,246	114,244
262,078	4,198	220,972	114,222
263,093	4,307	220,884	114,247
264,107	4,013	220,784	113,967
265,122	4,342	220,485	114,046
266,136	4,134	220,446	113,862
267,151	4,126	220,346	113,794
268,166	3,883	219,960	113,405
269,180	3,628	219,878	113,165
270,195	3,584	219,661	113,011
271,209	3,653	219,527	112,983
272,224	3,910	219,418	113,106
273,239	3,919	219,350	113,067
274,253	3,723	219,263	112,868
275,268	3,642	218,934	112,629
276,282	3,821	218,759	112,661
277,297	3,569	218,581	112,374
278,312	3,737	218,480	112,435
279,326	3,663	218,492	112,377
280,341	3,789	218,305	112,363
281,355	3,898	218,223	112,391
282,370	3,814	218,132	112,272
283,384	3,773	217,694	112,007
284,399	3,559	217,700	111,844
285,414	3,680	217,529	111,834
286,428	3,861	217,453	111,917
287,443	3,871	217,526	111,951
288,457	3,853	217,242	111,783
289,472	3,796	217,136	111,677
290,487	3,290	216,847	111,151
291,501	3,179	216,702	110,986
292,516	3,205	216,582	110,934
293,530	3,461	216,424	111,028
294,545	3,339	216,381	110,907
295,560	3,721	216,231	111,098
296,574	3,943	216,054	111,157
297,589	3,707	216,179	111,040
298,603	3,891	215,920	111,031
299,618	3,903	215,694	110,914
300,633	3,791	215,705	110,828
301,647	4,007	215,624	110,933
302,662	4,140	215,320	110,862
303,676	3,934	215,237	110,661
304,691	4,055	215,142	110,690
305,706	4,162	214,908	110,636
306,720	4,006	214,844	110,481
307,735	3,946	214,571	110,288
308,749	3,743	214,455	110,073
309,764	3,747	214,442	110,059
310,779	4,302	214,260	110,353
311,793	3,773	214,242	109,956
312,808	3,889	214,018	109,914
313,822	4,022	213,762	109,868
314,837	3,682	213,639	109,551
315,852	3,762	213,573	109,565
316,866	3,835	213,377	109,507
317,881	4,091	213,285	109,632
318,895	4,215	213,193	109,664
319,910	3,628	212,948	109,110
320,925	3,400	212,746	108,835
321,939	3,383	212,641	108,759
322,954	3,530	212,448	108,756
323,968	3,649	212,567	108,891
324,983	3,934	212,371	108,983
325,997	4,137	212,202	109,030
327,012	3,997	212,038	108,837
328,027	3,965	211,856	108,711
329,041	4,164	211,892	108,861
330,056	4,228	211,722	108,809
331,070	4,005	211,519	108,538
332,085	3,541	211,166	108,020
333,100	3,540	211,209	108,032
334,114	3,678	211,092	108,060
335,129	3,790	210,898	108,029
336,143	3,766	210,705	107,904
337,158	3,478	210,735	107,708
338,173	3,805	210,637	107,877
339,187	3,592	210,352	107,572
340,202	3,678	210,244	107,568
341,216	3,418	210,005	107,254
342,231	3,597	210,054	107,394
343,246	3,542	209,882	107,259
344,260	3,807	209,702	107,342
345,275	3,828	209,580	107,285
346,289	3,917	209,632	107,364
347,304	4,043	209,448	107,349
348,319	3,803	209,174	107,031
349,333	3,694	209,075	106,895
350,348	3,926	209,125	107,072
351,362	4,044	208,840	106,999
352,377	3,875	208,755	106,828
353,392	3,687	208,662	106,641
354,406	3,724	208,562	106,606
355,421	193,805	1344,875	1431,949
356,435	154,636	1483,416	1432,052
