DTS Sentinel unit serial number:	SN410029Multiplexer serial number:	ORYXHardware model number:	OX2-SRSoftware version number:	ORYX F/W v4,00 Oryx Data Collector v3.7.2.0data status	okinstallation	B6 Nyhavnadifferential loss correction	single-endedforward channel	channel 2reverse channel	N/Adate	2023/12/10time	04:05:08forward acquisition time	300,00reverse acquisition time	0,00gamma	499,1914k internal	0,3125k external	0,3125temperature offset calibration	1,0000default loss term (dB/km)	0,3820temperature slope calibration	1,0000multiplexer offset coefficient	1,0000multiplexer slope coefficient	1,0000fibre end	0,00T internal ref (°C)	22,12T ext. ref 1 (°C)	6,13T ext. ref 2 (°C)	6,10length (m)	temperature (°C)	Stokes	anti-Stokes-744,400	800,000	0,010	-0,030
-743,385	-20,240	-0,215	0,098
-742,371	88,516	0,116	0,096
-741,356	67,414	-0,167	0,127
-740,342	-59,017	0,081	0,026
-739,327	-168,231	-0,212	0,006
-738,312	-12,888	0,126	-0,061
-737,298	5,399	-0,370	0,203
-736,283	61,292	0,163	0,121
-735,269	-8,790	-0,216	0,108
-734,254	-32,647	-0,085	-0,035
-733,239	-67,864	-0,562	-0,162
-732,225	-138,474	0,102	0,008
-731,210	-111,378	-0,114	0,017
-730,196	55,898	-0,009	0,006
-729,181	-200,000	-0,006	-0,020
-728,167	-200,000	0,005	0,074
-727,152	-200,000	-0,014	0,098
-726,137	800,000	-0,059	0,132
-725,123	-4,343	-0,062	0,032
-724,108	800,000	-0,057	-0,145
-723,094	55,194	-0,137	-0,098
-722,079	-22,527	-0,148	-0,067
-721,064	107,848	-0,016	-0,014
-720,050	-166,114	-0,098	0,003
-719,035	68,859	-0,059	-0,045
-718,021	191,213	-0,095	0,106
-717,006	117,309	0,090	-0,082
-715,991	-200,000	-0,009	-0,147
-714,977	-152,365	-0,050	0,003
-713,962	410,910	-0,059	0,094
-712,948	194,668	0,062	0,070
-711,933	-82,733	-0,190	0,045
-710,918	-151,307	-0,195	0,011
-709,904	343,624	-0,127	-0,185
-708,889	-200,000	0,019	-0,114
-707,875	-2,093	-0,105	-0,055
-706,860	711,046	-0,009	0,019
-705,845	-133,057	-0,101	-0,009
-704,831	-5,447	0,052	0,027
-703,816	-171,592	0,139	-0,003
-702,802	-69,216	-0,039	0,011
-701,787	274,536	-0,150	-0,198
-700,772	800,000	0,057	-0,138
-699,758	-200,000	0,046	0,169
-698,743	800,000	-0,036	0,114
-697,729	-200,000	-0,010	0,121
-696,714	494,780	-0,034	0,059
-695,699	-84,490	0,079	0,018
-694,685	159,840	-0,068	-0,070
-693,670	800,000	0,028	-0,063
-692,656	69,886	-0,158	-0,121
-691,641	504,810	-0,038	-0,066
-690,627	-142,686	-0,111	-0,008
-689,612	800,000	0,037	-0,094
-688,597	-53,170	-0,004	0,001
-687,583	-45,418	0,075	-0,028
-686,568	-30,546	-0,162	-0,068
-685,554	9,129	-0,130	-0,073
-684,539	-129,127	0,101	-0,010
-683,524	-106,536	-0,095	-0,016
-682,510	-81,335	0,081	0,020
-681,495	-200,000	-0,019	-0,075
-680,481	-200,000	-0,004	-0,038
-679,466	800,000	0,018	-0,038
-678,451	422,225	-0,038	-0,061
-677,437	-116,173	0,074	0,010
-676,422	-83,115	0,089	-0,021
-675,408	-200,000	-0,028	0,127
-674,393	-178,644	-0,055	0,001
-673,378	135,767	-0,069	-0,067
-672,364	-35,770	0,057	-0,023
-671,349	-200,000	-0,024	-0,123
-670,335	-198,182	-0,114	0,000
-669,320	-200,000	-0,002	-0,215
-668,305	-23,085	0,030	0,013
-667,291	-200,000	-0,027	0,111
-666,276	-89,573	-0,094	0,020
-665,262	226,686	-0,056	-0,067
-664,247	-100,165	0,026	0,005
-663,232	223,532	-0,023	0,028
-662,218	29,029	0,035	0,022
-661,203	15,313	0,029	0,017
-660,189	166,426	-0,048	0,051
-659,174	-27,160	0,057	0,025
-658,159	800,000	-0,018	0,049
-657,145	133,682	-0,018	-0,018
-656,130	21,348	-0,088	0,053
-655,116	127,417	-0,042	0,040
-654,101	-200,000	-0,017	0,086
-653,086	-200,000	-0,024	0,079
-652,072	372,392	-0,056	0,084
-651,057	800,000	-0,042	-0,097
-650,043	8,775	-0,073	-0,041
-649,028	-200,000	-0,005	0,147
-648,014	800,000	-0,041	-0,099
-646,999	-200,000	0,005	-0,043
-645,984	-147,203	0,030	-0,002
-644,970	-96,277	-0,013	-0,002
-643,955	51,798	0,069	0,049
-642,941	800,000	-0,047	-0,133
-641,926	-109,471	0,062	0,010
-640,911	-117,489	0,084	0,011
-639,897	800,000	0,025	-0,073
-638,882	48,935	0,055	-0,038
-637,868	391,846	-0,053	-0,082
-636,853	-90,967	-0,126	-0,027
-635,838	-200,000	-0,011	0,083
-634,824	89,139	-0,088	-0,072
-633,809	-200,000	-0,039	-0,146
-632,795	-147,062	-0,031	-0,002
-631,780	-79,181	-0,040	-0,010
-630,765	-189,638	-0,092	0,001
-629,751	-200,000	-0,007	0,035
-628,736	40,325	-0,025	-0,017
-627,722	128,194	-0,108	-0,102
-626,707	-200,000	-0,019	-0,110
-625,692	177,207	-0,045	0,049
-624,678	-1,578	0,087	0,045
-623,663	-145,681	-0,045	0,003
-622,649	-172,170	-0,135	0,003
-621,634	79,931	0,041	-0,033
-620,619	-200,000	-0,049	-0,201
-619,605	-200,000	0,024	-0,113
-618,590	156,812	-0,001	-0,002
-617,576	800,000	-0,026	0,054
-616,561	-200,000	0,002	-0,023
-615,546	800,000	-0,023	0,054
-614,532	-4,366	-0,113	0,058
-613,517	800,000	0,037	-0,117
-612,503	728,847	0,016	0,032
-611,488	-121,902	0,030	-0,004
-610,474	-184,808	-0,046	-0,001
-609,459	22,904	0,050	-0,030
-608,444	-200,000	-0,023	-0,074
-607,430	-200,000	-0,019	-0,085
-606,415	-16,232	0,097	0,045
-605,401	724,035	-0,037	-0,073
-604,386	-200,000	0,027	-0,094
-603,371	-200,000	0,016	-0,073
-602,357	317,349	0,051	-0,071
-601,342	-200,000	-0,034	-0,162
-600,328	800,000	0,056	-0,132
-599,313	388,542	0,015	0,024
-598,298	19,184	0,073	0,043
-597,284	-95,553	0,049	-0,010
-596,269	-134,396	-0,099	-0,009
-595,255	-14,649	0,082	-0,039
-594,240	31,800	-0,061	-0,039
-593,225	800,000	0,022	-0,056
-592,211	800,000	0,065	0,146
-591,196	800,000	0,025	0,076
-590,182	-82,817	-0,013	-0,003
-589,167	276,438	0,082	-0,108
-588,152	190,182	-0,088	0,098
-587,138	45,819	-0,128	0,088
-586,123	-101,682	-0,087	-0,015
-585,109	-104,185	-0,151	-0,026
-584,094	-75,319	0,092	-0,024
-583,079	399,860	-0,092	-0,143
-582,065	426,104	-0,036	0,057
-581,050	-109,217	-0,055	0,009
-580,036	-151,190	-0,178	-0,010
-579,021	20,901	-0,056	-0,034
-578,006	-15,980	-0,058	0,027
-576,992	222,327	0,096	0,115
-575,977	-200,000	-0,008	0,036
-574,963	-15,969	0,061	-0,029
-573,948	-84,772	-0,123	-0,028
-572,934	-200,000	-0,001	-0,016
-571,919	800,000	-0,011	-0,026
-570,904	800,000	0,028	-0,076
-569,890	8,845	0,144	-0,080
-568,875	328,976	0,044	0,063
-567,861	-111,772	0,071	0,010
-566,846	-189,750	-0,152	-0,001
-565,831	800,000	0,009	-0,021
-564,817	-67,618	0,159	0,046
-563,802	-16,061	-0,096	-0,045
-562,788	-200,000	-0,003	-0,092
-561,773	-200,000	0,027	-0,128
-560,758	-200,000	-0,012	0,118
-559,744	581,254	0,048	0,087
-558,729	151,713	-0,112	0,113
-557,715	467,847	-0,046	0,076
-556,700	800,000	0,028	-0,061
-555,685	-198,273	-0,076	-0,000
-554,671	-200,000	-0,023	-0,093
-553,656	800,000	-0,017	-0,036
-552,642	-23,261	0,061	-0,027
-551,627	-51,146	0,035	0,012
-550,612	191,811	0,074	0,082
-549,598	68,323	-0,069	-0,052
-548,583	391,907	-0,031	-0,047
-547,569	15,948	-0,004	-0,002
-546,554	-62,232	0,045	0,014
-545,539	-200,000	-0,043	0,151
-544,525	25,553	-0,092	0,057
-543,510	351,145	0,074	-0,109
-542,496	-120,023	-0,044	-0,006
-541,481	27,325	-0,034	-0,021
-540,466	422,932	0,088	0,140
-539,452	-200,000	0,024	-0,103
-538,437	-200,000	-0,039	0,149
-537,423	87,257	0,106	0,087
-536,408	90,926	0,075	0,062
-535,393	-18,339	-0,029	-0,013
-534,379	195,352	0,045	0,051
-533,364	550,036	0,035	0,062
-532,350	-200,000	0,014	0,242
-531,335	-18,803	-0,067	-0,031
-530,321	800,000	-0,060	-0,176
-529,306	302,232	0,082	0,112
-528,291	-200,000	-0,016	0,080
-527,277	196,672	0,072	0,081
-526,262	-200,000	0,033	0,110
-525,248	-66,436	-0,154	-0,045
-524,233	63,458	0,022	0,017
-523,218	171,767	0,094	0,100
-522,204	-200,000	-0,045	-0,186
-521,189	73,258	-0,116	-0,089
-520,175	-79,730	0,051	-0,013
-519,160	-200,000	-0,005	-0,143
-518,145	-200,000	0,004	0,106
-517,131	147,439	-0,077	-0,076
-516,116	-56,746	0,052	-0,017
-515,102	-118,353	0,138	0,018
-514,087	-58,409	-0,108	0,034
-513,072	55,828	-0,157	-0,112
-512,058	-200,000	-0,004	-0,091
-511,043	-76,188	0,084	-0,022
-510,029	148,843	0,053	-0,053
-509,014	800,000	-0,021	0,052
-507,999	-133,683	0,074	-0,007
-506,985	93,624	-0,023	0,019
-505,970	-45,977	-0,155	0,056
-504,956	6,751	-0,173	-0,095
-503,941	-119,405	0,071	0,009
-502,926	-12,341	0,085	-0,041
-501,912	-127,066	0,058	0,006
-500,897	-200,000	0,003	0,030
-499,883	-200,000	-0,035	0,126
-498,868	400,649	-0,072	-0,111
-497,853	-10,758	-0,137	-0,067
-496,839	-42,580	0,116	0,043
-495,824	-83,471	-0,091	0,021
-494,810	175,781	0,049	-0,053
-493,795	607,959	-0,021	0,038
-492,781	303,556	-0,054	-0,074
-491,766	132,615	-0,070	0,066
-490,751	-200,000	0,006	0,037
-489,737	142,964	-0,058	-0,057
-488,722	180,222	0,093	-0,101
-487,708	-82,235	-0,109	-0,026
-486,693	26,043	-0,135	0,083
-485,678	17,002	0,100	-0,058
-484,664	800,000	0,007	-0,020
-483,649	18,651	-0,140	-0,082
-482,635	438,380	-0,040	-0,064
-481,620	-200,000	-0,024	0,091
-480,605	-200,000	-0,022	0,084
-479,591	-200,000	0,001	0,080
-478,576	474,660	-0,041	0,068
-477,562	63,344	0,033	0,024
-476,547	456,888	0,055	-0,090
-475,532	-200,000	-0,022	-0,150
-474,518	143,881	0,054	0,053
-473,503	-200,000	0,003	0,063
-472,489	134,758	0,029	0,027
-471,474	800,000	0,067	0,140
-470,459	67,641	-0,165	0,124
-469,445	798,839	0,053	0,108
-468,430	-48,762	0,105	0,037
-467,416	800,000	0,011	0,032
-466,401	118,632	-0,078	0,071
-465,386	675,383	0,020	0,038
-464,372	-156,806	0,063	-0,003
-463,357	-147,165	-0,102	-0,006
-462,343	653,871	-0,035	0,067
-461,328	27,737	-0,038	-0,024
-460,313	57,375	0,130	-0,094
-459,299	-98,059	-0,107	-0,020
-458,284	-200,000	0,004	-0,062
-457,270	62,237	-0,035	0,025
-456,255	800,000	-0,044	-0,101
-455,241	-200,000	0,040	-0,169
-454,226	-156,111	0,116	-0,005
-453,211	82,830	-0,078	-0,062
-452,197	-171,308	0,089	-0,002
-451,182	146,538	0,018	-0,018
-450,168	79,666	-0,081	-0,064
-449,153	160,568	0,088	0,090
-448,138	-39,141	-0,131	-0,051
-447,124	779,614	0,027	-0,055
-446,109	-44,850	0,063	-0,023
-445,095	-105,679	-0,099	-0,016
-444,080	-110,574	-0,126	0,019
-443,065	109,862	0,040	0,035
-442,051	18,529	0,020	0,012
-441,036	-50,684	-0,196	0,067
-440,022	-1,801	-0,080	-0,041
-439,007	-48,989	0,134	0,047
-437,992	-31,569	-0,055	-0,023
-436,978	-135,397	0,271	-0,023
-435,963	-200,000	-0,022	0,126
-434,949	800,000	-0,010	-0,026
-433,934	-200,000	0,017	-0,089
-432,919	800,000	0,061	-0,181
-431,905	-124,107	0,164	0,019
-430,890	436,813	0,076	-0,122
-429,876	-200,000	-0,022	-0,086
-428,861	100,552	-0,016	-0,014
-427,846	126,100	0,049	0,045
-426,832	1,186	-0,084	-0,044
-425,817	71,159	-0,145	-0,111
-424,803	-145,765	0,026	-0,002
-423,788	-150,943	0,101	-0,005
-422,773	800,000	-0,042	0,121
-421,759	2,183	-0,056	-0,030
-420,744	255,918	-0,044	0,056
-419,730	-200,000	0,001	-0,036
-418,715	207,410	-0,035	0,041
-417,701	-200,000	-0,001	0,052
-416,686	-87,510	0,119	0,026
-415,671	202,157	0,071	0,081
-414,657	81,371	0,106	-0,085
-413,642	800,000	-0,022	0,061
-412,628	-80,157	-0,040	-0,010
-411,613	100,183	-0,044	-0,037
-410,598	46,360	0,068	-0,046
-409,584	-200,000	0,004	-0,140
-408,569	800,000	0,054	-0,118
-407,555	113,981	0,140	-0,125
-406,540	-160,296	0,093	-0,004
-405,525	-48,926	0,020	-0,007
-404,511	-54,315	0,125	0,042
-403,496	494,475	0,047	-0,080
-402,482	-81,408	-0,033	0,008
-401,467	272,040	-0,055	0,072
-400,452	-100,598	0,141	0,025
-399,438	-142,861	0,151	0,011
-398,423	-200,000	0,006	-0,030
-397,409	-28,412	-0,083	0,035
-396,394	281,422	0,046	-0,061
-395,379	-37,913	0,084	-0,033
-394,365	119,957	0,067	0,061
-393,350	-62,382	-0,030	0,009
-392,336	-75,794	0,104	-0,027
-391,321	162,385	-0,105	-0,109
-390,306	-171,398	-0,119	0,003
-389,292	-98,050	0,129	0,024
-388,277	-63,147	-0,073	0,022
-387,263	438,257	0,071	-0,115
-386,248	626,271	0,013	0,024
-385,233	254,733	-0,027	-0,034
-384,219	800,000	0,018	0,043
-383,204	-6,707	0,072	-0,036
-382,190	-77,420	-0,035	0,009
-381,175	-134,776	-0,104	-0,009
-380,160	-200,000	0,000	-0,041
-379,146	211,476	0,052	0,060
-378,131	-200,000	-0,019	-0,070
-377,117	214,461	0,023	0,026
-376,102	-200,000	0,011	-0,066
-375,088	-94,447	-0,153	-0,030
-374,073	800,000	0,021	0,044
-373,058	800,000	-0,021	0,064
-372,044	800,000	0,017	0,047
-371,029	-200,000	0,027	0,105
-370,015	800,000	0,053	0,130
-369,000	414,247	-0,080	0,125
-367,985	-140,099	-0,040	0,003
-366,971	-11,006	-0,065	-0,031
-365,956	-200,000	-0,005	-0,035
-364,942	-63,418	0,020	-0,006
-363,927	-159,776	0,026	-0,001
-362,912	620,806	0,028	0,052
-361,898	-3,908	-0,120	-0,061
-360,883	-131,009	0,008	-0,001
-359,869	-200,000	-0,001	-0,174
-358,854	800,000	-0,022	0,067
-357,839	800,000	-0,029	-0,065
-356,825	-98,193	0,083	-0,016
-355,810	-63,371	0,035	-0,011
-354,796	-5,934	0,107	-0,054
-353,781	486,561	-0,064	0,107
-352,766	800,000	0,044	-0,104
-351,752	-200,000	0,033	-0,147
-350,737	187,535	0,052	-0,057
-349,723	122,661	-0,027	0,024
-348,708	42,539	0,123	0,082
-347,693	310,818	0,039	-0,053
-346,679	138,399	0,039	0,037
-345,664	82,965	0,033	-0,026
-344,650	-156,656	-0,179	0,008
-343,635	-200,000	0,017	-0,071
-342,620	344,090	0,056	0,081
-341,606	103,927	-0,056	0,048
-340,591	62,591	-0,030	0,022
-339,577	50,781	-0,028	-0,019
-338,562	-200,000	0,003	0,034
-337,548	800,000	-0,005	-0,011
-336,533	210,400	-0,065	0,075
-335,518	704,661	0,070	0,136
-334,504	800,000	-0,019	0,052
-333,489	-84,572	0,100	0,023
-332,475	320,439	-0,055	0,076
-331,460	-200,000	-0,007	-0,040
-330,445	368,527	0,042	-0,063
-329,431	800,000	0,040	0,109
-328,416	329,495	0,094	-0,133
-327,402	-23,275	0,048	-0,021
-326,387	-0,107	0,090	-0,047
-325,372	-200,000	0,002	0,018
-324,358	-12,249	-0,083	-0,040
-323,343	-58,359	0,127	0,040
-322,329	800,000	-0,011	-0,031
-321,314	-200,000	-0,028	0,131
-320,299	614,866	0,048	0,088
-319,285	-117,879	-0,107	0,014
-318,270	800,000	0,020	0,061
-317,256	629,652	-0,044	0,082
-316,241	800,000	-0,017	0,044
-315,226	204,121	-0,056	-0,064
-314,212	84,370	-0,053	-0,042
-313,197	-56,960	-0,145	0,047
-312,183	-200,000	-0,007	0,106
-311,168	270,353	-0,077	0,100
-310,153	-116,993	-0,110	0,015
-309,139	-200,000	0,017	0,095
-308,124	800,000	-0,037	-0,075
-307,110	-96,555	-0,110	-0,021
-306,095	238,008	0,108	0,132
-305,080	-14,019	-0,015	0,007
-304,066	-128,806	-0,070	-0,007
-303,051	-131,958	-0,097	-0,009
-302,037	388,284	0,059	-0,089
-301,022	-200,000	0,015	-0,074
-300,008	-200,000	-0,004	-0,050
-298,993	-115,012	-0,066	-0,009
-297,978	595,992	0,054	0,098
-296,964	-200,000	0,004	0,069
-295,949	-106,737	0,031	-0,005
-294,935	-18,569	-0,064	-0,029
-293,920	76,345	0,043	0,033
-292,905	800,000	-0,018	-0,040
-291,891	509,791	0,067	0,115
-290,876	-200,000	0,036	0,178
-289,862	800,000	0,057	0,135
-288,847	-200,000	0,034	-0,161
-287,832	239,603	0,070	-0,085
-286,818	-200,000	0,038	-0,141
-285,803	800,000	0,012	-0,025
-284,789	64,106	-0,034	0,025
-283,774	-200,000	-0,003	0,082
-282,759	56,368	-0,064	0,045
-281,745	-34,587	0,137	0,055
-280,730	-81,649	-0,097	0,023
-279,716	89,961	-0,058	-0,048
-278,701	-200,000	-0,023	0,094
-277,686	3,120	-0,036	-0,019
-276,672	-200,000	-0,026	-0,102
-275,657	-200,000	-0,003	-0,092
-274,643	134,836	-0,050	0,048
-273,628	-60,054	-0,181	-0,056
-272,613	214,197	-0,091	-0,106
-271,599	283,603	0,051	-0,067
-270,584	-30,232	0,123	0,051
-269,570	448,742	-0,051	0,083
-268,555	-27,294	0,088	0,037
-267,540	-200,000	0,003	-0,069
-266,526	-200,000	-0,054	-0,186
-265,511	-113,594	0,081	-0,011
-264,497	-200,000	0,038	0,149
-263,482	-100,204	0,125	0,023
-262,467	-200,000	-0,010	0,043
-261,453	-3,219	-0,018	0,009
-260,438	-129,753	-0,037	0,004
-259,424	7,843	0,095	0,052
-258,409	800,000	-0,018	0,040
-257,395	-83,196	0,107	-0,025
-256,380	186,589	0,170	0,186
-255,365	619,992	-0,011	0,021
-254,351	41,890	0,049	-0,032
-253,336	-117,078	0,046	-0,006
-252,322	-71,006	0,024	0,007
-251,307	-174,446	-0,073	-0,002
-250,292	800,000	0,021	-0,057
-249,278	-168,492	0,122	-0,003
-248,263	800,000	0,032	0,066
-247,249	39,839	0,121	0,079
-246,234	-200,000	0,019	-0,077
-245,219	-200,000	-0,005	-0,090
-244,205	-135,188	-0,057	-0,005
-243,190	800,000	-0,042	-0,089
-242,176	800,000	-0,027	0,057
-241,161	201,180	0,134	0,150
-240,146	800,000	-0,026	0,065
-239,132	180,338	-0,026	0,028
-238,117	-7,304	-0,107	-0,053
-237,103	-54,353	-0,172	0,057
-236,088	-48,423	-0,103	-0,036
-235,073	-108,693	0,091	-0,014
-234,059	11,993	0,092	0,052
-233,044	-2,024	0,141	0,072
-232,030	18,282	-0,128	0,074
-231,015	426,855	-0,076	-0,121
-230,000	50,016	-0,118	-0,081
-228,986	800,000	-0,052	-0,166
-227,971	-93,149	0,194	0,039
-226,957	-200,000	0,013	0,082
-225,942	-200,000	-0,009	-0,059
-224,927	-28,241	0,115	0,048
-223,913	47,887	-0,091	-0,062
-222,898	294,029	-0,050	-0,067
-221,884	-200,000	0,025	-0,135
-220,869	800,000	0,015	0,046
-219,855	-200,000	-0,000	-0,030
-218,840	-149,684	-0,166	-0,009
-217,825	-76,522	0,045	0,011
-216,811	147,271	-0,079	-0,078
-215,796	411,889	-0,066	-0,103
-214,782	239,910	0,015	-0,018
-213,767	-71,269	0,043	0,012
-212,752	131,152	0,078	0,073
-211,738	188,826	0,080	-0,088
-210,723	710,750	-0,029	-0,056
-209,709	702,139	0,028	-0,054
-208,694	-200,000	0,010	0,124
-207,679	207,459	0,070	0,080
-206,665	397,807	0,026	-0,039
-205,650	800,000	0,080	0,208
-204,636	247,933	0,044	0,055
-203,621	800,000	0,032	0,079
-202,606	169,534	-0,108	0,112
-201,592	84,982	-0,090	0,072
-200,577	39,594	-0,020	0,013
-199,563	66,726	-0,024	-0,018
-198,548	-200,000	0,033	0,227
-197,533	800,000	0,035	-0,079
-196,519	432,412	0,045	0,072
-195,504	-200,000	-0,052	-0,171
-194,490	145,999	-0,083	-0,081
-193,475	132,923	-0,035	-0,033
-192,460	-123,296	0,065	0,007
-191,446	-124,111	0,086	0,010
-190,431	800,000	0,010	-0,033
-189,417	-200,000	-0,003	0,124
-188,402	42,487	0,084	-0,055
-187,387	-200,000	-0,009	0,043
-186,373	-138,041	0,047	-0,004
-185,358	800,000	0,021	-0,054
-184,344	229,646	0,078	0,094
-183,329	-131,937	0,184	0,017
-182,315	-200,000	0,006	0,035
-181,300	-200,000	0,035	0,182
-180,285	-103,587	-0,025	-0,004
-179,271	800,000	0,032	-0,067
-178,256	103,242	-0,040	-0,034
-177,242	800,000	0,064	-0,150
-176,227	51,044	-0,097	0,067
-175,212	-200,000	0,016	0,094
-174,198	92,470	-0,009	-0,008
-173,183	-80,538	-0,114	-0,027
-172,169	-2,773	-0,080	-0,041
-171,154	-200,000	-0,008	-0,084
-170,139	389,770	-0,054	0,082
-169,125	7,963	-0,109	0,059
-168,110	-14,787	0,037	0,017
-167,096	193,556	0,060	0,066
-166,081	714,965	-0,046	-0,088
-165,066	230,060	0,047	0,056
-164,052	-20,781	0,106	0,047
-163,037	-200,000	-0,012	0,057
-162,023	-200,000	0,018	0,106
-161,008	-101,283	0,111	0,020
-159,993	103,963	-0,105	0,090
-158,979	-200,000	-0,012	-0,056
-157,964	692,327	0,048	0,091
-156,950	-113,279	0,077	0,011
-155,935	-82,309	0,028	-0,007
-154,920	12,108	-0,070	0,039
-153,906	800,000	-0,056	0,114
-152,891	800,000	0,039	0,110
-151,877	-200,000	0,031	0,100
-150,862	434,315	-0,012	-0,020
-149,847	105,642	-0,049	-0,042
-148,833	-144,244	-0,111	-0,007
-147,818	800,000	-0,022	0,054
-146,804	-176,793	0,069	-0,001
-145,789	317,078	-0,061	0,085
-144,775	6,533	0,084	-0,045
-143,760	-29,296	0,102	-0,042
-142,745	37,350	-0,029	-0,019
-141,731	7,789	-0,041	0,022
-140,716	-30,400	0,106	-0,043
-139,702	-151,333	0,142	-0,008
-138,687	73,556	-0,157	0,119
-137,672	295,296	-0,081	0,108
-136,658	190,370	-0,146	-0,159
-135,643	-200,000	-0,013	-0,141
-134,629	-33,987	-0,118	0,047
-133,614	520,185	-0,042	0,072
-132,599	169,662	0,054	0,056
-131,585	800,000	-0,042	-0,103
-130,570	705,994	-0,054	0,105
-129,556	800,000	-0,039	0,114
-128,541	47,966	-0,117	0,079
-127,526	-200,000	-0,002	0,040
-126,512	-112,942	-0,142	-0,020
-125,497	-75,106	0,192	0,050
-124,483	549,089	0,060	0,104
-123,468	-200,000	0,029	0,189
-122,453	21,623	-0,076	-0,045
-121,439	381,907	-0,052	-0,078
-120,424	-71,821	-0,050	0,013
-119,410	59,098	0,076	0,054
-118,395	-48,466	0,087	-0,030
-117,380	756,667	-0,060	0,118
-116,366	-200,000	0,050	0,172
-115,351	800,000	0,026	0,079
-114,337	-161,534	-0,084	-0,003
-113,322	800,000	-0,036	-0,098
-112,307	-200,000	0,012	0,102
-111,293	-200,000	0,023	-0,090
-110,278	203,128	0,047	0,053
-109,264	2,517	0,105	0,055
-108,249	130,646	-0,119	-0,111
-107,234	-200,000	-0,004	-0,055
-106,220	-97,650	-0,054	0,010
-105,205	-102,324	0,109	-0,019
-104,191	-128,965	0,161	0,016
-103,176	677,492	0,044	0,083
-102,162	-193,666	0,080	0,000
-101,147	78,580	-0,110	-0,085
-100,132	-200,000	-0,013	0,064
-99,118	45,945	0,074	-0,050
-98,103	-6,782	-0,080	-0,040
-97,089	-200,000	0,008	-0,114
-96,074	-107,948	0,108	0,017
-95,059	-36,137	0,074	0,029
-94,045	395,800	-0,061	-0,093
-93,030	93,737	-0,134	-0,110
-92,016	391,606	-0,025	-0,038
-91,001	65,698	0,073	0,053
-89,986	-72,635	-0,148	0,039
-88,972	-132,972	0,096	-0,009
-87,957	-94,874	-0,113	0,022
-86,943	280,315	-0,069	-0,090
-85,928	-92,155	-0,146	-0,030
-84,913	15,228	0,116	-0,066
-83,899	-176,251	-0,114	-0,002
-82,884	-200,000	0,049	0,199
-81,870	386,329	-0,029	0,043
-80,855	-200,000	-0,034	0,229
-79,840	800,000	-0,042	0,104
-78,826	60,219	0,061	-0,044
-77,811	181,850	-0,073	-0,078
-76,797	800,000	-0,026	0,077
-75,782	85,199	-0,013	0,010
-74,767	322,537	0,044	-0,061
-73,753	198,733	0,084	0,093
-72,738	-154,502	0,043	-0,002
-71,724	-200,000	0,001	-0,100
-70,709	400,982	0,079	-0,121
-69,694	763,753	0,017	0,033
-68,680	-200,000	0,002	-0,018
-67,665	-10,576	0,099	-0,047
-66,651	53,314	-0,100	-0,070
-65,636	-36,339	-0,074	-0,029
-64,622	-45,352	0,034	-0,012
-63,607	-60,678	-0,068	0,021
-62,592	117,578	0,104	-0,093
-61,578	-31,081	-0,028	-0,012
-60,563	223,360	-0,063	0,074
-59,549	44,792	-0,043	-0,029
-58,534	-114,619	-1,490	-0,205
-57,519	800,000	-0,699	-1,455
-56,505	-200,000	-0,825	-4,438
-55,490	-55,257	0,711	-0,230
-54,476	800,000	4,869	11,722
-53,461	-200,000	13,820	252,556
-52,446	-200,000	690,957	2243,535
-51,432	580,073	1622,507	2893,256
-50,417	118,162	1633,623	1460,166
-49,403	72,331	1287,637	971,697
-48,388	37,692	1023,325	657,363
-47,373	24,109	981,206	585,687
-46,359	23,378	970,771	577,041
-45,344	22,353	966,403	571,078
-44,330	22,280	965,160	570,082
-43,315	22,182	963,701	568,879
-42,300	22,187	962,742	568,306
-41,286	22,204	961,527	567,621
-40,271	22,112	960,732	566,833
-39,257	22,104	959,744	566,200
-38,242	22,147	958,816	565,769
-37,227	22,122	958,031	565,204
-36,213	22,097	957,067	564,532
-35,198	22,078	956,331	564,013
-34,184	22,159	955,674	563,865
-33,169	22,153	954,534	563,150
-32,154	22,188	953,757	562,783
-31,140	22,204	952,909	562,310
-30,125	22,173	952,219	561,781
-29,111	22,182	951,304	561,247
-28,096	22,155	950,636	560,744
-27,082	22,217	949,887	560,479
-26,067	22,171	949,180	559,892
-25,052	22,174	948,481	559,468
-24,038	22,173	947,819	559,052
-23,023	22,107	947,309	558,519
-22,009	22,224	946,518	558,403
-20,994	22,145	945,991	557,817
-19,979	22,228	945,058	557,513
-18,965	22,201	944,771	557,235
-17,950	22,239	943,835	556,781
-16,936	22,145	943,300	556,144
-15,921	22,131	942,649	555,695
-14,906	22,031	941,888	554,903
-13,892	22,040	941,249	554,534
-12,877	22,005	940,790	554,130
-11,863	21,953	940,159	553,573
-10,848	22,016	939,598	553,420
-9,833	22,158	939,130	553,571
-8,819	22,143	938,448	553,102
-7,804	22,080	937,904	552,559
-6,790	22,030	937,215	551,972
-5,775	22,047	936,655	551,676
-4,760	22,029	936,003	551,212
-3,746	22,002	935,303	550,694
-2,731	21,885	934,799	550,006
-1,717	21,839	934,032	549,386
-0,702	21,843	933,163	548,866
0,313	21,683	932,630	548,879
1,327	24,803	930,627	557,446
2,342	34,348	795,087	501,637
3,356	32,272	451,336	281,607
4,371	1,410	294,184	152,734
5,386	-3,010	274,972	138,563
6,400	-4,499	269,429	134,374
7,415	-4,793	266,979	132,870
8,429	-4,497	265,833	132,559
9,444	-4,552	264,784	131,974
10,459	-4,574	264,357	131,729
11,473	-4,581	263,632	131,350
12,488	-4,516	263,063	131,113
13,502	-4,827	262,672	130,625
14,517	-5,039	262,256	130,216
15,531	-4,813	261,658	130,111
16,546	-4,646	261,433	130,137
17,561	-4,736	261,056	129,857
18,575	-4,648	260,695	129,746
19,590	-4,754	260,402	129,493
20,604	-4,776	260,297	129,409
21,619	-4,685	259,846	129,255
22,634	-4,650	259,446	129,076
23,648	-4,913	259,188	128,702
24,663	-4,769	258,839	128,645
25,677	-4,908	258,752	128,467
26,692	-5,079	258,484	128,170
27,707	-4,804	258,152	128,238
28,721	-4,904	257,848	127,987
29,736	-4,633	257,503	128,044
30,750	-4,952	257,475	127,736
31,765	-4,811	257,151	127,689
32,780	-4,850	256,850	127,494
33,794	-4,716	256,467	127,410
34,809	-4,948	256,435	127,178
35,823	-4,868	256,184	127,113
36,838	-4,814	255,866	126,992
37,853	-5,003	255,737	126,750
38,867	-5,054	255,605	126,629
39,882	-4,988	255,273	126,511
40,896	-4,821	255,080	126,550
41,911	-4,847	254,764	126,360
42,926	-4,975	254,619	126,164
43,940	-4,927	254,303	126,038
44,955	-5,105	254,067	125,755
45,969	-4,981	253,935	125,786
46,984	-5,306	253,709	125,379
47,999	-5,435	253,225	125,017
49,013	-5,429	253,106	124,952
50,028	-5,519	252,825	124,724
51,042	-5,605	252,577	124,516
52,057	-5,482	252,256	124,454
53,071	-5,677	252,172	124,232
54,086	-5,669	252,064	124,174
55,101	-5,550	252,100	124,284
56,115	-5,207	251,834	124,439
57,130	-4,896	251,715	124,638
58,144	-4,568	251,575	124,841
59,159	-4,824	251,394	124,519
60,174	-4,831	251,194	124,402
61,188	-4,612	250,787	124,378
62,203	-4,512	250,599	124,360
63,217	-4,857	250,444	123,975
64,232	-4,665	250,081	123,949
65,247	-4,540	250,062	124,037
66,261	-4,805	249,813	123,674
67,276	-4,780	249,462	123,511
68,290	-5,177	249,343	123,101
69,305	-5,267	249,069	122,879
70,320	-5,186	248,969	122,887
71,334	-4,924	248,774	123,004
72,349	-4,702	248,621	123,106
73,363	-4,544	248,448	123,145
74,378	-4,654	248,105	122,870
75,393	-4,733	248,061	122,769
76,407	-4,825	247,793	122,548
77,422	-4,784	247,516	122,435
78,436	-4,782	247,470	122,403
79,451	-4,589	247,113	122,379
80,466	-4,839	246,784	121,994
81,480	-4,997	246,697	121,806
82,495	-4,895	246,470	121,769
83,509	-5,001	246,414	121,642
84,524	-4,787	246,196	121,704
85,539	-4,965	245,989	121,441
86,553	-5,189	245,656	121,076
87,568	-5,130	245,558	121,067
88,582	-4,842	245,296	121,169
89,597	-5,146	245,179	120,846
90,611	-4,816	244,978	121,012
91,626	-4,813	244,988	121,009
92,641	-4,917	244,698	120,768
93,655	-4,929	244,556	120,677
94,670	-4,841	244,313	120,620
95,684	-5,131	244,265	120,343
96,699	-5,095	244,024	120,243
97,714	-5,077	243,820	120,147
98,728	-5,269	243,588	119,862
99,743	-5,230	243,330	119,757
100,757	-5,309	243,228	119,631
101,772	-5,136	243,008	119,655
102,787	-5,079	242,819	119,599
103,801	-4,911	242,555	119,597
104,816	-4,997	242,560	119,518
105,830	-5,017	242,484	119,453
106,845	-4,648	242,118	119,568
107,860	-4,817	241,994	119,356
108,874	-4,914	241,885	119,211
109,889	-5,015	241,692	119,022
110,903	-4,870	241,400	118,988
111,918	-4,897	241,290	118,901
112,933	-5,169	241,193	118,618
113,947	-4,999	241,036	118,670
114,962	-4,850	240,664	118,599
115,976	-4,863	240,469	118,482
116,991	-4,882	240,353	118,398
118,006	-5,044	240,219	118,189
119,020	-4,915	240,170	118,260
120,035	-4,705	239,970	118,322
121,049	-4,670	239,879	118,296
122,064	-4,866	239,694	118,034
123,079	-5,006	239,397	117,763
124,093	-4,828	239,107	117,755
125,108	-5,149	238,960	117,411
126,122	-5,237	238,811	117,254
127,137	-5,244	238,542	117,106
128,151	-5,224	238,382	117,033
129,166	-5,055	238,208	117,075
130,181	-5,133	237,945	116,872
131,195	-5,256	237,919	116,749
132,210	-5,133	237,711	116,737
133,224	-4,865	237,739	116,958
134,239	-4,881	237,452	116,793
135,254	-4,844	237,351	116,762
136,268	-5,029	237,193	116,524
137,283	-5,056	236,838	116,318
138,297	-5,494	236,699	115,886
139,312	-5,138	236,446	116,039
140,327	-5,067	236,248	115,989
141,341	-4,683	236,402	116,364
142,356	-4,758	236,277	116,231
143,370	-4,627	236,047	116,213
144,385	-4,544	235,745	116,120
145,400	-4,686	235,742	115,995
146,414	-4,650	235,531	115,909
147,429	-4,686	235,356	115,784
148,443	-4,608	235,279	115,798
149,458	-4,647	235,014	115,626
150,473	-4,616	234,902	115,586
151,487	-4,559	234,666	115,505
152,502	-4,477	234,554	115,505
153,516	-4,568	234,342	115,318
154,531	-4,549	234,198	115,252
155,546	-4,534	233,853	115,083
156,560	-4,552	233,803	115,034
157,575	-4,745	233,689	114,814
158,589	-4,560	233,376	114,797
159,604	-4,474	233,219	114,778
160,619	-4,187	233,024	114,899
161,633	-4,314	233,007	114,780
162,648	-4,446	232,839	114,583
163,662	-4,657	232,664	114,319
164,677	-4,843	232,522	114,092
165,692	-4,600	232,457	114,242
166,706	-4,356	232,269	114,333
167,721	-4,587	232,124	114,068
168,735	-4,454	232,005	114,105
169,750	-4,657	231,904	113,885
170,764	-4,798	231,755	113,690
171,779	-4,473	231,555	113,837
172,794	-4,365	231,384	113,829
173,808	-4,556	231,021	113,490
174,823	-4,964	230,765	113,034
175,837	-5,167	230,692	112,829
176,852	-5,122	230,735	112,875
177,867	-4,597	230,561	113,192
178,881	-4,339	230,348	113,279
179,896	-4,384	230,324	113,222
180,910	-4,451	230,181	113,088
181,925	-4,442	229,890	112,943
182,940	-4,478	229,827	112,874
183,954	-4,373	229,569	112,818
184,969	-4,570	229,573	112,657
185,983	-4,328	229,358	112,730
186,998	-4,447	229,211	112,555
188,013	-4,236	229,052	112,631
189,027	-4,265	228,818	112,484
190,042	-4,545	228,810	112,252
191,056	-4,651	228,676	112,094
192,071	-4,306	228,543	112,286
193,086	-4,292	228,317	112,177
194,100	-4,344	228,023	111,981
195,115	-4,853	227,859	111,498
196,129	-4,994	227,514	111,210
197,144	-3,022	228,200	113,061
198,159	0,544	229,184	116,306
199,173	3,450	230,034	118,984
200,188	4,172	230,023	119,529
201,202	4,233	229,775	119,437
202,217	4,399	229,768	119,551
203,232	4,551	229,584	119,562
204,246	4,679	229,428	119,569
205,261	4,396	229,460	119,356
206,275	4,847	229,140	119,527
207,290	4,664	229,146	119,378
208,304	4,751	228,974	119,345
209,319	4,709	228,767	119,194
210,334	4,523	228,682	118,996
211,348	4,375	228,308	118,677
212,363	3,920	228,259	118,291
213,377	3,851	227,793	117,987
214,392	3,800	227,839	117,960
215,407	3,911	227,765	117,997
216,421	3,797	227,504	117,764
217,436	3,869	227,250	117,677
218,450	3,515	227,049	117,291
219,465	3,639	226,931	117,315
220,480	3,608	226,811	117,219
221,494	3,719	226,632	117,200
222,509	3,697	226,649	117,181
223,523	3,720	226,492	117,108
224,538	3,544	226,390	116,911
225,553	3,791	226,126	116,952
226,567	4,011	226,069	117,080
227,582	4,187	226,003	117,169
228,596	4,345	225,827	117,187
229,611	3,903	225,591	116,719
230,626	3,532	225,343	116,298
231,640	3,583	225,171	116,238
232,655	3,991	225,126	116,513
233,669	4,575	225,236	117,003
234,684	4,452	224,994	116,773
235,699	4,306	224,725	116,513
236,713	4,041	224,519	116,195
237,728	3,778	224,352	115,901
238,742	3,623	224,076	115,630
239,757	3,781	223,991	115,696
240,772	3,745	223,816	115,567
241,786	3,829	223,517	115,466
242,801	3,878	223,733	115,604
243,815	4,315	223,574	115,840
244,830	4,216	223,442	115,687
245,844	3,970	223,109	115,320
246,859	4,127	223,063	115,404
247,874	4,046	223,006	115,303
248,888	4,221	222,775	115,304
249,903	4,043	222,734	115,140
250,917	3,868	222,421	114,837
251,932	3,496	222,425	114,550
252,947	3,644	222,154	114,512
253,961	3,395	222,052	114,263
254,976	3,624	221,815	114,301
255,990	4,074	221,775	114,606
257,005	4,097	221,712	114,580
258,020	4,122	221,566	114,513
259,034	4,413	221,402	114,634
260,049	4,274	221,295	114,465
261,063	3,968	221,079	114,116
262,078	4,377	221,041	114,390
263,093	4,015	220,941	114,059
264,107	4,185	220,699	114,050
265,122	4,105	220,675	113,969
266,136	4,188	220,593	113,977
267,151	4,229	220,223	113,807
268,166	4,289	219,982	113,716
269,180	3,707	219,915	113,242
270,195	3,757	219,674	113,145
271,209	3,776	219,552	113,085
272,224	3,768	219,524	113,056
273,239	3,965	219,296	113,073
274,253	3,961	219,084	112,950
275,268	3,661	219,027	112,690
276,282	3,646	218,826	112,566
277,297	3,431	218,688	112,328
278,312	3,608	218,526	112,364
279,326	3,603	218,494	112,334
280,341	3,871	218,329	112,435
281,355	3,764	218,240	112,300
282,370	3,884	218,012	112,261
283,384	3,521	217,936	111,947
284,399	3,391	217,736	111,740
285,414	3,426	217,696	111,734
286,428	3,892	217,435	111,930
287,443	4,036	217,511	112,064
288,457	3,908	217,279	111,841
289,472	3,934	217,008	111,710
290,487	3,202	216,814	111,070
291,501	3,188	216,635	110,958
292,516	3,347	216,594	111,042
293,530	3,457	216,475	111,051
294,545	3,339	216,342	110,887
295,560	3,436	216,188	110,869
296,574	3,723	216,136	111,040
297,589	3,677	215,987	110,920
298,603	3,894	215,904	111,024
299,618	3,857	215,682	110,874
300,633	3,754	215,621	110,758
301,647	4,120	215,547	110,973
302,662	3,854	215,462	110,729
303,676	4,034	215,271	110,750
304,691	4,056	215,120	110,678
305,706	3,756	215,132	110,459
306,720	3,876	214,886	110,409
307,735	3,869	214,620	110,257
308,749	4,050	214,305	110,216
309,764	3,952	214,297	110,131
310,779	4,062	214,339	110,222
311,793	3,991	214,133	110,055
312,808	3,882	213,920	109,858
313,822	3,929	213,779	109,810
314,837	3,764	213,637	109,609
315,852	3,595	213,622	109,471
316,866	3,968	213,326	109,575
317,881	4,105	213,288	109,643
318,895	3,826	213,156	109,367
319,910	3,941	212,831	109,273
320,925	3,750	212,734	109,078
321,939	3,337	212,502	108,656
322,954	3,487	212,454	108,728
323,968	3,947	212,386	109,010
324,983	4,150	212,287	109,093
325,997	3,850	212,285	108,869
327,012	4,190	211,992	108,950
328,027	3,897	211,949	108,711
329,041	4,199	211,991	108,936
330,056	4,251	211,713	108,820
331,070	4,221	211,413	108,635
332,085	3,653	211,085	108,057
333,100	3,422	211,112	107,898
334,114	3,911	211,036	108,195
335,129	3,742	211,021	108,058
336,143	3,891	210,706	107,992
337,158	3,771	210,508	107,797
338,173	4,026	210,517	107,970
339,187	3,625	210,357	107,598
340,202	3,497	210,118	107,376
341,216	3,429	209,965	107,241
342,231	3,725	209,929	107,420
343,246	3,707	209,773	107,318
344,260	3,486	209,682	107,108
345,275	3,634	209,604	107,162
346,289	3,848	209,511	107,254
347,304	4,087	209,294	107,300
348,319	3,886	209,148	107,075
349,333	3,777	209,012	106,920
350,348	3,972	208,911	106,995
351,362	4,134	208,845	107,064
352,377	4,026	208,760	106,936
353,392	3,865	208,548	106,706
354,406	4,027	208,472	106,770
355,421	194,137	1344,143	1432,249
356,435	154,918	1482,593	1432,355
