DTS Sentinel unit serial number:	SN410029Multiplexer serial number:	ORYXHardware model number:	OX2-SRSoftware version number:	ORYX F/W v4,00 Oryx Data Collector v3.7.2.0data status	okinstallation	B6 Nyhavnadifferential loss correction	single-endedforward channel	channel 2reverse channel	N/Adate	2023/12/09time	10:45:08forward acquisition time	300,00reverse acquisition time	0,00gamma	499,1914k internal	0,3139k external	0,3139temperature offset calibration	1,0000default loss term (dB/km)	0,3820temperature slope calibration	1,0000multiplexer offset coefficient	1,0000multiplexer slope coefficient	1,0000fibre end	0,00T internal ref (°C)	18,62T ext. ref 1 (°C)	2,41T ext. ref 2 (°C)	2,41length (m)	temperature (°C)	Stokes	anti-Stokes-744,400	-62,739	0,046	0,014
-743,385	1,375	-0,208	0,111
-742,371	-90,018	0,036	0,008
-741,356	-81,267	-0,276	0,067
-740,342	800,000	0,031	0,100
-739,327	-153,478	-0,249	0,013
-738,312	800,000	0,016	-0,046
-737,298	-133,145	-0,335	-0,031
-736,283	26,208	-0,124	-0,076
-735,269	-82,277	-0,347	0,083
-734,254	44,358	0,039	-0,026
-733,239	-93,323	-0,451	-0,092
-732,225	55,845	0,160	0,115
-731,210	44,245	-0,107	-0,073
-730,196	800,000	-0,028	0,073
-729,181	711,568	-0,056	-0,110
-728,167	385,371	0,063	-0,097
-727,152	-200,000	-0,005	-0,043
-726,137	331,628	-0,051	0,074
-725,123	-200,000	-0,006	-0,057
-724,108	-200,000	-0,026	-0,178
-723,094	140,405	-0,120	-0,117
-722,079	-138,022	-0,092	-0,007
-721,064	800,000	0,031	-0,085
-720,050	800,000	-0,059	-0,179
-719,035	-9,884	-0,121	0,060
-718,021	704,331	-0,041	0,080
-717,006	168,207	-0,101	-0,107
-715,991	-15,897	-0,087	-0,041
-714,977	-200,000	0,002	0,175
-713,962	800,000	0,032	-0,074
-712,948	-200,000	-0,008	0,047
-711,933	-77,988	-0,067	0,017
-710,918	470,912	-0,064	-0,108
-709,904	-200,000	0,003	-0,039
-708,889	-95,361	-0,216	0,043
-707,875	568,567	-0,021	0,038
-706,860	-2,997	0,126	-0,065
-705,845	-124,876	0,162	0,018
-704,831	44,196	-0,096	-0,065
-703,816	-114,846	-0,164	-0,023
-702,802	36,090	-0,089	0,058
-701,787	-6,027	-0,199	-0,100
-700,772	-48,830	-0,114	-0,040
-699,758	286,027	0,083	-0,112
-698,743	-168,521	0,244	0,007
-697,729	390,801	0,032	-0,049
-696,714	-200,000	-0,029	0,107
-695,699	-10,333	-0,027	-0,013
-694,685	-200,000	-0,020	0,066
-693,670	-48,959	-0,083	0,029
-692,656	103,256	-0,009	-0,008
-691,641	-200,000	-0,012	-0,079
-690,627	-136,284	-0,083	0,007
-689,612	-200,000	-0,009	-0,056
-688,597	800,000	-0,046	-0,095
-687,583	800,000	0,043	-0,090
-686,568	800,000	-0,063	0,152
-685,554	-200,000	-0,034	0,140
-684,539	-57,851	0,085	0,027
-683,524	-200,000	0,007	-0,068
-682,510	175,833	0,108	-0,116
-681,495	231,264	-0,134	-0,163
-680,481	783,485	-0,040	0,081
-679,466	-200,000	0,009	-0,054
-678,451	108,072	-0,052	-0,046
-677,437	-69,485	0,030	-0,008
-676,422	-200,000	0,016	0,089
-675,408	445,561	-0,036	0,059
-674,393	-14,419	0,090	0,043
-673,378	345,645	-0,102	-0,149
-672,364	-200,000	0,001	-0,066
-671,349	159,606	0,073	-0,075
-670,335	-32,377	0,019	0,008
-669,320	-200,000	-0,001	0,188
-668,305	-200,000	0,032	0,149
-667,291	800,000	0,015	-0,033
-666,276	156,119	0,049	-0,050
-665,262	-124,175	-0,028	-0,003
-664,247	-200,000	0,011	-0,124
-663,232	-200,000	-0,034	-0,139
-662,218	-118,037	0,059	-0,008
-661,203	322,992	0,064	-0,090
-660,189	-200,000	-0,019	0,072
-659,174	-67,643	-0,149	-0,043
-658,159	-200,000	-0,029	-0,100
-657,145	129,594	0,144	0,136
-656,130	-81,277	-0,050	-0,012
-655,116	143,856	-0,094	-0,093
-654,101	-200,000	0,023	-0,077
-653,086	-27,815	0,088	-0,037
-652,072	-122,523	-0,233	-0,028
-651,057	-200,000	-0,038	-0,185
-650,043	-200,000	-0,015	0,088
-649,028	22,286	-0,122	0,074
-648,014	-200,000	-0,012	-0,073
-646,999	800,000	-0,037	-0,101
-645,984	-192,196	-0,105	0,001
-644,970	-200,000	-0,005	0,041
-643,955	520,875	-0,088	0,153
-642,941	220,403	-0,091	-0,108
-641,926	90,801	0,070	0,058
-640,911	146,907	-0,096	0,095
-639,897	800,000	0,045	0,130
-638,882	91,820	0,113	0,094
-637,868	235,603	-0,056	-0,068
-636,853	286,064	-0,069	-0,093
-635,838	691,388	-0,095	-0,185
-634,824	-77,805	-0,064	-0,016
-633,809	-200,000	0,015	0,089
-632,795	-200,000	0,033	0,121
-631,780	800,000	-0,047	-0,099
-630,765	383,083	-0,077	-0,117
-629,751	178,828	-0,104	-0,112
-628,736	690,570	-0,074	-0,144
-627,722	800,000	0,031	-0,070
-626,707	-200,000	0,015	-0,106
-625,692	-40,860	0,146	-0,055
-624,678	82,659	-0,064	0,051
-623,663	-37,008	-0,047	0,018
-622,649	51,066	-0,161	-0,112
-621,634	800,000	0,038	-0,108
-620,619	-141,144	0,062	0,005
-619,605	3,739	-0,052	-0,028
-618,590	800,000	0,065	0,134
-617,576	239,529	-0,109	0,134
-616,561	443,322	-0,062	-0,100
-615,546	-200,000	0,004	-0,015
-614,532	-106,982	-0,080	0,013
-613,517	76,733	-0,071	-0,056
-612,503	-200,000	0,007	-0,042
-611,488	75,813	0,134	0,104
-610,474	513,536	-0,028	0,049
-609,459	-200,000	-0,005	-0,086
-608,444	-200,000	-0,009	0,083
-607,430	-200,000	0,017	-0,134
-606,415	86,701	-0,096	-0,078
-605,401	-16,038	0,153	-0,071
-604,386	800,000	-0,038	0,117
-603,371	-200,000	0,004	-0,050
-602,357	-200,000	-0,009	0,138
-601,342	-65,578	0,053	-0,016
-600,328	-45,703	-0,003	-0,001
-599,313	-200,000	0,024	-0,140
-598,298	800,000	0,061	-0,141
-597,284	-58,998	0,137	-0,043
-596,269	-3,779	-0,071	-0,036
-595,255	680,851	0,031	-0,061
-594,240	-200,000	-0,009	-0,174
-593,225	800,000	-0,022	-0,045
-592,211	46,021	0,123	-0,083
-591,196	195,666	0,006	0,007
-590,182	585,382	-0,047	0,085
-589,167	45,060	0,162	0,110
-588,152	800,000	0,006	-0,013
-587,138	-48,905	0,084	-0,030
-586,123	103,681	-0,081	0,070
-585,109	-10,688	-0,017	-0,008
-584,094	88,633	0,098	-0,080
-583,079	65,986	0,038	-0,028
-582,065	175,664	0,056	0,060
-581,050	-6,662	0,163	-0,081
-580,036	-75,459	-0,056	-0,015
-579,021	102,413	-0,135	-0,116
-578,006	-138,788	-0,145	-0,011
-576,992	-200,000	0,006	0,039
-575,977	-4,224	0,041	0,021
-574,963	-31,599	-0,044	0,018
-573,948	283,952	0,108	0,143
-572,934	680,888	0,054	0,104
-571,919	13,740	-0,121	0,069
-570,904	674,081	0,082	-0,158
-569,890	280,399	-0,080	0,106
-568,875	-106,555	-0,130	0,021
-567,861	-200,000	-0,001	0,022
-566,846	71,854	-0,106	0,081
-565,831	-176,999	-0,131	0,002
-564,817	-200,000	0,014	-0,169
-563,802	113,568	-0,055	-0,049
-562,788	13,532	0,027	-0,015
-561,773	-99,973	0,088	-0,016
-560,758	-41,129	-0,043	0,016
-559,744	-200,000	-0,002	0,111
-558,729	-200,000	0,018	0,111
-557,715	800,000	0,047	0,130
-556,700	132,692	-0,121	-0,115
-555,685	412,346	0,027	0,043
-554,671	-175,272	0,040	-0,001
-553,656	-145,091	0,116	0,008
-552,642	45,199	-0,102	0,069
-551,627	37,354	0,005	-0,003
-550,612	-2,060	-0,166	-0,086
-549,598	800,000	0,018	-0,055
-548,583	124,911	0,035	-0,033
-547,569	800,000	0,028	0,070
-546,554	-200,000	0,022	0,180
-545,539	-52,446	0,046	-0,015
-544,525	-18,534	0,097	0,044
-543,510	114,997	0,067	-0,060
-542,496	214,065	0,027	-0,031
-541,481	-43,193	-0,054	0,020
-540,466	-79,731	0,118	-0,029
-539,452	-34,984	-0,139	-0,055
-538,437	187,745	-0,072	-0,079
-537,423	278,118	-0,063	0,083
-536,408	-182,561	0,071	0,001
-535,393	347,875	-0,087	-0,126
-534,379	196,852	-0,085	-0,095
-533,364	-102,311	0,082	0,014
-532,350	800,000	0,002	0,007
-531,335	-200,000	-0,028	-0,116
-530,321	159,110	0,045	0,046
-529,306	765,412	-0,028	0,057
-528,291	-43,467	-0,078	-0,029
-527,277	82,778	0,043	0,034
-526,262	-200,000	-0,016	-0,137
-525,248	-34,542	0,057	-0,023
-524,233	-9,800	0,056	0,027
-523,218	-65,426	-0,081	-0,024
-522,204	-200,000	-0,032	-0,191
-521,189	-200,000	-0,050	-0,163
-520,175	39,934	-0,124	-0,082
-519,160	103,884	0,092	0,080
-518,145	-200,000	0,045	0,174
-517,131	240,203	-0,011	-0,013
-516,116	13,250	0,068	0,039
-515,102	223,158	0,058	0,069
-514,087	-200,000	-0,013	-0,092
-513,072	30,480	-0,093	0,059
-512,058	-78,263	0,073	-0,018
-511,043	133,674	0,088	-0,083
-510,029	-43,793	0,116	-0,043
-509,014	-128,206	0,090	0,009
-507,999	-200,000	-0,036	0,144
-506,985	-3,167	-0,185	-0,094
-505,970	-95,859	-0,074	0,014
-504,956	-200,000	-0,026	0,121
-503,941	-97,175	-0,103	0,020
-502,926	-200,000	-0,003	0,181
-501,912	-200,000	-0,028	0,114
-500,897	13,293	-0,104	-0,059
-499,883	800,000	-0,018	0,056
-498,868	-200,000	-0,018	-0,130
-497,853	143,618	0,039	-0,038
-496,839	800,000	0,030	-0,085
-495,824	-200,000	0,036	-0,130
-494,810	208,857	0,030	0,034
-493,795	-200,000	-0,009	0,036
-492,781	-141,259	0,170	0,013
-491,766	-200,000	0,031	-0,109
-490,751	-200,000	-0,034	-0,161
-489,737	210,798	-0,052	-0,060
-488,722	-200,000	-0,005	0,100
-487,708	-200,000	0,013	0,094
-486,693	83,409	0,007	-0,005
-485,678	800,000	-0,031	-0,097
-484,664	-148,056	0,050	0,003
-483,649	389,624	-0,069	-0,105
-482,635	-200,000	0,007	-0,083
-481,620	158,598	-0,050	-0,051
-480,605	345,073	0,008	-0,011
-479,591	-62,394	-0,030	0,009
-478,576	516,281	-0,056	-0,096
-477,562	258,356	0,047	-0,060
-476,547	-86,319	-0,118	-0,026
-475,532	26,409	0,100	-0,061
-474,518	-200,000	-0,004	0,077
-473,503	800,000	0,048	-0,152
-472,489	-200,000	0,013	-0,110
-471,474	144,011	-0,035	-0,034
-470,459	330,729	-0,066	-0,093
-469,445	-58,759	0,112	-0,035
-468,430	167,554	-0,093	0,097
-467,416	-33,557	0,062	0,025
-466,401	-200,000	-0,005	-0,024
-465,386	225,702	0,086	0,102
-464,372	-200,000	0,006	-0,107
-463,357	91,095	-0,090	-0,074
-462,343	367,407	0,044	-0,066
-461,328	800,000	0,037	0,114
-460,313	-200,000	-0,001	-0,109
-459,299	-138,962	0,098	-0,008
-458,284	800,000	-0,025	-0,073
-457,270	-200,000	0,003	0,010
-456,255	155,597	0,055	-0,055
-455,241	-179,007	0,132	0,002
-454,226	800,000	0,015	0,045
-453,211	800,000	-0,028	-0,087
-452,197	-118,350	0,199	0,026
-451,182	-200,000	0,018	0,127
-450,168	167,519	-0,077	-0,080
-449,153	-200,000	0,004	0,154
-448,138	-200,000	0,013	-0,131
-447,124	151,397	-0,067	-0,067
-446,109	455,810	-0,033	0,055
-445,095	-119,494	0,050	0,006
-444,080	-200,000	0,044	-0,000
-443,065	-200,000	-0,001	-0,055
-442,051	5,350	-0,082	0,044
-441,036	-173,468	-0,042	-0,001
-440,022	-200,000	-0,023	-0,153
-439,007	14,270	0,090	-0,051
-437,992	800,000	0,008	0,018
-436,978	120,279	0,058	0,053
-435,963	47,795	0,046	0,031
-434,949	-200,000	-0,012	0,050
-433,934	194,409	-0,040	-0,044
-432,919	-114,082	-0,086	0,012
-431,905	-200,000	0,016	-0,078
-430,890	800,000	-0,078	-0,162
-429,876	150,116	-0,069	0,069
-428,861	668,496	0,048	-0,091
-427,846	-200,000	0,025	-0,160
-426,832	-157,235	-0,051	0,002
-425,817	-178,958	-0,140	0,002
-424,803	107,626	0,046	-0,040
-423,788	-53,853	0,100	0,033
-422,773	55,406	0,031	0,022
-421,759	184,754	0,067	0,073
-420,744	-200,000	0,027	-0,105
-419,730	-200,000	-0,003	-0,020
-418,715	-32,857	0,136	0,055
-417,701	32,785	-0,099	-0,062
-416,686	-125,546	0,192	-0,021
-415,671	99,592	0,097	0,082
-414,657	-41,338	-0,102	0,038
-413,642	-53,498	0,075	-0,025
-412,628	-177,684	-0,071	-0,001
-411,613	-200,000	-0,004	-0,015
-410,598	-200,000	-0,011	0,105
-409,584	-91,166	0,132	0,027
-408,569	184,863	-0,058	0,063
-407,555	-200,000	0,037	0,206
-406,540	36,468	0,101	0,065
-405,525	-200,000	-0,013	0,113
-404,511	-200,000	0,029	0,114
-403,496	350,235	-0,041	-0,059
-402,482	277,100	-0,029	-0,038
-401,467	-0,820	0,098	0,051
-400,452	102,319	0,021	0,018
-399,438	-98,798	0,054	0,010
-398,423	-200,000	0,016	-0,053
-397,409	-16,757	-0,100	-0,046
-396,394	-54,463	-0,077	-0,025
-395,379	27,235	0,153	0,094
-394,365	800,000	-0,040	0,102
-393,350	120,490	-0,019	0,018
-392,336	-200,000	-0,018	0,128
-391,321	228,103	0,029	-0,035
-390,306	-10,126	-0,169	0,082
-389,292	186,386	0,043	0,046
-388,277	-40,659	0,052	-0,020
-387,263	13,657	0,081	0,046
-386,248	800,000	0,016	-0,043
-385,233	-138,645	0,144	-0,011
-384,219	-14,243	-0,095	-0,045
-383,204	-200,000	0,040	-0,182
-382,190	-178,960	-0,103	-0,002
-381,175	-200,000	0,008	0,027
-380,160	-200,000	0,055	0,217
-379,146	-200,000	0,043	0,237
-378,131	800,000	-0,052	0,147
-377,117	143,483	0,081	-0,079
-376,102	800,000	-0,020	-0,043
-375,088	-200,000	-0,015	0,120
-374,073	640,651	-0,061	-0,114
-373,058	134,683	-0,056	0,053
-372,044	265,744	0,115	0,147
-371,029	-78,613	0,060	-0,015
-370,015	-151,883	0,059	0,003
-369,000	637,103	-0,076	-0,141
-367,985	28,620	-0,118	-0,073
-366,971	-200,000	-0,001	0,048
-365,956	118,249	0,158	-0,143
-364,942	-51,775	0,046	-0,016
-363,927	-70,381	-0,128	-0,035
-362,912	-70,397	-0,101	-0,028
-361,898	-17,059	-0,078	0,036
-360,883	154,933	0,072	-0,072
-359,869	615,948	-0,041	0,076
-358,854	-104,779	0,045	0,007
-357,839	800,000	-0,029	-0,084
-356,825	116,354	-0,118	-0,106
-355,810	329,041	-0,046	0,065
-354,796	-47,129	0,056	-0,020
-353,781	-200,000	-0,017	0,103
-352,766	660,976	-0,029	0,055
-351,752	-127,415	0,080	-0,008
-350,737	80,210	0,162	-0,127
-349,723	-6,824	-0,077	-0,038
-348,708	800,000	0,035	0,073
-347,693	427,079	-0,092	0,145
-346,679	-84,301	-0,027	0,006
-345,664	-200,000	0,010	0,064
-344,650	511,872	0,072	-0,122
-343,635	270,339	0,104	-0,134
-342,620	-200,000	0,056	0,000
-341,606	-200,000	0,001	-0,035
-340,591	73,619	0,104	0,079
-339,577	800,000	0,063	-0,132
-338,562	-112,617	0,074	-0,011
-337,548	-34,964	0,027	0,011
-336,533	183,537	0,062	0,067
-335,518	528,680	0,047	-0,082
-334,504	-200,000	-0,024	0,130
-333,489	-34,661	-0,055	0,022
-332,475	-200,000	-0,022	-0,092
-331,460	-106,888	0,100	0,016
-330,445	-18,614	-0,039	-0,017
-329,431	506,373	-0,054	0,092
-328,416	-200,000	-0,020	0,140
-327,402	-200,000	0,010	0,068
-326,387	800,000	-0,048	0,118
-325,372	124,055	-0,030	0,028
-324,358	459,999	-0,044	0,072
-323,343	800,000	-0,045	0,101
-322,329	800,000	-0,013	-0,026
-321,314	-200,000	0,017	0,104
-320,299	47,986	0,095	0,065
-319,285	-51,542	-0,089	0,030
-318,270	-200,000	0,010	-0,038
-317,256	-186,364	-0,141	-0,001
-316,241	800,000	0,043	-0,089
-315,226	-109,616	0,119	-0,018
-314,212	430,559	0,035	-0,055
-313,197	-200,000	0,005	0,027
-312,183	-200,000	-0,026	0,185
-311,168	-200,000	-0,058	0,190
-310,153	800,000	-0,039	0,085
-309,139	559,032	0,057	0,100
-308,124	-200,000	0,010	0,082
-307,110	800,000	-0,058	0,141
-306,095	800,000	0,045	0,131
-305,080	-84,513	-0,152	-0,035
-304,066	81,925	-0,043	-0,034
-303,051	-27,424	-0,047	-0,020
-302,037	-44,411	-0,080	-0,029
-301,022	800,000	0,034	-0,088
-300,008	102,127	0,060	0,051
-298,993	37,621	-0,028	-0,018
-297,978	319,954	-0,034	-0,048
-296,964	800,000	-0,029	-0,090
-295,949	-200,000	0,015	-0,196
-294,935	-200,000	-0,013	0,060
-293,920	301,453	-0,030	-0,040
-292,905	663,284	-0,028	-0,052
-291,891	-117,046	0,211	-0,028
-290,876	73,203	0,124	0,094
-289,862	800,000	-0,030	0,070
-288,847	-19,630	-0,051	-0,023
-287,832	-42,424	-0,125	0,046
-286,818	756,631	0,030	0,059
-285,803	46,454	0,053	0,036
-284,789	800,000	0,032	-0,078
-283,774	-200,000	-0,002	0,070
-282,759	-53,810	0,059	-0,020
-281,745	147,618	-0,104	-0,102
-280,730	-125,876	0,054	-0,006
-279,716	-86,646	0,122	-0,027
-278,701	-127,574	0,101	0,011
-277,686	-18,243	0,100	-0,045
-276,672	800,000	0,022	0,065
-275,657	800,000	0,027	0,064
-274,643	-26,227	-0,150	-0,064
-273,628	-200,000	0,006	0,063
-272,613	-22,010	-0,213	-0,094
-271,599	-83,530	-0,055	0,013
-270,584	-200,000	0,015	0,146
-269,570	261,950	-0,052	-0,065
-268,555	168,687	-0,076	-0,079
-267,540	12,935	-0,076	-0,043
-266,526	-131,778	-0,073	-0,007
-265,511	406,553	-0,021	0,033
-264,497	-200,000	-0,000	0,035
-263,482	48,243	0,051	0,035
-262,467	78,099	0,092	0,071
-261,453	-67,452	-0,041	0,012
-260,438	-200,000	-0,020	0,148
-259,424	411,606	-0,042	0,065
-258,409	-200,000	-0,003	0,012
-257,395	183,074	0,048	0,051
-256,380	37,488	0,053	0,034
-255,365	-18,123	0,087	0,040
-254,351	-200,000	0,006	-0,024
-253,336	800,000	0,061	-0,174
-252,322	-200,000	-0,006	-0,071
-251,307	-80,284	-0,024	0,006
-250,292	-125,419	-0,044	0,005
-249,278	159,257	-0,074	0,075
-248,263	287,844	-0,082	0,108
-247,249	-200,000	0,002	0,105
-246,234	-200,000	-0,026	-0,178
-245,219	474,451	0,031	-0,051
-244,205	90,517	-0,052	-0,042
-243,190	42,957	0,048	0,032
-242,176	-200,000	0,004	0,100
-241,161	800,000	-0,038	0,081
-240,146	-200,000	0,039	0,150
-239,132	157,679	-0,063	-0,064
-238,117	107,611	0,103	0,089
-237,103	394,473	-0,032	-0,048
-236,088	331,205	0,023	0,032
-235,073	-8,091	-0,075	-0,037
-234,059	-100,313	0,064	-0,011
-233,044	714,813	0,040	0,077
-232,030	-72,870	-0,098	-0,026
-231,015	608,259	-0,027	-0,049
-230,000	129,222	-0,025	-0,023
-228,986	-4,223	0,048	0,024
-227,971	-168,134	-0,060	-0,002
-226,957	-131,534	-0,030	-0,003
-225,942	-119,175	0,086	-0,011
-224,927	-200,000	-0,011	-0,110
-223,913	800,000	-0,043	-0,132
-222,898	525,828	0,027	-0,046
-221,884	-89,822	0,077	0,016
-220,869	8,464	0,154	0,084
-219,855	146,339	-0,056	0,055
-218,840	-200,000	-0,029	0,132
-217,825	337,274	0,031	0,043
-216,811	43,932	0,018	-0,012
-215,796	125,003	-0,056	0,051
-214,782	800,000	0,066	-0,135
-213,767	800,000	0,040	0,109
-212,752	800,000	-0,034	0,103
-211,738	-200,000	0,004	0,140
-210,723	-200,000	0,016	0,133
-209,709	348,179	-0,027	0,039
-208,694	85,317	-0,045	0,036
-207,679	18,874	-0,076	-0,044
-206,665	172,195	-0,011	0,011
-205,650	800,000	0,033	0,096
-204,636	-182,657	-0,159	-0,002
-203,621	-200,000	-0,122	-0,000
-202,606	-200,000	0,011	-0,097
-201,592	777,119	-0,012	-0,025
-200,577	317,698	0,043	0,059
-199,563	253,414	0,036	-0,045
-198,548	116,897	0,075	0,067
-197,533	130,853	-0,039	-0,036
-196,519	-200,000	-0,031	0,143
-195,504	-200,000	-0,006	-0,022
-194,490	1,535	0,142	-0,074
-193,475	-200,000	-0,044	-0,148
-192,460	19,630	-0,154	0,090
-191,446	-45,657	0,136	0,049
-190,431	-200,000	0,005	-0,029
-189,417	-7,486	0,100	0,049
-188,402	-200,000	0,005	-0,061
-187,387	175,671	0,081	-0,086
-186,373	6,594	-0,133	-0,072
-185,358	426,328	-0,047	0,073
-184,344	800,000	0,026	0,055
-183,329	384,956	0,056	0,084
-182,315	135,160	-0,037	0,035
-181,300	64,124	0,025	0,018
-180,285	-45,362	-0,077	-0,028
-179,271	800,000	-0,053	-0,126
-178,256	-12,334	-0,083	-0,039
-177,242	-143,102	0,086	0,006
-176,227	-120,182	0,070	0,009
-175,212	-30,569	0,140	-0,057
-174,198	-200,000	-0,023	0,098
-173,183	-51,120	0,015	-0,005
-172,169	-138,182	0,042	0,003
-171,154	-200,000	-0,018	0,130
-170,139	-200,000	-0,001	0,068
-169,125	-45,235	0,075	-0,027
-168,110	147,614	0,003	-0,003
-167,096	-141,564	-0,086	0,006
-166,081	800,000	-0,073	-0,183
-165,066	90,397	0,067	-0,054
-164,052	800,000	0,042	-0,131
-163,037	202,994	0,053	-0,060
-162,023	-200,000	0,020	0,120
-161,008	-200,000	0,048	0,239
-159,993	-200,000	0,032	-0,126
-158,979	329,748	0,013	-0,019
-157,964	800,000	-0,031	-0,086
-156,950	132,274	-0,078	-0,073
-155,935	258,342	-0,069	0,086
-154,920	-59,647	-0,018	0,005
-153,906	-140,707	0,205	-0,015
-152,891	2,597	-0,029	-0,015
-151,877	30,202	-0,046	0,028
-150,862	-200,000	0,016	0,069
-149,847	800,000	0,014	0,036
-148,833	800,000	-0,041	0,085
-147,818	177,702	0,067	0,071
-146,804	181,946	0,013	-0,014
-145,789	-200,000	0,011	0,072
-144,775	254,987	0,092	-0,114
-143,760	48,592	-0,075	-0,051
-142,745	242,911	0,053	-0,065
-141,731	-188,866	0,063	-0,001
-140,716	417,410	-0,040	0,063
-139,702	157,010	-0,031	-0,031
-138,687	-112,222	-0,076	0,011
-137,672	-200,000	0,026	0,104
-136,658	351,988	0,065	-0,093
-135,643	-66,318	-0,093	0,027
-134,629	253,266	-0,064	0,079
-133,614	532,750	-0,013	0,023
-132,599	171,046	0,040	0,042
-131,585	-141,634	0,132	0,009
-130,570	-200,000	-0,007	0,115
-129,556	62,682	-0,034	0,025
-128,541	56,429	-0,054	-0,038
-127,526	57,427	0,108	-0,076
-126,512	-19,305	0,055	-0,024
-125,497	-96,499	-0,107	-0,020
-124,483	556,208	0,095	0,166
-123,468	-39,889	-0,085	0,032
-122,453	585,308	0,054	0,097
-121,439	-48,499	-0,071	-0,025
-120,424	-200,000	0,017	0,121
-119,410	-200,000	0,004	0,014
-118,395	-200,000	-0,012	-0,054
-117,380	211,722	-0,128	0,146
-116,366	325,095	0,051	0,071
-115,351	-200,000	0,011	0,082
-114,337	152,502	-0,085	-0,084
-113,322	-200,000	-0,024	-0,089
-112,307	-200,000	-0,019	0,118
-111,293	-200,000	-0,046	-0,194
-110,278	21,829	0,055	0,033
-109,264	28,541	-0,026	-0,016
-108,249	-170,506	-0,115	-0,003
-107,234	-200,000	-0,001	-0,082
-106,220	-25,379	-0,111	-0,047
-105,205	-200,000	-0,000	0,019
-104,191	800,000	0,022	-0,047
-103,176	-200,000	0,017	0,238
-102,162	-88,150	0,127	0,027
-101,147	-200,000	0,022	0,093
-100,132	231,824	-0,079	-0,094
-99,118	-162,968	-0,022	-0,001
-98,103	-16,214	0,065	-0,030
-97,089	800,000	0,032	-0,075
-96,074	-200,000	0,036	0,116
-95,059	-116,016	-0,066	0,009
-94,045	381,411	-0,102	-0,152
-93,030	-200,000	0,007	-0,056
-92,016	54,321	-0,114	-0,079
-91,001	138,372	-0,045	-0,043
-89,986	800,000	0,019	-0,047
-88,972	194,258	0,039	0,043
-87,957	-140,545	-0,046	0,003
-86,943	800,000	0,017	-0,045
-85,928	295,053	-0,101	-0,133
-84,913	318,628	-0,028	-0,038
-83,899	-200,000	0,002	-0,059
-82,884	-200,000	0,024	-0,112
-81,870	-200,000	0,027	0,095
-80,855	-59,531	0,079	0,024
-79,840	147,655	-0,094	0,092
-78,826	-65,392	-0,091	-0,026
-77,811	800,000	-0,075	-0,154
-76,797	-59,790	0,028	-0,009
-75,782	-118,963	0,187	0,023
-74,767	800,000	-0,008	-0,021
-73,753	800,000	-0,033	-0,093
-72,738	-200,000	0,010	-0,139
-71,724	-200,000	0,006	-0,073
-70,709	342,101	0,044	0,063
-69,694	102,440	-0,006	-0,005
-68,680	-64,521	-0,044	-0,013
-67,665	86,472	0,112	0,089
-66,651	389,017	-0,060	0,090
-65,636	-89,965	-0,085	0,018
-64,622	-200,000	0,002	-0,052
-63,607	-125,852	0,072	-0,008
-62,592	43,182	-0,103	-0,068
-61,578	151,295	-0,055	0,054
-60,563	-200,000	-0,005	0,051
-59,549	800,000	0,059	0,131
-58,534	-42,951	-1,797	-0,655
-57,519	590,938	-0,601	-1,076
-56,505	-200,000	-1,115	-4,801
-55,490	-188,457	0,693	-0,006
-54,476	800,000	5,323	12,283
-53,461	-200,000	15,689	278,739
-52,446	-200,000	702,598	2248,358
-51,432	564,124	1619,129	2842,929
-50,417	121,413	1623,553	1460,179
-49,403	81,508	1284,102	1001,611
-48,388	36,822	1027,991	654,558
-47,373	21,652	989,842	580,120
-46,359	20,588	978,582	569,989
-45,344	18,936	974,516	562,168
-44,330	18,998	973,121	561,546
-43,315	18,771	971,287	559,721
-42,300	18,696	970,314	558,893
-41,286	18,678	969,522	558,355
-40,271	18,621	968,498	557,557
-39,257	18,642	967,673	557,127
-38,242	18,661	966,847	556,694
-37,227	18,665	966,151	556,284
-36,213	18,621	965,296	555,626
-35,198	18,605	964,326	554,992
-34,184	18,683	963,628	554,822
-33,169	18,576	962,823	553,991
-32,154	18,704	961,844	553,821
-31,140	18,657	961,096	553,216
-30,125	18,671	960,104	552,667
-29,111	18,711	959,413	552,376
-28,096	18,668	958,889	551,913
-27,082	18,664	958,015	551,376
-26,067	18,661	957,255	550,908
-25,052	18,703	956,300	550,473
-24,038	18,649	955,769	549,969
-23,023	18,602	955,095	549,409
-22,009	18,722	954,361	549,352
-20,994	18,694	953,848	548,944
-19,979	18,702	953,329	548,648
-18,965	18,692	952,600	548,175
-17,950	18,680	951,961	547,748
-16,936	18,595	951,389	547,125
-15,921	18,616	950,650	546,744
-14,906	18,530	950,098	546,129
-13,892	18,532	949,396	545,712
-12,877	18,545	948,696	545,328
-11,863	18,528	947,986	544,843
-10,848	18,530	947,543	544,576
-9,833	18,651	947,113	544,693
-8,819	18,561	946,561	544,067
-7,804	18,530	945,862	543,544
-6,790	18,505	945,147	543,033
-5,775	18,549	944,550	542,807
-4,760	18,596	943,920	542,574
-3,746	18,524	943,303	541,967
-2,731	18,404	942,587	541,155
-1,717	18,407	941,641	540,597
-0,702	18,345	941,157	540,104
0,313	18,153	940,611	539,994
1,327	21,213	938,954	548,685
2,342	30,278	796,257	489,435
3,356	27,380	449,499	271,921
4,371	-2,147	295,140	148,973
5,386	-6,262	276,492	135,639
6,400	-7,565	270,668	131,558
7,415	-7,988	268,432	130,068
8,429	-7,697	267,114	129,686
9,444	-7,805	266,257	129,160
10,459	-7,702	265,633	128,939
11,473	-7,977	265,022	128,380
12,488	-8,105	264,581	128,040
13,502	-8,184	263,889	127,622
14,517	-8,200	263,470	127,392
15,531	-8,117	263,103	127,279
16,546	-8,113	262,770	127,110
17,561	-8,149	262,358	126,867
18,575	-8,084	262,130	126,804
19,590	-8,179	261,752	126,525
20,604	-8,162	261,487	126,400
21,619	-8,156	261,126	126,220
22,634	-7,953	260,635	126,153
23,648	-8,247	260,431	125,780
24,663	-8,285	260,150	125,599
25,677	-8,321	259,975	125,471
26,692	-8,277	259,785	125,408
27,707	-8,228	259,395	125,252
28,721	-8,330	259,177	125,045
29,736	-8,294	258,970	124,966
30,750	-8,203	258,591	124,853
31,765	-8,138	258,321	124,769
32,780	-8,364	258,148	124,473
33,794	-8,261	257,862	124,416
34,809	-8,273	257,755	124,342
35,823	-8,078	257,475	124,369
36,838	-8,282	257,193	124,041
37,853	-8,428	256,966	123,793
38,867	-8,163	256,739	123,905
39,882	-8,271	256,574	123,720
40,896	-8,312	256,312	123,546
41,911	-8,281	256,108	123,464
42,926	-8,306	255,906	123,334
43,940	-8,313	255,605	123,171
44,955	-8,324	255,278	122,993
45,969	-8,378	255,116	122,857
46,984	-8,560	254,771	122,521
47,999	-8,870	254,653	122,183
49,013	-8,973	254,417	121,969
50,028	-9,210	254,106	121,602
51,042	-9,167	253,947	121,553
52,057	-9,261	253,607	121,298
53,071	-8,962	253,434	121,464
54,086	-8,980	253,234	121,341
55,101	-8,919	253,071	121,306
56,115	-8,619	253,007	121,524
57,130	-8,201	252,889	121,818
58,144	-7,998	252,863	121,971
59,159	-8,045	252,632	121,808
60,174	-8,047	252,512	121,738
61,188	-8,071	252,150	121,532
62,203	-8,097	251,893	121,374
63,217	-8,050	251,674	121,298
64,232	-8,205	251,474	121,057
65,247	-8,030	251,275	121,102
66,261	-8,234	251,023	120,794
67,276	-8,586	250,818	120,382
68,290	-8,413	250,483	120,359
69,305	-8,631	250,142	119,998
70,320	-8,627	250,063	119,953
71,334	-8,237	249,968	120,230
72,349	-7,983	249,798	120,355
73,363	-8,108	249,694	120,187
74,378	-8,080	249,541	120,127
75,393	-8,128	249,280	119,950
76,407	-8,277	249,060	119,706
77,422	-8,107	248,730	119,681
78,436	-8,076	248,659	119,663
79,451	-7,946	248,396	119,636
80,466	-8,316	248,320	119,274
81,480	-8,603	247,928	118,832
82,495	-8,489	247,837	118,874
83,509	-8,454	247,503	118,734
84,524	-8,628	247,485	118,568
85,539	-8,558	247,115	118,438
86,553	-8,709	246,975	118,233
87,568	-8,595	246,763	118,218
88,582	-8,707	246,600	118,034
89,597	-8,570	246,225	117,960
90,611	-8,243	246,095	118,162
91,626	-8,231	246,177	118,201
92,641	-8,145	245,991	118,173
93,655	-8,134	245,741	118,052
94,670	-8,462	245,645	117,720
95,684	-8,499	245,288	117,507
96,699	-8,466	245,333	117,546
97,714	-8,536	244,968	117,302
98,728	-8,816	244,903	117,026
99,743	-8,602	244,391	116,950
100,757	-8,695	244,308	116,823
101,772	-8,558	244,124	116,838
102,787	-8,599	244,013	116,740
103,801	-8,475	243,833	116,747
104,816	-8,316	243,694	116,802
105,830	-8,353	243,725	116,776
106,845	-8,135	243,406	116,794
107,860	-8,241	243,303	116,645
108,874	-8,393	242,982	116,355
109,889	-8,482	242,832	116,200
110,903	-8,465	242,632	116,108
111,918	-8,506	242,443	115,973
112,933	-8,481	242,372	115,949
113,947	-8,261	242,064	115,973
114,962	-8,190	241,773	115,882
115,976	-8,284	241,720	115,769
116,991	-8,048	241,480	115,837
118,006	-8,226	241,397	115,641
119,020	-8,282	241,271	115,524
120,035	-8,257	241,230	115,515
121,049	-8,136	240,873	115,433
122,064	-7,939	240,735	115,518
123,079	-8,410	240,629	115,071
124,093	-8,565	240,384	114,816
125,108	-8,626	240,167	114,653
126,122	-8,758	239,856	114,387
127,137	-8,680	239,646	114,340
128,151	-8,754	239,587	114,241
129,166	-8,447	239,372	114,378
130,181	-8,772	239,260	114,050
131,195	-8,725	238,935	113,923
132,210	-8,350	238,770	114,139
133,224	-8,452	238,752	114,037
134,239	-8,197	238,552	114,138
135,254	-8,245	238,391	114,012
136,268	-8,388	238,210	113,800
137,283	-8,547	238,047	113,583
138,297	-8,771	237,760	113,255
139,312	-8,840	237,619	113,122
140,327	-8,375	237,511	113,436
141,341	-7,952	237,445	113,736
142,356	-8,015	237,290	113,601
143,370	-8,037	237,139	113,500
144,385	-7,826	237,086	113,634
145,400	-8,100	236,884	113,308
146,414	-7,972	236,618	113,273
147,429	-8,084	236,387	113,063
148,443	-7,885	236,302	113,171
149,458	-7,852	236,136	113,109
150,473	-7,898	235,900	112,949
151,487	-8,198	235,691	112,598
152,502	-8,114	235,542	112,584
153,516	-8,101	235,434	112,533
154,531	-7,959	235,218	112,533
155,546	-7,944	235,192	112,522
156,560	-8,359	234,979	112,080
157,575	-8,074	234,626	112,128
158,589	-8,294	234,524	111,895
159,604	-7,765	234,406	112,249
160,619	-7,888	234,410	112,143
161,633	-7,854	234,145	112,033
162,648	-7,911	233,970	111,894
163,662	-8,096	233,749	111,632
164,677	-8,061	233,727	111,639
165,692	-8,022	233,567	111,583
166,706	-7,685	233,390	111,756
167,721	-7,833	233,255	111,564
168,735	-7,646	233,129	111,641
169,750	-7,850	232,940	111,380
170,764	-7,873	232,790	111,280
171,779	-7,958	232,682	111,152
172,794	-8,014	232,541	111,030
173,808	-8,092	232,183	110,788
174,823	-8,667	231,970	110,224
175,837	-8,549	231,677	110,167
176,852	-8,083	231,756	110,562
177,867	-7,886	231,669	110,665
178,881	-7,845	231,516	110,614
179,896	-7,778	231,280	110,544
180,910	-7,918	231,421	110,492
181,925	-7,811	231,037	110,382
182,940	-7,676	230,875	110,401
183,954	-7,862	230,842	110,229
184,969	-7,690	230,642	110,259
185,983	-7,778	230,552	110,137
186,998	-7,805	230,428	110,047
188,013	-7,866	230,168	109,866
189,027	-7,710	229,959	109,878
190,042	-7,727	229,796	109,776
191,056	-7,599	229,665	109,803
192,071	-7,782	229,553	109,598
193,086	-7,763	229,357	109,510
194,100	-7,707	229,183	109,460
195,115	-7,749	228,946	109,304
196,129	-8,052	228,711	108,948
197,144	-3,739	230,327	113,066
198,159	1,537	231,822	117,912
199,173	3,382	232,085	119,475
200,188	3,583	232,041	119,598
201,202	3,698	232,001	119,657
202,217	3,730	231,875	119,606
203,232	4,026	231,727	119,749
204,246	3,902	231,643	119,598
205,261	4,261	231,437	119,761
206,275	4,459	231,317	119,842
207,290	4,174	231,298	119,600
208,304	4,257	231,024	119,512
209,319	4,360	230,865	119,499
210,334	4,216	230,755	119,320
211,348	3,924	230,469	118,935
212,363	3,736	230,205	118,644
213,377	3,703	229,983	118,493
214,392	3,467	230,011	118,315
215,407	3,560	229,837	118,287
216,421	3,630	229,607	118,212
217,436	3,433	229,376	117,930
218,450	3,364	229,168	117,760
219,465	3,151	229,175	117,589
220,480	3,120	229,026	117,478
221,494	3,187	228,810	117,408
222,509	3,454	228,837	117,617
223,523	3,365	228,560	117,396
224,538	3,351	228,247	117,214
225,553	3,457	228,218	117,270
226,567	3,603	228,126	117,324
227,582	3,729	228,102	117,397
228,596	4,135	227,973	117,630
229,611	3,735	227,754	117,201
230,626	3,487	227,376	116,808
231,640	3,431	227,232	116,680
232,655	3,694	227,259	116,884
233,669	4,286	227,149	117,268
234,684	4,086	227,151	117,106
235,699	3,789	227,019	116,802
236,713	3,620	226,689	116,493
237,728	3,625	226,539	116,410
238,742	3,192	226,308	115,953
239,757	3,582	226,156	116,160
240,772	3,476	226,034	116,007
241,786	3,338	225,793	115,768
242,801	3,653	225,875	116,038
243,815	3,730	225,743	116,018
244,830	3,931	225,588	116,080
245,844	3,602	225,324	115,685
246,859	3,585	225,186	115,591
247,874	3,460	225,208	115,499
248,888	3,667	224,973	115,523
249,903	3,530	224,837	115,340
250,917	3,659	224,562	115,286
251,932	3,588	224,385	115,131
252,947	3,339	224,416	114,950
253,961	3,255	224,200	114,766
254,976	3,277	224,000	114,670
255,990	3,729	223,843	114,918
257,005	3,664	223,832	114,853
258,020	3,623	223,654	114,721
259,034	3,895	223,762	114,969
260,049	3,633	223,411	114,583
261,063	3,802	223,188	114,585
262,078	3,862	223,135	114,592
263,093	3,665	223,115	114,425
264,107	3,595	222,845	114,224
265,122	3,900	222,519	114,274
266,136	3,724	222,628	114,188
267,151	3,920	222,393	114,203
268,166	3,516	222,121	113,753
269,180	3,503	221,756	113,547
270,195	3,400	221,782	113,474
271,209	3,535	221,594	113,467
272,224	3,484	221,566	113,405
273,239	3,394	221,432	113,260
274,253	3,436	221,216	113,170
275,268	3,025	221,156	112,826
276,282	3,179	220,759	112,727
277,297	3,290	220,788	112,814
278,312	3,395	220,620	112,794
279,326	3,422	220,566	112,777
280,341	3,455	220,497	112,756
281,355	3,526	220,239	112,666
282,370	3,429	220,222	112,576
283,384	3,301	220,044	112,381
284,399	3,227	219,901	112,244
285,414	3,146	219,572	112,007
286,428	3,360	219,572	112,153
287,443	3,630	219,509	112,308
288,457	3,391	219,447	112,092
289,472	3,504	219,231	112,054
290,487	2,930	218,856	111,434
291,501	3,085	218,715	111,466
292,516	3,042	218,629	111,381
293,530	3,001	218,622	111,337
294,545	3,241	218,254	111,314
295,560	3,463	218,105	111,389
296,574	3,506	218,193	111,456
297,589	3,559	217,882	111,325
298,603	3,665	217,824	111,362
299,618	3,618	217,740	111,275
300,633	3,745	217,588	111,280
301,647	3,660	217,607	111,219
302,662	3,636	217,458	111,115
303,676	3,669	217,269	111,032
304,691	3,742	217,078	110,977
305,706	3,769	216,950	110,922
306,720	3,728	216,814	110,813
307,735	3,519	216,674	110,580
308,749	3,178	216,462	110,217
309,764	3,502	216,375	110,396
310,779	3,694	216,199	110,435
311,793	3,778	216,235	110,504
312,808	3,789	215,957	110,360
313,822	3,668	215,841	110,204
314,837	3,548	215,590	109,979
315,852	3,502	215,534	109,908
316,866	3,420	215,465	109,805
317,881	3,742	215,156	109,867
318,895	3,771	215,163	109,882
319,910	3,384	215,061	109,544
320,925	3,160	214,818	109,250
321,939	2,993	214,653	109,037
322,954	3,055	214,465	108,976
323,968	3,439	214,539	109,277
324,983	3,401	214,435	109,188
325,997	3,853	214,372	109,468
327,012	3,598	214,102	109,139
328,027	3,667	213,926	109,088
329,041	3,948	213,942	109,287
330,056	3,879	213,752	109,131
331,070	3,720	213,395	108,826
332,085	3,334	213,254	108,471
333,100	3,563	213,139	108,565
334,114	3,610	213,028	108,532
335,129	3,251	212,935	108,221
336,143	3,594	212,673	108,321
337,158	3,370	212,654	108,143
338,173	3,598	212,556	108,245
339,187	3,109	212,504	107,864
340,202	3,281	212,161	107,801
341,216	3,137	212,029	107,623
342,231	3,041	212,028	107,545
343,246	2,950	211,958	107,437
344,260	3,245	211,730	107,518
345,275	3,442	211,475	107,517
346,289	3,379	211,502	107,477
347,304	3,666	211,398	107,616
348,319	3,564	211,160	107,414
349,333	3,633	210,967	107,354
350,348	3,447	211,045	107,255
351,362	3,752	210,932	107,400
352,377	3,795	210,629	107,267
353,392	3,464	210,577	107,000
354,406	3,571	210,531	107,041
355,421	195,141	1342,248	1427,332
356,435	155,830	1480,163	1427,379
