DTS Sentinel unit serial number:	SN410029Multiplexer serial number:	ORYXHardware model number:	OX2-SRSoftware version number:	ORYX F/W v4,00 Oryx Data Collector v3.7.2.0data status	okinstallation	B6 Nyhavnadifferential loss correction	single-endedforward channel	channel 2reverse channel	N/Adate	2023/12/09time	15:40:08forward acquisition time	300,00reverse acquisition time	0,00gamma	499,1914k internal	0,3133k external	0,3133temperature offset calibration	1,0000default loss term (dB/km)	0,3820temperature slope calibration	1,0000multiplexer offset coefficient	1,0000multiplexer slope coefficient	1,0000fibre end	0,00T internal ref (°C)	20,69T ext. ref 1 (°C)	4,63T ext. ref 2 (°C)	4,61length (m)	temperature (°C)	Stokes	anti-Stokes-744,400	78,923	0,084	-0,067
-743,385	49,428	-0,111	0,077
-742,371	-123,062	0,225	-0,026
-741,356	203,246	-0,214	0,246
-740,342	209,133	0,064	-0,074
-739,327	-50,734	-0,138	0,048
-738,312	-17,422	-0,122	-0,057
-737,298	92,943	-0,091	0,077
-736,283	-0,672	0,090	-0,047
-735,269	-0,498	-0,190	0,100
-734,254	134,207	-0,057	0,055
-733,239	-106,735	-0,363	-0,059
-732,225	-63,971	0,247	-0,075
-731,210	-200,000	-0,010	0,106
-730,196	70,782	0,022	-0,017
-729,181	-11,482	-0,064	0,031
-728,167	230,587	-0,118	0,144
-727,152	-200,000	0,018	0,090
-726,137	673,321	-0,037	0,072
-725,123	90,810	-0,066	0,055
-724,108	-119,408	-0,069	0,009
-723,094	-55,792	0,057	0,019
-722,079	-0,566	-0,045	0,024
-721,064	800,000	-0,040	-0,094
-720,050	223,229	-0,032	0,038
-719,035	-200,000	-0,033	0,176
-718,021	800,000	-0,022	-0,068
-717,006	-200,000	-0,032	-0,194
-715,991	256,398	-0,153	-0,196
-714,977	-108,355	-0,066	-0,010
-713,962	-200,000	0,001	-0,100
-712,948	-200,000	0,011	0,059
-711,933	-30,449	-0,108	-0,045
-710,918	-200,000	0,010	0,051
-709,904	90,877	-0,095	-0,079
-708,889	-15,957	-0,125	0,059
-707,875	-80,643	-0,096	-0,023
-706,860	248,558	0,112	-0,142
-705,845	220,534	0,091	-0,109
-704,831	123,972	-0,071	0,066
-703,816	525,426	0,014	0,024
-702,802	-200,000	-0,007	-0,056
-701,787	800,000	-0,052	-0,151
-700,772	240,172	-0,113	-0,140
-699,758	-15,301	0,127	-0,060
-698,743	-36,247	0,097	0,039
-697,729	-200,000	0,009	-0,050
-696,714	-82,370	0,126	-0,030
-695,699	-200,000	0,006	-0,027
-694,685	-99,376	0,124	0,023
-693,670	568,462	-0,013	0,023
-692,656	54,683	0,109	0,078
-691,641	-133,920	0,154	-0,014
-690,627	-115,687	0,041	-0,006
-689,612	459,404	0,067	0,111
-688,597	392,789	0,013	-0,019
-687,583	190,056	-0,018	0,021
-686,568	-94,791	0,097	0,019
-685,554	-200,000	-0,020	0,079
-684,539	-200,000	0,005	0,052
-683,524	190,424	-0,032	0,036
-682,510	764,069	0,019	0,039
-681,495	300,427	-0,105	-0,144
-680,481	-122,080	-0,071	-0,009
-679,466	93,622	-0,084	0,071
-678,451	293,123	-0,023	-0,031
-677,437	-70,793	-0,080	0,022
-676,422	-5,059	0,062	0,032
-675,408	-200,000	0,009	0,041
-674,393	-129,735	0,022	-0,002
-673,378	200,489	0,037	0,042
-672,364	-200,000	0,013	0,044
-671,349	615,726	-0,042	-0,078
-670,335	-124,004	-0,026	0,003
-669,320	-168,257	-0,156	0,004
-668,305	-200,000	-0,021	0,132
-667,291	52,324	-0,119	-0,084
-666,276	-53,575	-0,150	-0,051
-665,262	-200,000	-0,022	-0,132
-664,247	98,413	0,050	0,043
-663,232	-188,192	0,101	0,001
-662,218	800,000	0,008	0,022
-661,203	-200,000	0,011	-0,115
-660,189	56,857	-0,023	0,017
-659,174	224,923	-0,076	-0,091
-658,159	-107,160	0,052	-0,008
-657,145	448,386	0,006	0,010
-656,130	562,803	0,043	-0,078
-655,116	-13,133	0,143	-0,068
-654,101	-200,000	-0,033	-0,118
-653,086	-63,516	0,033	-0,010
-652,072	-46,830	-0,125	0,045
-651,057	-70,115	0,078	-0,022
-650,043	679,113	-0,029	-0,055
-649,028	-200,000	-0,006	-0,094
-648,014	192,034	0,062	-0,069
-646,999	-200,000	-0,009	-0,055
-645,984	52,351	-0,115	-0,081
-644,970	-143,796	0,090	0,006
-643,955	466,012	-0,042	0,070
-642,941	-81,836	-0,135	0,033
-641,926	345,629	0,088	0,128
-640,911	-145,312	-0,055	-0,004
-639,897	242,407	0,009	0,012
-638,882	-200,000	0,003	0,018
-637,868	800,000	-0,032	-0,069
-636,853	-145,379	-0,057	0,004
-635,838	462,221	0,010	-0,016
-634,824	36,128	0,136	0,088
-633,809	-109,222	0,078	-0,012
-632,795	-93,165	-0,092	0,019
-631,780	-200,000	0,033	0,116
-630,765	115,272	-0,031	-0,028
-629,751	16,069	-0,031	-0,018
-628,736	-53,252	0,060	0,020
-627,722	-95,706	0,145	-0,028
-626,707	50,803	0,078	-0,054
-625,692	-200,000	0,024	0,153
-624,678	161,456	-0,022	-0,023
-623,663	-98,075	0,013	-0,002
-622,649	-86,469	-0,026	0,006
-621,634	-114,498	-0,042	-0,006
-620,619	64,040	0,137	-0,102
-619,605	-84,810	0,075	0,017
-618,590	-117,362	-0,066	-0,009
-617,576	-118,510	0,041	0,005
-616,561	-120,274	0,162	-0,020
-615,546	147,126	0,050	0,049
-614,532	-200,000	0,003	0,028
-613,517	-200,000	0,002	-0,222
-612,503	-200,000	0,010	0,042
-611,488	-18,636	0,089	0,041
-610,474	-200,000	0,008	0,054
-609,459	303,481	-0,091	0,125
-608,444	-200,000	-0,023	0,077
-607,430	488,775	-0,054	-0,092
-606,415	800,000	-0,044	-0,104
-605,401	-26,127	0,062	-0,027
-604,386	390,548	-0,095	-0,147
-603,371	800,000	-0,029	0,081
-602,357	800,000	0,048	0,134
-601,342	-125,106	0,041	0,005
-600,328	-41,462	-0,165	-0,062
-599,313	-200,000	-0,001	-0,030
-598,298	91,826	0,057	-0,048
-597,284	-200,000	-0,006	0,044
-596,269	709,348	-0,019	0,037
-595,255	194,299	0,050	0,056
-594,240	514,994	0,034	-0,059
-593,225	-200,000	0,008	-0,089
-592,211	-93,115	0,129	-0,026
-591,196	-177,738	-0,023	0,000
-590,182	-83,179	-0,082	0,019
-589,167	-79,417	-0,043	-0,011
-588,152	-200,000	0,012	-0,048
-587,138	-200,000	0,009	-0,071
-586,123	-174,281	-0,105	-0,002
-585,109	800,000	-0,008	0,022
-584,094	54,735	-0,145	-0,103
-583,079	362,832	0,026	-0,039
-582,065	301,694	-0,031	-0,042
-581,050	-119,121	-0,181	-0,023
-580,036	-54,623	-0,053	-0,018
-579,021	203,050	-0,140	0,160
-578,006	163,650	0,066	-0,069
-576,992	-121,247	0,153	-0,019
-575,977	-48,529	-0,076	0,027
-574,963	344,065	0,089	-0,129
-573,948	320,324	-0,011	0,015
-572,934	110,449	-0,071	0,063
-571,919	288,791	-0,067	0,089
-570,904	-200,000	0,004	-0,166
-569,890	202,420	-0,098	-0,112
-568,875	135,705	0,055	-0,053
-567,861	-199,024	0,094	-0,000
-566,846	97,225	-0,069	0,058
-565,831	-200,000	-0,006	0,036
-564,817	88,214	-0,091	0,074
-563,802	484,918	0,007	0,012
-562,788	-200,000	-0,014	-0,090
-561,773	583,511	0,018	-0,033
-560,758	-190,410	0,059	-0,000
-559,744	-200,000	0,027	0,110
-558,729	-10,041	-0,055	-0,027
-557,715	-200,000	-0,007	-0,057
-556,700	80,395	0,063	-0,050
-555,685	-200,000	-0,018	0,111
-554,671	795,848	0,027	-0,056
-553,656	212,387	0,064	0,074
-552,642	-79,575	-0,131	0,032
-551,627	-9,991	0,063	-0,031
-550,612	-200,000	-0,029	-0,141
-549,598	800,000	-0,026	-0,069
-548,583	18,399	0,061	0,036
-547,569	-200,000	-0,012	-0,072
-546,554	-31,245	0,087	-0,036
-545,539	-72,870	0,079	-0,021
-544,525	165,579	-0,034	0,035
-543,510	145,998	-0,058	-0,058
-542,496	800,000	-0,024	-0,051
-541,481	683,528	0,094	0,182
-540,466	35,478	-0,053	-0,034
-539,452	246,207	-0,116	0,145
-538,437	280,360	-0,046	-0,061
-537,423	-200,000	0,002	0,093
-536,408	110,752	-0,058	-0,052
-535,393	-200,000	0,015	-0,067
-534,379	800,000	0,013	-0,032
-533,364	0,113	-0,035	0,018
-532,350	-28,669	0,084	-0,036
-531,335	-181,272	0,058	0,001
-530,321	800,000	-0,023	-0,066
-529,306	-150,241	-0,099	0,006
-528,291	-20,599	0,070	-0,031
-527,277	-200,000	0,008	0,049
-526,262	108,814	0,111	-0,098
-525,248	-8,105	-0,013	-0,007
-524,233	-200,000	0,005	-0,067
-523,218	800,000	0,010	-0,022
-522,204	-200,000	0,005	-0,051
-521,189	264,028	-0,077	-0,099
-520,175	-78,211	-0,083	0,021
-519,160	-200,000	-0,000	-0,054
-518,145	-104,467	-0,056	-0,010
-517,131	-65,791	0,079	-0,023
-516,116	146,138	0,107	0,106
-515,102	-10,619	0,035	-0,017
-514,087	487,133	-0,008	0,014
-513,072	158,024	-0,056	-0,058
-512,058	-86,798	0,077	-0,017
-511,043	130,307	0,014	0,013
-510,029	-74,553	0,057	0,015
-509,014	375,142	0,073	0,111
-507,999	151,556	0,027	0,028
-506,985	80,760	-0,111	-0,088
-505,970	-200,000	-0,035	-0,120
-504,956	607,785	0,053	0,098
-503,941	-5,026	0,038	-0,019
-502,926	-48,348	0,075	0,027
-501,912	103,531	0,033	0,029
-500,897	-124,290	0,220	-0,025
-499,883	210,980	0,127	-0,147
-498,868	-136,670	-0,061	0,005
-497,853	-128,913	0,039	-0,004
-496,839	-90,899	-0,028	0,006
-495,824	800,000	-0,048	0,106
-494,810	-31,339	0,051	-0,021
-493,795	-79,649	0,114	0,028
-492,781	277,064	-0,053	-0,069
-491,766	-200,000	-0,018	-0,111
-490,751	53,526	0,063	0,044
-489,737	800,000	0,026	-0,055
-488,722	22,506	-0,144	-0,087
-487,708	-68,379	0,104	-0,030
-486,693	-107,481	0,026	0,004
-485,678	634,936	-0,071	-0,133
-484,664	3,144	-0,054	0,029
-483,649	-200,000	-0,005	0,019
-482,635	-200,000	-0,021	-0,131
-481,620	-166,827	0,001	0,000
-480,605	-200,000	-0,020	-0,080
-479,591	-134,933	-0,100	-0,009
-478,576	8,998	0,074	0,041
-477,562	-89,398	-0,028	0,006
-476,547	791,011	0,074	-0,150
-475,532	-40,216	0,116	-0,044
-474,518	185,713	0,021	-0,023
-473,503	354,760	0,046	-0,068
-472,489	-79,386	-0,031	0,008
-471,474	-164,567	-0,166	-0,005
-470,459	436,283	0,039	0,063
-469,445	-152,012	-0,025	-0,001
-468,430	128,427	0,092	0,087
-467,416	-200,000	-0,002	0,040
-466,401	-200,000	-0,047	-0,160
-465,386	-28,173	0,089	0,038
-464,372	169,696	-0,066	-0,069
-463,357	108,934	0,029	0,026
-462,343	-36,650	-0,146	-0,057
-461,328	532,093	-0,021	-0,037
-460,313	-60,869	-0,037	0,012
-459,299	81,956	-0,029	0,023
-458,284	800,000	0,080	-0,165
-457,270	-200,000	0,005	0,039
-456,255	8,134	-0,058	0,032
-455,241	800,000	0,042	0,087
-454,226	-200,000	-0,004	-0,037
-453,211	56,601	-0,099	-0,071
-452,197	-200,000	0,014	0,105
-451,182	-82,725	0,091	0,021
-450,168	-77,002	-0,121	-0,031
-449,153	-200,000	-0,020	0,169
-448,138	103,768	-0,121	-0,104
-447,124	-63,422	-0,015	0,005
-446,109	82,571	0,089	0,071
-445,095	463,807	-0,025	-0,040
-444,080	-200,000	0,019	-0,132
-443,065	415,688	0,033	-0,051
-442,051	-31,872	0,034	-0,014
-441,036	-200,000	0,022	-0,124
-440,022	75,267	-0,107	-0,083
-439,007	-200,000	-0,024	0,080
-437,992	800,000	0,060	-0,157
-436,978	-43,668	0,069	0,025
-435,963	48,325	0,024	0,016
-434,949	-200,000	-0,001	0,025
-433,934	-200,000	0,009	-0,051
-432,919	-200,000	-0,023	0,106
-431,905	-17,199	-0,102	0,047
-430,890	478,416	0,076	-0,127
-429,876	540,788	0,074	0,130
-428,861	725,147	-0,052	0,103
-427,846	574,091	0,041	-0,075
-426,832	-82,657	0,055	-0,013
-425,817	180,140	-0,043	0,046
-424,803	624,531	0,019	0,035
-423,788	-200,000	0,013	0,124
-422,773	129,032	-0,053	0,050
-421,759	231,111	-0,020	0,025
-420,744	-89,974	0,007	0,001
-419,730	-54,001	-0,123	0,041
-418,715	-200,000	-0,018	0,138
-417,701	800,000	-0,065	-0,207
-416,686	135,066	0,121	0,116
-415,671	-65,193	-0,168	-0,049
-414,657	80,047	-0,050	-0,040
-413,642	225,642	0,090	-0,107
-412,628	239,070	-0,042	-0,051
-411,613	-78,387	-0,111	0,028
-410,598	187,177	0,058	0,063
-409,584	167,740	0,077	-0,081
-408,569	-47,421	0,087	-0,031
-407,555	-200,000	0,008	0,031
-406,540	106,623	0,122	-0,106
-405,525	-151,244	0,127	-0,007
-404,511	94,449	-0,110	-0,092
-403,496	285,500	0,042	-0,055
-402,482	12,489	-0,037	-0,021
-401,467	79,614	-0,054	0,043
-400,452	-200,000	-0,013	-0,145
-399,438	305,357	0,082	-0,112
-398,423	-100,618	-0,117	-0,021
-397,409	-200,000	-0,018	-0,085
-396,394	800,000	0,013	0,030
-395,379	-200,000	-0,004	0,018
-394,365	265,011	-0,023	0,029
-393,350	-200,000	0,036	0,146
-392,336	107,196	0,086	0,075
-391,321	27,784	-0,018	-0,011
-390,306	-115,948	0,061	0,008
-389,292	-27,068	-0,213	-0,091
-388,277	-200,000	0,030	0,140
-387,263	-200,000	0,020	0,083
-386,248	-39,513	0,061	0,023
-385,233	-200,000	-0,004	0,054
-384,219	193,307	-0,038	0,042
-383,204	-43,419	0,030	-0,011
-382,190	800,000	-0,046	0,140
-381,175	412,091	0,031	0,049
-380,160	-53,783	0,093	0,031
-379,146	-3,444	0,061	0,031
-378,131	-200,000	-0,004	0,017
-377,117	230,323	0,026	-0,031
-376,102	62,889	-0,101	0,074
-375,088	-200,000	-0,038	-0,125
-374,073	-8,674	-0,121	-0,059
-373,058	60,909	0,018	0,013
-372,044	-39,394	0,059	0,023
-371,029	-200,000	-0,023	0,111
-370,015	50,231	-0,133	0,092
-369,000	257,046	0,074	0,093
-367,985	-34,760	-0,080	-0,032
-366,971	-200,000	-0,008	0,030
-365,956	23,384	0,013	0,008
-364,942	800,000	0,041	0,114
-363,927	-15,056	0,040	-0,019
-362,912	98,241	-0,081	0,068
-361,898	-87,554	-0,112	-0,025
-360,883	-47,658	-0,099	-0,035
-359,869	-122,449	-0,103	-0,012
-358,854	-200,000	0,008	0,116
-357,839	425,134	0,048	0,077
-356,825	726,777	-0,078	0,153
-355,810	83,780	0,037	-0,029
-354,796	642,694	-0,088	0,164
-353,781	-200,000	0,002	-0,081
-352,766	-83,871	0,058	0,013
-351,752	75,050	-0,087	-0,067
-350,737	-200,000	-0,002	-0,046
-349,723	-94,737	-0,030	0,006
-348,708	800,000	-0,040	-0,103
-347,693	-200,000	0,004	0,068
-346,679	470,315	-0,059	-0,098
-345,664	39,475	0,015	-0,010
-344,650	31,139	0,063	-0,040
-343,635	-139,528	-0,052	0,004
-342,620	-200,000	-0,015	-0,104
-341,606	333,242	0,073	-0,104
-340,591	-200,000	0,004	0,098
-339,577	-200,000	0,022	0,113
-338,562	129,721	-0,012	0,012
-337,548	-200,000	0,016	0,088
-336,533	-71,081	0,147	0,040
-335,518	-200,000	0,012	0,075
-334,504	-200,000	-0,007	0,060
-333,489	-200,000	0,025	-0,090
-332,475	800,000	-0,034	-0,102
-331,460	37,471	-0,060	0,039
-330,445	2,125	-0,038	-0,020
-329,431	-200,000	0,007	0,136
-328,416	800,000	0,059	0,150
-327,402	-73,280	0,181	-0,048
-326,387	-83,367	0,154	0,036
-325,372	17,646	0,105	-0,061
-324,358	259,255	-0,057	0,072
-323,343	96,831	0,080	-0,067
-322,329	69,235	0,040	-0,030
-321,314	800,000	0,002	-0,006
-320,299	113,133	0,101	0,090
-319,285	-200,000	-0,001	0,120
-318,270	-91,366	-0,146	0,030
-317,256	14,205	-0,046	0,026
-316,241	703,206	-0,046	-0,089
-315,226	314,262	-0,077	0,106
-314,212	66,384	0,132	0,098
-313,197	800,000	-0,026	-0,063
-312,183	19,861	-0,026	-0,015
-311,168	306,162	0,014	-0,019
-310,153	156,974	-0,074	-0,074
-309,139	-200,000	-0,022	-0,125
-308,124	101,769	-0,041	0,035
-307,110	558,090	0,088	0,156
-306,095	579,596	-0,037	0,066
-305,080	740,521	-0,096	0,189
-304,066	-155,489	0,117	-0,005
-303,051	143,478	0,055	-0,053
-302,037	800,000	0,045	-0,098
-301,022	41,460	0,026	-0,017
-300,008	800,000	-0,065	-0,148
-298,993	-200,000	0,058	0,196
-297,978	357,276	0,105	-0,153
-296,964	224,756	0,048	0,056
-295,949	655,718	0,037	0,071
-294,935	-23,357	-0,116	0,051
-293,920	-34,949	0,073	0,029
-292,905	-8,311	0,022	0,011
-291,891	293,033	0,029	-0,038
-290,876	124,899	-0,015	0,014
-289,862	-200,000	0,015	-0,056
-288,847	-200,000	0,008	-0,144
-287,832	61,081	-0,113	-0,082
-286,818	-200,000	0,003	-0,033
-285,803	539,574	0,054	0,094
-284,789	-86,061	-0,068	-0,015
-283,774	231,384	0,057	0,068
-282,759	168,885	-0,058	0,061
-281,745	-27,172	0,087	0,037
-280,730	-60,198	0,033	-0,010
-279,716	626,109	-0,029	-0,053
-278,701	466,147	0,016	0,027
-277,686	800,000	0,004	-0,010
-276,672	109,204	0,095	0,083
-275,657	244,298	-0,088	0,109
-274,643	34,787	-0,082	0,052
-273,628	-200,000	0,020	0,109
-272,613	-193,506	0,075	-0,000
-271,599	-200,000	0,012	-0,048
-270,584	99,602	-0,146	-0,123
-269,570	-35,451	0,157	0,062
-268,555	800,000	-0,036	0,084
-267,540	-16,135	0,076	0,035
-266,526	261,432	-0,082	-0,103
-265,511	800,000	0,023	0,047
-264,497	-28,910	-0,046	0,019
-263,482	318,744	-0,057	0,079
-262,467	-123,628	0,050	-0,006
-261,453	268,894	-0,117	0,150
-260,438	174,961	-0,040	-0,042
-259,424	277,024	0,057	-0,074
-258,409	800,000	-0,042	-0,135
-257,395	-148,842	0,029	-0,002
-256,380	-200,000	-0,014	-0,092
-255,365	104,992	0,022	-0,019
-254,351	278,946	0,018	-0,023
-253,336	235,567	0,079	-0,095
-252,322	122,341	-0,131	-0,119
-251,307	154,956	-0,049	-0,049
-250,292	800,000	-0,056	0,123
-249,278	-26,133	0,051	0,022
-248,263	-85,712	0,063	-0,014
-247,249	356,463	0,062	-0,090
-246,234	800,000	0,053	-0,118
-245,219	652,316	0,025	0,046
-244,205	146,922	-0,061	-0,060
-243,190	483,526	-0,082	-0,136
-242,176	11,585	-0,035	-0,020
-241,161	-200,000	-0,004	0,153
-240,146	751,841	0,074	0,147
-239,132	81,371	0,056	0,044
-238,117	46,814	-0,015	0,010
-237,103	296,159	0,085	-0,113
-236,088	800,000	-0,023	-0,072
-235,073	93,509	-0,110	0,090
-234,059	-200,000	0,005	-0,080
-233,044	95,306	0,113	0,094
-232,030	-200,000	0,022	0,115
-231,015	-14,375	-0,017	-0,008
-230,000	-114,783	-0,045	-0,006
-228,986	300,215	0,017	-0,023
-227,971	-200,000	0,026	-0,121
-226,957	-4,776	0,076	-0,038
-225,942	800,000	-0,007	0,015
-224,927	-200,000	-0,008	-0,037
-223,913	800,000	-0,027	-0,075
-222,898	490,882	-0,027	0,046
-221,884	-118,174	-0,126	0,016
-220,869	32,374	-0,049	-0,030
-219,855	800,000	-0,021	0,058
-218,840	533,920	0,023	0,039
-217,825	-45,067	-0,128	-0,046
-216,811	-200,000	-0,018	-0,077
-215,796	800,000	0,025	-0,068
-214,782	-75,492	-0,107	0,027
-213,767	158,230	0,056	-0,057
-212,752	-200,000	0,002	0,034
-211,738	36,388	-0,167	0,107
-210,723	776,683	-0,020	0,040
-209,709	-77,974	-0,111	0,028
-208,694	196,818	-0,049	-0,054
-207,679	-126,173	-0,145	-0,016
-206,665	297,626	0,050	-0,067
-205,650	486,816	-0,050	-0,083
-204,636	800,000	-0,044	0,137
-203,621	34,253	-0,050	-0,032
-202,606	800,000	-0,047	-0,113
-201,592	-35,975	-0,018	-0,007
-200,577	-117,593	0,102	0,013
-199,563	-200,000	0,026	0,109
-198,548	75,186	0,110	0,084
-197,533	-128,565	0,136	-0,014
-196,519	5,233	0,095	-0,051
-195,504	-7,409	0,202	0,099
-194,490	57,021	-0,114	-0,081
-193,475	68,114	-0,054	0,040
-192,460	800,000	0,008	0,021
-191,446	492,129	0,074	0,124
-190,431	352,685	0,041	0,059
-189,417	-102,823	0,025	-0,004
-188,402	696,489	-0,024	-0,045
-187,387	800,000	-0,028	-0,056
-186,373	68,534	-0,072	-0,053
-185,358	-200,000	0,003	0,047
-184,344	-57,434	-0,122	0,039
-183,329	-41,845	0,018	0,007
-182,315	-200,000	0,000	0,046
-181,300	12,863	-0,052	0,029
-180,285	169,387	-0,043	-0,044
-179,271	-149,016	-0,050	0,003
-178,256	112,517	0,082	0,072
-177,242	196,679	0,087	-0,097
-176,227	-200,000	-0,016	0,126
-175,212	101,794	0,091	0,078
-174,198	-200,000	0,017	0,140
-173,183	800,000	0,041	-0,098
-172,169	-36,195	-0,070	-0,027
-171,154	-97,000	0,023	0,004
-170,139	296,414	0,085	-0,113
-169,125	-200,000	-0,007	-0,070
-168,110	657,284	0,066	0,123
-167,096	-22,657	0,019	0,008
-166,081	-92,034	-0,090	-0,018
-165,066	-1,328	-0,040	-0,020
-164,052	22,691	0,039	0,023
-163,037	629,944	0,015	0,028
-162,023	800,000	0,046	0,143
-161,008	331,607	-0,007	0,010
-159,993	-5,014	0,094	0,047
-158,979	314,954	0,078	0,107
-157,964	469,796	0,025	-0,040
-156,950	-200,000	0,004	-0,045
-155,935	-200,000	0,015	0,077
-154,920	-200,000	0,004	0,019
-153,906	75,468	-0,120	0,092
-152,891	800,000	-0,112	0,239
-151,877	259,147	0,071	-0,089
-150,862	697,906	-0,047	-0,091
-149,847	126,487	0,030	-0,028
-148,833	-200,000	-0,002	-0,050
-147,818	554,007	-0,019	0,033
-146,804	-200,000	-0,004	0,031
-145,789	464,317	-0,069	0,113
-144,775	159,210	0,062	0,063
-143,760	580,652	-0,054	0,096
-142,745	629,571	-0,003	0,006
-141,731	504,397	-0,030	0,051
-140,716	-17,322	0,051	-0,023
-139,702	271,980	0,041	0,053
-138,687	-200,000	0,023	0,095
-137,672	45,338	0,019	0,013
-136,658	762,816	-0,114	-0,226
-135,643	418,815	-0,075	-0,117
-134,629	159,069	0,061	-0,062
-133,614	-131,863	0,065	0,006
-132,599	199,918	-0,038	0,042
-131,585	67,191	0,065	-0,048
-130,570	-89,537	-0,042	-0,009
-129,556	-39,756	0,035	0,013
-128,541	-66,609	-0,079	0,022
-127,526	-126,463	0,062	-0,007
-126,512	524,885	0,096	-0,164
-125,497	-200,000	-0,009	-0,031
-124,483	269,219	0,058	0,074
-123,468	716,362	0,027	-0,052
-122,453	420,452	0,024	-0,037
-121,439	-200,000	-0,022	-0,082
-120,424	179,413	0,062	0,066
-119,410	800,000	-0,038	0,079
-118,395	65,447	-0,092	0,067
-117,380	30,369	-0,058	0,036
-116,366	394,717	-0,066	0,101
-115,351	-200,000	0,012	0,096
-114,337	-200,000	-0,023	0,099
-113,322	-200,000	0,044	0,000
-112,307	-98,113	0,104	0,019
-111,293	185,350	0,114	0,122
-110,278	-200,000	-0,006	0,102
-109,264	145,876	0,072	0,070
-108,249	800,000	-0,006	0,019
-107,234	-200,000	0,001	-0,106
-106,220	23,073	-0,045	0,027
-105,205	85,224	-0,042	0,033
-104,191	-200,000	0,013	0,050
-103,176	-128,364	0,100	-0,010
-102,162	-200,000	0,032	-0,107
-101,147	8,516	0,047	0,026
-100,132	-127,127	0,078	0,008
-99,118	126,966	0,069	-0,063
-98,103	800,000	0,028	-0,063
-97,089	-141,839	-0,073	-0,005
-96,074	800,000	0,037	-0,114
-95,059	-200,000	-0,028	-0,098
-94,045	-84,476	0,021	0,005
-93,030	-68,840	-0,084	-0,023
-92,016	18,492	0,015	0,009
-91,001	315,135	0,056	0,077
-89,986	-200,000	-0,008	-0,060
-88,972	-200,000	0,011	0,244
-87,957	-200,000	0,017	0,083
-86,943	-200,000	-0,018	0,079
-85,928	69,364	0,032	0,024
-84,913	800,000	-0,021	-0,060
-83,899	-54,848	0,137	-0,045
-82,884	-200,000	0,002	0,079
-81,870	170,279	-0,051	0,053
-80,855	-49,402	0,064	0,022
-79,840	-200,000	-0,031	0,118
-78,826	-88,359	0,123	-0,026
-77,811	-200,000	-0,023	-0,096
-76,797	-200,000	-0,006	0,049
-75,782	800,000	0,053	0,137
-74,767	-200,000	0,006	-0,033
-73,753	-139,270	-0,077	0,006
-72,738	494,295	0,062	0,104
-71,724	122,833	-0,052	-0,047
-70,709	-169,715	-0,040	-0,001
-69,694	-85,811	-0,024	0,005
-68,680	-200,000	0,013	-0,092
-67,665	-36,087	0,057	0,022
-66,651	421,392	0,078	0,122
-65,636	800,000	-0,014	0,038
-64,622	611,986	0,044	-0,079
-63,607	800,000	-0,029	0,083
-62,592	800,000	-0,077	-0,171
-61,578	446,350	0,035	0,056
-60,563	-200,000	0,041	0,149
-59,549	800,000	0,029	0,072
-58,534	-94,339	-1,492	-0,292
-57,519	800,000	-0,584	-1,288
-56,505	-200,000	-1,075	-4,500
-55,490	-133,492	0,784	-0,070
-54,476	800,000	5,075	11,972
-53,461	-200,000	14,642	261,485
-52,446	-200,000	696,619	2237,590
-51,432	566,020	1621,586	2856,821
-50,417	118,565	1628,954	1454,544
-49,403	75,837	1283,293	980,313
-48,388	37,452	1022,119	654,261
-47,373	22,969	981,672	580,847
-46,359	22,140	970,952	571,769
-45,344	20,915	966,774	565,290
-44,330	20,961	965,428	564,630
-43,315	20,820	963,702	563,141
-42,300	20,773	962,739	562,403
-41,286	20,748	961,928	561,826
-40,271	20,720	960,796	561,051
-39,257	20,682	960,035	560,461
-38,242	20,689	959,139	559,937
-37,227	20,751	958,052	559,483
-36,213	20,701	957,194	558,798
-35,198	20,690	956,291	558,211
-34,184	20,733	955,656	557,957
-33,169	20,676	954,520	557,089
-32,154	20,682	953,898	556,725
-31,140	20,721	953,034	556,322
-30,125	20,801	952,131	556,031
-29,111	20,715	951,523	555,376
-28,096	20,738	950,656	554,923
-27,082	20,730	950,090	554,544
-26,067	20,685	949,204	553,861
-25,052	20,701	948,571	553,522
-24,038	20,747	947,804	553,198
-23,023	20,702	947,202	552,682
-22,009	20,770	946,346	552,378
-20,994	20,744	945,935	552,032
-19,979	20,729	945,395	551,649
-18,965	20,734	944,778	551,282
-17,950	20,763	944,087	550,949
-16,936	20,660	943,362	550,177
-15,921	20,684	942,742	549,870
-14,906	20,665	942,091	549,406
-13,892	20,596	941,345	548,731
-12,877	20,651	940,770	548,549
-11,863	20,562	940,177	547,899
-10,848	20,584	939,816	547,737
-9,833	20,700	939,195	547,721
-8,819	20,731	938,557	547,426
-7,804	20,640	937,915	546,742
-6,790	20,579	937,541	546,309
-5,775	20,697	936,693	546,164
-4,760	20,608	936,275	545,620
-3,746	20,604	935,607	545,195
-2,731	20,448	934,861	544,246
-1,717	20,397	934,177	543,669
-0,702	20,451	933,469	543,404
0,313	20,267	932,761	543,232
1,327	23,388	930,982	551,944
2,342	32,503	793,593	494,669
3,356	30,015	451,340	277,563
4,371	-0,038	296,219	151,965
5,386	-4,246	277,404	138,286
6,400	-5,564	271,654	134,176
7,415	-5,890	269,372	132,734
8,429	-5,738	267,883	132,129
9,444	-5,731	267,134	131,755
10,459	-5,773	266,582	131,432
11,473	-5,925	266,031	131,009
12,488	-5,971	265,475	130,682
13,502	-6,169	264,966	130,239
14,517	-6,060	264,523	130,109
15,531	-6,114	264,038	129,810
16,546	-5,951	263,681	129,770
17,561	-6,080	263,276	129,443
18,575	-6,150	263,104	129,283
19,590	-6,056	262,571	129,095
20,604	-5,907	262,286	129,078
21,619	-6,119	262,030	128,749
22,634	-6,028	261,705	128,660
23,648	-6,189	261,427	128,367
24,663	-6,171	261,011	128,167
25,677	-6,249	260,951	128,056
26,692	-6,110	260,561	127,978
27,707	-6,218	260,383	127,783
28,721	-6,138	260,219	127,762
29,736	-6,305	260,003	127,495
30,750	-6,173	259,483	127,347
31,765	-6,229	259,238	127,166
32,780	-6,188	259,144	127,145
33,794	-6,365	258,914	126,863
34,809	-6,226	258,607	126,824
35,823	-6,221	258,254	126,644
36,838	-6,136	258,165	126,665
37,853	-6,271	257,942	126,424
38,867	-6,269	257,550	126,223
39,882	-6,249	257,398	126,155
40,896	-6,302	257,106	125,954
41,911	-6,253	256,934	125,901
42,926	-6,338	256,781	125,740
43,940	-6,303	256,532	125,638
44,955	-6,328	256,253	125,468
45,969	-6,404	256,043	125,287
46,984	-6,576	255,838	125,025
47,999	-6,801	255,491	124,646
49,013	-6,849	255,048	124,378
50,028	-7,081	255,087	124,183
51,042	-7,042	254,663	123,999
52,057	-7,053	254,491	123,894
53,071	-7,082	254,327	123,778
54,086	-7,004	254,191	123,770
55,101	-6,848	253,842	123,724
56,115	-6,771	253,833	123,776
57,130	-6,192	253,679	124,193
58,144	-5,760	253,545	124,492
59,159	-5,928	253,440	124,283
60,174	-5,875	253,091	124,147
61,188	-6,118	252,900	123,832
62,203	-6,114	252,858	123,803
63,217	-6,110	252,606	123,673
64,232	-6,215	252,411	123,476
65,247	-6,227	252,111	123,308
66,261	-6,106	251,750	123,225
67,276	-6,376	251,620	122,917
68,290	-6,337	251,293	122,779
69,305	-6,730	251,134	122,353
70,320	-6,516	250,957	122,440
71,334	-6,463	250,756	122,377
72,349	-5,974	250,677	122,747
73,363	-5,841	250,520	122,773
74,378	-5,850	250,250	122,622
75,393	-6,162	250,139	122,289
76,407	-6,251	249,865	122,069
77,422	-6,167	249,665	122,032
78,436	-6,183	249,343	121,850
79,451	-6,047	249,194	121,882
80,466	-6,181	249,043	121,683
81,480	-6,590	248,811	121,210
82,495	-6,396	248,572	121,248
83,509	-6,367	248,427	121,192
84,524	-6,501	248,086	120,901
85,539	-6,604	247,849	120,687
86,553	-6,575	247,892	120,722
87,568	-6,440	247,589	120,678
88,582	-6,475	247,412	120,551
89,597	-6,388	247,260	120,540
90,611	-6,253	246,904	120,469
91,626	-6,144	246,870	120,534
92,641	-6,172	246,834	120,482
93,655	-6,388	246,799	120,272
94,670	-6,420	246,347	120,014
95,684	-6,344	246,122	119,958
96,699	-6,336	245,947	119,869
97,714	-6,242	245,753	119,842
98,728	-6,531	245,709	119,568
99,743	-6,597	245,498	119,399
100,757	-6,723	245,210	119,142
101,772	-6,486	244,983	119,220
102,787	-6,557	244,961	119,139
103,801	-6,387	244,688	119,138
104,816	-6,185	244,473	119,191
105,830	-6,331	244,465	119,055
106,845	-6,000	244,182	119,183
107,860	-6,372	244,114	118,828
108,874	-6,310	243,799	118,716
109,889	-6,131	243,542	118,729
110,903	-6,348	243,425	118,481
111,918	-6,272	243,126	118,388
112,933	-6,245	242,943	118,311
113,947	-6,273	243,021	118,315
114,962	-6,077	242,685	118,304
115,976	-6,308	242,492	118,008
116,991	-6,209	242,384	118,026
118,006	-6,344	242,253	117,841
119,020	-6,219	242,255	117,934
120,035	-6,157	241,904	117,804
121,049	-6,099	241,700	117,742
122,064	-6,065	241,465	117,645
123,079	-6,043	241,384	117,613
124,093	-6,324	241,233	117,298
125,108	-6,500	240,959	117,010
126,122	-6,597	240,726	116,807
127,137	-6,862	240,571	116,504
128,151	-6,644	240,433	116,605
129,166	-6,367	240,223	116,719
130,181	-6,482	240,063	116,537
131,195	-6,473	239,852	116,432
132,210	-6,498	239,718	116,336
133,224	-6,041	239,592	116,637
134,239	-6,115	239,316	116,432
135,254	-6,121	239,210	116,366
136,268	-6,361	239,100	116,107
137,283	-6,610	238,761	115,728
138,297	-6,759	238,519	115,480
139,312	-6,590	238,300	115,501
140,327	-6,330	238,322	115,712
141,341	-5,883	238,355	116,081
142,356	-5,781	238,027	115,993
143,370	-5,962	238,032	115,839
144,385	-5,679	237,672	115,882
145,400	-5,584	237,483	115,856
146,414	-5,899	237,436	115,569
147,429	-5,855	237,173	115,466
148,443	-6,045	237,261	115,345
149,458	-6,007	237,013	115,245
150,473	-5,795	236,786	115,295
151,487	-6,052	236,541	114,958
152,502	-6,008	236,312	114,872
153,516	-6,000	236,317	114,871
154,531	-5,900	236,051	114,812
155,546	-5,828	235,805	114,739
156,560	-6,032	235,806	114,566
157,575	-6,188	235,664	114,362
158,589	-6,090	235,327	114,267
159,604	-5,728	235,188	114,478
160,619	-5,807	235,132	114,378
161,633	-5,908	234,942	114,195
162,648	-5,755	234,788	114,231
163,662	-5,959	234,548	113,942
164,677	-6,050	234,464	113,819
165,692	-5,770	234,272	113,938
166,706	-5,803	234,107	113,821
167,721	-5,648	233,974	113,870
168,735	-5,780	233,998	113,766
169,750	-5,690	233,655	113,661
170,764	-5,947	233,606	113,423
171,779	-5,891	233,448	113,380
172,794	-5,720	233,219	113,395
173,808	-6,024	233,084	113,079
174,823	-6,419	232,815	112,626
175,837	-6,455	232,512	112,440
176,852	-5,967	232,446	112,783
177,867	-5,895	232,372	112,794
178,881	-5,887	232,354	112,783
179,896	-5,706	232,180	112,830
180,910	-5,706	232,034	112,749
181,925	-5,679	231,856	112,673
182,940	-5,829	231,638	112,440
183,954	-5,672	231,404	112,440
184,969	-5,596	231,419	112,496
185,983	-5,888	231,261	112,181
186,998	-5,580	231,003	112,286
188,013	-5,628	230,916	112,197
189,027	-5,628	230,817	112,139
190,042	-5,584	230,487	112,003
191,056	-5,719	230,451	111,869
192,071	-5,547	230,237	111,890
193,086	-5,605	230,041	111,740
194,100	-5,633	230,108	111,740
195,115	-5,600	229,762	111,588
196,129	-5,993	229,618	111,203
197,144	-2,981	230,507	113,973
198,159	0,844	231,757	117,574
199,173	3,586	232,209	119,939
200,188	3,794	232,346	120,162
201,202	4,042	232,132	120,234
202,217	4,003	232,036	120,144
203,232	4,259	231,941	120,283
204,246	4,207	231,726	120,120
205,261	4,168	231,570	119,999
206,275	4,473	231,500	120,189
207,290	4,698	231,401	120,302
208,304	4,525	231,226	120,065
209,319	4,271	231,043	119,763
210,334	4,416	230,746	119,710
211,348	4,194	230,514	119,408
212,363	3,889	230,293	119,046
213,377	3,317	230,298	118,595
214,392	3,646	230,035	118,704
215,407	3,883	229,897	118,805
216,421	3,894	229,761	118,732
217,436	3,541	229,592	118,363
218,450	3,524	229,347	118,212
219,465	3,316	229,137	117,933
220,480	3,577	229,012	118,059
221,494	3,390	229,038	117,919
222,509	3,682	228,954	118,089
223,523	3,732	228,558	117,913
224,538	3,333	228,533	117,583
225,553	3,614	228,397	117,719
226,567	3,829	228,107	117,723
227,582	3,926	228,130	117,799
228,596	3,976	228,059	117,790
229,611	3,758	227,764	117,460
230,626	3,454	227,581	117,123
231,640	3,406	227,526	117,047
232,655	3,718	227,444	117,233
233,669	4,371	227,322	117,658
234,684	4,510	227,159	117,669
235,699	4,141	227,029	117,310
236,713	3,724	226,811	116,870
237,728	3,334	226,730	116,521
238,742	3,630	226,412	116,572
239,757	3,399	226,179	116,266
240,772	3,759	226,061	116,468
241,786	3,535	225,909	116,210
242,801	3,776	225,849	116,351
243,815	3,989	225,757	116,455
244,830	4,045	225,628	116,420
245,844	3,873	225,447	116,186
246,859	3,870	225,277	116,086
247,874	3,813	225,142	115,963
248,888	3,919	225,143	116,034
249,903	3,907	224,894	115,885
250,917	3,619	224,638	115,526
251,932	3,803	224,528	115,598
252,947	3,688	224,370	115,420
253,961	3,676	224,199	115,313
254,976	3,712	224,087	115,272
255,990	3,848	223,965	115,301
257,005	3,951	223,918	115,343
258,020	3,923	223,616	115,157
259,034	4,069	223,635	115,266
260,049	4,106	223,501	115,214
261,063	3,910	223,293	114,950
262,078	4,032	223,211	114,988
263,093	4,085	223,108	114,965
264,107	4,044	222,925	114,830
265,122	3,910	222,801	114,656
266,136	4,048	222,603	114,646
267,151	4,181	222,587	114,727
268,166	3,726	222,209	114,184
269,180	3,526	222,030	113,933
270,195	3,620	221,892	113,921
271,209	3,422	221,831	113,734
272,224	3,508	221,587	113,661
273,239	3,681	221,577	113,775
274,253	3,661	221,425	113,672
275,268	3,432	221,199	113,376
276,282	3,685	220,826	113,362
277,297	3,639	220,823	113,317
278,312	3,335	220,690	113,014
279,326	3,567	220,468	113,060
280,341	3,432	220,597	113,017
281,355	3,828	220,357	113,176
282,370	3,708	220,151	112,971
283,384	3,359	220,022	112,639
284,399	3,306	219,877	112,515
285,414	3,213	219,722	112,358
286,428	3,260	219,762	112,403
287,443	3,741	219,519	112,621
288,457	3,964	219,379	112,703
289,472	3,752	219,293	112,494
290,487	3,325	218,991	112,016
291,501	3,125	218,738	111,730
292,516	3,439	218,686	111,923
293,530	3,602	218,553	111,965
294,545	3,300	218,441	111,677
295,560	3,657	218,353	111,882
296,574	3,546	218,250	111,739
297,589	3,642	218,069	111,706
298,603	3,731	217,817	111,632
299,618	3,784	217,728	111,614
300,633	3,545	217,778	111,456
301,647	3,896	217,646	111,634
302,662	3,727	217,515	111,434
303,676	3,898	217,248	111,411
304,691	3,755	217,183	111,264
305,706	3,760	217,047	111,188
306,720	3,823	216,787	111,091
307,735	4,106	216,760	111,271
308,749	3,724	216,598	110,903
309,764	3,946	216,401	110,952
310,779	3,912	216,278	110,854
311,793	4,054	216,203	110,908
312,808	3,601	216,138	110,539
313,822	3,610	215,937	110,433
314,837	3,560	215,717	110,275
315,852	3,650	215,541	110,239
316,866	3,475	215,460	110,062
317,881	3,891	215,438	110,339
318,895	4,030	215,168	110,291
319,910	3,560	215,009	109,863
320,925	3,378	214,878	109,656
321,939	3,266	214,586	109,418
322,954	3,419	214,660	109,555
323,968	3,816	214,619	109,808
324,983	3,905	214,358	109,728
325,997	3,735	214,305	109,570
327,012	3,619	214,070	109,357
328,027	3,623	213,985	109,307
329,041	4,129	213,857	109,591
330,056	4,168	213,855	109,609
331,070	3,830	213,487	109,171
332,085	3,774	213,260	109,005
333,100	3,419	213,236	108,731
334,114	3,893	213,131	109,003
335,129	3,655	213,056	108,787
336,143	3,681	212,785	108,657
337,158	3,557	212,735	108,534
338,173	3,748	212,600	108,591
339,187	3,641	212,279	108,342
340,202	3,441	212,323	108,214
341,216	3,245	211,973	107,887
342,231	3,551	211,996	108,105
343,246	3,365	211,754	107,841
344,260	3,665	211,688	108,009
345,275	3,643	211,633	107,956
346,289	3,664	211,590	107,938
347,304	3,825	211,398	107,944
348,319	3,902	211,323	107,950
349,333	3,855	211,061	107,774
350,348	3,536	210,984	107,501
351,362	4,039	210,825	107,763
352,377	3,809	210,822	107,591
353,392	3,819	210,621	107,486
354,406	3,642	210,452	107,266
355,421	195,365	1342,832	1431,559
356,435	156,014	1480,872	1431,649
