DTS Sentinel unit serial number:	SN410029Multiplexer serial number:	ORYXHardware model number:	OX2-SRSoftware version number:	ORYX F/W v4,00 Oryx Data Collector v3.7.2.0data status	okinstallation	B6 Nyhavnadifferential loss correction	single-endedforward channel	channel 2reverse channel	N/Adate	2023/12/08time	09:35:08forward acquisition time	300,00reverse acquisition time	0,00gamma	499,1914k internal	0,3166k external	0,3166temperature offset calibration	1,0000default loss term (dB/km)	0,3820temperature slope calibration	1,0000multiplexer offset coefficient	1,0000multiplexer slope coefficient	1,0000fibre end	0,00T internal ref (°C)	13,58T ext. ref 1 (°C)	-2,00T ext. ref 2 (°C)	-1,97length (m)	temperature (°C)	Stokes	anti-Stokes-744,400	-71,571	0,206	0,056
-743,385	-64,899	-0,209	0,062
-742,371	2,037	0,143	0,075
-741,356	-102,165	-0,251	-0,044
-740,342	48,940	0,076	0,053
-739,327	-178,518	-0,311	-0,005
-738,312	145,790	0,070	-0,069
-737,298	-25,074	-0,183	-0,079
-736,283	-200,000	-0,004	0,015
-735,269	-44,333	-0,232	-0,085
-734,254	800,000	-0,018	0,042
-733,239	-89,180	-0,536	-0,115
-732,225	420,780	0,134	0,211
-731,210	23,032	-0,091	0,055
-730,196	105,650	0,085	0,074
-729,181	800,000	-0,023	-0,067
-728,167	-165,230	-0,066	0,002
-727,152	800,000	-0,048	-0,123
-726,137	199,773	-0,033	0,037
-725,123	438,308	0,019	-0,030
-724,108	515,707	0,040	-0,069
-723,094	-200,000	0,018	-0,066
-722,079	24,602	-0,112	0,068
-721,064	-71,308	-0,028	-0,008
-720,050	517,261	0,039	-0,067
-719,035	6,225	0,041	0,022
-718,021	-200,000	0,005	0,032
-717,006	296,621	-0,115	-0,155
-715,991	-200,000	0,006	-0,030
-714,977	-17,342	-0,108	-0,050
-713,962	-40,219	-0,047	-0,018
-712,948	-200,000	-0,005	0,032
-711,933	608,232	-0,089	-0,164
-710,918	-176,258	-0,139	0,003
-709,904	20,716	-0,104	0,062
-708,889	18,733	-0,047	-0,027
-707,875	39,901	-0,160	-0,105
-706,860	-200,000	-0,013	0,044
-705,845	131,914	-0,063	0,059
-704,831	53,169	-0,017	-0,012
-703,816	-200,000	0,006	0,081
-702,802	800,000	-0,043	0,100
-701,787	101,585	-0,047	-0,040
-700,772	-177,015	-0,031	0,001
-699,758	-88,525	0,096	-0,021
-698,743	800,000	-0,046	0,145
-697,729	703,384	-0,011	-0,021
-696,714	-200,000	0,053	0,192
-695,699	800,000	-0,012	0,032
-694,685	191,931	0,056	-0,062
-693,670	456,418	-0,108	-0,177
-692,656	-200,000	-0,018	-0,068
-691,641	7,396	0,062	0,034
-690,627	-24,439	-0,120	0,052
-689,612	-200,000	0,016	-0,111
-688,597	10,600	-0,030	0,017
-687,583	38,625	0,021	-0,014
-686,568	-200,000	-0,001	0,103
-685,554	-200,000	-0,000	-0,129
-684,539	40,177	-0,082	0,054
-683,524	800,000	-0,031	-0,078
-682,510	-149,451	0,145	-0,008
-681,495	800,000	0,025	-0,064
-680,481	-154,086	-0,082	0,004
-679,466	84,561	-0,033	0,027
-678,451	73,974	0,085	-0,066
-677,437	-200,000	0,009	-0,072
-676,422	-17,171	0,096	0,044
-675,408	-200,000	-0,013	0,145
-674,393	-200,000	0,019	0,068
-673,378	320,850	-0,072	-0,101
-672,364	154,313	-0,040	-0,040
-671,349	29,461	0,111	-0,069
-670,335	-72,343	-0,054	-0,015
-669,320	113,729	-0,049	-0,044
-668,305	800,000	0,036	0,090
-667,291	-200,000	0,009	-0,074
-666,276	-200,000	0,009	-0,090
-665,262	345,085	0,028	-0,040
-664,247	573,818	0,029	0,052
-663,232	800,000	-0,047	0,122
-662,218	365,300	0,103	0,152
-661,203	677,848	0,082	-0,157
-660,189	-170,540	-0,035	0,001
-659,174	-18,890	-0,125	-0,057
-658,159	-28,565	-0,043	-0,018
-657,145	-200,000	0,004	0,129
-656,130	263,102	0,062	-0,080
-655,116	-34,991	0,066	0,026
-654,101	-142,405	-0,042	-0,003
-653,086	162,014	-0,117	-0,120
-652,072	800,000	0,029	0,060
-651,057	-200,000	-0,010	0,054
-650,043	800,000	-0,070	0,192
-649,028	-200,000	-0,001	-0,040
-648,014	-68,865	0,160	0,045
-646,999	-89,102	-0,047	-0,010
-645,984	-200,000	-0,008	0,066
-644,970	18,588	0,095	-0,056
-643,955	800,000	0,003	0,005
-642,941	227,718	-0,017	0,020
-641,926	283,330	0,108	0,142
-640,911	25,740	0,191	-0,116
-639,897	97,274	-0,142	0,119
-638,882	800,000	-0,044	0,102
-637,868	-21,397	-0,116	-0,051
-636,853	-200,000	0,034	-0,138
-635,838	226,863	0,047	-0,057
-634,824	-200,000	0,029	-0,144
-633,809	-68,924	-0,077	-0,022
-632,795	30,170	0,069	-0,043
-631,780	130,178	-0,118	-0,111
-630,765	49,433	0,074	0,051
-629,751	3,154	-0,068	-0,036
-628,736	537,569	-0,010	-0,017
-627,722	-200,000	-0,023	-0,112
-626,707	800,000	0,055	-0,150
-625,692	668,234	0,065	0,124
-624,678	59,496	0,006	0,004
-623,663	150,588	-0,084	0,084
-622,649	-45,411	-0,027	-0,010
-621,634	800,000	0,056	0,123
-620,619	-115,529	-0,141	0,019
-619,605	-160,610	-0,138	-0,005
-618,590	-200,000	-0,003	-0,045
-617,576	107,054	-0,023	-0,020
-616,561	800,000	-0,027	0,069
-615,546	-200,000	-0,025	-0,163
-614,532	19,948	-0,112	-0,066
-613,517	165,874	-0,104	-0,107
-612,503	-123,867	-0,129	0,015
-611,488	38,365	0,015	0,010
-610,474	-78,621	-0,109	-0,027
-609,459	-200,000	0,013	0,052
-608,444	-18,958	-0,080	-0,036
-607,430	486,476	-0,021	-0,035
-606,415	11,665	-0,031	0,018
-605,401	-18,217	-0,085	-0,039
-604,386	-200,000	0,006	0,058
-603,371	-21,877	-0,112	0,050
-602,357	2,327	0,046	-0,024
-601,342	-200,000	0,008	0,115
-600,328	305,738	0,036	-0,049
-599,313	88,754	-0,130	-0,106
-598,298	-86,225	-0,090	0,020
-597,284	-92,184	0,128	-0,026
-596,269	-200,000	0,003	0,039
-595,255	37,672	0,011	0,007
-594,240	-153,617	-0,067	-0,003
-593,225	82,587	0,118	-0,094
-592,211	-200,000	0,003	-0,263
-591,196	-200,000	0,004	-0,143
-590,182	800,000	-0,051	0,141
-589,167	-93,833	0,212	0,042
-588,152	221,499	-0,135	0,159
-587,138	-46,280	-0,065	-0,023
-586,123	-200,000	0,013	-0,049
-585,109	135,733	0,012	0,012
-584,094	-200,000	-0,017	-0,060
-583,079	800,000	-0,020	-0,051
-582,065	-42,525	-0,036	-0,013
-581,050	366,901	0,063	0,094
-580,036	-89,442	-0,147	0,031
-579,021	-26,484	-0,148	-0,063
-578,006	-101,031	0,069	-0,012
-576,992	153,637	0,036	0,036
-575,977	383,256	-0,035	-0,052
-574,963	800,000	0,007	-0,021
-573,948	-14,600	0,078	-0,036
-572,934	228,657	-0,149	0,177
-571,919	31,903	-0,070	0,044
-570,904	241,460	-0,079	-0,097
-569,890	-200,000	-0,033	0,118
-568,875	-200,000	0,001	-0,056
-567,861	-100,158	-0,070	0,013
-566,846	-37,297	0,092	0,036
-565,831	72,456	-0,096	-0,073
-564,817	-21,621	0,006	-0,003
-563,802	-200,000	-0,000	0,089
-562,788	-120,640	0,100	-0,012
-561,773	-90,941	0,053	0,011
-560,758	76,692	0,146	0,113
-559,744	-32,216	-0,047	-0,019
-558,729	28,766	-0,048	0,029
-557,715	-17,598	-0,123	-0,056
-556,700	-200,000	0,056	-0,187
-555,685	-200,000	-0,001	-0,023
-554,671	58,131	0,087	-0,062
-553,656	-200,000	0,012	-0,057
-552,642	-200,000	-0,001	0,051
-551,627	70,985	-0,051	-0,039
-550,612	427,514	-0,060	-0,095
-549,598	-13,840	0,036	0,017
-548,583	-200,000	-0,019	0,064
-547,569	-149,213	-0,063	-0,004
-546,554	-200,000	-0,008	0,047
-545,539	332,005	0,041	-0,057
-544,525	800,000	0,041	0,129
-543,510	64,698	-0,099	-0,073
-542,496	800,000	-0,042	-0,135
-541,481	242,521	-0,030	0,036
-540,466	-200,000	0,003	0,023
-539,452	800,000	0,041	-0,090
-538,437	14,810	-0,041	0,023
-537,423	-19,902	-0,047	-0,021
-536,408	44,529	-0,062	0,042
-535,393	67,646	0,075	0,056
-534,379	-13,184	-0,232	-0,110
-533,364	145,187	0,144	0,140
-532,350	-75,533	-0,067	0,017
-531,335	-200,000	0,001	-0,043
-530,321	66,833	0,046	0,034
-529,306	-53,690	0,015	-0,005
-528,291	210,297	0,071	-0,081
-527,277	-34,291	-0,065	0,026
-526,262	-200,000	-0,002	-0,015
-525,248	-93,893	-0,074	0,015
-524,233	27,165	-0,100	-0,061
-523,218	-79,140	-0,078	0,019
-522,204	-46,744	0,088	0,031
-521,189	800,000	0,035	0,111
-520,175	-200,000	-0,014	-0,092
-519,160	594,268	-0,094	-0,170
-518,145	196,989	0,066	0,073
-517,131	421,089	-0,050	0,078
-516,116	60,873	0,022	0,016
-515,102	385,708	0,018	-0,027
-514,087	-56,658	0,074	0,024
-513,072	-200,000	-0,020	-0,116
-512,058	-118,359	-0,154	-0,020
-511,043	-121,879	0,140	-0,017
-510,029	42,098	0,050	0,033
-509,014	102,225	0,026	-0,022
-507,999	-7,174	0,109	0,053
-506,985	100,682	-0,125	-0,106
-505,970	-200,000	0,049	-0,171
-504,956	17,766	-0,102	-0,059
-503,941	800,000	-0,051	0,133
-502,926	800,000	0,051	0,108
-501,912	25,788	0,023	0,014
-500,897	-200,000	0,005	0,035
-499,883	-20,567	-0,023	-0,010
-498,868	-126,433	-0,066	-0,007
-497,853	143,550	-0,049	-0,048
-496,839	-200,000	0,006	0,067
-495,824	193,499	-0,103	0,113
-494,810	657,011	-0,065	0,123
-493,795	800,000	0,033	0,105
-492,781	-11,642	-0,192	0,092
-491,766	-128,230	0,126	-0,013
-490,751	43,528	-0,020	0,013
-489,737	-8,141	-0,055	-0,027
-488,722	73,929	-0,063	0,048
-487,708	-56,709	0,078	-0,025
-486,693	-83,708	0,122	-0,028
-485,678	-43,555	-0,107	0,039
-484,664	518,046	-0,086	-0,147
-483,649	-84,448	-0,100	-0,023
-482,635	120,200	0,086	0,078
-481,620	99,249	0,057	-0,048
-480,605	281,771	-0,091	0,118
-479,591	30,323	0,020	0,012
-478,576	800,000	-0,036	0,098
-477,562	-57,421	-0,027	-0,009
-476,547	800,000	-0,018	0,043
-475,532	392,806	0,004	-0,006
-474,518	1,465	0,040	0,021
-473,503	-7,902	0,211	0,103
-472,489	800,000	0,036	0,076
-471,474	800,000	-0,051	0,109
-470,459	386,253	0,072	-0,109
-469,445	-81,185	0,035	0,008
-468,430	-102,346	0,078	0,013
-467,416	124,744	0,078	0,071
-466,401	-62,011	0,040	0,012
-465,386	-57,816	0,069	0,022
-464,372	-48,882	-0,129	0,045
-463,357	114,721	-0,083	0,073
-462,343	-200,000	0,034	-0,155
-461,328	800,000	-0,036	-0,075
-460,313	86,385	-0,077	0,062
-459,299	-56,035	0,126	0,041
-458,284	332,869	0,040	0,056
-457,270	125,496	-0,052	-0,047
-456,255	-200,000	0,019	-0,068
-455,241	-23,384	-0,188	0,082
-454,226	-200,000	-0,041	0,167
-453,211	205,520	0,106	-0,120
-452,197	-200,000	-0,001	-0,037
-451,182	-87,478	0,047	0,010
-450,168	73,831	0,119	-0,090
-449,153	-200,000	-0,016	0,122
-448,138	-5,289	-0,034	0,017
-447,124	-101,210	0,117	0,021
-446,109	-55,818	-0,096	-0,031
-445,095	-200,000	0,023	0,096
-444,080	95,687	0,086	0,071
-443,065	800,000	0,027	0,068
-442,051	800,000	0,029	-0,088
-441,036	-200,000	-0,017	0,084
-440,022	-96,807	0,043	-0,008
-439,007	744,635	0,020	-0,040
-437,992	-200,000	0,015	-0,095
-436,978	12,538	0,079	0,044
-435,963	-200,000	-0,002	0,044
-434,949	371,898	0,007	-0,010
-433,934	-200,000	-0,024	0,082
-432,919	10,949	-0,085	0,047
-431,905	-200,000	-0,007	0,055
-430,890	352,395	-0,057	-0,082
-429,876	-51,578	0,040	-0,013
-428,861	-121,204	-0,105	-0,013
-427,846	-52,705	-0,163	0,054
-426,832	-200,000	-0,002	-0,091
-425,817	699,184	-0,031	-0,060
-424,803	-176,256	0,187	0,003
-423,788	454,183	0,010	-0,016
-422,773	800,000	0,022	0,069
-421,759	800,000	-0,025	0,070
-420,744	684,294	-0,052	-0,099
-419,730	-32,733	0,186	-0,075
-418,715	-200,000	0,022	-0,083
-417,701	275,865	-0,026	-0,034
-416,686	800,000	0,013	0,041
-415,671	-200,000	0,003	0,066
-414,657	10,397	-0,097	-0,053
-413,642	-35,700	-0,149	0,058
-412,628	-200,000	0,004	-0,016
-411,613	243,587	0,081	0,099
-410,598	267,648	0,046	-0,059
-409,584	483,300	-0,017	-0,027
-408,569	800,000	0,041	0,116
-407,555	-51,211	-0,031	0,010
-406,540	-86,120	0,063	0,014
-405,525	-147,812	-0,080	0,005
-404,511	14,624	0,066	-0,037
-403,496	-200,000	0,028	-0,127
-402,482	-200,000	-0,034	-0,112
-401,467	800,000	-0,004	-0,013
-400,452	-200,000	-0,030	0,183
-399,438	111,571	0,039	-0,034
-398,423	-200,000	0,006	-0,029
-397,409	-132,009	0,082	0,008
-396,394	-200,000	-0,003	0,010
-395,379	163,413	0,123	0,126
-394,365	503,203	0,053	0,090
-393,350	-121,626	-0,089	-0,011
-392,336	58,077	0,041	-0,029
-391,321	531,682	-0,053	-0,092
-390,306	187,838	0,098	-0,106
-389,292	-107,348	-0,070	0,011
-388,277	152,000	-0,036	-0,035
-387,263	-200,000	0,009	0,072
-386,248	-80,627	0,061	0,015
-385,233	-44,243	0,088	-0,032
-384,219	158,372	0,072	0,073
-383,204	22,298	-0,067	-0,039
-382,190	800,000	-0,014	0,031
-381,175	800,000	-0,021	0,050
-380,160	-200,000	-0,044	0,146
-379,146	83,896	0,080	0,063
-378,131	-102,455	-0,044	-0,008
-377,117	-200,000	-0,012	0,090
-376,102	800,000	0,010	0,025
-375,088	-200,000	-0,009	-0,028
-374,073	134,711	0,070	0,066
-373,058	211,959	0,107	-0,122
-372,044	-148,856	0,073	0,004
-371,029	-200,000	0,036	0,128
-370,015	-200,000	-0,022	-0,097
-369,000	800,000	0,017	-0,045
-367,985	-83,525	0,040	-0,009
-366,971	-200,000	0,143	0,000
-365,956	549,264	0,064	-0,111
-364,942	-200,000	0,003	0,050
-363,927	-149,603	-0,045	0,003
-362,912	413,086	-0,020	-0,031
-361,898	-88,280	0,066	-0,014
-360,883	800,000	-0,057	-0,168
-359,869	192,397	0,031	0,034
-358,854	29,658	-0,115	-0,070
-357,839	-200,000	-0,016	0,081
-356,825	185,862	-0,143	0,155
-355,810	-200,000	-0,008	0,078
-354,796	712,720	-0,028	0,054
-353,781	-115,555	-0,064	0,009
-352,766	-124,905	-0,067	0,007
-351,752	132,997	-0,045	0,042
-350,737	-79,842	0,059	-0,014
-349,723	174,471	0,023	-0,024
-348,708	-7,733	-0,147	0,072
-347,693	104,218	-0,090	0,077
-346,679	-107,218	0,028	-0,004
-345,664	5,872	0,093	-0,050
-344,650	46,436	0,124	0,083
-343,635	-57,255	0,047	0,015
-342,620	541,448	-0,037	0,065
-341,606	-119,471	0,065	0,008
-340,591	63,284	-0,072	-0,052
-339,577	268,582	-0,029	0,037
-338,562	-200,000	-0,004	-0,096
-337,548	72,340	0,041	-0,031
-336,533	-200,000	0,018	0,090
-335,518	330,327	0,082	0,114
-334,504	128,422	0,132	0,121
-333,489	221,951	-0,032	-0,038
-332,475	-200,000	-0,017	-0,058
-331,460	-200,000	0,011	-0,037
-330,445	800,000	0,019	0,046
-329,431	-200,000	0,003	-0,025
-328,416	-153,457	0,113	-0,006
-327,402	51,446	-0,050	-0,034
-326,387	651,513	0,027	-0,049
-325,372	-200,000	0,002	-0,016
-324,358	56,587	0,053	-0,037
-323,343	-200,000	0,023	-0,093
-322,329	404,179	0,054	0,083
-321,314	43,408	0,082	0,054
-320,299	-200,000	-0,014	0,080
-319,285	18,203	0,111	-0,064
-318,270	-67,393	-0,156	0,044
-317,256	176,258	-0,047	-0,050
-316,241	-128,082	-0,022	0,002
-315,226	-65,767	0,043	-0,013
-314,212	-59,010	0,107	-0,033
-313,197	-200,000	0,007	0,104
-312,183	-200,000	0,035	0,114
-311,168	800,000	-0,055	-0,120
-310,153	-200,000	0,005	-0,026
-309,139	-181,391	-0,108	-0,001
-308,124	-28,137	0,058	0,024
-307,110	-200,000	-0,015	0,110
-306,095	60,986	0,069	0,050
-305,080	800,000	0,031	-0,073
-304,066	-200,000	-0,010	0,058
-303,051	250,807	0,022	-0,027
-302,037	-200,000	-0,001	-0,119
-301,022	-171,668	-0,022	-0,001
-300,008	55,977	0,049	-0,034
-298,993	-200,000	0,004	0,097
-297,978	17,711	-0,047	0,027
-296,964	146,214	-0,114	-0,110
-295,949	-200,000	-0,021	-0,096
-294,935	122,342	0,039	0,036
-293,920	-200,000	0,001	0,026
-292,905	401,701	0,054	0,082
-291,891	-200,000	0,023	-0,096
-290,876	5,159	0,206	0,109
-289,862	214,602	0,037	0,043
-288,847	-145,123	0,097	-0,006
-287,832	-200,000	0,011	-0,258
-286,818	-98,611	-0,144	0,026
-285,803	65,200	0,131	-0,096
-284,789	440,961	0,073	-0,115
-283,774	32,466	0,057	-0,035
-282,759	-11,947	-0,121	0,057
-281,745	365,323	0,091	0,133
-280,730	-41,686	-0,104	-0,039
-279,716	192,512	-0,033	0,036
-278,701	800,000	-0,027	-0,064
-277,686	-200,000	0,002	-0,013
-276,672	-200,000	-0,001	-0,132
-275,657	168,376	0,076	0,079
-274,643	800,000	-0,030	-0,082
-273,628	-74,993	-0,063	-0,016
-272,613	-75,847	0,056	0,014
-271,599	800,000	0,037	0,078
-270,584	4,414	0,131	-0,069
-269,570	-200,000	0,041	0,151
-268,555	-66,149	0,068	-0,019
-267,540	126,219	0,075	-0,068
-266,526	-200,000	0,020	-0,139
-265,511	-21,790	-0,058	-0,026
-264,497	287,041	-0,062	-0,081
-263,482	-128,562	-0,091	0,009
-262,467	-51,606	0,045	-0,015
-261,453	-115,233	0,107	0,014
-260,438	-200,000	0,014	-0,069
-259,424	16,960	-0,066	-0,037
-258,409	358,649	0,122	0,176
-257,395	-162,831	-0,043	-0,001
-256,380	70,034	0,032	0,024
-255,365	235,179	0,034	0,041
-254,351	-200,000	-0,024	0,118
-253,336	223,821	-0,044	0,051
-252,322	-103,745	-0,117	-0,020
-251,307	-200,000	-0,012	0,044
-250,292	-144,182	-0,108	0,007
-249,278	273,732	-0,022	-0,028
-248,263	-83,289	-0,062	-0,014
-247,249	-200,000	0,004	0,093
-246,234	800,000	-0,021	0,051
-245,219	800,000	-0,020	-0,042
-244,205	535,734	0,022	0,038
-243,190	-165,996	-0,030	0,001
-242,176	-200,000	0,015	0,050
-241,161	331,766	0,121	0,169
-240,146	800,000	0,029	0,075
-239,132	-200,000	-0,005	-0,035
-238,117	30,919	-0,162	0,100
-237,103	192,344	-0,041	-0,044
-236,088	-162,383	-0,025	0,001
-235,073	97,940	-0,065	-0,054
-234,059	505,201	-0,096	-0,161
-233,044	800,000	0,067	0,156
-232,030	-200,000	-0,026	-0,144
-231,015	-61,153	-0,037	-0,011
-230,000	-200,000	-0,016	-0,105
-228,986	-50,620	-0,042	0,014
-227,971	189,444	0,045	-0,049
-226,957	800,000	-0,014	0,035
-225,942	-200,000	-0,006	0,075
-224,927	-109,048	0,164	0,025
-223,913	-35,713	-0,164	-0,064
-222,898	144,623	0,041	-0,040
-221,884	126,540	0,024	0,022
-220,869	219,916	0,070	0,081
-219,855	224,986	-0,042	-0,049
-218,840	-200,000	-0,010	0,066
-217,825	141,485	-0,101	0,097
-216,811	-190,182	0,047	0,000
-215,796	800,000	0,053	-0,133
-214,782	334,994	0,025	-0,035
-213,767	500,836	-0,024	-0,041
-212,752	-155,629	0,120	0,005
-211,738	346,761	-0,061	0,086
-210,723	-200,000	-0,001	0,192
-209,709	-38,054	0,016	-0,006
-208,694	35,826	0,184	-0,116
-207,679	299,852	-0,019	-0,025
-206,665	-24,651	0,180	-0,077
-205,650	473,549	-0,048	0,079
-204,636	-61,073	0,114	-0,034
-203,621	800,000	-0,051	0,147
-202,606	800,000	-0,023	-0,073
-201,592	152,685	0,095	-0,094
-200,577	241,990	-0,113	0,137
-199,563	-200,000	0,012	-0,086
-198,548	631,949	0,015	0,027
-197,533	42,829	-0,045	-0,030
-196,519	-186,261	0,145	-0,001
-195,504	120,262	0,100	0,089
-194,490	-61,758	-0,126	-0,038
-193,475	483,203	0,122	-0,201
-192,460	-200,000	-0,006	-0,134
-191,446	22,437	-0,087	0,051
-190,431	-200,000	0,014	0,053
-189,417	150,312	0,045	0,044
-188,402	540,923	0,041	0,070
-187,387	-200,000	0,002	-0,074
-186,373	-200,000	0,013	-0,136
-185,358	230,109	-0,077	-0,090
-184,344	68,368	0,022	-0,016
-183,329	309,228	-0,036	0,049
-182,315	336,086	-0,043	-0,060
-181,300	453,368	0,041	-0,066
-180,285	-200,000	0,005	-0,043
-179,271	440,788	0,059	-0,093
-178,256	-200,000	0,008	-0,054
-177,242	60,016	0,044	0,032
-176,227	800,000	-0,050	0,145
-175,212	-43,550	0,037	-0,013
-174,198	-41,134	0,006	0,002
-173,183	-143,609	0,093	-0,006
-172,169	226,890	0,035	0,041
-171,154	800,000	0,034	-0,086
-170,139	-200,000	0,008	-0,165
-169,125	-200,000	-0,014	-0,113
-168,110	-95,606	0,051	-0,010
-167,096	52,912	0,060	0,041
-166,081	264,261	-0,088	-0,111
-165,066	-126,869	-0,126	0,013
-164,052	800,000	0,045	-0,130
-163,037	396,403	-0,053	0,080
-162,023	-200,000	0,023	0,138
-161,008	86,131	0,096	0,076
-159,993	800,000	0,021	0,050
-158,979	0,082	-0,180	0,092
-157,964	-100,469	-0,072	0,013
-156,950	800,000	-0,044	0,129
-155,935	800,000	0,021	-0,064
-154,920	-200,000	-0,001	-0,048
-153,906	800,000	0,064	-0,157
-152,891	15,034	-0,065	0,037
-151,877	800,000	-0,073	-0,157
-150,862	-200,000	-0,001	0,042
-149,847	40,564	0,094	-0,061
-148,833	154,271	-0,080	0,079
-147,818	-200,000	0,028	0,119
-146,804	622,927	-0,043	0,079
-145,789	-88,350	0,133	-0,028
-144,775	198,773	0,077	0,085
-143,760	800,000	-0,057	0,120
-142,745	25,044	-0,081	-0,048
-141,731	64,655	0,094	0,068
-140,716	140,425	-0,066	-0,062
-139,702	159,822	0,090	-0,090
-138,687	616,211	0,034	-0,061
-137,672	-200,000	-0,019	-0,130
-136,658	610,681	-0,017	-0,031
-135,643	175,438	-0,052	0,054
-134,629	476,363	-0,097	0,158
-133,614	-119,195	0,148	-0,018
-132,599	-9,896	0,099	0,047
-131,585	315,368	0,031	0,042
-130,570	800,000	-0,050	-0,147
-129,556	800,000	0,025	0,063
-128,541	-200,000	0,001	0,066
-127,526	-15,783	-0,070	0,032
-126,512	-200,000	0,006	-0,043
-125,497	14,992	0,066	-0,037
-124,483	239,768	-0,020	-0,024
-123,468	-79,238	0,023	-0,006
-122,453	-200,000	0,008	0,057
-121,439	155,573	0,024	0,024
-120,424	794,920	-0,054	0,107
-119,410	-200,000	-0,004	-0,096
-118,395	800,000	0,021	0,053
-117,380	583,666	0,045	-0,079
-116,366	-200,000	-0,008	0,059
-115,351	168,052	-0,077	-0,079
-114,337	746,393	0,013	0,026
-113,322	91,940	-0,038	0,031
-112,307	-200,000	0,002	0,039
-111,293	-200,000	-0,009	0,037
-110,278	-200,000	-0,037	0,185
-109,264	-113,938	0,031	-0,004
-108,249	800,000	-0,075	-0,150
-107,234	386,422	-0,116	-0,173
-106,220	-68,689	-0,121	-0,033
-105,205	379,252	0,050	0,073
-104,191	3,380	0,086	-0,045
-103,176	-19,935	0,080	-0,035
-102,162	-32,827	0,125	0,050
-101,147	-200,000	-0,005	0,059
-100,132	408,023	0,021	0,032
-99,118	800,000	-0,032	0,071
-98,103	-53,938	0,121	0,039
-97,089	-68,847	0,201	0,055
-96,074	144,843	-0,055	0,053
-95,059	-97,067	0,015	0,003
-94,045	800,000	0,034	-0,100
-93,030	800,000	-0,025	0,077
-92,016	775,142	-0,046	-0,091
-91,001	-10,406	0,195	0,092
-89,986	800,000	-0,043	-0,093
-88,972	800,000	-0,022	0,064
-87,957	138,221	0,034	-0,032
-86,943	249,684	-0,028	0,034
-85,928	88,713	-0,106	-0,085
-84,913	773,219	0,042	0,083
-83,899	-13,589	0,098	-0,045
-82,884	-200,000	-0,019	0,122
-81,870	-29,253	0,125	0,051
-80,855	399,811	0,059	0,089
-79,840	-25,501	-0,192	0,081
-78,826	800,000	-0,005	-0,015
-77,811	-55,139	-0,246	0,079
-76,797	-55,786	0,009	0,003
-75,782	43,326	-0,085	0,056
-74,767	-147,877	0,012	-0,001
-73,753	-51,182	0,092	0,031
-72,738	800,000	-0,034	-0,081
-71,724	634,107	0,021	0,038
-70,709	116,460	-0,116	-0,102
-69,694	800,000	-0,061	0,136
-68,680	-200,000	0,028	0,137
-67,665	-68,354	-0,043	0,012
-66,651	478,059	0,025	-0,040
-65,636	-101,778	-0,116	-0,020
-64,622	213,965	-0,032	0,037
-63,607	-69,550	0,024	0,007
-62,592	222,669	-0,031	-0,036
-61,578	739,231	-0,049	0,094
-60,563	189,501	0,079	-0,085
-59,549	60,688	0,071	0,050
-58,534	30,212	-2,127	-1,297
-57,519	-200,000	-0,008	-0,784
-56,505	-200,000	-1,380	-5,145
-55,490	103,123	0,824	0,691
-54,476	800,000	5,331	12,272
-53,461	-200,000	18,766	309,435
-52,446	800,000	739,170	2287,049
-51,432	542,742	1651,575	2830,121
-50,417	108,564	1635,545	1397,380
-49,403	72,073	1286,416	957,155
-48,388	29,687	1027,970	624,695
-47,373	19,640	990,336	568,706
-46,359	17,242	977,945	553,717
-45,344	13,948	974,257	540,834
-44,330	14,255	972,682	540,941
-43,315	13,667	970,768	537,936
-42,300	13,570	969,712	537,014
-41,286	13,566	969,051	536,615
-40,271	13,563	967,962	535,980
-39,257	13,640	967,019	535,689
-38,242	13,623	966,294	535,208
-37,227	13,627	965,433	534,723
-36,213	13,587	964,487	534,047
-35,198	13,622	963,435	533,557
-34,184	13,624	962,822	533,205
-33,169	13,552	962,068	532,534
-32,154	13,589	961,082	532,085
-31,140	13,632	960,025	531,618
-30,125	13,675	959,189	531,272
-29,111	13,623	958,608	530,761
-28,096	13,582	957,966	530,252
-27,082	13,604	957,145	529,848
-26,067	13,643	956,309	529,490
-25,052	13,638	955,523	529,018
-24,038	13,569	955,043	528,509
-23,023	13,605	954,347	528,220
-22,009	13,647	953,865	528,065
-20,994	13,593	953,001	527,395
-19,979	13,633	952,464	527,203
-18,965	13,557	952,011	526,688
-17,950	13,588	951,429	526,444
-16,936	13,589	950,759	526,056
-15,921	13,582	949,944	525,562
-14,906	13,517	949,209	524,928
-13,892	13,494	948,717	524,562
-12,877	13,438	948,091	524,017
-11,863	13,471	947,425	523,734
-10,848	13,518	946,784	523,508
-9,833	13,642	946,359	523,645
-8,819	13,548	945,723	522,972
-7,804	13,526	945,038	522,505
-6,790	13,511	944,283	522,019
-5,775	13,516	944,017	521,866
-4,760	13,503	943,338	521,430
-3,746	13,567	942,621	521,215
-2,731	13,321	941,908	520,022
-1,717	13,284	941,274	519,534
-0,702	13,403	940,549	519,490
0,313	13,146	940,140	519,237
1,327	16,718	937,967	529,240
2,342	25,979	789,552	469,853
3,356	22,532	444,599	259,456
4,371	-6,356	297,021	144,362
5,386	-10,033	278,952	132,069
6,400	-11,213	273,124	128,197
7,415	-11,315	270,836	127,018
8,429	-11,442	269,453	126,241
9,444	-11,564	268,513	125,678
10,459	-11,605	267,882	125,334
11,473	-11,559	267,230	125,059
12,488	-11,859	266,793	124,571
13,502	-11,890	265,989	124,156
14,517	-11,847	265,677	124,039
15,531	-12,043	265,233	123,642
16,546	-11,872	264,907	123,634
17,561	-11,923	264,310	123,298
18,575	-11,786	264,051	123,290
19,590	-12,046	263,663	122,864
20,604	-11,885	263,457	122,902
21,619	-12,035	263,165	122,620
22,634	-12,162	262,725	122,290
23,648	-12,119	262,557	122,240
24,663	-11,907	262,099	122,205
25,677	-11,957	261,855	122,035
26,692	-12,120	261,561	121,742
27,707	-12,006	261,330	121,725
28,721	-11,919	260,882	121,584
29,736	-12,179	260,891	121,345
30,750	-12,190	260,570	121,175
31,765	-12,183	260,413	121,098
32,780	-11,998	259,861	120,994
33,794	-12,019	259,709	120,894
34,809	-12,070	259,498	120,740
35,823	-12,146	259,166	120,508
36,838	-12,171	259,086	120,438
37,853	-12,292	258,760	120,169
38,867	-12,109	258,614	120,252
39,882	-12,131	258,393	120,119
40,896	-12,349	258,095	119,778
41,911	-12,186	257,870	119,806
42,926	-12,238	257,726	119,683
43,940	-12,171	257,256	119,512
44,955	-12,434	257,119	119,207
45,969	-12,403	256,848	119,098
46,984	-12,566	256,565	118,815
47,999	-12,786	256,382	118,527
49,013	-12,922	256,110	118,272
50,028	-12,946	255,709	118,055
51,042	-12,971	255,618	117,981
52,057	-12,923	255,183	117,812
53,071	-12,790	255,166	117,909
54,086	-12,894	254,927	117,698
55,101	-12,728	254,933	117,834
56,115	-12,580	254,814	117,896
57,130	-12,211	254,625	118,119
58,144	-11,826	254,501	118,383
59,159	-11,810	254,206	118,250
60,174	-11,951	254,044	118,042
61,188	-11,948	253,824	117,931
62,203	-12,026	253,684	117,789
63,217	-12,173	253,398	117,519
64,232	-11,701	253,018	117,738
65,247	-11,889	252,905	117,513
66,261	-11,904	252,734	117,411
67,276	-12,328	252,296	116,833
68,290	-12,411	252,110	116,666
69,305	-12,767	252,043	116,319
70,320	-12,535	251,621	116,312
71,334	-12,311	251,532	116,452
72,349	-12,016	251,449	116,656
73,363	-11,727	251,156	116,755
74,378	-11,688	251,006	116,709
75,393	-11,990	250,772	116,332
76,407	-12,037	250,586	116,196
77,422	-11,984	250,265	116,082
78,436	-11,938	250,071	116,021
79,451	-12,066	249,878	115,812
80,466	-12,126	249,650	115,645
81,480	-12,428	249,365	115,247
82,495	-12,419	249,124	115,133
83,509	-12,426	249,028	115,073
84,524	-12,441	248,899	114,990
85,539	-12,427	248,518	114,815
86,553	-12,510	248,367	114,665
87,568	-12,378	248,300	114,735
88,582	-12,463	248,087	114,556
89,597	-12,613	247,927	114,345
90,611	-12,355	247,761	114,475
91,626	-12,134	247,650	114,599
92,641	-12,306	247,478	114,366
93,655	-12,277	246,984	114,151
94,670	-12,177	247,012	114,238
95,684	-12,147	246,709	114,112
96,699	-12,357	246,665	113,906
97,714	-12,599	246,483	113,610
98,728	-12,406	246,050	113,561
99,743	-12,669	245,922	113,273
100,757	-12,415	245,585	113,318
101,772	-12,385	245,618	113,348
102,787	-12,352	245,436	113,282
103,801	-12,335	245,220	113,186
104,816	-12,075	244,989	113,285
105,830	-12,174	245,022	113,209
106,845	-11,849	244,794	113,363
107,860	-12,110	244,631	113,060
108,874	-12,154	244,413	112,913
109,889	-12,233	244,254	112,765
110,903	-12,266	243,854	112,542
111,918	-12,297	243,764	112,465
112,933	-12,199	243,524	112,425
113,947	-11,998	243,324	112,489
114,962	-11,905	243,261	112,526
115,976	-12,119	242,982	112,211
116,991	-12,187	242,884	112,100
118,006	-12,242	242,696	111,958
119,020	-12,127	242,543	111,972
120,035	-12,013	242,456	112,015
121,049	-12,134	242,379	111,870
122,064	-11,938	242,092	111,889
123,079	-12,138	241,740	111,552
124,093	-12,045	241,562	111,536
125,108	-12,575	241,466	111,049
126,122	-12,740	241,298	110,827
127,137	-12,693	240,904	110,675
128,151	-12,559	240,814	110,733
129,166	-12,418	240,581	110,730
130,181	-12,191	240,471	110,854
131,195	-12,560	240,229	110,433
132,210	-12,354	240,115	110,538
133,224	-12,070	239,936	110,676
134,239	-12,079	239,704	110,552
135,254	-11,860	239,481	110,617
136,268	-12,326	239,450	110,215
137,283	-12,591	239,106	109,833
138,297	-12,674	239,012	109,713
139,312	-12,532	238,803	109,722
140,327	-12,268	238,689	109,873
141,341	-11,780	238,676	110,250
142,356	-11,846	238,686	110,191
143,370	-11,707	238,380	110,152
144,385	-11,589	238,093	110,105
145,400	-11,701	238,015	109,969
146,414	-11,784	237,946	109,861
147,429	-11,864	237,575	109,615
148,443	-11,829	237,413	109,559
149,458	-11,645	237,317	109,652
150,473	-11,620	237,071	109,548
151,487	-11,886	236,928	109,260
152,502	-11,914	236,830	109,183
153,516	-11,776	236,618	109,185
154,531	-11,939	236,542	109,011
155,546	-11,789	236,132	108,931
156,560	-11,868	236,022	108,808
157,575	-11,793	235,807	108,759
158,589	-11,842	235,780	108,698
159,604	-11,561	235,567	108,813
160,619	-11,503	235,396	108,770
161,633	-11,591	235,154	108,579
162,648	-11,434	235,173	108,702
163,662	-11,610	234,906	108,430
164,677	-11,821	234,724	108,169
165,692	-11,755	234,594	108,152
166,706	-11,672	234,566	108,195
167,721	-11,631	234,382	108,133
168,735	-11,380	234,071	108,178
169,750	-11,737	233,956	107,834
170,764	-11,689	233,781	107,781
171,779	-11,596	233,614	107,768
172,794	-11,635	233,652	107,744
173,808	-11,826	233,212	107,383
174,823	-12,327	232,933	106,852
175,837	-12,565	232,775	106,583
176,852	-12,076	232,815	106,975
177,867	-11,686	232,728	107,231
178,881	-11,648	232,585	107,185
179,896	-11,685	232,431	107,076
180,910	-11,590	232,352	107,104
181,925	-11,574	232,110	106,996
182,940	-11,590	232,029	106,936
183,954	-11,639	231,793	106,780
184,969	-11,576	231,762	106,805
185,983	-11,582	231,531	106,685
186,998	-11,330	231,224	106,729
188,013	-11,424	231,113	106,595
189,027	-11,419	231,025	106,550
190,042	-11,476	230,992	106,480
191,056	-11,311	230,711	106,469
192,071	-11,423	230,586	106,316
193,086	-11,419	230,356	106,203
194,100	-11,420	230,333	106,182
195,115	-11,129	229,971	106,231
196,129	-10,640	230,332	106,766
197,144	-5,569	232,023	111,487
198,159	-0,114	233,723	116,558
199,173	2,246	234,320	118,690
200,188	2,912	234,102	119,088
201,202	2,808	233,996	118,943
202,217	3,206	234,042	119,267
203,232	3,254	233,945	119,244
204,246	3,676	233,638	119,404
205,261	3,487	233,587	119,221
206,275	3,833	233,630	119,501
207,290	3,782	233,340	119,303
208,304	3,777	233,169	119,200
209,319	3,559	233,002	118,936
210,334	3,453	232,811	118,745
211,348	3,284	232,657	118,525
212,363	3,085	232,331	118,196
213,377	2,944	231,998	117,906
214,392	2,628	232,014	117,660
215,407	2,806	231,830	117,694
216,421	2,949	231,842	117,799
217,436	2,786	231,516	117,498
218,450	2,752	231,268	117,335
219,465	2,530	231,126	117,082
220,480	2,431	231,166	117,015
221,494	2,638	230,792	116,975
222,509	2,876	230,715	117,108
223,523	2,781	230,758	117,046
224,538	2,767	230,465	116,877
225,553	2,520	230,371	116,629
226,567	2,831	230,185	116,763
227,582	3,063	230,139	116,906
228,596	3,366	230,073	117,094
229,611	3,095	229,685	116,680
230,626	2,783	229,543	116,359
231,640	2,633	229,421	116,172
232,655	2,993	229,297	116,373
233,669	3,212	229,356	116,560
234,684	3,379	229,133	116,563
235,699	3,299	228,839	116,342
236,713	2,639	228,937	115,880
237,728	3,084	228,402	115,936
238,742	2,769	228,346	115,658
239,757	2,954	228,173	115,701
240,772	2,807	228,088	115,536
241,786	2,756	227,866	115,375
242,801	3,002	227,856	115,546
243,815	3,004	227,957	115,588
244,830	3,137	227,762	115,579
245,844	2,852	227,456	115,199
246,859	2,982	227,236	115,175
247,874	3,200	227,015	115,217
248,888	2,978	227,032	115,049
249,903	2,926	226,803	114,883
250,917	2,795	226,659	114,701
251,932	2,644	226,626	114,560
252,947	2,702	226,347	114,453
253,961	2,652	226,207	114,334
254,976	2,836	225,970	114,342
255,990	2,931	226,054	114,446
257,005	3,248	225,828	114,558
258,020	3,130	225,691	114,390
259,034	3,269	225,647	114,462
260,049	3,289	225,363	114,323
261,063	3,095	225,326	114,149
262,078	3,129	225,207	114,104
263,093	3,302	225,117	114,177
264,107	3,283	224,807	113,996
265,122	3,037	224,684	113,739
266,136	3,322	224,684	113,942
267,151	3,108	224,634	113,747
268,166	3,171	224,064	113,495
269,180	2,619	223,795	112,940
270,195	2,577	223,820	112,911
271,209	2,722	223,720	112,958
272,224	2,837	223,555	112,950
273,239	2,916	223,493	112,967
274,253	2,896	223,295	112,841
275,268	2,794	223,009	112,611
276,282	2,616	222,868	112,399
277,297	2,523	222,719	112,245
278,312	2,696	222,615	112,311
279,326	2,900	222,549	112,417
280,341	3,000	222,451	112,431
281,355	2,924	222,286	112,282
282,370	2,803	222,164	112,122
283,384	2,664	221,959	111,906
284,399	2,659	221,709	111,766
285,414	2,631	221,661	111,712
286,428	2,851	221,520	111,792
287,443	2,983	221,451	111,844
288,457	3,017	221,417	111,841
289,472	2,914	221,129	111,610
290,487	2,477	220,887	111,160
291,501	2,393	220,706	110,997
292,516	2,548	220,525	111,010
293,530	2,515	220,556	110,991
294,545	2,550	220,448	110,953
295,560	2,564	220,415	110,936
296,574	2,603	220,163	110,828
297,589	2,718	219,944	110,791
298,603	2,808	219,840	110,794
299,618	2,669	219,862	110,694
300,633	3,031	219,698	110,865
301,647	3,215	219,536	110,906
302,662	3,072	219,542	110,796
303,676	2,982	219,229	110,563
304,691	3,093	219,203	110,620
305,706	3,145	219,089	110,590
306,720	3,078	218,791	110,382
307,735	2,673	218,574	109,971
308,749	2,809	218,498	110,020
309,764	2,897	218,324	109,986
310,779	3,193	218,108	110,081
311,793	3,043	217,974	109,896
312,808	2,910	217,950	109,778
313,822	2,944	217,816	109,725
314,837	3,016	217,583	109,649
315,852	2,611	217,451	109,282
316,866	2,650	217,364	109,257
317,881	3,061	217,342	109,531
318,895	3,145	217,060	109,439
319,910	2,910	216,917	109,189
320,925	2,389	216,793	108,744
321,939	2,476	216,454	108,627
322,954	2,491	216,548	108,676
323,968	3,305	216,348	109,146
324,983	2,800	216,392	108,798
325,997	3,050	216,138	108,839
327,012	3,039	216,061	108,782
328,027	2,788	215,938	108,532
329,041	3,356	215,768	108,840
330,056	3,303	215,650	108,734
331,070	2,702	215,295	108,119
332,085	2,429	215,192	107,864
333,100	2,532	214,973	107,818
334,114	2,784	215,111	108,056
335,129	2,888	214,962	108,045
336,143	2,933	214,726	107,949
337,158	2,908	214,680	107,898
338,173	3,059	214,489	107,899
339,187	2,852	214,418	107,707
340,202	2,767	214,197	107,527
341,216	2,627	213,874	107,257
342,231	2,777	213,888	107,359
343,246	2,830	213,728	107,307
344,260	2,682	213,850	107,255
345,275	2,952	213,596	107,307
346,289	3,136	213,386	107,321
347,304	2,971	213,373	107,190
348,319	2,772	213,127	106,917
349,333	3,042	213,073	107,070
350,348	2,981	212,859	106,909
351,362	3,092	212,779	106,938
352,377	3,130	212,676	106,903
353,392	2,970	212,493	106,690
354,406	3,096	212,246	106,644
355,421	199,590	1334,969	1421,438
356,435	159,643	1471,709	1421,387
