DTS Sentinel unit serial number:	SN410029Multiplexer serial number:	ORYXHardware model number:	OX2-SRSoftware version number:	ORYX F/W v4,00 Oryx Data Collector v3.7.2.0data status	okinstallation	B6 Nyhavnadifferential loss correction	single-endedforward channel	channel 2reverse channel	N/Adate	2023/12/10time	04:45:08forward acquisition time	300,00reverse acquisition time	0,00gamma	499,1914k internal	0,3125k external	0,3125temperature offset calibration	1,0000default loss term (dB/km)	0,3820temperature slope calibration	1,0000multiplexer offset coefficient	1,0000multiplexer slope coefficient	1,0000fibre end	0,00T internal ref (°C)	22,26T ext. ref 1 (°C)	6,34T ext. ref 2 (°C)	6,31length (m)	temperature (°C)	Stokes	anti-Stokes-744,400	402,463	0,142	-0,223
-743,385	-66,832	-0,230	0,067
-742,371	-13,435	0,099	-0,048
-741,356	-6,262	-0,097	0,049
-740,342	356,403	0,039	0,059
-739,327	-132,806	-0,209	0,020
-738,312	-11,317	-0,041	-0,020
-737,298	91,934	-0,212	0,178
-736,283	51,753	0,110	-0,078
-735,269	41,882	-0,227	0,153
-734,254	204,398	0,072	-0,083
-733,239	-124,641	-0,457	-0,052
-732,225	30,138	0,230	-0,146
-731,210	598,011	0,034	0,063
-730,196	-200,000	-0,001	0,024
-729,181	157,189	0,053	0,055
-728,167	-162,679	0,070	-0,003
-727,152	-72,090	-0,118	0,032
-726,137	85,837	-0,052	0,043
-725,123	104,667	-0,165	-0,145
-724,108	-200,000	-0,005	-0,020
-723,094	-57,727	-0,202	-0,066
-722,079	-200,000	-0,005	0,022
-721,064	-112,304	-0,159	-0,023
-720,050	165,658	-0,071	-0,075
-719,035	-3,624	-0,157	-0,081
-718,021	61,986	0,087	-0,064
-717,006	-200,000	0,009	-0,038
-715,991	213,674	-0,098	-0,115
-714,977	-20,288	-0,087	-0,040
-713,962	-200,000	-0,003	-0,143
-712,948	-102,219	0,080	0,014
-711,933	-70,611	0,144	-0,040
-710,918	91,254	0,100	0,084
-709,904	-200,000	-0,009	0,143
-708,889	354,969	0,014	0,021
-707,875	-200,000	0,019	-0,120
-706,860	335,007	-0,047	-0,069
-705,845	-74,468	0,164	-0,044
-704,831	-200,000	0,002	0,050
-703,816	113,109	-0,133	-0,120
-702,802	800,000	-0,017	-0,040
-701,787	-113,374	0,029	-0,004
-700,772	194,930	0,051	0,057
-699,758	-200,000	0,002	0,017
-698,743	-200,000	0,014	0,067
-697,729	-52,139	-0,067	0,023
-696,714	100,112	-0,028	-0,024
-695,699	-200,000	0,031	-0,120
-694,685	-43,540	-0,111	0,042
-693,670	529,954	-0,040	0,070
-692,656	-13,798	-0,095	0,045
-691,641	162,466	0,112	-0,117
-690,627	147,530	0,057	0,057
-689,612	133,465	-0,067	-0,065
-688,597	622,596	-0,012	0,022
-687,583	-200,000	0,013	-0,126
-686,568	-200,000	0,026	-0,162
-685,554	-200,000	-0,016	-0,057
-684,539	-138,272	0,139	0,011
-683,524	41,197	0,104	0,070
-682,510	119,655	-0,107	-0,098
-681,495	-200,000	-0,007	-0,175
-680,481	20,311	-0,147	0,088
-679,466	-9,027	-0,019	-0,009
-678,451	146,548	-0,022	0,022
-677,437	-21,346	-0,089	0,040
-676,422	28,403	-0,104	-0,065
-675,408	-20,908	0,112	0,051
-674,393	-106,383	0,128	-0,021
-673,378	175,709	-0,083	-0,089
-672,364	191,490	-0,088	-0,098
-671,349	459,588	-0,090	-0,150
-670,335	795,643	0,031	-0,063
-669,320	-116,933	0,083	0,011
-668,305	31,358	-0,100	0,063
-667,291	-75,762	-0,112	-0,029
-666,276	35,297	-0,061	0,040
-665,262	798,798	-0,091	-0,187
-664,247	553,620	-0,120	-0,216
-663,232	-200,000	0,026	-0,090
-662,218	146,544	-0,065	-0,065
-661,203	219,460	0,069	0,082
-660,189	60,030	0,068	0,050
-659,174	138,717	-0,133	-0,129
-658,159	-200,000	0,025	-0,168
-657,145	-42,174	-0,092	-0,035
-656,130	-200,000	-0,030	0,106
-655,116	-200,000	0,006	0,031
-654,101	517,073	0,053	-0,093
-653,086	-122,367	0,028	0,003
-652,072	62,517	-0,051	0,038
-651,057	-153,017	-0,018	0,001
-650,043	-44,278	0,084	0,031
-649,028	-200,000	-0,023	-0,083
-648,014	-79,885	-0,038	-0,009
-646,999	26,931	-0,014	0,009
-645,984	381,521	0,083	-0,127
-644,970	123,231	-0,017	-0,015
-643,955	800,000	-0,026	-0,079
-642,941	-126,812	-0,143	0,015
-641,926	800,000	0,029	-0,068
-640,911	-75,144	-0,095	0,025
-639,897	26,459	0,104	0,064
-638,882	-200,000	0,007	0,105
-637,868	196,275	0,092	-0,104
-636,853	-200,000	-0,005	-0,084
-635,838	-200,000	-0,007	-0,071
-634,824	209,460	-0,105	-0,123
-633,809	119,184	0,048	0,044
-632,795	394,907	0,076	0,118
-631,780	254,762	0,040	0,051
-630,765	-117,013	-0,024	-0,003
-629,751	-121,913	-0,063	-0,008
-628,736	-200,000	0,002	-0,089
-627,722	-129,222	-0,052	-0,005
-626,707	768,845	-0,028	-0,056
-625,692	-163,654	0,093	-0,003
-624,678	-200,000	0,003	-0,017
-623,663	-200,000	0,010	0,040
-622,649	-200,000	-0,001	0,110
-621,634	-200,000	0,006	0,021
-620,619	800,000	-0,041	-0,106
-619,605	177,370	0,012	0,013
-618,590	-200,000	0,001	-0,027
-617,576	294,038	-0,039	-0,052
-616,561	304,382	0,027	0,037
-615,546	-199,633	-0,071	0,000
-614,532	-12,557	-0,154	-0,074
-613,517	788,980	0,021	0,042
-612,503	282,539	-0,064	0,086
-611,488	-200,000	0,014	0,070
-610,474	113,540	0,089	-0,080
-609,459	-200,000	0,009	0,063
-608,444	-11,353	0,072	0,035
-607,430	68,852	-0,101	-0,077
-606,415	-200,000	0,017	-0,079
-605,401	800,000	-0,022	-0,058
-604,386	-200,000	0,011	0,063
-603,371	-178,630	0,165	0,003
-602,357	223,881	0,065	0,078
-601,342	-16,279	-0,088	-0,041
-600,328	800,000	-0,032	-0,093
-599,313	800,000	-0,042	-0,115
-598,298	-200,000	-0,011	-0,096
-597,284	202,421	-0,122	0,140
-596,269	311,151	-0,081	0,113
-595,255	161,764	0,040	0,042
-594,240	-65,950	0,058	-0,017
-593,225	770,348	-0,021	-0,043
-592,211	-200,000	0,009	-0,140
-591,196	528,522	-0,065	-0,115
-590,182	207,615	0,041	-0,047
-589,167	800,000	0,003	-0,006
-588,152	106,714	0,009	-0,008
-587,138	-123,654	0,071	-0,008
-586,123	-200,000	0,001	-0,102
-585,109	343,627	0,118	-0,172
-584,094	-200,000	0,020	0,082
-583,079	-188,071	-0,052	0,000
-582,065	-200,000	0,009	0,097
-581,050	110,170	0,071	-0,063
-580,036	30,735	-0,140	-0,088
-579,021	28,460	0,031	-0,019
-578,006	345,062	-0,043	-0,062
-576,992	-200,000	-0,002	-0,182
-575,977	72,633	0,062	-0,048
-574,963	-200,000	-0,028	0,145
-573,948	800,000	-0,043	-0,101
-572,934	-9,177	0,106	0,052
-571,919	-200,000	-0,027	0,116
-570,904	203,598	-0,058	-0,067
-569,890	-41,632	0,067	-0,025
-568,875	-180,047	0,166	-0,003
-567,861	747,803	-0,081	0,162
-566,846	800,000	-0,006	0,012
-565,831	138,757	0,024	0,024
-564,817	290,866	0,081	-0,110
-563,802	602,358	-0,057	-0,105
-562,788	19,707	0,040	-0,024
-561,773	-200,000	0,022	0,081
-560,758	-200,000	0,016	0,123
-559,744	128,245	-0,099	0,093
-558,729	-200,000	-0,008	-0,028
-557,715	427,276	0,016	0,025
-556,700	-110,143	-0,121	-0,018
-555,685	88,705	0,067	0,055
-554,671	80,099	0,088	-0,070
-553,656	-200,000	0,014	0,074
-552,642	-200,000	-0,008	0,043
-551,627	-20,633	0,067	-0,030
-550,612	800,000	0,040	0,094
-549,598	-200,000	0,024	-0,103
-548,583	19,468	-0,058	-0,034
-547,569	-82,861	0,018	-0,004
-546,554	16,609	-0,060	-0,035
-545,539	12,686	0,107	-0,061
-544,525	191,477	-0,074	0,083
-543,510	800,000	-0,044	-0,093
-542,496	45,356	-0,095	-0,065
-541,481	-32,204	-0,147	0,061
-540,466	3,535	0,018	0,010
-539,452	-112,957	-0,121	0,018
-538,437	-200,000	0,022	-0,090
-537,423	84,882	0,050	-0,040
-536,408	158,198	0,072	0,074
-535,393	800,000	0,033	-0,080
-534,379	220,707	0,032	0,038
-533,364	26,598	0,130	0,080
-532,350	-59,970	-0,031	-0,010
-531,335	800,000	-0,044	0,125
-530,321	17,532	-0,046	-0,027
-529,306	800,000	-0,043	-0,125
-528,291	274,097	0,023	0,031
-527,277	800,000	-0,033	-0,076
-526,262	800,000	0,024	-0,070
-525,248	322,245	0,129	-0,182
-524,233	-65,487	-0,092	0,027
-523,218	60,658	-0,091	0,067
-522,204	-200,000	-0,009	0,046
-521,189	698,912	0,012	0,023
-520,175	800,000	0,061	-0,141
-519,160	-200,000	0,016	-0,054
-518,145	-30,134	0,028	-0,012
-517,131	800,000	0,047	0,106
-516,116	235,236	0,047	-0,058
-515,102	-200,000	-0,033	-0,110
-514,087	236,330	0,101	-0,124
-513,072	-97,562	0,085	-0,016
-512,058	414,119	0,056	0,089
-511,043	569,747	0,055	-0,099
-510,029	521,197	-0,037	-0,065
-509,014	-174,936	-0,068	0,001
-507,999	-131,556	0,053	0,005
-506,985	800,000	-0,025	-0,054
-505,970	800,000	-0,031	-0,070
-504,956	800,000	0,017	0,051
-503,941	291,009	0,047	-0,063
-502,926	-76,481	0,033	-0,008
-501,912	800,000	0,017	-0,051
-500,897	-113,605	0,074	-0,011
-499,883	-200,000	0,001	0,127
-498,868	-200,000	0,000	-0,018
-497,853	-47,576	-0,120	-0,043
-496,839	-200,000	0,017	-0,068
-495,824	-200,000	-0,011	0,066
-494,810	15,113	0,115	0,066
-493,795	54,466	-0,057	0,040
-492,781	-114,467	0,104	-0,015
-491,766	381,801	-0,048	0,073
-490,751	-31,427	-0,129	0,053
-489,737	-200,000	0,003	0,079
-488,722	-38,266	0,081	-0,031
-487,708	144,624	-0,048	0,047
-486,693	65,913	0,083	0,062
-485,678	-200,000	-0,010	0,090
-484,664	800,000	-0,058	0,157
-483,649	-71,179	-0,077	0,021
-482,635	87,326	-0,031	-0,026
-481,620	-4,689	0,049	0,025
-480,605	-45,815	0,129	-0,047
-479,591	778,099	0,072	0,147
-478,576	449,967	-0,069	-0,112
-477,562	-46,165	-0,115	0,042
-476,547	355,004	-0,109	0,161
-475,532	239,579	0,054	0,067
-474,518	41,860	-0,092	-0,061
-473,503	-97,530	0,042	0,008
-472,489	-200,000	-0,018	0,081
-471,474	-200,000	-0,039	-0,162
-470,459	-200,000	-0,014	-0,050
-469,445	-200,000	-0,014	-0,211
-468,430	-124,464	-0,138	0,016
-467,416	54,760	0,035	0,025
-466,401	441,687	0,095	0,154
-465,386	185,518	-0,107	0,117
-464,372	-200,000	0,004	0,027
-463,357	800,000	-0,022	0,052
-462,343	-33,199	-0,052	-0,021
-461,328	-108,560	0,029	0,004
-460,313	800,000	-0,054	-0,141
-459,299	-200,000	0,041	-0,158
-458,284	-65,715	-0,088	-0,026
-457,270	-2,359	-0,055	0,028
-456,255	-4,346	-0,134	-0,068
-455,241	-171,952	-0,053	-0,001
-454,226	221,688	0,031	0,037
-453,211	-200,000	0,013	-0,129
-452,197	-123,172	0,099	-0,012
-451,182	-200,000	0,008	-0,038
-450,168	459,144	-0,075	0,124
-449,153	-55,670	0,066	-0,022
-448,138	127,794	0,082	0,077
-447,124	-27,104	-0,030	-0,013
-446,109	800,000	0,041	-0,132
-445,095	-85,429	0,114	0,026
-444,080	-146,735	0,085	-0,005
-443,065	134,766	0,066	-0,063
-442,051	-200,000	-0,020	-0,087
-441,036	7,706	0,050	-0,027
-440,022	389,791	0,059	-0,090
-439,007	-142,624	0,154	0,011
-437,992	53,819	-0,028	0,020
-436,978	-17,174	-0,016	0,007
-435,963	395,918	0,020	-0,031
-434,949	-200,000	0,011	0,043
-433,934	87,228	-0,021	-0,017
-432,919	-153,089	-0,090	0,005
-431,905	-200,000	0,009	0,046
-430,890	-72,952	0,136	-0,036
-429,876	-55,840	0,184	0,060
-428,861	-12,334	0,170	0,082
-427,846	126,695	-0,091	-0,084
-426,832	88,759	-0,096	0,078
-425,817	800,000	0,051	-0,108
-424,803	-161,924	0,060	0,002
-423,788	-37,065	0,054	-0,021
-422,773	322,591	0,043	-0,060
-421,759	-200,000	0,022	-0,119
-420,744	-85,651	0,084	0,019
-419,730	800,000	-0,057	-0,125
-418,715	-159,862	-0,148	0,006
-417,701	-200,000	-0,037	-0,121
-416,686	-56,917	0,074	-0,024
-415,671	-200,000	0,004	0,047
-414,657	-80,433	0,091	0,022
-413,642	204,417	0,041	-0,047
-412,628	371,136	0,002	0,003
-411,613	439,495	-0,025	0,040
-410,598	-29,490	0,128	0,053
-409,584	800,000	0,031	-0,069
-408,569	-200,000	-0,006	0,054
-407,555	-72,443	-0,068	-0,018
-406,540	16,045	-0,098	0,057
-405,525	88,701	-0,084	-0,068
-404,511	-104,026	0,019	-0,003
-403,496	-107,268	0,174	-0,028
-402,482	-26,114	0,117	-0,050
-401,467	183,728	0,071	-0,077
-400,452	-200,000	-0,029	-0,119
-399,438	244,951	0,081	0,100
-398,423	-35,733	-0,079	0,031
-397,409	-38,534	0,089	0,034
-396,394	-123,381	0,079	-0,009
-395,379	306,665	0,037	-0,051
-394,365	800,000	-0,037	0,096
-393,350	-121,123	0,142	0,017
-392,336	334,518	-0,035	0,050
-391,321	-46,480	0,132	0,047
-390,306	474,673	-0,062	0,103
-389,292	-135,356	-0,078	0,007
-388,277	-200,000	0,010	0,034
-387,263	392,596	0,065	0,100
-386,248	800,000	0,045	0,113
-385,233	-200,000	-0,039	0,153
-384,219	-98,874	-0,100	-0,019
-383,204	-200,000	0,022	0,098
-382,190	-137,489	-0,147	0,012
-381,175	-155,055	-0,101	-0,005
-380,160	407,312	0,037	0,057
-379,146	-200,000	0,033	0,135
-378,131	-200,000	-0,016	-0,056
-377,117	-200,000	0,008	0,038
-376,102	597,437	-0,009	0,016
-375,088	-87,266	-0,114	-0,025
-374,073	174,912	-0,092	-0,098
-373,058	-94,018	-0,076	-0,015
-372,044	-36,667	0,044	-0,017
-371,029	-200,000	-0,070	0,244
-370,015	-30,903	-0,078	-0,032
-369,000	800,000	-0,025	-0,060
-367,985	-173,635	-0,113	0,002
-366,971	-120,669	0,047	-0,006
-365,956	-200,000	0,004	-0,051
-364,942	200,749	0,036	-0,041
-363,927	-15,665	-0,098	0,046
-362,912	800,000	0,034	0,083
-361,898	800,000	0,059	-0,121
-360,883	187,729	-0,055	0,061
-359,869	-112,599	-0,072	0,010
-358,854	124,647	-0,118	0,109
-357,839	179,116	0,049	0,053
-356,825	800,000	-0,086	0,195
-355,810	527,957	0,086	0,149
-354,796	-200,000	0,011	0,040
-353,781	-81,651	-0,167	0,040
-352,766	800,000	0,053	-0,113
-351,752	-91,776	0,116	-0,024
-350,737	-200,000	-0,036	0,162
-349,723	-144,201	0,231	-0,016
-348,708	-132,799	-0,012	-0,001
-347,693	358,819	-0,051	0,075
-346,679	53,778	-0,069	-0,049
-345,664	800,000	0,064	-0,150
-344,650	-200,000	0,032	0,120
-343,635	499,450	0,031	-0,052
-342,620	242,226	0,029	0,035
-341,606	-0,937	-0,022	0,011
-340,591	-200,000	0,001	-0,060
-339,577	-22,375	-0,060	-0,027
-338,562	44,896	-0,058	-0,039
-337,548	312,807	0,030	-0,042
-336,533	-181,794	0,010	-0,000
-335,518	800,000	-0,018	-0,040
-334,504	-200,000	-0,005	-0,027
-333,489	-200,000	-0,035	0,169
-332,475	800,000	-0,043	0,099
-331,460	-67,216	-0,043	0,012
-330,445	-40,381	0,103	-0,039
-329,431	79,855	0,070	0,055
-328,416	-200,000	0,014	0,099
-327,402	-200,000	0,002	0,118
-326,387	555,483	-0,034	-0,061
-325,372	229,576	-0,104	-0,124
-324,358	-77,660	-0,135	0,034
-323,343	-187,126	0,137	0,001
-322,329	-127,425	0,147	-0,015
-321,314	-200,000	-0,015	0,065
-320,299	-114,557	0,084	-0,012
-319,285	73,064	0,050	-0,039
-318,270	22,998	-0,096	-0,057
-317,256	-200,000	0,014	-0,046
-316,241	11,157	-0,055	-0,030
-315,226	-140,724	-0,069	-0,005
-314,212	9,251	0,074	0,041
-313,197	445,130	-0,029	-0,047
-312,183	-65,588	0,092	0,027
-311,168	-97,084	0,071	0,013
-310,153	-127,065	0,109	0,012
-309,139	-11,695	0,077	0,037
-308,124	-95,225	0,139	-0,027
-307,110	44,573	0,098	0,066
-306,095	577,483	-0,019	0,034
-305,080	16,345	0,090	0,052
-304,066	13,621	0,018	-0,010
-303,051	-68,967	0,087	0,024
-302,037	43,614	-0,109	0,073
-301,022	364,660	0,050	0,073
-300,008	62,918	-0,087	0,064
-298,993	800,000	0,031	0,096
-297,978	-12,024	-0,094	0,045
-296,964	-75,257	-0,131	-0,034
-295,949	410,887	0,024	0,037
-294,935	23,141	0,053	-0,032
-293,920	169,327	-0,097	-0,101
-292,905	-200,000	-0,002	-0,014
-291,891	351,929	0,108	0,157
-290,876	-200,000	0,010	-0,040
-289,862	702,686	0,045	0,088
-288,847	-200,000	-0,006	-0,074
-287,832	800,000	-0,061	-0,169
-286,818	-163,920	0,095	0,003
-285,803	89,458	0,019	-0,015
-284,789	-18,159	-0,056	0,026
-283,774	251,090	-0,035	0,043
-282,759	800,000	-0,019	-0,059
-281,745	52,053	-0,018	-0,013
-280,730	284,498	0,055	-0,072
-279,716	210,395	-0,030	0,034
-278,701	309,911	-0,096	0,132
-277,686	559,775	-0,007	-0,012
-276,672	-143,068	-0,083	0,006
-275,657	-71,935	-0,095	0,026
-274,643	-200,000	0,023	-0,084
-273,628	-200,000	-0,005	-0,122
-272,613	-89,012	-0,099	0,021
-271,599	-97,454	0,049	0,009
-270,584	800,000	-0,027	-0,067
-269,570	-200,000	-0,004	0,022
-268,555	70,126	-0,046	-0,035
-267,540	-89,848	-0,015	-0,003
-266,526	181,022	-0,032	0,035
-265,511	-200,000	-0,008	-0,197
-264,497	-12,974	0,019	-0,009
-263,482	-13,880	-0,012	0,006
-262,467	-92,219	-0,017	0,003
-261,453	190,727	-0,045	0,049
-260,438	-62,726	-0,054	0,016
-259,424	-200,000	-0,003	0,131
-258,409	-89,629	-0,143	-0,030
-257,395	-43,183	0,200	0,074
-256,380	800,000	0,013	0,036
-255,365	-200,000	0,003	-0,014
-254,351	800,000	0,042	0,115
-253,336	-150,143	-0,078	-0,004
-252,322	604,973	-0,003	-0,005
-251,307	180,640	0,038	-0,041
-250,292	337,066	-0,022	0,031
-249,278	-200,000	-0,004	0,025
-248,263	-140,643	0,063	0,005
-247,249	-9,979	0,120	0,058
-246,234	-151,689	0,052	0,003
-245,219	511,819	-0,065	-0,111
-244,205	222,981	0,071	-0,083
-243,190	-200,000	-0,015	0,098
-242,176	226,363	-0,072	0,085
-241,161	-200,000	0,008	0,191
-240,146	190,183	0,032	0,035
-239,132	800,000	-0,045	0,098
-238,117	257,554	-0,083	-0,105
-237,103	800,000	-0,019	0,047
-236,088	5,129	0,126	-0,068
-235,073	-200,000	0,009	-0,059
-234,059	92,277	-0,065	0,054
-233,044	-35,046	-0,056	-0,022
-232,030	652,143	-0,066	0,125
-231,015	-200,000	-0,026	-0,112
-230,000	-174,869	-0,148	0,003
-228,986	88,555	0,038	-0,031
-227,971	800,000	-0,075	0,185
-226,957	49,908	0,047	0,032
-225,942	-200,000	0,015	0,139
-224,927	-66,844	-0,017	0,005
-223,913	-200,000	-0,004	-0,036
-222,898	-200,000	0,001	-0,013
-221,884	800,000	-0,035	0,096
-220,869	152,933	0,020	0,020
-219,855	96,043	0,042	0,035
-218,840	61,972	0,099	0,072
-217,825	141,241	-0,119	0,115
-216,811	-98,770	-0,075	0,014
-215,796	11,669	-0,164	-0,092
-214,782	-77,832	0,014	-0,003
-213,767	-200,000	0,007	-0,099
-212,752	283,049	0,023	0,030
-211,738	-125,447	-0,057	-0,006
-210,723	5,074	-0,037	0,020
-209,709	205,255	0,070	0,079
-208,694	-3,596	0,073	-0,037
-207,679	42,303	0,097	-0,064
-206,665	-200,000	-0,025	0,108
-205,650	-200,000	-0,014	-0,048
-204,636	258,782	-0,018	0,023
-203,621	-84,300	0,027	0,006
-202,606	-112,058	0,076	-0,011
-201,592	-200,000	0,021	-0,180
-200,577	-32,827	0,164	-0,066
-199,563	176,170	-0,030	-0,032
-198,548	395,778	0,068	-0,103
-197,533	-66,191	0,108	0,031
-196,519	359,053	-0,024	0,034
-195,504	-200,000	-0,022	0,083
-194,490	137,080	-0,067	-0,064
-193,475	-172,417	-0,140	0,003
-192,460	-173,194	0,001	0,000
-191,446	800,000	0,022	0,066
-190,431	-88,279	0,141	-0,030
-189,417	113,479	0,066	0,058
-188,402	193,083	-0,046	-0,051
-187,387	34,956	0,039	-0,025
-186,373	11,086	-0,023	0,013
-185,358	-77,049	-0,168	0,042
-184,344	292,935	-0,056	-0,075
-183,329	800,000	0,009	0,022
-182,315	13,347	0,062	0,035
-181,300	-200,000	-0,007	-0,055
-180,285	150,750	-0,058	-0,058
-179,271	-115,418	-0,054	0,007
-178,256	194,977	-0,073	-0,081
-177,242	-81,878	0,157	0,037
-176,227	163,591	0,032	0,033
-175,212	-200,000	0,011	0,053
-174,198	-200,000	-0,037	0,197
-173,183	2,034	-0,158	0,083
-172,169	60,738	-0,112	0,081
-171,154	-127,949	-0,063	0,007
-170,139	-30,275	0,041	0,017
-169,125	-200,000	0,009	-0,055
-168,110	116,111	-0,064	-0,057
-167,096	-200,000	-0,033	0,117
-166,081	92,949	-0,094	-0,077
-165,066	800,000	0,068	-0,160
-164,052	-20,333	0,039	-0,017
-163,037	800,000	-0,082	-0,191
-162,023	-200,000	-0,002	-0,067
-161,008	-200,000	0,013	0,051
-159,993	-29,165	0,073	-0,030
-158,979	514,984	0,028	-0,048
-157,964	528,600	-0,067	-0,116
-156,950	-11,231	-0,141	-0,068
-155,935	-107,936	0,096	-0,015
-154,920	-200,000	-0,002	0,081
-153,906	24,717	-0,022	0,013
-152,891	111,606	-0,004	-0,003
-151,877	147,301	0,035	0,034
-150,862	-6,618	0,067	0,033
-149,847	-54,032	0,146	-0,048
-148,833	644,359	-0,054	0,100
-147,818	-200,000	-0,065	-0,234
-146,804	800,000	0,020	0,043
-145,789	800,000	-0,000	0,001
-144,775	250,892	-0,119	-0,147
-143,760	333,238	0,092	-0,130
-142,745	4,629	0,023	-0,012
-141,731	-76,141	0,038	0,010
-140,716	170,804	-0,019	0,020
-139,702	241,980	-0,074	0,091
-138,687	678,164	0,016	-0,031
-137,672	-50,501	-0,153	-0,052
-136,658	213,399	-0,068	0,078
-135,643	110,166	0,075	-0,065
-134,629	-200,000	-0,015	-0,119
-133,614	800,000	0,030	-0,090
-132,599	473,027	-0,025	0,042
-131,585	800,000	-0,080	0,171
-130,570	-158,356	-0,028	-0,001
-129,556	114,317	-0,010	-0,009
-128,541	-200,000	0,016	-0,082
-127,526	-7,001	0,099	-0,049
-126,512	-200,000	0,022	-0,141
-125,497	800,000	-0,068	-0,140
-124,483	-200,000	-0,041	0,161
-123,468	127,423	-0,028	-0,026
-122,453	-200,000	-0,008	-0,119
-121,439	-200,000	-0,027	0,124
-120,424	-200,000	0,016	0,069
-119,410	179,231	0,018	0,019
-118,395	-126,278	-0,034	0,004
-117,380	433,640	0,034	-0,055
-116,366	-183,887	0,130	0,002
-115,351	425,203	0,013	-0,021
-114,337	-73,306	0,057	0,015
-113,322	138,075	0,056	0,053
-112,307	170,747	-0,084	-0,087
-111,293	-200,000	0,011	-0,099
-110,278	-200,000	-0,013	0,081
-109,264	800,000	-0,021	0,060
-108,249	-72,163	-0,101	-0,027
-107,234	-200,000	-0,021	0,193
-106,220	-200,000	-0,006	0,098
-105,205	-86,160	0,160	0,036
-104,191	-200,000	0,020	0,138
-103,176	-200,000	-0,012	0,135
-102,162	800,000	-0,023	0,058
-101,147	704,696	-0,060	-0,116
-100,132	404,036	-0,039	0,059
-99,118	-200,000	-0,000	0,028
-98,103	-200,000	-0,035	0,117
-97,089	-6,992	0,080	0,039
-96,074	92,130	-0,112	-0,092
-95,059	-166,107	-0,113	0,003
-94,045	-200,000	-0,048	-0,167
-93,030	800,000	-0,004	0,008
-92,016	103,014	-0,071	-0,060
-91,001	-129,346	-0,111	0,011
-89,986	-19,565	0,073	0,033
-88,972	-77,063	0,077	-0,019
-87,957	728,516	-0,068	-0,132
-86,943	-200,000	0,024	-0,107
-85,928	800,000	0,017	-0,046
-84,913	215,943	0,057	-0,066
-83,899	-200,000	-0,000	-0,253
-82,884	-92,964	0,130	0,026
-81,870	88,990	-0,085	-0,069
-80,855	127,148	-0,020	0,018
-79,840	25,309	0,081	-0,049
-78,826	-98,684	0,053	0,010
-77,811	62,558	-0,055	0,040
-76,797	177,014	-0,013	0,013
-75,782	31,150	-0,140	-0,087
-74,767	-22,003	0,077	0,034
-73,753	251,485	-0,035	-0,043
-72,738	306,828	-0,064	-0,087
-71,724	231,234	-0,045	0,054
-70,709	230,854	-0,071	-0,085
-69,694	-77,316	-0,135	0,034
-68,680	-48,272	0,101	0,035
-67,665	-200,000	0,012	0,091
-66,651	800,000	0,025	0,077
-65,636	56,897	-0,130	-0,092
-64,622	800,000	0,036	0,090
-63,607	218,819	0,056	-0,065
-62,592	-132,011	0,118	-0,011
-61,578	430,517	-0,068	0,108
-60,563	396,975	0,083	0,126
-59,549	541,194	-0,088	0,153
-58,534	-67,210	-1,338	-0,380
-57,519	800,000	-0,733	-1,511
-56,505	-200,000	-0,964	-4,594
-55,490	103,988	0,473	-0,403
-54,476	800,000	5,041	11,751
-53,461	-200,000	13,668	253,002
-52,446	-200,000	690,337	2251,372
-51,432	585,296	1622,070	2903,362
-50,417	118,933	1634,368	1464,789
-49,403	72,774	1288,474	974,322
-48,388	37,880	1023,996	658,561
-47,373	24,201	981,511	586,287
-46,359	23,493	971,116	577,737
-45,344	22,472	966,767	571,795
-44,330	22,437	965,324	570,803
-43,315	22,348	963,871	569,630
-42,300	22,285	962,927	568,844
-41,286	22,258	962,158	568,281
-40,271	22,305	961,097	567,785
-39,257	22,282	960,124	567,112
-38,242	22,232	959,170	566,364
-37,227	22,300	958,479	566,155
-36,213	22,225	957,376	565,238
-35,198	22,203	956,723	564,759
-34,184	22,274	955,921	564,493
-33,169	22,239	954,797	563,692
-32,154	22,288	954,098	563,416
-31,140	22,280	953,235	562,859
-30,125	22,333	952,528	562,589
-29,111	22,352	951,443	561,986
-28,096	22,297	950,971	561,510
-27,082	22,308	950,240	561,091
-26,067	22,340	949,304	560,619
-25,052	22,306	948,794	560,186
-24,038	22,264	948,286	559,729
-23,023	22,253	947,692	559,320
-22,009	22,316	946,941	559,057
-20,994	22,335	946,290	558,710
-19,979	22,328	945,652	558,290
-18,965	22,303	945,112	557,870
-17,950	22,375	944,394	557,654
-16,936	22,277	943,828	556,985
-15,921	22,248	943,034	556,401
-14,906	22,190	942,398	555,821
-13,892	22,169	941,771	555,361
-12,877	22,168	941,051	554,912
-11,863	22,187	940,326	554,522
-10,848	22,140	939,979	554,146
-9,833	22,203	939,480	554,031
-8,819	22,237	938,724	553,668
-7,804	22,213	937,981	553,133
-6,790	22,167	937,576	552,727
-5,775	22,249	936,775	552,491
-4,760	22,236	936,144	552,057
-3,746	22,118	935,827	551,474
-2,731	22,038	935,065	550,752
-1,717	21,971	934,289	550,063
-0,702	22,017	933,484	549,712
0,313	21,808	933,117	549,666
1,327	24,930	931,013	558,185
2,342	34,597	795,515	502,667
3,356	32,584	451,390	282,167
4,371	1,620	294,001	152,881
5,386	-2,815	274,768	138,672
6,400	-4,138	269,198	134,621
7,415	-4,569	266,743	132,985
8,429	-4,191	265,352	132,625
9,444	-4,358	264,673	132,121
10,459	-4,401	264,000	131,735
11,473	-4,507	263,550	131,402
12,488	-4,442	262,952	131,151
13,502	-4,611	262,267	130,645
14,517	-4,454	262,021	130,653
15,531	-4,393	261,496	130,434
16,546	-4,447	261,018	130,136
17,561	-4,657	260,845	129,849
18,575	-4,263	260,373	129,956
19,590	-4,634	260,199	129,524
20,604	-4,493	259,832	129,457
21,619	-4,704	259,637	129,159
22,634	-4,557	259,264	129,094
23,648	-4,608	258,904	128,857
24,663	-4,542	258,581	128,744
25,677	-4,524	258,401	128,659
26,692	-4,772	258,271	128,362
27,707	-4,511	257,871	128,384
28,721	-4,495	257,639	128,270
29,736	-4,788	257,435	127,898
30,750	-4,559	257,072	127,909
31,765	-4,717	256,926	127,685
32,780	-4,733	256,626	127,511
33,794	-4,764	256,398	127,359
34,809	-4,814	256,259	127,234
35,823	-4,747	255,972	127,139
36,838	-4,590	255,607	127,085
37,853	-4,543	255,277	126,951
38,867	-4,815	255,222	126,673
39,882	-4,813	255,075	126,591
40,896	-4,643	254,792	126,588
41,911	-4,741	254,534	126,362
42,926	-4,707	254,116	126,174
43,940	-4,796	254,093	126,073
44,955	-4,839	253,808	125,883
45,969	-4,944	253,634	125,694
46,984	-4,908	253,341	125,569
47,999	-5,112	253,189	125,305
49,013	-5,208	252,893	125,063
50,028	-5,362	252,501	124,725
51,042	-5,563	252,607	124,592
52,057	-5,283	252,161	124,603
53,071	-5,516	252,068	124,344
54,086	-5,228	251,758	124,429
55,101	-5,130	251,571	124,411
56,115	-5,053	251,539	124,450
57,130	-4,571	251,356	124,765
58,144	-4,254	251,065	124,883
59,159	-4,385	251,077	124,765
60,174	-4,569	250,888	124,501
61,188	-4,622	250,563	124,283
62,203	-4,511	250,472	124,322
63,217	-4,421	250,100	124,204
64,232	-4,316	249,943	124,205
65,247	-4,658	249,943	123,900
66,261	-4,483	249,518	123,829
67,276	-4,876	249,373	123,409
68,290	-4,907	249,090	123,232
69,305	-5,082	248,819	122,937
70,320	-4,863	248,683	123,046
71,334	-4,899	248,495	122,911
72,349	-4,769	248,476	123,001
73,363	-4,450	248,169	123,111
74,378	-4,299	247,821	123,055
75,393	-4,505	247,660	122,789
76,407	-4,446	247,597	122,798
77,422	-4,686	247,399	122,484
78,436	-4,444	247,088	122,524
79,451	-4,563	246,902	122,320
80,466	-4,593	246,704	122,186
81,480	-4,790	246,417	121,866
82,495	-4,788	246,396	121,847
83,509	-4,973	246,286	121,625
84,524	-4,819	245,952	121,580
85,539	-4,983	245,778	121,345
86,553	-4,813	245,476	121,328
87,568	-4,807	245,244	121,207
88,582	-4,965	245,224	121,054
89,597	-5,022	245,031	120,900
90,611	-4,596	244,730	121,097
91,626	-4,547	244,704	121,115
92,641	-4,649	244,654	120,994
93,655	-4,784	244,242	120,667
94,670	-4,901	244,114	120,494
95,684	-4,793	243,868	120,453
96,699	-4,595	243,649	120,499
97,714	-4,810	243,524	120,247
98,728	-4,986	243,522	120,089
99,743	-4,853	243,042	119,952
100,757	-5,062	242,838	119,667
101,772	-5,049	242,867	119,681
102,787	-4,964	242,595	119,607
103,801	-4,757	242,371	119,658
104,816	-4,659	242,282	119,685
105,830	-4,637	242,160	119,632
106,845	-4,596	242,031	119,591
107,860	-4,471	241,790	119,565
108,874	-4,493	241,458	119,372
109,889	-4,816	241,386	119,060
110,903	-4,563	241,165	119,148
111,918	-4,893	241,120	118,843
112,933	-4,777	240,926	118,833
113,947	-4,854	240,753	118,673
114,962	-4,663	240,594	118,741
115,976	-4,751	240,323	118,525
116,991	-4,796	240,231	118,432
118,006	-4,783	239,929	118,283
119,020	-4,605	239,892	118,400
120,035	-4,657	239,817	118,310
121,049	-4,470	239,569	118,330
122,064	-4,726	239,399	118,027
123,079	-4,767	239,209	117,888
124,093	-4,759	238,986	117,774
125,108	-5,076	238,837	117,432
126,122	-5,068	238,609	117,316
127,137	-5,096	238,419	117,190
128,151	-5,059	238,246	117,124
129,166	-4,928	238,057	117,127
130,181	-5,024	237,977	116,999
131,195	-4,998	237,740	116,893
132,210	-4,972	237,585	116,828
133,224	-4,636	237,443	117,020
134,239	-4,577	237,225	116,950
135,254	-4,728	237,093	116,752
136,268	-4,841	236,968	116,589
137,283	-4,835	236,581	116,393
138,297	-4,936	236,485	116,254
139,312	-4,966	236,210	116,084
140,327	-4,745	236,187	116,241
141,341	-4,499	236,214	116,441
142,356	-4,344	235,998	116,449
143,370	-4,392	235,794	116,300
144,385	-4,394	235,583	116,183
145,400	-4,265	235,564	116,268
146,414	-4,296	235,279	116,092
147,429	-4,256	235,211	116,080
148,443	-4,473	235,063	115,822
149,458	-4,207	234,701	115,847
150,473	-4,248	234,623	115,765
151,487	-4,451	234,438	115,501
152,502	-4,459	234,215	115,375
153,516	-4,391	234,092	115,358
154,531	-4,418	234,020	115,291
155,546	-4,375	233,705	115,160
156,560	-4,476	233,620	115,027
157,575	-4,542	233,409	114,861
158,589	-4,536	233,266	114,785
159,604	-4,199	233,114	114,967
160,619	-4,382	232,985	114,748
161,633	-4,054	232,831	114,921
162,648	-4,224	232,755	114,740
163,662	-4,308	232,531	114,552
164,677	-4,406	232,285	114,344
165,692	-4,410	232,205	114,291
166,706	-4,217	232,029	114,346
167,721	-4,314	231,953	114,222
168,735	-4,379	231,871	114,120
169,750	-4,212	231,613	114,115
170,764	-4,254	231,457	113,995
171,779	-4,504	231,499	113,808
172,794	-4,248	231,203	113,854
173,808	-4,419	230,955	113,587
174,823	-4,915	230,653	113,039
175,837	-4,801	230,430	113,010
176,852	-4,707	230,482	113,098
177,867	-4,671	230,501	113,126
178,881	-4,193	230,264	113,374
179,896	-4,103	230,075	113,341
180,910	-4,287	229,835	113,069
181,925	-4,431	229,838	112,948
182,940	-4,375	229,641	112,885
183,954	-4,349	229,488	112,820
184,969	-4,111	229,465	112,984
185,983	-4,121	229,198	112,835
186,998	-4,094	229,048	112,771
188,013	-4,085	228,881	112,687
189,027	-4,194	228,837	112,570
190,042	-4,267	228,691	112,431
191,056	-4,153	228,449	112,391
192,071	-4,103	228,277	112,335
193,086	-3,847	228,107	112,440
194,100	-4,014	227,873	112,185
195,115	-4,235	227,596	111,868
196,129	-4,630	227,378	111,446
197,144	-2,470	228,027	113,424
198,159	0,679	229,027	116,354
199,173	3,753	229,770	119,106
200,188	4,307	229,816	119,549
201,202	4,338	229,649	119,476
202,217	4,391	229,579	119,470
203,232	4,477	229,388	119,426
204,246	4,733	229,257	119,545
205,261	4,543	229,131	119,322
206,275	4,670	229,118	119,403
207,290	4,837	228,886	119,400
208,304	4,866	228,806	119,370
209,319	4,770	228,636	119,196
210,334	4,754	228,343	119,021
211,348	4,450	228,104	118,652
212,363	4,013	227,854	118,176
213,377	4,098	227,619	118,109
214,392	3,857	227,554	117,880
215,407	4,007	227,442	117,927
216,421	3,957	227,203	117,753
217,436	3,847	227,142	117,627
218,450	3,918	226,783	117,485
219,465	3,549	226,856	117,231
220,480	3,472	226,676	117,068
221,494	3,728	226,540	117,183
222,509	3,823	226,316	117,128
223,523	3,745	226,217	117,008
224,538	3,852	225,955	116,943
225,553	3,845	225,957	116,929
226,567	3,714	225,983	116,832
227,582	4,175	225,685	117,018
228,596	4,216	225,543	116,965
229,611	3,880	225,472	116,662
230,626	3,793	225,081	116,383
231,640	3,779	225,021	116,332
232,655	4,022	224,947	116,467
233,669	4,548	224,871	116,815
234,684	4,622	224,696	116,770
235,699	4,216	224,589	116,397
236,713	4,172	224,362	116,236
237,728	3,940	224,148	115,940
238,742	4,052	223,843	115,856
239,757	3,714	223,959	115,652
240,772	3,850	223,758	115,639
241,786	3,735	223,557	115,439
242,801	3,882	223,530	115,525
243,815	4,584	223,242	115,892
244,830	4,253	223,251	115,639
245,844	4,117	222,999	115,396
246,859	3,988	222,898	115,237
247,874	4,213	222,883	115,387
248,888	4,410	222,617	115,386
249,903	3,972	222,497	114,987
250,917	3,868	222,323	114,809
251,932	3,960	222,136	114,770
252,947	3,809	221,958	114,556
253,961	3,955	221,716	114,530
254,976	3,792	221,691	114,385
255,990	4,087	221,671	114,584
257,005	4,165	221,395	114,489
258,020	4,104	221,403	114,438
259,034	4,544	221,251	114,676
260,049	4,224	221,095	114,347
261,063	4,137	220,879	114,161
262,078	4,066	220,837	114,077
263,093	4,494	220,607	114,264
264,107	4,097	220,512	113,911
265,122	4,234	220,407	113,948
266,136	4,427	220,189	113,967
267,151	4,236	220,172	113,808
268,166	4,212	219,721	113,547
269,180	3,712	219,609	113,110
270,195	3,810	219,608	113,172
271,209	3,988	219,230	113,098
272,224	3,877	219,335	113,061
273,239	4,092	219,110	113,092
274,253	4,018	218,890	112,914
275,268	3,537	218,844	112,527
276,282	3,600	218,632	112,455
277,297	3,582	218,433	112,329
278,312	3,528	218,380	112,252
279,326	3,936	218,170	112,432
280,341	3,783	218,208	112,330
281,355	3,913	217,979	112,298
282,370	3,796	217,862	112,142
283,384	3,768	217,593	111,973
284,399	3,574	217,468	111,757
285,414	3,545	217,352	111,666
286,428	3,680	217,427	111,793
287,443	3,951	217,340	111,936
288,457	3,875	217,104	111,749
289,472	4,021	216,754	111,665
290,487	3,396	216,612	111,129
291,501	3,386	216,450	111,029
292,516	3,708	216,220	111,134
293,530	3,613	216,300	111,096
294,545	3,700	216,031	111,011
295,560	3,569	215,956	110,868
296,574	3,774	215,908	110,982
297,589	3,926	215,840	111,046
298,603	3,846	215,701	110,907
299,618	3,912	215,470	110,826
300,633	3,961	215,525	110,880
301,647	4,167	215,277	110,890
302,662	4,211	215,173	110,859
303,676	4,172	214,961	110,712
304,691	4,136	214,917	110,653
305,706	4,249	214,794	110,661
306,720	4,161	214,634	110,506
307,735	3,922	214,442	110,225
308,749	3,700	214,302	109,985
309,764	3,967	214,124	110,075
310,779	3,967	214,140	110,073
311,793	4,119	213,890	110,043
312,808	4,134	213,628	109,909
313,822	3,834	213,553	109,647
314,837	3,873	213,403	109,588
315,852	3,538	213,294	109,283
316,866	3,849	213,101	109,397
317,881	4,165	213,005	109,562
318,895	3,867	212,922	109,298
319,910	4,046	212,762	109,333
320,925	3,493	212,691	108,894
321,939	3,586	212,326	108,763
322,954	3,667	212,250	108,772
323,968	3,989	212,121	108,925
324,983	3,993	212,206	108,961
325,997	4,204	212,039	109,015
327,012	4,032	211,763	108,742
328,027	3,968	211,719	108,665
329,041	4,108	211,681	108,734
330,056	4,309	211,520	108,783
331,070	4,230	211,122	108,513
332,085	3,587	211,174	108,078
333,100	3,561	210,980	107,950
334,114	3,862	210,942	108,133
335,129	4,008	210,735	108,120
336,143	3,931	210,587	107,980
337,158	3,987	210,487	107,959
338,173	3,906	210,422	107,859
339,187	3,504	210,184	107,446
340,202	3,335	209,869	107,156
341,216	3,438	209,803	107,185
342,231	3,726	209,726	107,338
343,246	3,823	209,602	107,333
344,260	3,847	209,392	107,232
345,275	3,699	209,408	107,128
346,289	3,910	209,327	107,223
347,304	4,018	209,209	107,229
348,319	3,863	208,949	106,979
349,333	3,819	208,904	106,915
350,348	3,923	208,742	106,895
351,362	4,099	208,607	106,939
352,377	4,011	208,571	106,849
353,392	4,000	208,320	106,704
354,406	4,042	208,163	106,642
355,421	195,287	1345,492	1437,735
356,435	155,870	1484,150	1437,855
