DTS Sentinel unit serial number:	SN410029Multiplexer serial number:	ORYXHardware model number:	OX2-SRSoftware version number:	ORYX F/W v4,00 Oryx Data Collector v3.7.2.0data status	okinstallation	B6 Nyhavnadifferential loss correction	single-endedforward channel	channel 2reverse channel	N/Adate	2023/12/10time	07:05:08forward acquisition time	300,00reverse acquisition time	0,00gamma	499,1914k internal	0,3124k external	0,3124temperature offset calibration	1,0000default loss term (dB/km)	0,3820temperature slope calibration	1,0000multiplexer offset coefficient	1,0000multiplexer slope coefficient	1,0000fibre end	0,00T internal ref (°C)	22,62T ext. ref 1 (°C)	6,33T ext. ref 2 (°C)	6,32length (m)	temperature (°C)	Stokes	anti-Stokes-744,400	353,759	0,096	-0,143
-743,385	12,320	-0,190	0,109
-742,371	-11,016	0,063	-0,031
-741,356	3,957	-0,165	0,090
-740,342	800,000	0,032	0,088
-739,327	-24,347	-0,182	0,080
-738,312	198,310	0,139	0,158
-737,298	-40,416	-0,253	0,097
-736,283	144,206	0,066	-0,066
-735,269	-55,890	-0,310	0,103
-734,254	-200,000	-0,008	0,044
-733,239	-176,128	-0,326	-0,006
-732,225	-200,000	0,026	0,095
-731,210	-81,578	-0,056	-0,014
-730,196	153,600	0,059	0,061
-729,181	-21,440	0,037	0,017
-728,167	50,338	0,040	-0,028
-727,152	-200,000	-0,008	0,037
-726,137	-98,865	-0,106	0,020
-725,123	54,687	-0,078	0,056
-724,108	-164,672	-0,058	-0,002
-723,094	534,710	-0,047	-0,083
-722,079	800,000	0,037	-0,098
-721,064	-200,000	-0,009	-0,079
-720,050	61,068	-0,062	0,046
-719,035	700,997	0,031	-0,061
-718,021	-200,000	-0,000	0,022
-717,006	18,520	-0,083	-0,049
-715,991	264,272	-0,103	-0,134
-714,977	-200,000	0,012	-0,094
-713,962	150,533	-0,077	-0,078
-712,948	-18,792	-0,031	0,014
-711,933	218,378	0,080	-0,096
-710,918	-200,000	-0,022	-0,119
-709,904	-51,187	-0,059	0,020
-708,889	221,244	-0,008	-0,010
-707,875	-200,000	0,025	-0,105
-706,860	-68,957	0,041	-0,012
-705,845	89,603	-0,021	-0,018
-704,831	158,506	-0,080	0,083
-703,816	103,566	-0,062	0,054
-702,802	-98,079	-0,135	-0,026
-701,787	241,162	-0,073	-0,090
-700,772	-200,000	-0,003	-0,022
-699,758	800,000	-0,038	0,082
-698,743	-200,000	0,005	0,019
-697,729	-141,552	0,104	0,008
-696,714	800,000	-0,046	-0,110
-695,699	291,647	0,045	-0,061
-694,685	-200,000	0,014	-0,114
-693,670	-200,000	-0,003	0,015
-692,656	-114,786	0,049	0,007
-691,641	-89,920	-0,110	0,024
-690,627	-88,762	0,100	-0,022
-689,612	-145,980	-0,061	-0,004
-688,597	-200,000	-0,005	-0,056
-687,583	236,266	-0,093	-0,114
-686,568	67,760	-0,073	0,056
-685,554	733,860	0,047	-0,094
-684,539	-31,025	0,101	0,042
-683,524	800,000	-0,038	-0,103
-682,510	788,577	0,049	-0,100
-681,495	800,000	-0,037	-0,112
-680,481	-200,000	-0,021	0,078
-679,466	365,993	0,099	-0,149
-678,451	269,891	-0,015	-0,020
-677,437	-200,000	0,022	-0,137
-676,422	800,000	-0,008	-0,021
-675,408	387,327	0,057	0,087
-674,393	-200,000	-0,016	0,110
-673,378	19,568	0,027	0,016
-672,364	90,243	-0,063	-0,053
-671,349	-141,298	-0,128	0,010
-670,335	443,462	-0,060	-0,097
-669,320	-50,423	-0,136	-0,047
-668,305	-96,634	-0,097	-0,019
-667,291	-200,000	0,007	-0,035
-666,276	-200,000	-0,011	0,139
-665,262	-57,136	0,098	0,032
-664,247	800,000	0,046	-0,127
-663,232	-200,000	0,019	-0,128
-662,218	-100,245	0,064	-0,012
-661,203	-137,099	0,109	0,009
-660,189	800,000	-0,016	-0,038
-659,174	-200,000	-0,010	-0,073
-658,159	118,473	-0,089	-0,081
-657,145	-131,784	0,111	0,011
-656,130	12,062	0,012	-0,007
-655,116	21,399	-0,074	-0,045
-654,101	-177,098	-0,059	-0,001
-653,086	-198,423	-0,148	-0,001
-652,072	-200,000	0,006	0,059
-651,057	80,912	-0,129	-0,103
-650,043	-167,880	-0,150	-0,004
-649,028	60,616	0,129	-0,095
-648,014	379,188	-0,045	-0,069
-646,999	4,274	0,137	-0,074
-645,984	-135,703	-0,147	-0,013
-644,970	238,965	0,018	0,022
-643,955	-200,000	-0,021	-0,174
-642,941	-200,000	-0,032	-0,142
-641,926	89,043	0,035	0,029
-640,911	800,000	0,032	-0,079
-639,897	44,233	0,070	0,048
-638,882	-126,357	0,041	-0,004
-637,868	-74,479	0,046	0,012
-636,853	185,601	0,024	0,027
-635,838	-200,000	-0,009	0,063
-634,824	141,333	-0,103	-0,101
-633,809	49,500	-0,121	0,084
-632,795	83,101	-0,048	-0,039
-631,780	226,182	0,055	-0,067
-630,765	22,003	-0,079	-0,047
-629,751	-200,000	0,026	-0,189
-628,736	105,959	0,046	0,041
-627,722	89,059	-0,030	0,025
-626,707	246,630	-0,070	-0,087
-625,692	800,000	0,083	0,194
-624,678	57,461	0,093	0,067
-623,663	-4,058	0,042	0,021
-622,649	42,020	0,035	-0,024
-621,634	-200,000	0,012	0,041
-620,619	90,651	-0,089	0,074
-619,605	487,487	0,047	0,081
-618,590	-129,857	0,136	-0,014
-617,576	-30,455	-0,068	0,028
-616,561	-200,000	-0,085	0,000
-615,546	-21,035	-0,063	-0,028
-614,532	340,995	0,066	-0,096
-613,517	-200,000	0,063	-0,217
-612,503	-56,263	-0,098	-0,032
-611,488	70,817	0,086	0,066
-610,474	153,289	0,081	0,082
-609,459	-54,255	-0,199	0,066
-608,444	48,304	-0,070	-0,048
-607,430	800,000	0,012	-0,035
-606,415	-200,000	-0,009	-0,110
-605,401	800,000	-0,027	0,073
-604,386	-62,859	0,115	-0,035
-603,371	-113,989	0,103	0,015
-602,357	800,000	0,018	-0,037
-601,342	-95,504	-0,108	-0,021
-600,328	84,133	-0,050	0,040
-599,313	-200,000	-0,008	-0,092
-598,298	790,443	0,048	0,099
-597,284	-109,347	-0,164	-0,025
-596,269	93,684	0,059	-0,049
-595,255	-200,000	-0,027	0,096
-594,240	-167,764	-0,084	0,002
-593,225	475,456	-0,047	-0,079
-592,211	-22,187	-0,084	-0,038
-591,196	800,000	0,052	-0,134
-590,182	800,000	-0,031	0,093
-589,167	-48,203	0,050	-0,018
-588,152	800,000	0,060	0,143
-587,138	171,452	-0,114	0,122
-586,123	800,000	-0,050	-0,162
-585,109	-112,820	-0,029	-0,004
-584,094	213,316	0,046	0,053
-583,079	14,925	-0,035	-0,020
-582,065	-200,000	-0,019	0,092
-581,050	-127,371	-0,127	0,014
-580,036	-128,771	0,073	-0,008
-579,021	-65,065	0,112	-0,033
-578,006	-200,000	0,026	-0,100
-576,992	-98,741	-0,121	-0,023
-575,977	266,217	0,062	0,081
-574,963	196,257	-0,009	0,010
-573,948	734,031	-0,034	-0,068
-572,934	81,177	0,106	-0,085
-571,919	-74,895	0,085	-0,022
-570,904	-111,756	-0,116	-0,017
-569,890	-100,924	0,033	-0,006
-568,875	-200,000	0,028	0,115
-567,861	-200,000	-0,017	0,107
-566,846	247,898	-0,055	0,069
-565,831	-200,000	0,020	0,090
-564,817	100,974	-0,054	0,047
-563,802	41,011	-0,148	-0,099
-562,788	-200,000	-0,027	-0,120
-561,773	-200,000	0,017	0,078
-560,758	-50,008	0,013	-0,005
-559,744	800,000	-0,027	0,077
-558,729	82,031	-0,041	-0,033
-557,715	800,000	0,029	-0,091
-556,700	800,000	-0,042	-0,105
-555,685	-200,000	0,003	0,091
-554,671	-3,577	0,029	-0,015
-553,656	197,178	-0,052	0,058
-552,642	102,582	0,066	-0,057
-551,627	-200,000	0,004	-0,077
-550,612	-200,000	0,010	-0,137
-549,598	260,717	-0,106	-0,136
-548,583	800,000	0,057	-0,155
-547,569	-200,000	-0,006	-0,021
-546,554	-78,459	-0,022	-0,005
-545,539	329,029	0,017	0,024
-544,525	-200,000	-0,019	0,094
-543,510	483,467	0,042	-0,071
-542,496	-200,000	-0,049	-0,169
-541,481	-200,000	-0,018	-0,202
-540,466	-200,000	-0,099	0,000
-539,452	-200,000	-0,006	0,047
-538,437	-42,152	0,074	0,028
-537,423	800,000	-0,023	0,053
-536,408	28,868	-0,109	-0,068
-535,393	800,000	0,031	-0,070
-534,379	146,209	0,038	0,038
-533,364	190,113	-0,079	0,088
-532,350	800,000	-0,021	0,052
-531,335	-42,958	0,033	-0,012
-530,321	28,828	0,088	-0,055
-529,306	154,228	-0,075	0,076
-528,291	352,476	-0,061	-0,090
-527,277	-54,017	0,035	-0,012
-526,262	-200,000	-0,002	0,015
-525,248	800,000	-0,008	-0,023
-524,233	800,000	-0,035	-0,092
-523,218	-200,000	-0,001	-0,080
-522,204	-149,024	-0,080	0,005
-521,189	-109,366	-0,217	0,034
-520,175	-170,616	-0,134	0,003
-519,160	-200,000	0,025	-0,112
-518,145	19,387	0,048	0,028
-517,131	-200,000	-0,021	0,078
-516,116	-200,000	-0,001	0,078
-515,102	-55,865	0,072	-0,024
-514,087	-200,000	-0,000	-0,067
-513,072	-200,000	-0,005	-0,032
-512,058	-200,000	0,019	0,076
-511,043	800,000	0,041	0,113
-510,029	-43,502	0,055	-0,021
-509,014	6,302	0,085	0,046
-507,999	-87,377	0,053	0,012
-506,985	-136,973	-0,145	0,012
-505,970	-200,000	-0,004	-0,054
-504,956	-124,067	-0,137	-0,016
-503,941	6,017	0,098	-0,053
-502,926	-87,145	-0,082	0,018
-501,912	-40,116	-0,035	-0,013
-500,897	111,861	0,019	-0,017
-499,883	183,213	-0,036	-0,039
-498,868	800,000	-0,057	-0,176
-497,853	-25,214	0,062	0,027
-496,839	-200,000	0,001	0,024
-495,824	35,128	0,031	0,020
-494,810	113,744	0,130	-0,117
-493,795	-23,337	-0,087	0,038
-492,781	-40,517	0,032	0,012
-491,766	103,451	-0,036	-0,031
-490,751	52,484	-0,002	0,001
-489,737	-30,676	0,062	0,026
-488,722	-50,836	-0,092	-0,032
-487,708	-0,494	0,095	-0,049
-486,693	-200,000	-0,015	0,149
-485,678	800,000	-0,053	-0,114
-484,664	-200,000	0,025	-0,094
-483,649	-200,000	0,003	-0,023
-482,635	25,862	-0,089	-0,055
-481,620	-200,000	-0,000	-0,069
-480,605	41,656	0,142	0,095
-479,591	-200,000	0,002	-0,019
-478,576	640,084	-0,068	-0,129
-477,562	333,555	-0,114	-0,163
-476,547	8,449	-0,062	-0,034
-475,532	622,349	-0,047	-0,087
-474,518	-110,195	0,017	-0,003
-473,503	394,964	0,025	0,039
-472,489	240,352	-0,058	0,071
-471,474	-200,000	0,019	0,212
-470,459	-5,896	-0,058	-0,029
-469,445	-58,303	0,038	0,012
-468,430	-66,098	0,052	-0,015
-467,416	4,017	-0,014	-0,007
-466,401	-82,957	0,087	0,020
-465,386	134,698	-0,041	-0,040
-464,372	-6,044	0,022	0,011
-463,357	63,427	0,042	0,031
-462,343	-4,115	-0,088	0,045
-461,328	-200,000	-0,005	-0,049
-460,313	-133,577	-0,076	0,007
-459,299	227,364	-0,038	0,046
-458,284	209,318	-0,022	-0,025
-457,270	-63,685	-0,054	0,016
-456,255	128,649	0,013	-0,012
-455,241	84,460	0,149	-0,120
-454,226	783,128	-0,081	-0,165
-453,211	800,000	0,057	-0,137
-452,197	-5,502	-0,057	-0,029
-451,182	-200,000	-0,015	0,066
-450,168	800,000	-0,046	0,123
-449,153	-162,532	-0,070	0,003
-448,138	187,724	-0,085	-0,093
-447,124	800,000	-0,007	0,017
-446,109	43,806	-0,091	0,061
-445,095	292,865	-0,101	0,136
-444,080	423,086	-0,034	-0,054
-443,065	205,197	0,015	-0,017
-442,051	-23,568	0,029	-0,013
-441,036	167,246	-0,050	-0,052
-440,022	-33,334	-0,129	0,052
-439,007	291,490	-0,042	0,057
-437,992	-114,988	0,120	0,017
-436,978	44,948	-0,049	0,033
-435,963	-200,000	-0,031	0,105
-434,949	800,000	0,003	-0,008
-433,934	-3,748	-0,087	0,044
-432,919	-200,000	-0,011	-0,043
-431,905	73,453	0,049	0,037
-430,890	-73,403	0,078	-0,021
-429,876	361,116	-0,019	-0,028
-428,861	-200,000	0,025	0,093
-427,846	117,152	-0,039	-0,035
-426,832	308,435	0,102	-0,140
-425,817	-51,505	-0,050	-0,017
-424,803	540,729	0,073	-0,128
-423,788	131,921	-0,098	-0,093
-422,773	800,000	0,029	0,066
-421,759	255,387	0,066	-0,083
-420,744	800,000	-0,057	0,120
-419,730	-33,254	0,079	-0,032
-418,715	-200,000	-0,034	-0,178
-417,701	242,620	-0,044	-0,054
-416,686	-200,000	0,016	-0,149
-415,671	-200,000	-0,000	-0,081
-414,657	121,155	0,164	0,150
-413,642	-2,267	0,073	-0,037
-412,628	-200,000	-0,037	-0,179
-411,613	-200,000	-0,036	-0,159
-410,598	-200,000	-0,004	-0,019
-409,584	81,608	-0,053	-0,042
-408,569	-88,873	0,041	0,009
-407,555	-200,000	0,051	-0,169
-406,540	73,651	0,078	0,060
-405,525	-67,401	0,021	-0,006
-404,511	-65,165	0,085	0,025
-403,496	762,607	0,014	0,029
-402,482	467,642	0,014	-0,023
-401,467	322,464	0,074	0,104
-400,452	-12,913	0,073	0,035
-399,438	-200,000	0,000	0,090
-398,423	-25,365	0,048	0,021
-397,409	304,125	-0,022	-0,031
-396,394	73,282	-0,171	-0,132
-395,379	800,000	0,010	0,030
-394,365	-96,040	0,099	-0,019
-393,350	-12,456	0,115	0,055
-392,336	800,000	0,035	0,091
-391,321	23,774	-0,074	0,045
-390,306	143,671	0,046	0,045
-389,292	-104,103	0,110	0,019
-388,277	-200,000	-0,012	0,164
-387,263	627,139	-0,060	0,112
-386,248	658,361	0,023	0,043
-385,233	591,977	0,045	0,082
-384,219	-200,000	-0,015	-0,102
-383,204	201,000	-0,055	-0,062
-382,190	256,914	-0,035	0,044
-381,175	39,094	0,055	0,036
-380,160	137,890	-0,088	0,085
-379,146	-200,000	-0,001	-0,149
-378,131	-200,000	0,029	-0,098
-377,117	240,348	-0,064	-0,078
-376,102	341,663	-0,040	-0,057
-375,088	-111,564	-0,100	0,015
-374,073	-126,047	-0,115	0,013
-373,058	-82,138	0,141	0,034
-372,044	-42,691	0,088	0,033
-371,029	19,646	-0,090	0,053
-370,015	-34,375	0,031	0,012
-369,000	39,895	-0,096	-0,063
-367,985	-119,576	-0,151	-0,019
-366,971	582,541	0,045	-0,082
-365,956	393,131	0,038	-0,059
-364,942	679,201	-0,029	0,057
-363,927	-200,000	-0,011	0,152
-362,912	-34,692	0,089	-0,036
-361,898	-58,952	-0,087	0,027
-360,883	-200,000	-0,006	-0,077
-359,869	159,781	-0,012	-0,013
-358,854	163,351	0,117	0,120
-357,839	-200,000	0,046	0,175
-356,825	263,265	0,045	-0,057
-355,810	800,000	0,105	0,216
-354,796	-200,000	0,001	-0,042
-353,781	-184,521	-0,110	-0,001
-352,766	-200,000	0,005	0,053
-351,752	-200,000	0,002	-0,024
-350,737	-200,000	-0,011	-0,094
-349,723	106,563	0,080	0,070
-348,708	800,000	-0,035	0,108
-347,693	394,958	-0,014	-0,022
-346,679	241,336	-0,074	-0,090
-345,664	112,103	-0,083	-0,074
-344,650	-33,240	-0,056	0,023
-343,635	290,232	0,052	0,070
-342,620	83,026	0,029	-0,023
-341,606	-126,917	0,060	0,006
-340,591	188,678	0,092	0,101
-339,577	-165,517	0,172	-0,005
-338,562	302,442	0,042	-0,057
-337,548	436,386	-0,037	-0,060
-336,533	302,274	0,064	0,087
-335,518	-200,000	-0,013	0,084
-334,504	800,000	0,032	0,092
-333,489	103,257	-0,102	0,087
-332,475	90,284	0,037	0,031
-331,460	-200,000	0,001	0,050
-330,445	800,000	0,046	-0,118
-329,431	-128,958	0,073	-0,007
-328,416	800,000	0,061	0,129
-327,402	-200,000	0,001	0,027
-326,387	519,412	0,083	0,143
-325,372	101,074	-0,032	0,028
-324,358	-200,000	0,042	-0,146
-323,343	-9,007	-0,059	0,029
-322,329	52,119	0,115	-0,081
-321,314	713,897	0,028	0,055
-320,299	309,299	0,121	0,167
-319,285	412,295	0,023	0,036
-318,270	19,955	-0,097	0,057
-317,256	-200,000	0,006	0,039
-316,241	-138,422	-0,018	-0,001
-315,226	114,507	0,034	0,030
-314,212	11,231	0,117	-0,065
-313,197	-200,000	-0,006	-0,091
-312,183	-120,227	0,130	0,016
-311,168	-87,584	-0,100	-0,022
-310,153	-200,000	0,005	-0,046
-309,139	57,020	-0,077	0,055
-308,124	-67,401	0,088	0,025
-307,110	49,284	0,127	-0,088
-306,095	-80,243	0,065	-0,016
-305,080	-59,655	-0,125	0,039
-304,066	-122,822	-0,145	0,017
-303,051	-54,693	-0,127	-0,042
-302,037	100,080	-0,041	0,034
-301,022	800,000	0,052	0,128
-300,008	800,000	-0,033	0,081
-298,993	-129,421	0,166	0,017
-297,978	800,000	-0,049	0,142
-296,964	-150,249	-0,084	0,005
-295,949	435,842	0,066	-0,105
-294,935	800,000	-0,046	-0,137
-293,920	800,000	-0,026	0,065
-292,905	640,331	0,016	0,031
-291,891	167,517	-0,066	-0,069
-290,876	-200,000	0,035	0,148
-289,862	32,050	-0,098	0,062
-288,847	-200,000	0,023	-0,109
-287,832	-200,000	-0,028	-0,146
-286,818	209,960	0,052	0,060
-285,803	800,000	0,079	0,170
-284,789	274,250	-0,052	-0,067
-283,774	262,450	0,042	0,054
-282,759	-200,000	0,015	-0,054
-281,745	437,839	-0,071	-0,113
-280,730	-41,359	0,058	-0,022
-279,716	-24,797	0,036	0,015
-278,701	39,315	0,153	0,100
-277,686	26,259	0,125	0,076
-276,672	800,000	-0,016	0,041
-275,657	-49,914	0,087	-0,030
-274,643	138,455	-0,100	-0,096
-273,628	-82,102	0,021	-0,005
-272,613	800,000	0,009	-0,025
-271,599	-116,755	0,075	0,010
-270,584	153,895	0,129	0,130
-269,570	-41,228	0,094	-0,035
-268,555	-200,000	0,001	-0,123
-267,540	-200,000	-0,036	-0,117
-266,526	-200,000	-0,014	0,071
-265,511	5,335	0,108	-0,058
-264,497	-200,000	-0,003	-0,038
-263,482	371,612	-0,014	0,020
-262,467	-200,000	-0,029	0,143
-261,453	30,224	-0,086	0,053
-260,438	-200,000	0,015	-0,103
-259,424	-200,000	-0,002	-0,047
-258,409	139,925	0,074	0,072
-257,395	-200,000	0,016	0,081
-256,380	-30,909	-0,057	-0,024
-255,365	-200,000	0,045	-0,187
-254,351	226,936	0,094	-0,112
-253,336	-71,030	0,067	0,018
-252,322	16,109	-0,047	-0,027
-251,307	-143,979	-0,045	0,003
-250,292	26,119	0,104	0,063
-249,278	170,216	0,031	0,033
-248,263	-142,484	-0,078	0,006
-247,249	135,890	-0,040	0,038
-246,234	-90,069	-0,052	-0,011
-245,219	-110,782	-0,113	-0,017
-244,205	800,000	-0,015	-0,033
-243,190	-120,609	-0,127	0,016
-242,176	800,000	0,038	-0,081
-241,161	-200,000	0,016	0,149
-240,146	-14,472	0,151	0,071
-239,132	139,213	0,027	0,026
-238,117	-107,760	-0,022	-0,004
-237,103	-75,058	-0,128	0,033
-236,088	49,589	0,112	0,077
-235,073	800,000	-0,035	0,104
-234,059	-200,000	0,004	-0,017
-233,044	-83,925	0,078	-0,018
-232,030	445,407	0,021	-0,033
-231,015	800,000	-0,028	0,063
-230,000	-200,000	-0,007	0,034
-228,986	456,806	0,059	0,096
-227,971	158,353	0,049	0,049
-226,957	-163,148	0,042	0,001
-225,942	-22,041	-0,045	0,020
-224,927	-126,120	-0,023	0,003
-223,913	521,532	0,033	-0,057
-222,898	537,670	0,032	0,055
-221,884	800,000	-0,022	0,048
-220,869	366,314	-0,030	0,044
-219,855	-100,144	0,042	0,008
-218,840	41,516	0,034	0,023
-217,825	102,982	0,084	0,072
-216,811	84,970	-0,050	-0,040
-215,796	-200,000	-0,003	-0,098
-214,782	113,657	0,041	0,037
-213,767	82,754	0,007	0,006
-212,752	31,729	-0,045	0,028
-211,738	130,622	-0,093	0,087
-210,723	800,000	0,049	0,109
-209,709	-12,961	-0,153	0,072
-208,694	492,515	-0,042	0,070
-207,679	320,603	0,025	-0,035
-206,665	800,000	-0,036	0,108
-205,650	800,000	0,028	0,058
-204,636	115,240	0,107	0,095
-203,621	210,210	0,097	-0,111
-202,606	-24,094	0,050	-0,022
-201,592	-200,000	0,017	-0,144
-200,577	-193,879	-0,102	-0,001
-199,563	148,560	0,106	0,105
-198,548	-200,000	0,010	0,168
-197,533	-128,700	0,070	0,007
-196,519	-81,036	0,105	-0,025
-195,504	-93,534	-0,013	-0,003
-194,490	800,000	-0,052	-0,129
-193,475	-65,953	0,067	-0,019
-192,460	-27,551	-0,051	-0,022
-191,446	800,000	0,030	0,096
-190,431	800,000	0,033	-0,073
-189,417	-200,000	0,003	0,012
-188,402	-200,000	0,005	-0,030
-187,387	-18,730	-0,075	-0,034
-186,373	-13,884	0,030	0,014
-185,358	60,190	-0,126	-0,091
-184,344	-95,219	0,057	0,011
-183,329	-33,671	-0,044	-0,017
-182,315	-200,000	-0,017	0,077
-181,300	-152,892	-0,051	-0,003
-180,285	-200,000	0,003	0,087
-179,271	-200,000	0,002	-0,068
-178,256	-200,000	0,008	-0,059
-177,242	-200,000	0,001	-0,082
-176,227	-35,393	0,044	0,018
-175,212	-58,193	0,088	0,028
-174,198	124,994	-0,051	0,047
-173,183	800,000	-0,052	0,110
-172,169	-200,000	0,020	-0,144
-171,154	-89,639	0,020	0,004
-170,139	-200,000	-0,005	0,033
-169,125	34,672	0,040	0,025
-168,110	-200,000	-0,024	0,079
-167,096	-131,864	-0,032	-0,003
-166,081	-74,536	-0,116	0,030
-165,066	146,563	0,042	-0,041
-164,052	73,748	-0,134	-0,102
-163,037	269,154	0,032	0,041
-162,023	-19,311	0,047	0,021
-161,008	97,721	-0,149	0,125
-159,993	-130,180	-0,107	0,011
-158,979	-200,000	0,013	0,066
-157,964	-200,000	-0,001	0,168
-156,950	-200,000	0,002	0,019
-155,935	152,127	0,061	-0,060
-154,920	195,228	0,135	0,149
-153,906	-170,103	0,027	0,001
-152,891	-200,000	-0,030	0,106
-151,877	-200,000	0,004	0,017
-150,862	-18,096	-0,056	0,026
-149,847	469,799	-0,060	-0,098
-148,833	-200,000	0,010	0,071
-147,818	-200,000	0,003	-0,019
-146,804	352,181	0,039	0,056
-145,789	-89,507	-0,119	0,025
-144,775	800,000	0,014	-0,029
-143,760	800,000	0,050	-0,104
-142,745	476,194	0,017	-0,028
-141,731	-193,925	0,135	0,001
-140,716	134,385	0,143	-0,135
-139,702	800,000	-0,014	0,036
-138,687	372,274	-0,050	-0,074
-137,672	83,298	-0,040	-0,031
-136,658	-200,000	-0,148	0,000
-135,643	-93,189	-0,036	-0,007
-134,629	-169,004	0,129	-0,003
-133,614	110,094	0,119	0,104
-132,599	-112,429	0,050	0,007
-131,585	800,000	0,025	0,070
-130,570	-200,000	-0,013	-0,079
-129,556	-200,000	0,005	0,059
-128,541	-200,000	0,020	-0,092
-127,526	12,046	-0,061	0,034
-126,512	-161,687	0,154	-0,006
-125,497	800,000	0,004	-0,010
-124,483	-200,000	0,001	0,180
-123,468	260,627	-0,088	0,111
-122,453	-200,000	-0,006	-0,047
-121,439	-122,990	-0,025	0,003
-120,424	249,088	0,082	-0,102
-119,410	559,935	-0,024	-0,043
-118,395	-179,027	-0,089	0,001
-117,380	449,934	0,044	0,071
-116,366	434,149	0,013	0,020
-115,351	-73,110	-0,110	-0,029
-114,337	-200,000	0,001	0,031
-113,322	19,293	-0,057	-0,033
-112,307	143,129	0,089	0,086
-111,293	-200,000	0,010	0,067
-110,278	113,203	0,095	-0,084
-109,264	-135,228	0,066	0,006
-108,249	-42,806	-0,119	-0,044
-107,234	32,144	-0,203	-0,127
-106,220	-20,357	0,037	0,017
-105,205	155,141	-0,039	0,039
-104,191	137,309	-0,014	-0,013
-103,176	-51,603	0,078	0,026
-102,162	29,589	0,124	0,076
-101,147	108,389	-0,110	-0,096
-100,132	351,299	-0,082	-0,118
-99,118	-133,929	0,075	-0,007
-98,103	-200,000	0,023	-0,167
-97,089	306,042	0,076	0,102
-96,074	14,117	0,018	-0,010
-95,059	-200,000	0,004	0,069
-94,045	-83,992	-0,106	0,024
-93,030	7,388	-0,040	0,022
-92,016	120,398	-0,056	0,051
-91,001	-100,583	0,155	-0,028
-89,986	705,431	0,036	0,069
-88,972	152,272	0,198	0,196
-87,957	288,621	-0,023	-0,031
-86,943	17,431	0,107	0,062
-85,928	-112,717	-0,141	-0,020
-84,913	-200,000	-0,011	0,041
-83,899	-200,000	0,011	-0,172
-82,884	70,573	0,119	0,089
-81,870	800,000	0,061	0,153
-80,855	96,014	0,027	0,022
-79,840	-200,000	0,006	-0,051
-78,826	29,828	0,019	0,012
-77,811	497,272	-0,067	0,112
-76,797	401,692	-0,072	0,111
-75,782	-24,399	-0,087	-0,038
-74,767	800,000	0,083	-0,177
-73,753	800,000	0,031	0,074
-72,738	-59,563	0,076	-0,024
-71,724	156,216	-0,097	0,098
-70,709	-102,171	0,028	-0,005
-69,694	22,737	0,170	-0,101
-68,680	219,279	0,152	0,177
-67,665	441,735	0,016	-0,025
-66,651	-16,508	-0,027	-0,012
-65,636	-70,735	0,087	0,024
-64,622	800,000	-0,038	-0,086
-63,607	704,064	-0,018	-0,034
-62,592	-200,000	0,005	0,046
-61,578	-13,819	0,132	0,062
-60,563	800,000	0,036	0,082
-59,549	-12,772	-0,113	-0,053
-58,534	-104,561	-1,451	-0,241
-57,519	800,000	-0,745	-1,735
-56,505	-200,000	-0,787	-4,494
-55,490	-54,921	0,568	-0,185
-54,476	800,000	5,002	12,003
-53,461	-200,000	13,322	253,140
-52,446	-200,000	689,049	2269,913
-51,432	596,113	1623,464	2927,932
-50,417	120,876	1636,421	1476,354
-49,403	73,559	1290,714	979,534
-48,388	38,447	1025,210	661,490
-47,373	24,581	982,710	588,459
-46,359	23,805	972,564	579,813
-45,344	22,867	968,239	574,146
-44,330	22,820	966,713	573,066
-43,315	22,678	965,457	571,835
-42,300	22,648	964,346	571,057
-41,286	22,653	963,366	570,470
-40,271	22,621	962,516	569,839
-39,257	22,635	961,476	569,245
-38,242	22,641	960,657	568,758
-37,227	22,634	959,887	568,259
-36,213	22,620	959,005	567,667
-35,198	22,599	958,194	567,096
-34,184	22,680	957,394	566,864
-33,169	22,639	956,533	566,197
-32,154	22,638	955,730	565,697
-31,140	22,652	954,606	565,056
-30,125	22,680	953,960	564,740
-29,111	22,671	953,045	564,146
-28,096	22,618	952,594	563,688
-27,082	22,681	951,786	563,390
-26,067	22,669	950,913	562,811
-25,052	22,632	950,176	562,234
-24,038	22,654	949,522	561,897
-23,023	22,696	948,898	561,638
-22,009	22,714	948,309	561,326
-20,994	22,638	947,701	560,700
-19,979	22,709	947,044	560,516
-18,965	22,701	946,490	560,141
-17,950	22,688	945,778	559,655
-16,936	22,596	945,119	558,949
-15,921	22,620	944,485	558,630
-14,906	22,518	943,809	557,880
-13,892	22,616	942,923	557,646
-12,877	22,543	942,421	557,095
-11,863	22,541	941,850	556,731
-10,848	22,580	941,334	556,528
-9,833	22,672	940,822	556,494
-8,819	22,565	940,216	555,775
-7,804	22,518	939,644	555,264
-6,790	22,551	939,012	554,975
-5,775	22,610	938,413	554,786
-4,760	22,604	937,694	554,318
-3,746	22,540	937,211	553,809
-2,731	22,441	936,346	552,963
-1,717	22,407	935,763	552,489
-0,702	22,353	935,036	551,870
0,313	22,213	934,430	551,903
1,327	25,252	932,310	560,160
2,342	34,791	796,660	504,070
3,356	32,749	451,834	282,788
4,371	1,861	293,569	152,951
5,386	-2,820	274,564	138,610
6,400	-4,028	268,599	134,468
7,415	-4,491	266,342	132,900
8,429	-4,417	265,243	132,408
9,444	-4,240	264,404	132,138
10,459	-4,136	263,693	131,866
11,473	-4,334	263,254	131,455
12,488	-4,360	262,607	131,097
13,502	-4,474	261,993	130,676
14,517	-4,310	261,682	130,657
15,531	-4,204	261,141	130,470
16,546	-4,169	260,899	130,369
17,561	-4,270	260,661	130,149
18,575	-4,263	260,285	129,955
19,590	-4,227	259,777	129,722
20,604	-4,242	259,646	129,632
21,619	-4,344	259,329	129,371
22,634	-4,274	258,906	129,211
23,648	-4,296	258,662	129,058
24,663	-4,261	258,320	128,907
25,677	-4,415	258,127	128,662
26,692	-4,395	257,915	128,563
27,707	-4,340	257,662	128,474
28,721	-4,161	257,260	128,421
29,736	-4,338	257,032	128,139
30,750	-4,372	256,870	128,017
31,765	-4,425	256,555	127,801
32,780	-4,398	256,421	127,746
33,794	-4,161	256,122	127,795
34,809	-4,408	256,017	127,514
35,823	-4,420	255,664	127,316
36,838	-4,512	255,440	127,113
37,853	-4,430	255,228	127,068
38,867	-4,432	254,975	126,928
39,882	-4,501	254,899	126,819
40,896	-4,511	254,594	126,647
41,911	-4,493	254,270	126,490
42,926	-4,539	254,189	126,399
43,940	-4,526	253,793	126,202
44,955	-4,395	253,708	126,262
45,969	-4,498	253,363	125,990
46,984	-4,632	253,088	125,725
47,999	-4,847	252,970	125,468
49,013	-4,919	252,636	125,229
50,028	-5,229	252,467	124,865
51,042	-5,195	252,244	124,773
52,057	-5,262	251,883	124,526
53,071	-5,207	251,868	124,555
54,086	-5,115	251,664	124,522
55,101	-5,002	251,404	124,480
56,115	-4,609	251,295	124,755
57,130	-4,332	251,287	124,978
58,144	-4,079	251,095	125,090
59,159	-4,207	250,785	124,815
60,174	-4,229	250,685	124,735
61,188	-4,191	250,427	124,628
62,203	-4,222	250,246	124,500
63,217	-4,281	249,946	124,289
64,232	-4,317	249,765	124,156
65,247	-4,359	249,577	124,016
66,261	-4,441	249,395	123,845
67,276	-4,378	248,920	123,651
68,290	-4,366	248,748	123,565
69,305	-4,705	248,555	123,170
70,320	-4,775	248,425	123,034
71,334	-4,598	248,311	123,117
72,349	-4,274	248,131	123,293
73,363	-4,263	247,820	123,136
74,378	-4,228	247,789	123,140
75,393	-4,238	247,536	122,995
76,407	-4,311	247,299	122,804
77,422	-4,398	247,185	122,664
78,436	-4,303	246,967	122,625
79,451	-4,436	246,853	122,444
80,466	-4,230	246,455	122,410
81,480	-4,391	246,215	122,144
82,495	-4,533	245,990	121,901
83,509	-4,644	245,989	121,797
84,524	-4,637	245,674	121,635
85,539	-4,750	245,530	121,459
86,553	-4,703	245,407	121,426
87,568	-4,613	245,167	121,373
88,582	-4,694	244,947	121,185
89,597	-4,729	244,856	121,100
90,611	-4,518	244,727	121,202
91,626	-4,360	244,501	121,211
92,641	-4,515	244,300	120,971
93,655	-4,520	244,117	120,866
94,670	-4,321	243,993	120,960
95,684	-4,561	243,616	120,562
96,699	-4,474	243,498	120,565
97,714	-4,458	243,239	120,440
98,728	-4,598	243,096	120,242
99,743	-4,740	242,904	120,018
100,757	-4,882	242,707	119,791
101,772	-4,665	242,571	119,894
102,787	-4,672	242,318	119,753
103,801	-4,547	242,223	119,799
104,816	-4,320	242,147	119,938
105,830	-4,563	242,099	119,703
106,845	-4,255	241,759	119,779
107,860	-4,356	241,666	119,639
108,874	-4,424	241,331	119,406
109,889	-4,424	241,215	119,337
110,903	-4,489	240,901	119,118
111,918	-4,559	240,828	119,014
112,933	-4,501	240,589	118,933
113,947	-4,365	240,459	118,970
114,962	-4,285	240,349	118,970
115,976	-4,494	240,257	118,742
116,991	-4,369	240,022	118,718
118,006	-4,396	239,953	118,651
119,020	-4,369	239,679	118,528
120,035	-4,469	239,588	118,391
121,049	-4,235	239,403	118,479
122,064	-4,297	239,314	118,374
123,079	-4,420	238,954	118,085
124,093	-4,440	238,748	117,956
125,108	-4,657	238,475	117,634
126,122	-4,839	238,375	117,427
127,137	-4,696	238,169	117,431
128,151	-4,967	238,047	117,140
129,166	-4,504	237,809	117,388
130,181	-5,007	237,647	116,890
131,195	-4,675	237,493	117,073
132,210	-4,493	237,350	117,140
133,224	-4,434	237,206	117,105
134,239	-4,453	237,124	117,039
135,254	-4,273	236,810	117,019
136,268	-4,496	236,606	116,728
137,283	-4,900	236,430	116,305
138,297	-4,760	236,141	116,265
139,312	-4,857	236,044	116,129
140,327	-4,610	235,977	116,284
141,341	-4,127	235,869	116,610
142,356	-4,199	235,877	116,545
143,370	-3,981	235,567	116,557
144,385	-4,060	235,446	116,423
145,400	-3,991	235,236	116,364
146,414	-3,992	235,113	116,292
147,429	-4,140	234,874	116,044
148,443	-4,282	234,751	115,860
149,458	-4,040	234,515	115,927
150,473	-4,096	234,389	115,810
151,487	-4,323	234,273	115,561
152,502	-4,238	234,127	115,546
153,516	-4,059	233,910	115,571
154,531	-4,039	233,781	115,513
155,546	-4,063	233,571	115,380
156,560	-4,345	233,311	115,017
157,575	-4,294	233,289	115,036
158,589	-4,379	233,003	114,818
159,604	-4,173	232,999	114,969
160,619	-4,030	232,783	114,966
161,633	-3,952	232,693	114,972
162,648	-3,905	232,415	114,862
163,662	-4,121	232,417	114,682
164,677	-4,269	232,170	114,433
165,692	-4,142	231,960	114,419
166,706	-3,877	231,856	114,567
167,721	-4,071	231,836	114,394
168,735	-4,147	231,773	114,292
169,750	-3,946	231,345	114,230
170,764	-4,039	231,325	114,136
171,779	-4,244	231,183	113,895
172,794	-3,999	230,959	113,967
173,808	-4,196	230,831	113,739
174,823	-4,498	230,530	113,344
175,837	-4,632	230,437	113,183
176,852	-4,258	230,223	113,361
177,867	-4,099	230,294	113,510
178,881	-4,122	230,197	113,434
179,896	-3,967	229,935	113,416
180,910	-3,988	229,660	113,254
181,925	-4,197	229,469	112,986
182,940	-4,060	229,361	113,030
183,954	-4,130	229,221	112,897
184,969	-4,039	229,088	112,892
185,983	-3,917	229,064	112,965
186,998	-3,891	228,871	112,879
188,013	-3,930	228,557	112,684
189,027	-3,980	228,519	112,617
190,042	-3,774	228,323	112,670
191,056	-3,839	228,179	112,538
192,071	-3,740	227,922	112,478
193,086	-4,097	227,814	112,139
194,100	-3,955	227,741	112,203
195,115	-4,440	227,411	111,655
196,129	-4,535	227,026	111,384
197,144	-2,268	227,937	113,573
198,159	1,372	229,043	116,937
199,173	4,030	229,598	119,272
200,188	4,318	229,537	119,452
201,202	4,499	229,323	119,470
202,217	4,371	229,344	119,371
203,232	4,662	229,066	119,441
204,246	4,684	229,034	119,430
205,261	4,863	228,944	119,511
206,275	4,806	228,857	119,411
207,290	4,941	228,636	119,390
208,304	4,818	228,522	119,224
209,319	4,717	228,293	119,017
210,334	4,711	228,170	118,937
211,348	4,329	228,063	118,577
212,363	4,229	227,469	118,181
213,377	3,931	227,364	117,888
214,392	4,058	227,218	117,899
215,407	4,132	227,087	117,877
216,421	4,244	226,873	117,841
217,436	4,092	226,721	117,635
218,450	3,767	226,550	117,288
219,465	3,583	226,441	117,081
220,480	3,642	226,284	117,034
221,494	3,640	226,235	116,997
222,509	3,900	226,151	117,141
223,523	3,808	225,912	116,937
224,538	3,751	225,855	116,854
225,553	4,156	225,441	116,937
226,567	4,080	225,551	116,926
227,582	4,298	225,484	117,045
228,596	4,304	225,448	117,021
229,611	4,091	225,115	116,676
230,626	4,005	224,827	116,452
231,640	3,627	224,756	116,118
232,655	4,153	224,720	116,487
233,669	4,597	224,694	116,799
234,684	4,491	224,611	116,666
235,699	4,346	224,234	116,350
236,713	3,941	224,236	116,035
237,728	4,080	223,842	115,925
238,742	3,979	223,638	115,733
239,757	3,859	223,639	115,634
240,772	3,915	223,273	115,476
241,786	3,852	223,373	115,470
242,801	4,064	223,292	115,577
243,815	4,028	223,290	115,538
244,830	4,479	222,884	115,656
245,844	3,860	222,786	115,132
246,859	3,968	222,742	115,179
247,874	4,216	222,445	115,200
248,888	4,314	222,358	115,218
249,903	4,074	222,302	115,000
250,917	3,928	222,006	114,728
251,932	3,998	221,760	114,643
252,947	3,913	221,566	114,469
253,961	3,700	221,459	114,245
254,976	3,887	221,328	114,307
255,990	3,909	221,415	114,357
257,005	4,291	221,150	114,494
258,020	4,159	221,106	114,363
259,034	4,487	220,985	114,533
260,049	4,377	220,760	114,325
261,063	4,098	220,795	114,126
262,078	4,372	220,590	114,213
263,093	4,333	220,375	114,063
264,107	4,283	220,278	113,965
265,122	4,431	220,108	113,976
266,136	4,449	220,036	113,942
267,151	4,575	219,806	113,906
268,166	4,025	219,580	113,374
269,180	3,738	219,374	113,046
270,195	3,745	219,233	112,968
271,209	3,813	219,169	112,976
272,224	3,652	219,114	112,818
273,239	4,071	218,943	113,028
274,253	4,153	218,591	112,896
275,268	3,848	218,476	112,603
276,282	3,673	218,379	112,415
277,297	3,614	218,121	112,230
278,312	3,632	218,113	112,228
279,326	3,937	217,950	112,357
280,341	4,099	217,726	112,350
281,355	4,000	217,598	112,202
282,370	3,688	217,698	112,016
283,384	3,747	217,255	111,821
284,399	3,538	217,214	111,637
285,414	3,729	216,960	111,636
286,428	3,945	217,068	111,839
287,443	3,995	217,062	111,862
288,457	4,032	216,856	111,773
289,472	3,980	216,572	111,578
290,487	3,719	216,193	111,184
291,501	3,369	216,121	110,884
292,516	3,746	216,107	111,140
293,530	3,529	215,978	110,907
294,545	3,499	215,954	110,863
295,560	3,627	215,802	110,867
296,574	3,666	215,731	110,849
297,589	3,916	215,487	110,894
298,603	3,980	215,282	110,825
299,618	4,167	215,261	110,939
300,633	3,986	215,214	110,775
301,647	4,254	215,122	110,910
302,662	4,348	214,872	110,839
303,676	4,142	214,748	110,617
304,691	4,242	214,662	110,635
305,706	4,279	214,505	110,570
306,720	4,566	214,332	110,677
307,735	4,208	214,108	110,295
308,749	3,872	213,911	109,944
309,764	4,079	213,896	110,074
310,779	4,263	213,889	110,192
311,793	4,195	213,510	109,939
312,808	3,926	213,540	109,752
313,822	4,090	213,324	109,748
314,837	3,714	213,248	109,432
315,852	3,705	212,923	109,248
316,866	3,886	212,876	109,343
317,881	4,025	212,759	109,372
318,895	4,097	212,654	109,360
319,910	4,109	212,381	109,218
320,925	3,458	212,312	108,711
321,939	3,460	212,119	108,604
322,954	3,830	212,012	108,801
323,968	3,937	211,965	108,844
324,983	4,098	211,883	108,906
325,997	4,217	211,634	108,852
327,012	4,085	211,503	108,682
328,027	3,993	211,492	108,602
329,041	4,265	211,452	108,763
330,056	4,381	211,288	108,751
331,070	3,958	210,990	108,290
332,085	3,607	210,932	108,004
333,100	3,883	210,794	108,118
334,114	4,014	210,613	108,107
335,129	3,997	210,520	108,037
336,143	4,038	210,264	107,925
337,158	3,809	210,187	107,716
338,173	4,044	209,995	107,772
339,187	3,860	209,838	107,554
340,202	3,799	209,604	107,381
341,216	3,503	209,457	107,090
342,231	3,781	209,494	107,294
343,246	3,709	209,333	107,151
344,260	3,835	209,237	107,181
345,275	3,819	209,216	107,149
346,289	3,919	209,158	107,179
347,304	4,175	208,840	107,185
348,319	3,949	208,741	106,967
349,333	3,982	208,533	106,874
350,348	4,246	208,382	106,970
351,362	4,206	208,378	106,931
352,377	3,990	208,275	106,719
353,392	3,927	208,182	106,618
354,406	3,751	207,990	106,388
355,421	193,962	1346,445	1434,886
356,435	154,743	1485,257	1435,003
