DTS Sentinel unit serial number:	SN410029Multiplexer serial number:	ORYXHardware model number:	OX2-SRSoftware version number:	ORYX F/W v4,00 Oryx Data Collector v3.7.2.0data status	okinstallation	B6 Nyhavnadifferential loss correction	single-endedforward channel	channel 2reverse channel	N/Adate	2023/12/08time	06:35:08forward acquisition time	300,00reverse acquisition time	0,00gamma	499,1914k internal	0,3165k external	0,3165temperature offset calibration	1,0000default loss term (dB/km)	0,3820temperature slope calibration	1,0000multiplexer offset coefficient	1,0000multiplexer slope coefficient	1,0000fibre end	0,00T internal ref (°C)	13,01T ext. ref 1 (°C)	-3,65T ext. ref 2 (°C)	-3,67length (m)	temperature (°C)	Stokes	anti-Stokes-744,400	-10,905	0,059	0,028
-743,385	-15,525	-0,345	-0,161
-742,371	113,356	0,090	-0,081
-741,356	-152,120	-0,265	0,014
-740,342	-91,726	0,179	-0,037
-739,327	-80,979	-0,342	0,083
-738,312	0,909	-0,021	0,011
-737,298	-52,374	-0,327	-0,111
-736,283	473,286	0,024	0,039
-735,269	-52,717	-0,143	-0,048
-734,254	52,808	0,094	-0,066
-733,239	-31,824	-0,468	-0,192
-732,225	-121,899	0,267	-0,032
-731,210	800,000	0,040	0,103
-730,196	-200,000	0,001	0,102
-729,181	800,000	0,004	-0,008
-728,167	-31,757	0,038	-0,016
-727,152	800,000	-0,022	-0,050
-726,137	-43,291	0,014	0,005
-725,123	-159,724	-0,095	0,004
-724,108	181,080	-0,134	-0,145
-723,094	800,000	-0,048	-0,102
-722,079	123,495	-0,089	-0,082
-721,064	-200,000	-0,023	-0,132
-720,050	202,006	-0,143	0,162
-719,035	206,777	-0,013	0,015
-718,021	23,148	-0,096	-0,058
-717,006	107,919	-0,065	0,057
-715,991	-36,971	-0,110	-0,043
-714,977	800,000	0,045	0,143
-713,962	23,770	0,062	0,037
-712,948	-200,000	-0,021	-0,114
-711,933	268,541	-0,035	-0,045
-710,918	-200,000	0,015	-0,071
-709,904	-200,000	-0,035	-0,151
-708,889	-182,821	-0,082	0,001
-707,875	20,249	-0,057	-0,034
-706,860	-200,000	-0,021	0,122
-705,845	532,015	-0,032	0,055
-704,831	592,255	-0,029	-0,053
-703,816	144,563	0,076	-0,075
-702,802	-21,462	0,077	0,034
-701,787	24,000	-0,089	0,054
-700,772	277,845	0,085	-0,111
-699,758	-121,674	0,025	0,003
-698,743	225,296	0,062	-0,074
-697,729	206,190	0,011	0,013
-696,714	519,093	-0,028	0,048
-695,699	-146,406	-0,046	0,003
-694,685	230,392	0,010	0,013
-693,670	56,257	-0,128	-0,091
-692,656	-45,558	0,071	0,026
-691,641	59,644	-0,024	0,017
-690,627	27,927	0,026	-0,016
-689,612	-200,000	-0,062	-0,264
-688,597	373,251	-0,061	-0,091
-687,583	482,396	-0,048	0,080
-686,568	-87,617	-0,030	0,007
-685,554	365,140	0,043	-0,064
-684,539	-134,568	0,167	0,015
-683,524	-97,316	0,073	0,014
-682,510	-200,000	0,008	0,089
-681,495	230,989	-0,074	-0,090
-680,481	210,437	-0,133	-0,154
-679,466	653,821	-0,031	-0,059
-678,451	19,934	-0,100	-0,059
-677,437	619,692	-0,019	-0,035
-676,422	-129,878	0,013	-0,001
-675,408	-200,000	-0,010	-0,073
-674,393	63,831	0,142	-0,104
-673,378	800,000	0,010	0,030
-672,364	-49,311	-0,030	-0,011
-671,349	142,791	-0,108	-0,105
-670,335	597,676	-0,021	0,038
-669,320	800,000	0,028	-0,075
-668,305	54,338	0,032	-0,022
-667,291	-2,192	-0,130	-0,067
-666,276	-25,604	0,054	-0,023
-665,262	-200,000	0,014	-0,088
-664,247	800,000	0,029	-0,061
-663,232	800,000	-0,013	-0,040
-662,218	476,345	-0,017	0,028
-661,203	609,368	-0,014	-0,027
-660,189	65,729	-0,051	0,038
-659,174	228,592	-0,080	-0,096
-658,159	-14,499	-0,043	0,020
-657,145	-123,691	0,003	-0,000
-656,130	-200,000	-0,025	-0,090
-655,116	-157,451	0,137	0,006
-654,101	53,115	0,174	0,122
-653,086	800,000	-0,032	-0,099
-652,072	-157,829	-0,179	0,008
-651,057	51,225	-0,069	0,048
-650,043	39,877	-0,183	-0,120
-649,028	255,405	0,019	0,024
-648,014	-51,017	-0,045	0,015
-646,999	52,921	-0,016	0,011
-645,984	314,913	0,022	0,030
-644,970	800,000	-0,052	-0,145
-643,955	137,029	-0,143	-0,137
-642,941	-200,000	0,008	0,106
-641,926	-4,048	0,112	0,056
-640,911	192,711	0,064	0,071
-639,897	-200,000	0,037	-0,000
-638,882	800,000	-0,040	-0,100
-637,868	122,985	-0,044	0,041
-636,853	-24,701	-0,068	0,030
-635,838	-138,418	-0,050	-0,004
-634,824	-200,000	-0,003	-0,090
-633,809	28,962	-0,038	0,024
-632,795	-65,591	-0,029	0,008
-631,780	-79,294	0,054	-0,013
-630,765	-53,040	-0,097	0,032
-629,751	-150,906	-0,057	0,003
-628,736	-40,884	-0,068	0,025
-627,722	-69,101	-0,134	-0,037
-626,707	-200,000	0,012	-0,090
-625,692	-140,688	-0,065	-0,005
-624,678	36,490	-0,128	0,083
-623,663	89,582	-0,106	-0,087
-622,649	800,000	0,018	0,045
-621,634	-200,000	0,022	-0,074
-620,619	-200,000	-0,033	-0,152
-619,605	-54,082	0,073	-0,024
-618,590	800,000	0,064	0,145
-617,576	181,958	-0,056	-0,061
-616,561	-155,345	0,174	-0,008
-615,546	800,000	0,026	0,075
-614,532	-200,000	-0,003	0,017
-613,517	-63,967	0,186	-0,055
-612,503	-76,388	-0,100	0,026
-611,488	-136,071	-0,059	-0,005
-610,474	-98,100	0,221	-0,041
-609,459	724,989	-0,036	-0,070
-608,444	390,760	-0,044	-0,066
-607,430	79,689	-0,053	-0,041
-606,415	-200,000	0,014	0,067
-605,401	335,869	0,033	0,047
-604,386	-92,066	0,154	-0,032
-603,371	103,695	0,038	0,032
-602,357	-193,106	-0,066	0,000
-601,342	-200,000	-0,004	0,040
-600,328	140,796	0,072	-0,070
-599,313	-128,825	-0,132	0,013
-598,298	-200,000	-0,016	-0,121
-597,284	800,000	-0,019	-0,043
-596,269	-106,486	0,052	0,008
-595,255	-34,551	0,029	0,012
-594,240	-200,000	0,010	-0,126
-593,225	-126,798	-0,106	0,011
-592,211	-156,203	-0,027	-0,001
-591,196	-39,199	-0,078	-0,030
-590,182	-8,780	0,077	0,038
-589,167	-119,067	-0,102	0,013
-588,152	800,000	-0,032	0,076
-587,138	97,066	-0,052	0,044
-586,123	136,978	0,037	0,036
-585,109	-200,000	-0,001	0,097
-584,094	-200,000	-0,011	0,068
-583,079	88,550	0,114	0,093
-582,065	-103,274	0,069	0,012
-581,050	-11,141	0,046	-0,022
-580,036	230,499	-0,091	0,109
-579,021	64,373	-0,072	0,053
-578,006	4,038	-0,066	-0,035
-576,992	-54,762	0,142	0,047
-575,977	-101,585	-0,005	0,001
-574,963	599,026	0,057	0,104
-573,948	-200,000	0,000	-0,043
-572,934	-9,777	-0,149	0,072
-571,919	-200,000	0,003	0,021
-570,904	-34,865	0,106	-0,042
-569,890	-41,327	0,041	-0,015
-568,875	597,093	0,009	-0,016
-567,861	150,793	0,034	-0,034
-566,846	-42,661	-0,077	-0,028
-565,831	800,000	0,035	0,107
-564,817	27,718	0,027	-0,017
-563,802	-200,000	-0,008	0,080
-562,788	-200,000	0,037	-0,215
-561,773	653,281	-0,047	-0,088
-560,758	-105,151	0,163	-0,027
-559,744	195,288	-0,064	0,071
-558,729	-110,125	0,154	0,023
-557,715	364,407	-0,057	0,084
-556,700	-6,371	0,036	0,018
-555,685	116,282	-0,073	-0,065
-554,671	800,000	0,027	-0,069
-553,656	88,954	-0,062	-0,051
-552,642	-200,000	-0,007	0,042
-551,627	-200,000	-0,001	0,014
-550,612	209,587	0,067	-0,076
-549,598	-200,000	-0,012	-0,100
-548,583	-200,000	-0,013	0,054
-547,569	-129,148	-0,125	-0,013
-546,554	183,184	0,073	0,079
-545,539	-37,361	0,057	-0,022
-544,525	-152,997	0,134	0,007
-543,510	-128,387	-0,084	-0,009
-542,496	56,700	-0,099	-0,070
-541,481	1,834	-0,208	-0,109
-540,466	137,624	-0,033	-0,032
-539,452	-200,000	-0,007	-0,024
-538,437	454,839	0,084	0,136
-537,423	684,909	-0,035	0,066
-536,408	800,000	0,069	-0,146
-535,393	-13,729	-0,137	-0,065
-534,379	-200,000	-0,017	-0,138
-533,364	-200,000	-0,001	-0,077
-532,350	-200,000	-0,011	0,075
-531,335	56,511	-0,051	0,036
-530,321	800,000	0,046	0,132
-529,306	-200,000	-0,003	-0,107
-528,291	-200,000	-0,011	-0,155
-527,277	253,709	-0,090	-0,113
-526,262	-164,510	0,019	0,001
-525,248	-200,000	0,027	0,117
-524,233	-200,000	0,007	0,040
-523,218	430,973	0,030	-0,048
-522,204	800,000	-0,009	-0,024
-521,189	-125,850	0,156	-0,017
-520,175	732,812	0,063	-0,123
-519,160	76,577	0,085	-0,066
-518,145	-200,000	-0,003	0,046
-517,131	110,799	-0,063	0,055
-516,116	-151,091	-0,052	0,003
-515,102	-17,653	0,068	-0,031
-514,087	-143,450	-0,121	0,008
-513,072	-132,493	-0,044	-0,004
-512,058	800,000	0,049	0,157
-511,043	-36,511	0,080	0,031
-510,029	710,762	-0,062	-0,119
-509,014	209,138	-0,029	0,033
-507,999	800,000	0,058	0,132
-506,985	-34,719	-0,077	0,030
-505,970	-200,000	-0,029	-0,102
-504,956	330,671	0,067	-0,094
-503,941	201,990	-0,036	-0,040
-502,926	276,925	0,088	0,115
-501,912	-148,401	0,153	-0,009
-500,897	320,898	0,055	-0,076
-499,883	-200,000	-0,004	-0,041
-498,868	-200,000	-0,006	-0,028
-497,853	800,000	-0,010	0,028
-496,839	62,478	-0,104	-0,075
-495,824	83,140	-0,052	-0,041
-494,810	258,655	0,036	0,046
-493,795	-200,000	0,014	-0,048
-492,781	-122,595	-0,106	0,012
-491,766	40,832	-0,058	-0,038
-490,751	320,527	-0,031	0,043
-489,737	800,000	0,045	0,093
-488,722	-95,793	0,120	0,023
-487,708	800,000	0,038	-0,114
-486,693	-200,000	0,003	0,029
-485,678	91,524	0,100	-0,082
-484,664	534,873	-0,067	-0,116
-483,649	619,176	0,023	-0,042
-482,635	-2,887	0,144	0,073
-481,620	-180,517	0,045	-0,001
-480,605	-200,000	-0,003	0,053
-479,591	149,760	-0,085	0,084
-478,576	-200,000	0,003	0,015
-477,562	-178,765	-0,159	0,003
-476,547	800,000	-0,031	-0,093
-475,532	125,183	-0,016	0,014
-474,518	-105,176	-0,099	0,016
-473,503	-118,843	-0,019	0,002
-472,489	-200,000	0,023	0,119
-471,474	146,512	-0,088	0,086
-470,459	74,800	-0,028	-0,021
-469,445	-161,329	-0,009	-0,000
-468,430	465,921	-0,025	-0,041
-467,416	350,471	0,160	0,230
-466,401	51,492	0,063	0,043
-465,386	-200,000	0,002	0,028
-464,372	-113,764	-0,135	0,019
-463,357	172,453	0,036	-0,038
-462,343	-91,135	-0,131	-0,027
-461,328	424,322	0,021	-0,034
-460,313	-200,000	0,009	-0,028
-459,299	475,505	0,008	0,014
-458,284	6,437	-0,023	-0,012
-457,270	76,236	0,115	0,088
-456,255	369,421	-0,103	-0,152
-455,241	-17,623	-0,130	-0,059
-454,226	-9,591	0,033	0,016
-453,211	179,750	-0,067	0,071
-452,197	-52,924	0,103	0,034
-451,182	-200,000	-0,009	0,080
-450,168	-60,594	-0,079	-0,024
-449,153	-200,000	-0,041	-0,158
-448,138	53,504	0,049	0,034
-447,124	344,099	-0,133	-0,190
-446,109	-200,000	0,026	0,132
-445,095	-200,000	-0,028	-0,094
-444,080	177,822	0,079	0,084
-443,065	800,000	-0,025	0,070
-442,051	-57,029	0,097	0,031
-441,036	800,000	-0,038	0,080
-440,022	-200,000	0,016	-0,136
-439,007	100,565	-0,083	-0,070
-437,992	473,432	0,041	0,067
-436,978	-200,000	0,013	0,095
-435,963	-200,000	0,030	0,183
-434,949	289,591	-0,055	-0,072
-433,934	64,054	-0,116	-0,084
-432,919	-200,000	-0,010	-0,096
-431,905	-200,000	-0,012	0,083
-430,890	244,727	0,079	0,097
-429,876	418,728	0,075	-0,118
-428,861	23,062	0,140	0,084
-427,846	-200,000	-0,025	0,144
-426,832	-146,334	-0,115	0,007
-425,817	800,000	0,035	0,077
-424,803	31,603	-0,028	0,018
-423,788	225,082	-0,065	-0,077
-422,773	-114,627	0,027	-0,004
-421,759	800,000	0,020	-0,049
-420,744	-77,843	-0,057	-0,014
-419,730	-200,000	-0,024	-0,083
-418,715	-200,000	-0,021	-0,103
-417,701	800,000	-0,029	0,062
-416,686	383,542	0,057	0,085
-415,671	800,000	0,037	0,080
-414,657	800,000	-0,012	0,032
-413,642	54,293	-0,127	0,089
-412,628	-90,677	-0,082	-0,017
-411,613	18,263	0,160	-0,093
-410,598	339,629	0,057	0,081
-409,584	77,114	-0,100	0,077
-408,569	199,133	0,031	0,035
-407,555	-134,065	-0,058	0,005
-406,540	347,828	0,047	-0,068
-405,525	-200,000	0,011	-0,056
-404,511	-200,000	-0,017	0,073
-403,496	-200,000	-0,025	-0,188
-402,482	-200,000	0,023	-0,185
-401,467	444,423	0,056	-0,090
-400,452	-26,316	0,149	0,063
-399,438	-200,000	0,008	-0,041
-398,423	800,000	-0,030	-0,087
-397,409	157,862	-0,104	0,105
-396,394	51,897	-0,064	0,044
-395,379	-200,000	-0,004	0,026
-394,365	335,194	0,097	-0,137
-393,350	411,875	0,098	0,152
-392,336	800,000	-0,021	0,056
-391,321	-200,000	-0,020	-0,135
-390,306	-110,173	-0,227	-0,034
-389,292	800,000	-0,072	-0,176
-388,277	-200,000	0,011	0,065
-387,263	384,208	-0,075	0,113
-386,248	800,000	0,028	0,074
-385,233	-200,000	-0,039	-0,169
-384,219	-200,000	-0,003	-0,038
-383,204	108,305	0,062	0,054
-382,190	-200,000	0,005	-0,029
-381,175	222,168	-0,046	0,054
-380,160	611,916	-0,048	0,087
-379,146	-200,000	-0,018	0,079
-378,131	477,773	-0,068	0,113
-377,117	140,874	0,094	-0,090
-376,102	10,537	-0,154	-0,085
-375,088	38,777	-0,054	0,035
-374,073	-200,000	0,004	-0,120
-373,058	800,000	-0,041	-0,126
-372,044	-177,913	-0,005	0,000
-371,029	-200,000	0,005	0,035
-370,015	800,000	-0,018	-0,041
-369,000	2,951	-0,062	-0,032
-367,985	-49,387	-0,057	-0,020
-366,971	800,000	-0,046	0,139
-365,956	303,897	0,023	-0,031
-364,942	-200,000	0,029	0,183
-363,927	1,693	0,061	-0,032
-362,912	-75,724	-0,024	0,006
-361,898	125,971	-0,055	0,051
-360,883	2,325	-0,133	-0,069
-359,869	133,172	0,080	-0,075
-358,854	139,063	-0,037	0,035
-357,839	110,121	0,036	-0,031
-356,825	24,798	-0,080	-0,048
-355,810	-64,198	0,074	-0,022
-354,796	537,525	-0,015	-0,026
-353,781	158,339	-0,024	-0,024
-352,766	-200,000	0,020	0,075
-351,752	113,320	-0,073	-0,064
-350,737	293,423	0,080	-0,106
-349,723	288,456	0,093	0,123
-348,708	-57,867	-0,072	0,023
-347,693	-46,783	0,063	-0,022
-346,679	800,000	0,049	-0,134
-345,664	800,000	0,026	-0,080
-344,650	800,000	0,049	0,126
-343,635	-200,000	0,007	0,098
-342,620	-109,348	0,157	-0,024
-341,606	800,000	-0,020	-0,051
-340,591	-200,000	0,017	-0,056
-339,577	-140,691	-0,056	-0,004
-338,562	100,911	0,042	0,036
-337,548	-73,164	-0,096	0,025
-336,533	-200,000	0,010	0,042
-335,518	85,722	-0,127	-0,101
-334,504	-91,016	-0,040	0,008
-333,489	-200,000	0,000	-0,071
-332,475	-94,821	-0,072	0,014
-331,460	-167,967	0,027	0,001
-330,445	-200,000	-0,004	-0,065
-329,431	-116,609	0,042	0,005
-328,416	-200,000	-0,003	0,102
-327,402	-200,000	-0,020	0,096
-326,387	-140,965	0,064	-0,005
-325,372	800,000	0,006	-0,018
-324,358	608,229	0,036	-0,065
-323,343	800,000	0,013	0,035
-322,329	-101,942	0,134	-0,023
-321,314	123,751	0,023	0,021
-320,299	28,719	0,065	0,040
-319,285	69,400	0,135	-0,101
-318,270	-170,237	-0,103	0,003
-317,256	-200,000	-0,013	-0,179
-316,241	-200,000	-0,019	-0,087
-315,226	-71,657	-0,156	-0,042
-314,212	-47,217	0,079	0,028
-313,197	-200,000	0,024	0,136
-312,183	800,000	0,049	0,100
-311,168	-200,000	-0,019	-0,063
-310,153	-50,770	0,066	-0,022
-309,139	800,000	0,051	0,105
-308,124	-72,900	0,045	-0,012
-307,110	317,206	-0,070	0,095
-306,095	18,629	-0,097	0,056
-305,080	-81,721	-0,090	-0,021
-304,066	502,249	-0,019	0,032
-303,051	317,961	0,046	-0,064
-302,037	65,473	0,082	-0,060
-301,022	-200,000	0,000	0,004
-300,008	-25,542	0,065	-0,028
-298,993	317,678	0,069	0,095
-297,978	-200,000	-0,006	0,055
-296,964	46,086	-0,143	0,095
-295,949	800,000	-0,018	0,037
-294,935	-83,163	-0,016	0,004
-293,920	48,860	0,094	0,064
-292,905	388,247	0,099	0,149
-291,891	-200,000	-0,002	-0,121
-290,876	485,135	0,018	0,029
-289,862	187,879	0,071	0,076
-288,847	-200,000	0,002	0,081
-287,832	-200,000	-0,001	0,155
-286,818	-200,000	-0,002	0,025
-285,803	-73,812	0,086	-0,022
-284,789	800,000	-0,028	0,081
-283,774	-70,346	-0,037	-0,010
-282,759	-200,000	0,008	-0,086
-281,745	-200,000	-0,008	-0,056
-280,730	-14,728	-0,145	-0,067
-279,716	113,524	0,066	0,058
-278,701	19,453	0,136	0,078
-277,686	142,983	0,025	-0,024
-276,672	506,992	-0,013	0,022
-275,657	36,606	0,179	0,114
-274,643	800,000	-0,016	0,051
-273,628	-200,000	-0,034	-0,124
-272,613	104,266	-0,032	0,027
-271,599	609,976	0,071	0,128
-270,584	156,088	0,031	-0,031
-269,570	-71,349	0,096	0,026
-268,555	163,849	0,042	0,043
-267,540	800,000	-0,022	0,060
-266,526	-200,000	-0,026	0,095
-265,511	-184,162	0,082	0,001
-264,497	-200,000	-0,009	-0,068
-263,482	-200,000	-0,002	0,021
-262,467	153,460	0,082	0,081
-261,453	800,000	0,026	-0,080
-260,438	-13,068	0,076	-0,036
-259,424	-59,013	-0,042	-0,013
-258,409	800,000	-0,010	0,029
-257,395	194,548	0,116	0,127
-256,380	-81,727	-0,068	-0,016
-255,365	800,000	0,046	0,139
-254,351	800,000	0,028	0,087
-253,336	-57,367	-0,055	-0,017
-252,322	-200,000	-0,005	-0,047
-251,307	-25,252	-0,050	-0,021
-250,292	-36,565	0,064	0,025
-249,278	359,352	0,050	0,073
-248,263	-200,000	-0,005	0,047
-247,249	-200,000	-0,041	-0,179
-246,234	-48,493	0,059	0,020
-245,219	73,283	0,035	-0,026
-244,205	-123,132	-0,079	0,009
-243,190	-103,834	-0,049	-0,008
-242,176	-200,000	-0,011	0,052
-241,161	-200,000	0,003	0,164
-240,146	242,936	0,077	0,094
-239,132	372,491	-0,043	-0,064
-238,117	800,000	-0,006	-0,016
-237,103	-24,393	-0,119	0,051
-236,088	151,024	0,019	0,019
-235,073	153,669	-0,085	0,084
-234,059	-153,593	0,035	0,002
-233,044	1,365	0,023	-0,012
-232,030	-57,025	-0,074	-0,023
-231,015	-28,955	0,080	0,033
-230,000	-200,000	0,007	-0,038
-228,986	-200,000	-0,025	-0,110
-227,971	19,332	0,049	-0,028
-226,957	458,986	0,096	0,155
-225,942	-200,000	0,005	-0,057
-224,927	-114,825	-0,101	-0,014
-223,913	111,537	-0,052	-0,045
-222,898	578,212	0,042	0,074
-221,884	-200,000	-0,017	-0,063
-220,869	-158,381	-0,040	-0,002
-219,855	-200,000	0,016	0,077
-218,840	-200,000	0,007	-0,137
-217,825	-22,998	0,077	-0,033
-216,811	80,897	-0,140	-0,109
-215,796	245,478	0,034	-0,041
-214,782	140,025	0,029	0,027
-213,767	446,779	-0,036	0,057
-212,752	-115,708	0,090	-0,012
-211,738	68,500	0,134	0,099
-210,723	128,447	-0,075	0,069
-209,709	57,573	-0,059	0,042
-208,694	-121,631	-0,092	-0,011
-207,679	-62,720	-0,132	-0,039
-206,665	-113,443	0,005	0,001
-205,650	-152,686	0,082	-0,004
-204,636	7,983	-0,094	-0,051
-203,621	-62,232	0,109	-0,033
-202,606	-16,356	0,008	-0,004
-201,592	-200,000	-0,031	-0,158
-200,577	-200,000	0,036	-0,166
-199,563	-200,000	-0,006	-0,148
-198,548	5,851	0,087	-0,046
-197,533	-200,000	0,055	0,195
-196,519	800,000	0,037	0,080
-195,504	-88,008	-0,075	-0,016
-194,490	-200,000	-0,010	0,074
-193,475	-200,000	0,002	0,053
-192,460	-155,863	0,108	0,005
-191,446	-33,584	-0,049	-0,019
-190,431	27,906	0,076	0,046
-189,417	-200,000	0,004	0,020
-188,402	-95,135	0,105	0,020
-187,387	270,742	0,054	0,069
-186,373	431,508	0,078	-0,122
-185,358	-200,000	0,019	0,141
-184,344	-41,616	0,064	-0,023
-183,329	-155,538	-0,045	0,002
-182,315	372,085	0,085	-0,125
-181,300	-200,000	0,030	-0,102
-180,285	2,906	-0,172	-0,090
-179,271	-200,000	0,040	-0,168
-178,256	239,525	-0,061	0,073
-177,242	800,000	0,038	0,098
-176,227	-150,802	-0,106	0,006
-175,212	-170,047	0,125	-0,003
-174,198	0,032	-0,074	0,038
-173,183	-200,000	-0,001	-0,057
-172,169	-58,428	0,105	0,033
-171,154	-133,038	-0,062	0,006
-170,139	800,000	0,053	-0,116
-169,125	14,549	0,156	0,087
-168,110	800,000	-0,033	0,083
-167,096	-129,312	-0,065	-0,006
-166,081	106,641	-0,070	0,059
-165,066	-200,000	-0,006	-0,180
-164,052	270,585	-0,029	0,037
-163,037	-200,000	0,023	-0,093
-162,023	800,000	-0,011	-0,032
-161,008	-200,000	-0,003	0,072
-159,993	214,419	0,060	0,068
-158,979	221,671	-0,053	-0,061
-157,964	76,972	-0,111	-0,085
-156,950	-200,000	-0,010	0,038
-155,935	-200,000	0,019	-0,073
-154,920	67,058	0,043	0,031
-153,906	45,430	0,082	-0,054
-152,891	-200,000	0,009	0,055
-151,877	281,750	0,023	-0,030
-150,862	-200,000	-0,014	-0,098
-149,847	32,893	-0,028	0,017
-148,833	-144,650	0,055	-0,004
-147,818	-65,368	-0,038	0,011
-146,804	-57,699	0,083	0,026
-145,789	-79,976	0,065	-0,016
-144,775	52,428	0,084	-0,057
-143,760	501,359	-0,014	0,024
-142,745	12,300	-0,180	0,099
-141,731	-59,721	0,093	-0,028
-140,716	594,646	0,042	0,075
-139,702	-200,000	0,003	0,012
-138,687	141,342	0,153	-0,145
-137,672	-200,000	0,017	0,110
-136,658	-27,405	-0,046	-0,019
-135,643	800,000	0,028	-0,079
-134,629	-200,000	0,004	-0,097
-133,614	247,764	0,070	0,085
-132,599	5,041	0,087	0,046
-131,585	265,970	0,065	0,081
-130,570	302,797	0,002	0,003
-129,556	800,000	-0,025	-0,064
-128,541	-151,992	0,028	-0,001
-127,526	800,000	0,015	-0,043
-126,512	-200,000	-0,016	0,103
-125,497	-180,105	0,145	0,002
-124,483	-31,996	0,084	0,034
-123,468	345,053	-0,015	-0,021
-122,453	-200,000	-0,051	-0,184
-121,439	-94,352	-0,103	-0,020
-120,424	-200,000	0,005	-0,036
-119,410	-86,674	0,057	-0,012
-118,395	225,162	-0,026	-0,030
-117,380	-0,819	0,072	-0,036
-116,366	48,923	-0,047	0,032
-115,351	-85,206	-0,092	-0,020
-114,337	-200,000	0,010	-0,151
-113,322	800,000	0,011	-0,032
-112,307	-47,213	-0,059	-0,020
-111,293	465,618	0,024	-0,039
-110,278	-13,625	-0,114	0,053
-109,264	-121,185	0,076	0,009
-108,249	-200,000	0,002	-0,048
-107,234	-200,000	-0,024	0,077
-106,220	800,000	-0,040	-0,100
-105,205	78,973	0,037	-0,029
-104,191	419,375	0,050	0,077
-103,176	-48,412	0,026	0,009
-102,162	-200,000	0,015	0,052
-101,147	-158,558	0,056	0,002
-100,132	152,402	0,045	0,044
-99,118	-49,552	0,126	-0,043
-98,103	800,000	-0,027	-0,068
-97,089	110,964	0,089	-0,077
-96,074	103,210	0,028	-0,023
-95,059	479,966	0,047	-0,077
-94,045	-200,000	0,003	-0,057
-93,030	-200,000	0,011	0,101
-92,016	-18,374	-0,139	-0,062
-91,001	-200,000	0,027	-0,105
-89,986	136,757	-0,122	-0,114
-88,972	194,137	0,049	0,053
-87,957	-93,006	0,114	0,023
-86,943	-88,918	-0,048	0,010
-85,928	-106,157	-0,041	-0,007
-84,913	-9,739	-0,141	-0,067
-83,899	-200,000	-0,045	-0,175
-82,884	-58,312	0,086	-0,027
-81,870	211,951	-0,074	-0,084
-80,855	-182,935	-0,163	0,002
-79,840	151,432	0,075	0,073
-78,826	153,325	0,048	0,048
-77,811	-56,422	0,035	0,011
-76,797	280,577	0,056	-0,072
-75,782	-200,000	-0,008	0,162
-74,767	153,006	-0,115	-0,113
-73,753	-78,644	0,064	0,016
-72,738	-200,000	-0,006	0,086
-71,724	800,000	0,026	0,079
-70,709	-200,000	-0,022	-0,093
-69,694	-106,767	-0,125	-0,020
-68,680	-200,000	-0,057	0,200
-67,665	24,565	0,040	-0,023
-66,651	25,985	-0,062	0,037
-65,636	41,933	0,105	0,068
-64,622	-124,348	-0,068	0,008
-63,607	161,295	0,033	0,033
-62,592	4,222	-0,060	-0,031
-61,578	244,651	-0,060	0,072
-60,563	147,973	-0,100	0,096
-59,549	590,215	0,059	0,104
-58,534	46,370	-2,221	-1,472
-57,519	-200,000	0,010	-0,694
-56,505	-200,000	-1,453	-5,163
-55,490	95,587	0,893	0,729
-54,476	800,000	5,387	12,181
-53,461	-200,000	18,906	320,217
-52,446	800,000	741,654	2324,150
-51,432	548,724	1654,642	2849,267
-50,417	109,680	1637,313	1404,843
-49,403	73,148	1287,933	963,010
-48,388	29,308	1029,551	624,635
-47,373	19,534	992,612	569,907
-46,359	16,840	980,176	553,900
-45,344	13,384	976,323	540,365
-44,330	13,732	974,863	540,676
-43,315	13,038	973,105	537,408
-42,300	13,028	971,979	536,730
-41,286	12,997	971,112	536,129
-40,271	13,042	970,002	535,642
-39,257	13,035	969,139	535,122
-38,242	12,978	968,372	534,491
-37,227	13,010	967,412	534,044
-36,213	13,027	966,560	533,608
-35,198	12,963	965,811	532,967
-34,184	13,048	964,943	532,743
-33,169	12,961	964,166	532,010
-32,154	13,066	962,933	531,649
-31,140	12,995	962,155	530,967
-30,125	13,125	961,290	530,889
-29,111	13,050	960,528	530,206
-28,096	13,023	960,105	529,864
-27,082	13,056	959,187	529,441
-26,067	13,021	958,415	528,882
-25,052	13,013	957,808	528,502
-24,038	13,045	957,000	528,138
-23,023	12,983	956,441	527,609
-22,009	13,069	955,891	527,559
-20,994	13,081	955,179	527,183
-19,979	13,108	954,581	526,920
-18,965	13,061	953,942	526,397
-17,950	13,088	953,397	526,161
-16,936	13,079	952,695	525,725
-15,921	12,957	952,140	525,007
-14,906	12,936	951,253	524,430
-13,892	12,997	950,812	524,359
-12,877	12,912	950,064	523,655
-11,863	12,917	949,485	523,332
-10,848	12,929	948,965	523,063
-9,833	12,998	948,309	522,901
-8,819	12,992	947,631	522,486
-7,804	12,915	946,935	521,836
-6,790	12,946	946,440	521,640
-5,775	12,984	945,925	521,457
-4,760	13,025	945,344	521,246
-3,746	12,971	944,682	520,689
-2,731	12,827	943,876	519,769
-1,717	12,769	943,231	519,207
-0,702	12,737	942,631	518,755
0,313	12,624	941,960	518,813
1,327	16,134	939,847	528,690
2,342	25,454	790,417	469,195
3,356	21,576	445,222	258,512
4,371	-7,735	298,625	143,800
5,386	-11,517	280,568	131,469
6,400	-12,869	274,862	127,514
7,415	-12,810	272,516	126,469
8,429	-13,072	270,962	125,493
9,444	-13,073	269,988	125,031
10,459	-13,053	269,513	124,818
11,473	-13,215	268,818	124,337
12,488	-13,344	268,375	124,002
13,502	-13,536	267,710	123,508
14,517	-13,427	267,239	123,380
15,531	-13,357	266,869	123,261
16,546	-13,333	266,371	123,042
17,561	-13,335	266,059	122,885
18,575	-13,383	265,844	122,731
19,590	-13,423	265,326	122,445
20,604	-13,254	264,916	122,398
21,619	-13,508	264,783	122,096
22,634	-13,426	264,370	121,968
23,648	-13,343	263,995	121,859
24,663	-13,448	263,816	121,671
25,677	-13,352	263,449	121,578
26,692	-13,192	263,208	121,600
27,707	-13,396	262,896	121,261
28,721	-13,476	262,601	121,043
29,736	-13,451	262,349	120,938
30,750	-13,601	262,202	120,726
31,765	-13,498	261,866	120,652
32,780	-13,475	261,765	120,615
33,794	-13,527	261,504	120,438
34,809	-13,481	261,258	120,355
35,823	-13,583	261,011	120,139
36,838	-13,438	260,655	120,094
37,853	-13,365	260,515	120,084
38,867	-13,640	260,260	119,711
39,882	-13,558	259,858	119,588
40,896	-13,517	259,716	119,549
41,911	-13,529	259,428	119,395
42,926	-13,773	259,391	119,151
43,940	-13,599	258,978	119,104
44,955	-13,669	258,770	118,937
45,969	-13,621	258,590	118,885
46,984	-13,974	258,283	118,423
47,999	-14,231	258,057	118,083
49,013	-14,178	257,768	117,986
50,028	-14,327	257,515	117,730
51,042	-14,339	257,243	117,584
52,057	-14,298	256,855	117,432
53,071	-14,396	256,806	117,314
54,086	-14,369	256,636	117,249
55,101	-14,197	256,430	117,295
56,115	-13,980	256,341	117,433
57,130	-13,495	256,343	117,847
58,144	-13,028	256,130	118,146
59,159	-13,136	255,876	117,924
60,174	-13,351	255,722	117,655
61,188	-13,363	255,441	117,505
62,203	-13,373	255,189	117,370
63,217	-13,552	255,041	117,136
64,232	-13,289	254,739	117,215
65,247	-13,448	254,622	117,013
66,261	-13,536	254,332	116,793
67,276	-13,449	253,841	116,632
68,290	-13,883	253,742	116,202
69,305	-13,976	253,529	116,014
70,320	-14,041	253,324	115,854
71,334	-13,601	253,118	116,128
72,349	-13,350	253,125	116,336
73,363	-13,226	252,789	116,279
74,378	-13,227	252,613	116,187
75,393	-13,592	252,516	115,818
76,407	-13,649	252,262	115,642
77,422	-13,522	252,022	115,631
78,436	-13,343	251,829	115,685
79,451	-13,412	251,577	115,499
80,466	-13,510	251,121	115,197
81,480	-13,655	251,008	115,011
82,495	-13,869	250,876	114,758
83,509	-13,722	250,650	114,769
84,524	-13,701	250,429	114,675
85,539	-13,915	250,089	114,328
86,553	-13,717	249,867	114,384
87,568	-14,072	249,988	114,128
88,582	-13,757	249,718	114,262
89,597	-13,800	249,443	114,090
90,611	-13,807	249,279	113,998
91,626	-13,461	249,177	114,234
92,641	-13,395	248,954	114,177
93,655	-13,673	248,763	113,845
94,670	-13,600	248,477	113,766
95,684	-13,403	248,339	113,858
96,699	-13,492	247,942	113,591
97,714	-13,667	247,878	113,405
98,728	-13,661	247,632	113,287
99,743	-13,976	247,625	113,009
100,757	-13,892	247,165	112,859
101,772	-13,800	246,950	112,829
102,787	-13,749	247,114	112,936
103,801	-13,510	246,699	112,936
104,816	-13,762	246,765	112,745
105,830	-13,648	246,520	112,719
106,845	-13,556	246,364	112,714
107,860	-13,432	246,111	112,692
108,874	-13,665	245,802	112,346
109,889	-13,721	245,646	112,218
110,903	-13,752	245,495	112,113
111,918	-13,756	245,343	112,030
112,933	-13,716	245,169	111,974
113,947	-13,648	244,961	111,926
114,962	-13,562	244,811	111,918
115,976	-13,469	244,612	111,895
116,991	-13,580	244,310	111,655
118,006	-13,365	244,115	111,734
119,020	-13,702	244,083	111,430
120,035	-13,731	243,939	111,330
121,049	-13,295	243,757	111,597
122,064	-13,429	243,626	111,417
123,079	-13,580	243,391	111,175
124,093	-13,579	243,065	111,017
125,108	-13,745	242,800	110,750
126,122	-14,050	242,680	110,435
127,137	-14,087	242,589	110,353
128,151	-13,931	242,292	110,336
129,166	-13,741	242,159	110,422
130,181	-13,933	242,017	110,190
131,195	-13,957	241,828	110,074
132,210	-13,760	241,641	110,140
133,224	-13,797	241,584	110,074
134,239	-13,485	241,308	110,193
135,254	-13,379	241,146	110,195
136,268	-13,616	240,907	109,884
137,283	-13,752	240,495	109,576
138,297	-13,846	240,231	109,369
139,312	-13,975	240,114	109,201
140,327	-13,550	240,131	109,545
141,341	-13,277	240,096	109,740
142,356	-13,207	240,054	109,768
143,370	-13,048	239,751	109,748
144,385	-13,136	239,744	109,664
145,400	-13,092	239,496	109,576
146,414	-13,273	239,319	109,339
147,429	-13,202	239,057	109,267
148,443	-13,271	239,060	109,203
149,458	-13,312	238,688	108,990
150,473	-13,124	238,502	109,047
151,487	-13,288	238,368	108,844
152,502	-13,350	238,244	108,728
153,516	-13,248	238,120	108,744
154,531	-13,079	237,808	108,727
155,546	-13,281	237,689	108,501
156,560	-13,240	237,555	108,463
157,575	-13,365	237,232	108,206
158,589	-13,233	237,053	108,220
159,604	-13,134	237,047	108,286
160,619	-13,186	236,920	108,178
161,633	-12,880	236,726	108,324
162,648	-13,093	236,491	108,037
163,662	-13,255	236,428	107,869
164,677	-13,385	236,093	107,603
165,692	-13,410	236,140	107,595
166,706	-13,049	235,986	107,802
167,721	-12,880	235,831	107,857
168,735	-12,977	235,633	107,680
169,750	-13,121	235,440	107,467
170,764	-13,317	235,506	107,332
171,779	-13,100	235,183	107,348
172,794	-13,066	234,995	107,278
173,808	-13,378	234,749	106,910
174,823	-13,802	234,441	106,426
175,837	-13,819	234,233	106,308
176,852	-13,457	234,210	106,574
177,867	-13,212	234,227	106,765
178,881	-13,034	234,043	106,812
179,896	-13,049	233,792	106,676
180,910	-13,118	233,824	106,628
181,925	-13,200	233,505	106,407
182,940	-12,998	233,435	106,525
183,954	-12,841	233,132	106,500
184,969	-13,249	233,209	106,205
185,983	-13,004	233,003	106,295
186,998	-12,859	232,864	106,335
188,013	-12,998	232,766	106,172
189,027	-12,978	232,459	106,039
190,042	-12,790	232,209	106,062
191,056	-12,772	232,152	106,040
192,071	-13,064	232,041	105,752
193,086	-12,887	231,898	105,816
194,100	-12,698	231,641	105,836
195,115	-13,203	231,437	105,340
196,129	-12,352	231,581	106,060
197,144	-6,672	233,550	111,406
198,159	-0,670	235,374	116,994
199,173	2,436	236,265	119,877
200,188	3,159	236,107	120,355
201,202	3,118	236,160	120,339
202,217	3,058	235,951	120,175
203,232	3,376	235,811	120,342
204,246	3,381	235,632	120,244
205,261	3,311	235,493	120,108
206,275	3,505	235,473	120,240
207,290	3,720	235,252	120,284
208,304	3,363	235,131	119,932
209,319	3,659	235,019	120,096
210,334	3,290	234,865	119,717
211,348	3,231	234,484	119,466
212,363	3,014	234,136	119,109
213,377	2,676	233,981	118,757
214,392	2,428	233,974	118,549
215,407	2,904	233,759	118,801
216,421	2,961	233,574	118,740
217,436	2,876	233,441	118,596
218,450	2,586	233,233	118,254
219,465	2,698	232,994	118,209
220,480	2,631	232,828	118,063
221,494	2,711	232,789	118,095
222,509	3,035	232,644	118,261
223,523	2,843	232,523	118,041
224,538	2,719	232,370	117,856
225,553	2,757	232,262	117,821
226,567	2,814	232,116	117,780
227,582	3,048	232,032	117,907
228,596	3,138	231,859	117,878
229,611	2,766	231,760	117,531
230,626	2,446	231,363	117,073
231,640	2,697	231,392	117,271
232,655	2,949	231,191	117,352
233,669	3,080	231,224	117,458
234,684	3,385	230,973	117,555
235,699	3,173	230,842	117,315
236,713	2,932	230,551	116,972
237,728	2,881	230,359	116,825
238,742	2,463	230,248	116,439
239,757	2,697	230,107	116,536
240,772	2,647	229,979	116,423
241,786	2,774	229,688	116,362
242,801	2,827	229,660	116,378
243,815	3,110	229,730	116,618
244,830	3,160	229,351	116,454
245,844	2,835	229,280	116,160
246,859	2,781	229,142	116,039
247,874	3,167	228,868	116,183
248,888	3,126	228,899	116,157
249,903	2,976	228,655	115,909
250,917	2,745	228,447	115,618
251,932	2,736	228,333	115,544
252,947	2,607	228,250	115,393
253,961	2,603	228,027	115,267
254,976	2,855	227,734	115,299
255,990	2,969	227,908	115,463
257,005	3,169	227,581	115,438
258,020	2,834	227,536	115,152
259,034	3,053	227,455	115,266
260,049	2,998	227,271	115,121
261,063	3,051	227,087	115,058
262,078	3,058	227,095	115,057
263,093	3,524	226,644	115,169
264,107	3,303	226,613	114,976
265,122	3,120	226,462	114,752
266,136	3,363	226,482	114,934
267,151	3,268	226,293	114,757
268,166	2,894	225,920	114,278
269,180	2,785	225,732	114,090
270,195	2,705	225,546	113,927
271,209	2,815	225,395	113,922
272,224	2,899	225,399	113,977
273,239	2,732	225,212	113,748
274,253	2,625	225,067	113,585
275,268	2,575	224,888	113,447
276,282	2,480	224,741	113,292
277,297	2,323	224,718	113,153
278,312	2,677	224,400	113,246
279,326	2,649	224,286	113,157
280,341	2,593	224,310	113,118
281,355	2,998	224,001	113,252
282,370	2,781	224,038	113,100
283,384	2,503	223,769	112,748
284,399	2,555	223,528	112,655
285,414	2,633	223,422	112,650
286,428	2,863	223,333	112,765
287,443	2,948	223,339	112,820
288,457	3,033	223,072	112,738
289,472	2,751	222,872	112,419
290,487	2,420	222,624	112,041
291,501	2,320	222,381	111,835
292,516	2,410	222,378	111,889
293,530	2,650	222,265	111,999
294,545	2,388	222,172	111,750
295,560	2,869	221,851	111,930
296,574	2,730	221,936	111,862
297,589	2,716	221,863	111,804
298,603	2,648	221,842	111,734
299,618	2,805	221,551	111,693
300,633	2,650	221,513	111,550
301,647	3,043	221,326	111,734
302,662	2,901	221,172	111,542
303,676	2,996	221,054	111,542
304,691	3,108	220,875	111,524
305,706	2,904	220,831	111,342
306,720	3,019	220,582	111,291
307,735	2,675	220,500	110,989
308,749	2,818	220,384	111,025
309,764	2,702	220,291	110,883
310,779	2,862	220,127	110,907
311,793	2,770	219,940	110,736
312,808	2,646	219,949	110,641
313,822	2,847	219,560	110,582
314,837	3,009	219,252	110,534
315,852	2,552	219,279	110,206
316,866	2,710	219,179	110,261
317,881	2,977	219,229	110,469
318,895	3,060	218,896	110,352
319,910	2,631	218,822	109,995
320,925	2,358	218,399	109,575
321,939	2,415	218,316	109,565
322,954	2,359	218,375	109,544
323,968	2,873	218,416	109,925
324,983	3,096	218,072	109,903
325,997	3,109	217,896	109,814
327,012	2,950	217,770	109,627
328,027	3,015	217,680	109,618
329,041	3,272	217,647	109,776
330,056	3,382	217,435	109,738
331,070	2,894	217,133	109,226
332,085	2,545	216,934	108,867
333,100	2,661	216,829	108,888
334,114	2,515	216,610	108,663
335,129	2,588	216,703	108,753
336,143	2,703	216,650	108,799
337,158	3,071	216,537	108,995
338,173	2,863	216,319	108,727
339,187	2,712	216,148	108,524
340,202	2,443	215,913	108,205
341,216	2,507	215,806	108,187
342,231	2,883	215,637	108,360
343,246	2,681	215,467	108,121
344,260	2,708	215,449	108,122
345,275	2,896	215,360	108,201
346,289	2,901	215,202	108,116
347,304	3,013	214,916	108,041
348,319	2,851	214,858	107,889
349,333	3,050	214,672	107,926
350,348	2,726	214,695	107,698
351,362	3,030	214,525	107,818
352,377	3,220	214,403	107,881
353,392	2,801	214,256	107,502
354,406	3,027	214,094	107,570
355,421	198,080	1315,472	1396,554
356,435	158,535	1449,593	1396,491
