DTS Sentinel unit serial number:	SN410029Multiplexer serial number:	ORYXHardware model number:	OX2-SRSoftware version number:	ORYX F/W v4,00 Oryx Data Collector v3.7.2.0data status	okinstallation	B6 Nyhavnadifferential loss correction	single-endedforward channel	channel 2reverse channel	N/Adate	2023/12/11time	00:25:08forward acquisition time	300,00reverse acquisition time	0,00gamma	499,1914k internal	0,3122k external	0,3122temperature offset calibration	1,0000default loss term (dB/km)	0,3820temperature slope calibration	1,0000multiplexer offset coefficient	1,0000multiplexer slope coefficient	1,0000fibre end	0,00T internal ref (°C)	22,34T ext. ref 1 (°C)	5,84T ext. ref 2 (°C)	5,87length (m)	temperature (°C)	Stokes	anti-Stokes-744,400	53,193	0,155	-0,110
-743,385	-141,167	-0,157	0,012
-742,371	178,290	0,073	-0,080
-741,356	306,470	-0,213	0,296
-740,342	555,351	-0,032	-0,058
-739,327	800,000	-0,090	0,254
-738,312	4,101	0,085	0,046
-737,298	50,977	-0,238	-0,168
-736,283	-200,000	-0,026	-0,091
-735,269	118,289	-0,201	0,185
-734,254	-92,785	-0,075	-0,015
-733,239	-109,771	-0,328	-0,051
-732,225	18,348	-0,053	0,031
-731,210	59,946	0,147	0,108
-730,196	416,995	0,035	0,055
-729,181	123,075	-0,066	0,062
-728,167	70,296	0,061	0,047
-727,152	800,000	-0,096	0,212
-726,137	102,619	-0,077	-0,067
-725,123	68,649	-0,062	0,047
-724,108	252,750	-0,044	-0,056
-723,094	90,630	-0,082	-0,068
-722,079	-200,000	-0,004	0,041
-721,064	40,862	0,032	-0,021
-720,050	-104,551	-0,046	0,008
-719,035	-200,000	-0,127	0,000
-718,021	423,058	-0,094	0,151
-717,006	-140,165	-0,133	-0,010
-715,991	6,874	-0,076	-0,042
-714,977	83,678	-0,103	-0,083
-713,962	19,632	0,123	-0,074
-712,948	-200,000	-0,011	-0,091
-711,933	-4,520	0,132	-0,068
-710,918	118,668	-0,068	-0,063
-709,904	114,963	-0,096	-0,087
-708,889	-129,077	-0,068	-0,007
-707,875	-61,980	0,129	-0,040
-706,860	800,000	0,049	-0,102
-705,845	800,000	-0,022	0,053
-704,831	-200,000	0,004	0,035
-703,816	180,244	-0,092	0,100
-702,802	-157,520	-0,108	0,005
-701,787	-200,000	0,055	-0,198
-700,772	4,177	-0,037	-0,020
-699,758	-200,000	-0,002	-0,032
-698,743	-200,000	-0,019	-0,102
-697,729	-200,000	-0,011	0,046
-696,714	-53,568	-0,057	0,019
-695,699	-200,000	-0,024	-0,175
-694,685	-163,839	0,095	0,003
-693,670	-121,405	-0,184	-0,022
-692,656	6,794	-0,093	0,051
-691,641	-144,252	0,154	-0,011
-690,627	-60,528	0,060	0,019
-689,612	-200,000	0,011	0,046
-688,597	-159,181	-0,121	-0,005
-687,583	147,018	-0,067	-0,067
-686,568	-39,813	-0,112	0,044
-685,554	-200,000	0,002	-0,042
-684,539	-54,282	0,091	-0,031
-683,524	-200,000	-0,030	-0,100
-682,510	33,731	-0,108	0,070
-681,495	-200,000	0,005	-0,097
-680,481	-55,325	-0,056	0,019
-679,466	254,045	-0,056	-0,071
-678,451	42,398	0,055	-0,037
-677,437	-200,000	-0,000	-0,056
-676,422	-200,000	-0,007	0,071
-675,408	-55,471	-0,126	0,042
-674,393	-103,359	-0,090	-0,016
-673,378	216,345	0,044	-0,052
-672,364	-200,000	0,023	0,080
-671,349	74,371	0,020	-0,016
-670,335	-200,000	0,006	-0,062
-669,320	474,434	-0,024	0,040
-668,305	-200,000	-0,027	0,142
-667,291	569,824	-0,021	-0,038
-666,276	-41,055	-0,071	-0,027
-665,262	800,000	-0,066	-0,180
-664,247	-200,000	-0,025	-0,090
-663,232	800,000	-0,018	0,056
-662,218	410,972	-0,060	0,095
-661,203	-200,000	0,014	0,150
-660,189	800,000	-0,045	0,095
-659,174	404,698	-0,111	-0,174
-658,159	-200,000	0,017	-0,060
-657,145	-65,895	-0,071	0,021
-656,130	208,626	0,021	0,024
-655,116	15,917	0,119	-0,069
-654,101	-114,332	0,080	0,011
-653,086	-47,451	0,067	0,024
-652,072	-128,357	-0,092	0,010
-651,057	225,942	-0,081	-0,098
-650,043	-107,597	-0,081	0,013
-649,028	-200,000	-0,031	-0,206
-648,014	-200,000	-0,009	0,072
-646,999	134,113	-0,032	0,030
-645,984	-27,297	-0,054	0,023
-644,970	-191,665	-0,040	0,000
-643,955	800,000	-0,040	0,090
-642,941	-3,126	-0,120	-0,062
-641,926	10,762	0,084	-0,048
-640,911	800,000	-0,015	-0,045
-639,897	800,000	-0,020	0,061
-638,882	23,114	0,117	0,071
-637,868	17,351	-0,190	-0,112
-636,853	114,519	-0,165	-0,150
-635,838	-67,790	-0,137	-0,040
-634,824	306,859	-0,039	-0,055
-633,809	-200,000	-0,013	0,057
-632,795	502,356	-0,053	0,092
-631,780	-105,416	0,087	0,014
-630,765	-200,000	0,022	-0,077
-629,751	-200,000	-0,019	-0,068
-628,736	22,159	0,075	0,045
-627,722	-200,000	-0,004	-0,173
-626,707	-200,000	-0,020	-0,206
-625,692	-131,190	-0,157	0,015
-624,678	31,044	0,055	0,035
-623,663	-197,095	-0,045	0,000
-622,649	248,526	0,035	-0,044
-621,634	225,782	-0,043	-0,052
-620,619	84,498	0,019	0,016
-619,605	-200,000	-0,009	0,044
-618,590	125,752	0,051	0,048
-617,576	-120,546	-0,117	0,015
-616,561	800,000	0,012	-0,029
-615,546	242,965	-0,085	-0,106
-614,532	255,343	-0,061	-0,078
-613,517	-121,241	-0,115	-0,014
-612,503	14,377	0,045	0,026
-611,488	-200,000	-0,016	0,078
-610,474	273,690	0,019	0,025
-609,459	-42,991	-0,165	-0,062
-608,444	24,716	0,041	-0,025
-607,430	306,375	-0,053	-0,073
-606,415	126,930	0,007	0,007
-605,401	-104,290	0,134	0,023
-604,386	37,273	0,179	0,117
-603,371	800,000	0,037	0,109
-602,357	-108,027	0,048	0,008
-601,342	-196,527	-0,091	-0,000
-600,328	127,900	-0,104	-0,099
-599,313	-117,627	-0,088	-0,012
-598,298	-200,000	0,013	0,097
-597,284	-109,066	0,103	-0,016
-596,269	-200,000	0,042	0,204
-595,255	575,278	0,038	0,069
-594,240	12,268	0,019	0,011
-593,225	-68,963	-0,070	-0,020
-592,211	-63,040	-0,103	0,031
-591,196	34,666	0,011	-0,007
-590,182	800,000	-0,036	0,086
-589,167	800,000	0,023	0,072
-588,152	-22,025	-0,091	-0,041
-587,138	-146,160	-0,155	-0,010
-586,123	800,000	0,018	-0,039
-585,109	80,422	0,061	-0,048
-584,094	800,000	-0,016	-0,049
-583,079	383,036	0,049	0,075
-582,065	-200,000	0,002	-0,068
-581,050	394,496	-0,043	-0,066
-580,036	-200,000	0,028	0,111
-579,021	581,971	0,030	0,056
-578,006	-71,841	-0,072	-0,020
-576,992	375,764	-0,022	0,034
-575,977	-56,856	0,078	-0,026
-574,963	-51,402	0,129	0,045
-573,948	209,699	0,042	-0,049
-572,934	299,424	-0,078	0,107
-571,919	-117,012	0,008	-0,001
-570,904	240,942	-0,041	-0,051
-569,890	800,000	0,033	0,091
-568,875	-38,763	0,139	0,054
-567,861	-144,043	-0,040	-0,003
-566,846	-77,826	0,078	-0,020
-565,831	800,000	0,046	-0,112
-564,817	-24,529	-0,123	-0,054
-563,802	85,122	-0,101	0,082
-562,788	-99,710	-0,069	-0,013
-561,773	52,433	0,042	0,030
-560,758	236,242	-0,032	0,039
-559,744	-71,579	0,122	0,034
-558,729	-200,000	-0,013	0,089
-557,715	-66,959	-0,028	0,008
-556,700	-200,000	0,003	-0,096
-555,685	-200,000	-0,012	-0,139
-554,671	800,000	-0,024	-0,061
-553,656	-36,994	0,072	0,029
-552,642	-200,000	-0,024	0,096
-551,627	-18,951	-0,060	-0,027
-550,612	228,140	-0,108	-0,130
-549,598	114,437	-0,048	0,043
-548,583	-49,714	0,126	-0,044
-547,569	800,000	-0,007	-0,014
-546,554	800,000	0,037	-0,103
-545,539	-200,000	0,007	0,034
-544,525	-200,000	0,011	-0,109
-543,510	-136,857	-0,067	-0,006
-542,496	289,350	0,090	0,122
-541,481	-120,186	0,128	0,016
-540,466	73,718	0,086	0,067
-539,452	-96,267	-0,077	0,015
-538,437	-200,000	-0,008	0,028
-537,423	-200,000	0,036	0,150
-536,408	-95,867	0,060	0,012
-535,393	56,249	-0,033	0,024
-534,379	800,000	-0,034	-0,078
-533,364	-65,781	0,078	-0,023
-532,350	544,774	0,022	-0,038
-531,335	484,998	0,016	-0,027
-530,321	50,705	-0,110	0,077
-529,306	23,212	0,188	0,114
-528,291	800,000	-0,042	-0,134
-527,277	800,000	0,015	-0,034
-526,262	-96,808	-0,067	0,013
-525,248	-76,725	-0,137	-0,035
-524,233	243,211	0,033	0,040
-523,218	278,249	-0,074	0,097
-522,204	800,000	-0,020	0,058
-521,189	673,751	-0,023	0,044
-520,175	-88,228	-0,104	-0,023
-519,160	2,215	0,063	-0,034
-518,145	170,586	0,016	-0,017
-517,131	-200,000	-0,003	0,031
-516,116	6,115	0,090	-0,049
-515,102	-200,000	-0,008	0,142
-514,087	-200,000	0,004	0,105
-513,072	159,295	0,034	0,035
-512,058	283,366	0,013	0,017
-511,043	484,488	-0,024	0,041
-510,029	-110,578	-0,012	0,002
-509,014	-32,866	0,062	-0,026
-507,999	-133,827	0,094	-0,009
-506,985	385,002	-0,048	0,073
-505,970	800,000	-0,019	-0,051
-504,956	-72,655	-0,108	-0,029
-503,941	-200,000	0,017	-0,081
-502,926	800,000	0,031	0,071
-501,912	371,822	0,073	-0,110
-500,897	800,000	-0,036	0,107
-499,883	-66,235	0,053	0,015
-498,868	-200,000	-0,008	-0,045
-497,853	-200,000	0,019	0,098
-496,839	-200,000	0,000	0,016
-495,824	-200,000	0,006	0,036
-494,810	6,255	-0,090	0,049
-493,795	-28,548	0,127	0,054
-492,781	800,000	0,031	-0,071
-491,766	-68,098	0,053	0,015
-490,751	-200,000	0,027	-0,094
-489,737	-101,981	-0,045	-0,008
-488,722	-200,000	-0,002	-0,072
-487,708	-150,990	-0,130	0,007
-486,693	800,000	0,049	0,148
-485,678	366,174	-0,065	0,097
-484,664	118,112	-0,043	-0,039
-483,649	37,663	0,067	0,044
-482,635	-142,270	-0,043	-0,003
-481,620	-0,742	0,148	0,077
-480,605	-200,000	0,004	-0,048
-479,591	577,923	0,105	0,189
-478,576	-74,779	-0,148	0,039
-477,562	159,923	-0,031	-0,032
-476,547	-19,398	-0,067	-0,030
-475,532	-200,000	-0,014	-0,071
-474,518	63,075	0,084	0,062
-473,503	-200,000	0,018	0,063
-472,489	-73,066	-0,011	-0,003
-471,474	386,981	-0,059	-0,090
-470,459	-11,811	0,010	0,005
-469,445	-41,811	0,074	-0,028
-468,430	800,000	-0,024	-0,069
-467,416	-200,000	-0,016	0,058
-466,401	84,002	0,101	0,081
-465,386	161,449	-0,027	0,028
-464,372	-32,140	-0,045	-0,019
-463,357	613,998	-0,039	0,071
-462,343	137,296	-0,038	-0,036
-461,328	799,318	0,053	-0,108
-460,313	-114,419	-0,030	-0,004
-459,299	-109,175	0,045	-0,007
-458,284	800,000	-0,052	0,116
-457,270	-78,513	0,081	0,020
-456,255	-200,000	-0,020	0,105
-455,241	-177,733	-0,055	0,001
-454,226	-25,887	-0,070	0,030
-453,211	331,870	0,011	0,015
-452,197	354,309	0,077	0,113
-451,182	-200,000	0,020	0,142
-450,168	-200,000	-0,007	0,044
-449,153	61,933	-0,105	-0,077
-448,138	-178,473	-0,061	-0,001
-447,124	-105,566	0,042	-0,007
-446,109	-131,940	-0,152	-0,014
-445,095	-200,000	0,004	0,014
-444,080	-157,599	0,109	0,005
-443,065	800,000	-0,053	0,118
-442,051	54,236	-0,072	0,051
-441,036	71,694	0,123	-0,094
-440,022	800,000	-0,028	0,078
-439,007	-200,000	-0,034	0,142
-437,992	28,794	0,140	0,087
-436,978	-65,337	-0,079	0,023
-435,963	108,188	0,089	-0,078
-434,949	800,000	-0,030	-0,088
-433,934	800,000	0,057	-0,158
-432,919	375,345	-0,023	-0,035
-431,905	-149,481	0,006	-0,000
-430,890	-54,530	-0,112	-0,037
-429,876	289,491	0,036	0,049
-428,861	-10,385	0,041	0,020
-427,846	126,907	-0,105	-0,098
-426,832	-24,620	-0,124	-0,054
-425,817	39,396	-0,095	-0,063
-424,803	-79,437	0,074	-0,018
-423,788	-200,000	0,004	0,027
-422,773	73,288	0,065	0,050
-421,759	268,620	-0,051	-0,066
-420,744	-73,652	0,120	-0,032
-419,730	-129,573	0,090	0,009
-418,715	172,804	0,012	-0,013
-417,701	800,000	-0,059	-0,133
-416,686	-200,000	0,023	-0,106
-415,671	-163,551	-0,100	0,003
-414,657	-200,000	0,024	0,111
-413,642	75,273	-0,077	-0,059
-412,628	334,652	0,025	-0,036
-411,613	-98,978	0,044	0,008
-410,598	-117,012	0,038	0,005
-409,584	-200,000	-0,021	0,076
-408,569	-70,628	0,065	0,018
-407,555	3,389	0,052	-0,028
-406,540	-200,000	-0,008	-0,050
-405,525	11,362	-0,073	-0,041
-404,511	225,109	0,077	-0,091
-403,496	-54,665	-0,130	-0,043
-402,482	800,000	-0,033	0,077
-401,467	-99,420	0,106	-0,019
-400,452	-3,676	-0,098	-0,050
-399,438	-130,704	-0,033	0,003
-398,423	-107,353	0,117	0,019
-397,409	-200,000	0,020	-0,087
-396,394	227,529	0,024	-0,029
-395,379	800,000	0,036	0,076
-394,365	71,159	0,032	0,024
-393,350	-10,143	0,094	0,046
-392,336	-101,798	0,088	0,016
-391,321	66,779	-0,037	-0,028
-390,306	157,890	-0,056	-0,057
-389,292	-70,818	-0,049	-0,013
-388,277	177,204	0,025	0,027
-387,263	100,356	-0,076	0,065
-386,248	-200,000	-0,013	0,086
-385,233	-200,000	-0,033	0,161
-384,219	-115,891	-0,072	-0,010
-383,204	-200,000	-0,010	0,059
-382,190	39,786	-0,017	0,011
-381,175	800,000	0,026	-0,058
-380,160	-4,309	0,117	-0,059
-379,146	-104,019	-0,063	0,011
-378,131	-123,439	0,124	0,014
-377,117	-110,707	-0,017	-0,003
-376,102	-200,000	0,008	-0,037
-375,088	-168,277	-0,060	-0,002
-374,073	-40,381	0,005	-0,002
-373,058	94,040	0,114	-0,095
-372,044	499,646	0,082	-0,140
-371,029	-3,275	0,020	0,010
-370,015	370,353	-0,039	0,059
-369,000	-92,333	-0,078	0,016
-367,985	-200,000	-0,016	0,143
-366,971	146,279	-0,075	-0,074
-365,956	-200,000	-0,019	0,075
-364,942	-200,000	-0,007	0,055
-363,927	800,000	0,002	-0,006
-362,912	-67,845	-0,042	0,012
-361,898	110,489	-0,092	-0,081
-360,883	-44,316	-0,016	0,006
-359,869	70,866	-0,062	-0,047
-358,854	-169,961	0,195	-0,005
-357,839	-18,452	0,025	-0,011
-356,825	-200,000	-0,002	0,065
-355,810	47,088	-0,026	0,018
-354,796	314,841	0,059	0,081
-353,781	-200,000	-0,040	-0,156
-352,766	-80,983	0,031	-0,008
-351,752	-100,272	0,052	0,009
-350,737	800,000	-0,037	-0,112
-349,723	-41,488	0,127	0,048
-348,708	-85,922	-0,045	0,010
-347,693	451,106	-0,055	-0,090
-346,679	-200,000	0,024	-0,184
-345,664	-200,000	-0,017	-0,120
-344,650	340,198	0,039	-0,056
-343,635	-126,898	0,184	0,020
-342,620	67,114	-0,010	0,008
-341,606	800,000	0,085	0,201
-340,591	-200,000	-0,004	-0,057
-339,577	154,169	0,027	-0,027
-338,562	800,000	-0,084	-0,228
-337,548	118,586	0,060	-0,054
-336,533	-200,000	-0,027	0,098
-335,518	66,450	0,081	0,061
-334,504	-165,120	0,110	-0,003
-333,489	-135,180	-0,108	0,009
-332,475	444,710	-0,071	-0,115
-331,460	141,248	-0,037	-0,036
-330,445	45,673	0,021	0,014
-329,431	800,000	0,008	0,019
-328,416	-83,514	0,065	0,015
-327,402	-19,064	0,078	-0,035
-326,387	317,480	-0,055	-0,077
-325,372	117,459	-0,036	0,033
-324,358	800,000	-0,018	0,054
-323,343	-71,191	0,060	0,017
-322,329	-200,000	0,016	0,120
-321,314	800,000	0,056	0,152
-320,299	6,720	0,145	0,079
-319,285	-200,000	0,010	0,117
-318,270	381,626	-0,036	-0,055
-317,256	611,979	-0,024	0,044
-316,241	-200,000	-0,001	-0,023
-315,226	76,360	0,030	0,023
-314,212	75,557	0,190	0,147
-313,197	-157,368	0,127	-0,006
-312,183	-44,430	0,071	-0,026
-311,168	-63,904	-0,091	-0,027
-310,153	-65,255	0,050	-0,015
-309,139	-200,000	0,025	-0,113
-308,124	-23,367	-0,116	0,051
-307,110	800,000	-0,021	0,059
-306,095	57,646	0,091	0,065
-305,080	-59,243	-0,075	0,024
-304,066	-4,918	-0,119	-0,060
-303,051	-200,000	0,011	-0,103
-302,037	558,459	0,039	-0,070
-301,022	-200,000	-0,002	-0,075
-300,008	-200,000	-0,012	-0,097
-298,993	116,621	0,167	-0,150
-297,978	800,000	-0,020	-0,052
-296,964	-40,316	0,009	0,003
-295,949	-62,513	-0,188	0,057
-294,935	-63,971	-0,095	0,028
-293,920	-67,558	-0,105	-0,030
-292,905	-53,545	0,085	0,028
-291,891	-113,423	0,060	0,008
-290,876	574,567	0,049	0,087
-289,862	-200,000	-0,002	-0,116
-288,847	72,984	-0,011	-0,008
-287,832	-200,000	0,015	-0,146
-286,818	-200,000	0,029	-0,101
-285,803	71,162	0,099	-0,075
-284,789	-117,687	0,108	0,014
-283,774	-62,122	0,124	0,038
-282,759	777,895	0,005	0,010
-281,745	-200,000	0,012	-0,069
-280,730	12,188	0,030	-0,017
-279,716	152,025	0,022	-0,022
-278,701	-112,412	0,042	-0,006
-277,686	18,539	0,128	0,075
-276,672	800,000	0,024	0,050
-275,657	800,000	-0,042	-0,088
-274,643	193,422	0,030	0,034
-273,628	-200,000	0,035	0,125
-272,613	-200,000	-0,001	-0,074
-271,599	-122,710	0,142	0,017
-270,584	253,481	0,018	0,022
-269,570	800,000	0,037	-0,101
-268,555	125,882	0,064	0,059
-267,540	28,601	-0,024	-0,015
-266,526	-200,000	-0,015	-0,092
-265,511	800,000	-0,008	-0,022
-264,497	14,213	0,077	-0,044
-263,482	800,000	0,044	-0,105
-262,467	-200,000	0,018	0,096
-261,453	-84,002	0,070	0,016
-260,438	-200,000	0,005	-0,024
-259,424	-57,222	0,107	-0,034
-258,409	800,000	0,026	0,061
-257,395	-200,000	-0,034	-0,112
-256,380	-200,000	-0,040	0,135
-255,365	144,335	0,188	0,183
-254,351	-7,718	-0,077	-0,038
-253,336	157,394	-0,156	-0,158
-252,322	63,435	-0,123	0,090
-251,307	-200,000	0,006	-0,036
-250,292	-169,210	-0,049	0,001
-249,278	467,748	0,086	0,141
-248,263	-3,018	-0,025	0,013
-247,249	69,022	-0,110	0,083
-246,234	133,387	-0,050	0,047
-245,219	133,467	-0,058	-0,055
-244,205	-23,828	0,075	0,032
-243,190	74,846	0,075	0,058
-242,176	159,575	-0,024	0,024
-241,161	800,000	0,018	0,055
-240,146	-200,000	-0,017	-0,135
-239,132	116,122	-0,070	-0,063
-238,117	-50,302	-0,141	-0,049
-237,103	-35,284	-0,140	-0,056
-236,088	800,000	-0,034	0,076
-235,073	168,215	-0,052	0,054
-234,059	161,304	0,056	-0,057
-233,044	800,000	-0,051	0,107
-232,030	-145,035	-0,050	-0,003
-231,015	374,222	-0,114	-0,170
-230,000	531,862	0,085	-0,148
-228,986	-200,000	-0,006	-0,064
-227,971	319,248	0,090	0,125
-226,957	323,255	0,128	0,179
-225,942	-200,000	-0,003	0,041
-224,927	386,379	-0,051	0,077
-223,913	-21,908	-0,017	0,007
-222,898	190,876	-0,062	-0,069
-221,884	283,206	0,065	0,086
-220,869	160,596	0,090	0,092
-219,855	115,949	-0,076	0,068
-218,840	419,265	-0,054	0,085
-217,825	-124,191	-0,066	0,007
-216,811	-59,903	0,073	-0,023
-215,796	114,951	-0,018	-0,016
-214,782	-28,302	0,090	-0,038
-213,767	104,224	0,116	-0,099
-212,752	-72,683	-0,039	0,010
-211,738	85,726	-0,056	-0,045
-210,723	256,243	0,014	-0,017
-209,709	-200,000	-0,011	-0,094
-208,694	147,061	-0,070	-0,069
-207,679	-123,866	-0,093	-0,011
-206,665	800,000	0,050	0,132
-205,650	-200,000	0,016	0,078
-204,636	-174,041	0,050	0,001
-203,621	-110,435	-0,110	-0,017
-202,606	-7,971	-0,039	-0,019
-201,592	-25,273	-0,113	-0,049
-200,577	425,398	0,013	-0,021
-199,563	31,237	-0,100	-0,063
-198,548	-200,000	0,021	-0,156
-197,533	66,167	0,060	0,044
-196,519	-89,553	0,098	0,021
-195,504	89,251	0,099	0,081
-194,490	-200,000	0,021	-0,114
-193,475	21,027	-0,055	-0,032
-192,460	-200,000	0,006	-0,062
-191,446	-106,639	0,036	-0,006
-190,431	788,668	0,054	0,108
-189,417	800,000	-0,052	0,145
-188,402	59,647	0,010	-0,007
-187,387	-200,000	0,006	0,025
-186,373	55,200	-0,050	-0,035
-185,358	-200,000	0,009	0,088
-184,344	-200,000	-0,001	-0,042
-183,329	-80,696	0,144	0,035
-182,315	501,787	-0,088	0,149
-181,300	-53,665	-0,081	-0,027
-180,285	-200,000	0,026	-0,152
-179,271	-200,000	0,007	-0,061
-178,256	-63,072	-0,156	-0,047
-177,242	62,584	-0,061	0,044
-176,227	237,894	-0,052	0,064
-175,212	800,000	0,015	0,036
-174,198	-187,677	0,123	0,001
-173,183	35,721	-0,236	-0,151
-172,169	-200,000	-0,020	0,112
-171,154	-25,935	-0,038	-0,016
-170,139	-200,000	0,031	0,119
-169,125	800,000	0,025	-0,071
-168,110	37,990	-0,116	0,075
-167,096	214,200	-0,078	-0,090
-166,081	-121,633	-0,044	0,005
-165,066	-65,819	-0,042	-0,012
-164,052	147,904	0,020	-0,020
-163,037	-42,274	0,065	0,024
-162,023	86,815	0,066	-0,053
-161,008	18,267	-0,065	0,037
-159,993	214,029	0,106	0,122
-158,979	-200,000	0,036	-0,120
-157,964	63,470	-0,115	0,084
-156,950	19,094	-0,055	-0,032
-155,935	-56,974	0,046	0,015
-154,920	-6,621	0,059	-0,029
-153,906	76,034	0,097	-0,075
-152,891	284,250	0,047	-0,062
-151,877	-200,000	0,037	0,135
-150,862	800,000	-0,023	-0,062
-149,847	205,352	-0,045	0,051
-148,833	565,226	-0,048	0,086
-147,818	125,209	0,095	0,088
-146,804	-13,269	-0,067	-0,031
-145,789	-200,000	0,001	0,064
-144,775	-198,393	-0,131	0,001
-143,760	2,416	-0,024	-0,012
-142,745	8,400	-0,005	0,003
-141,731	619,065	0,052	-0,095
-140,716	-200,000	0,023	-0,102
-139,702	-140,582	0,134	-0,010
-138,687	800,000	-0,038	0,091
-137,672	-200,000	-0,045	0,153
-136,658	800,000	0,023	0,048
-135,643	-146,555	-0,126	0,008
-134,629	6,156	-0,094	-0,050
-133,614	-200,000	0,002	-0,078
-132,599	112,442	0,067	0,059
-131,585	-200,000	-0,011	0,041
-130,570	208,237	0,075	-0,085
-129,556	-200,000	-0,009	-0,131
-128,541	93,904	0,016	-0,013
-127,526	457,918	0,062	0,101
-126,512	18,242	0,026	0,015
-125,497	-200,000	-0,002	0,102
-124,483	764,568	0,044	0,086
-123,468	12,491	0,133	0,074
-122,453	121,400	0,055	-0,049
-121,439	-200,000	-0,010	0,068
-120,424	263,916	-0,062	-0,079
-119,410	72,933	-0,020	0,015
-118,395	-28,092	-0,050	-0,021
-117,380	-39,424	-0,081	0,031
-116,366	-200,000	-0,005	-0,046
-115,351	-200,000	0,043	-0,173
-114,337	450,958	0,016	0,026
-113,322	-200,000	-0,001	0,127
-112,307	800,000	0,024	0,051
-111,293	368,229	-0,071	0,105
-110,278	635,493	-0,052	0,097
-109,264	800,000	-0,092	0,261
-108,249	-200,000	0,007	0,035
-107,234	294,174	0,150	-0,200
-106,220	800,000	0,069	-0,186
-105,205	7,226	0,080	-0,043
-104,191	106,288	0,088	0,076
-103,176	176,898	0,100	-0,106
-102,162	637,405	-0,054	-0,101
-101,147	-200,000	-0,015	-0,048
-100,132	78,998	-0,006	-0,004
-99,118	-72,276	-0,126	-0,034
-98,103	48,820	0,111	0,075
-97,089	-70,670	0,097	0,027
-96,074	-200,000	-0,032	0,151
-95,059	110,515	0,061	0,053
-94,045	-146,800	-0,077	-0,005
-93,030	-200,000	0,002	-0,114
-92,016	211,834	0,074	-0,084
-91,001	104,650	-0,060	0,051
-89,986	143,342	0,021	-0,020
-88,972	-98,929	0,020	0,004
-87,957	-164,329	0,063	0,002
-86,943	113,701	0,082	-0,073
-85,928	-200,000	-0,018	-0,066
-84,913	800,000	-0,019	-0,048
-83,899	-106,814	0,078	-0,012
-82,884	229,977	0,105	0,125
-81,870	800,000	0,014	0,029
-80,855	-200,000	-0,021	0,174
-79,840	483,909	-0,015	0,026
-78,826	48,235	-0,063	-0,043
-77,811	104,145	-0,007	0,006
-76,797	-12,821	0,138	0,065
-75,782	-200,000	-0,016	-0,131
-74,767	406,194	-0,057	-0,087
-73,753	365,939	0,058	0,085
-72,738	45,036	0,058	-0,039
-71,724	-200,000	-0,029	-0,141
-70,709	315,789	-0,073	-0,100
-69,694	768,896	-0,028	-0,055
-68,680	291,607	0,038	0,051
-67,665	-0,123	-0,058	-0,030
-66,651	-61,560	0,113	-0,034
-65,636	164,408	-0,040	0,041
-64,622	142,554	0,089	0,085
-63,607	299,218	0,052	0,070
-62,592	-59,651	0,112	-0,035
-61,578	697,989	-0,069	0,132
-60,563	800,000	-0,042	0,087
-59,549	-73,304	-0,159	-0,042
-58,534	-134,004	-1,274	-0,113
-57,519	477,359	-0,855	-1,409
-56,505	-200,000	-0,833	-4,293
-55,490	112,118	0,478	-0,420
-54,476	800,000	4,893	11,824
-53,461	-200,000	13,618	252,581
-52,446	-200,000	689,640	2257,837
-51,432	591,059	1622,148	2917,282
-50,417	119,181	1634,807	1467,620
-49,403	73,256	1288,819	977,377
-48,388	38,140	1023,964	659,991
-47,373	24,336	981,893	587,468
-46,359	23,491	971,577	578,500
-45,344	22,549	967,211	572,797
-44,330	22,481	965,798	571,718
-43,315	22,397	964,217	570,484
-42,300	22,406	963,260	569,926
-41,286	22,356	962,310	569,178
-40,271	22,350	961,359	568,572
-39,257	22,302	960,579	567,933
-38,242	22,383	959,338	567,440
-37,227	22,332	958,529	566,774
-36,213	22,369	957,607	566,326
-35,198	22,355	956,804	565,783
-34,184	22,398	956,366	565,640
-33,169	22,363	955,415	564,941
-32,154	22,374	954,434	564,374
-31,140	22,372	953,562	563,830
-30,125	22,378	952,817	563,389
-29,111	22,346	951,997	562,776
-28,096	22,373	951,347	562,458
-27,082	22,398	950,638	562,095
-26,067	22,390	949,785	561,543
-25,052	22,378	949,119	561,090
-24,038	22,362	948,492	560,645
-23,023	22,374	947,821	560,264
-22,009	22,378	947,064	559,809
-20,994	22,452	946,479	559,677
-19,979	22,386	945,853	559,073
-18,965	22,418	945,276	558,810
-17,950	22,419	944,581	558,380
-16,936	22,248	944,038	557,494
-15,921	22,372	943,072	557,295
-14,906	22,279	942,634	556,720
-13,892	22,278	942,011	556,326
-12,877	22,230	941,452	555,821
-11,863	22,222	940,699	555,329
-10,848	22,254	940,270	555,154
-9,833	22,374	939,698	555,178
-8,819	22,284	939,246	554,603
-7,804	22,270	938,472	554,079
-6,790	22,256	937,961	553,712
-5,775	22,266	937,253	553,303
-4,760	22,249	936,556	552,816
-3,746	22,270	936,090	552,585
-2,731	22,122	935,348	551,656
-1,717	22,118	934,627	551,196
-0,702	22,093	933,904	550,671
0,313	21,907	933,321	550,571
1,327	25,042	931,351	559,219
2,342	34,752	795,978	503,801
3,356	32,665	451,657	282,698
4,371	1,599	293,889	152,934
5,386	-2,727	274,698	138,839
6,400	-4,571	269,038	134,253
7,415	-5,428	266,662	132,267
8,429	-4,771	265,394	132,228
9,444	-4,755	264,613	131,843
10,459	-4,599	263,975	131,655
11,473	-4,837	263,309	131,095
12,488	-4,880	262,772	130,777
13,502	-4,882	262,261	130,508
14,517	-4,743	261,737	130,362
15,531	-4,711	261,372	130,197
16,546	-4,766	261,023	129,963
17,561	-4,694	260,719	129,864
18,575	-4,607	260,478	129,811
19,590	-4,736	260,127	129,508
20,604	-4,570	259,767	129,467
21,619	-4,893	259,483	129,024
22,634	-4,941	259,089	128,774
23,648	-4,710	258,856	128,853
24,663	-4,835	258,647	128,626
25,677	-4,567	258,384	128,723
26,692	-4,756	258,075	128,389
27,707	-4,751	257,763	128,227
28,721	-4,746	257,487	128,082
29,736	-4,908	257,223	127,796
30,750	-4,898	256,877	127,622
31,765	-4,923	256,791	127,546
32,780	-5,020	256,599	127,353
33,794	-4,895	256,475	127,390
34,809	-4,852	256,048	127,205
35,823	-4,710	255,786	127,188
36,838	-4,747	255,697	127,101
37,853	-4,833	255,261	126,796
38,867	-4,743	255,051	126,760
39,882	-4,851	255,028	126,643
40,896	-5,102	254,855	126,325
41,911	-4,764	254,504	126,436
42,926	-4,828	254,277	126,256
43,940	-5,092	254,022	125,887
44,955	-5,218	253,840	125,676
45,969	-4,919	253,594	125,803
46,984	-5,249	253,389	125,403
47,999	-5,500	253,161	125,060
49,013	-5,598	252,848	124,809
50,028	-5,689	252,658	124,626
51,042	-5,671	252,121	124,365
52,057	-5,811	252,223	124,282
53,071	-5,645	251,922	124,267
54,086	-5,619	251,660	124,149
55,101	-5,413	251,566	124,270
56,115	-5,194	251,388	124,361
57,130	-4,929	251,378	124,574
58,144	-4,563	251,300	124,840
59,159	-4,500	250,973	124,720
60,174	-4,701	250,804	124,452
61,188	-5,017	250,744	124,139
62,203	-4,699	250,314	124,189
63,217	-4,715	250,193	124,104
64,232	-4,739	249,923	123,938
65,247	-4,679	249,644	123,840
66,261	-4,632	249,489	123,792
67,276	-4,917	249,308	123,448
68,290	-5,396	249,031	122,890
69,305	-5,489	248,940	122,754
70,320	-5,347	248,635	122,714
71,334	-4,978	248,515	122,959
72,349	-4,684	248,298	123,091
73,363	-4,807	248,292	122,972
74,378	-4,648	248,010	122,957
75,393	-4,549	247,753	122,903
76,407	-4,707	247,464	122,615
77,422	-4,788	247,352	122,479
78,436	-4,873	247,161	122,301
79,451	-4,795	247,018	122,286
80,466	-4,870	246,795	122,101
81,480	-4,889	246,445	121,901
82,495	-5,069	246,267	121,651
83,509	-5,039	246,135	121,600
84,524	-5,028	245,774	121,419
85,539	-5,088	245,653	121,299
86,553	-5,084	245,479	121,205
87,568	-4,970	245,246	121,175
88,582	-5,049	245,180	121,065
89,597	-5,309	245,048	120,771
90,611	-4,883	244,812	121,001
91,626	-4,883	244,756	120,963
92,641	-4,818	244,535	120,897
93,655	-4,788	244,252	120,772
94,670	-4,865	244,069	120,606
95,684	-5,065	243,948	120,369
96,699	-5,100	243,910	120,310
97,714	-5,151	243,609	120,108
98,728	-5,201	243,367	119,936
99,743	-5,109	243,134	119,887
100,757	-5,021	242,866	119,818
101,772	-5,044	242,636	119,674
102,787	-5,017	242,608	119,672
103,801	-5,149	242,416	119,458
104,816	-4,801	242,242	119,650
105,830	-4,909	242,178	119,518
106,845	-4,719	242,003	119,578
107,860	-4,656	241,797	119,518
108,874	-4,883	241,601	119,223
109,889	-5,045	241,364	118,961
110,903	-5,147	241,288	118,829
111,918	-5,026	240,993	118,773
112,933	-5,050	240,872	118,683
113,947	-4,876	240,688	118,725
114,962	-4,775	240,534	118,721
115,976	-4,931	240,436	118,534
116,991	-4,845	240,118	118,437
118,006	-5,026	239,973	118,207
119,020	-4,603	239,805	118,461
120,035	-5,009	239,852	118,140
121,049	-4,654	239,524	118,259
122,064	-5,000	239,461	117,934
123,079	-4,729	239,124	117,979
124,093	-5,104	238,948	117,575
125,108	-4,979	238,813	117,600
126,122	-5,244	238,581	117,260
127,137	-5,456	238,329	116,953
128,151	-5,269	238,169	117,016
129,166	-5,185	238,023	117,002
130,181	-5,183	237,765	116,866
131,195	-5,220	237,717	116,802
132,210	-5,017	237,470	116,835
133,224	-4,948	237,429	116,861
134,239	-5,259	237,337	116,552
135,254	-4,952	237,092	116,671
136,268	-5,057	236,944	116,502
137,283	-5,149	236,532	116,215
138,297	-5,249	236,342	116,030
139,312	-5,390	236,081	115,778
140,327	-5,029	236,096	116,067
141,341	-4,753	236,131	116,296
142,356	-4,515	236,064	116,445
143,370	-4,558	235,858	116,298
144,385	-4,708	235,688	116,083
145,400	-4,375	235,436	116,216
146,414	-4,471	235,299	116,061
147,429	-4,642	235,245	115,887
148,443	-4,503	234,956	115,845
149,458	-4,706	234,882	115,636
150,473	-4,524	234,653	115,659
151,487	-4,921	234,460	115,236
152,502	-4,774	234,342	115,285
153,516	-4,574	234,205	115,366
154,531	-4,479	234,003	115,333
155,546	-4,744	233,780	115,001
156,560	-4,598	233,551	114,995
157,575	-4,793	233,386	114,748
158,589	-4,728	233,239	114,717
159,604	-4,624	233,115	114,728
160,619	-4,251	232,970	114,943
161,633	-4,431	232,982	114,796
162,648	-4,593	232,742	114,539
163,662	-4,496	232,443	114,459
164,677	-4,870	232,455	114,158
165,692	-4,674	232,195	114,175
166,706	-4,436	232,126	114,319
167,721	-4,242	231,953	114,377
168,735	-4,221	231,851	114,333
169,750	-4,481	231,612	114,000
170,764	-4,828	231,639	113,729
171,779	-4,481	231,362	113,857
172,794	-4,528	231,206	113,733
173,808	-4,823	230,953	113,366
174,823	-5,114	230,606	112,958
175,837	-5,386	230,493	112,678
176,852	-4,821	230,451	113,091
177,867	-4,512	230,408	113,303
178,881	-4,475	230,316	113,276
179,896	-4,522	230,205	113,174
180,910	-4,700	229,906	112,878
181,925	-4,432	229,871	113,061
182,940	-4,477	229,611	112,887
183,954	-4,397	229,442	112,856
184,969	-4,247	229,434	112,959
185,983	-4,357	229,246	112,771
186,998	-4,079	229,054	112,883
188,013	-4,087	228,901	112,791
189,027	-4,422	228,767	112,455
190,042	-4,426	228,665	112,392
191,056	-4,158	228,461	112,489
192,071	-4,409	228,205	112,158
193,086	-4,441	227,961	112,003
194,100	-4,442	227,941	111,983
195,115	-4,855	227,520	111,447
196,129	-5,735	227,271	110,636
197,144	-1,944	228,488	114,159
198,159	2,643	229,655	118,298
199,173	4,114	229,996	119,606
200,188	4,322	229,984	119,751
201,202	4,212	229,876	119,598
202,217	4,565	229,677	119,758
203,232	4,763	229,543	119,831
204,246	4,864	229,398	119,823
205,261	4,919	229,437	119,875
206,275	4,981	229,309	119,846
207,290	4,983	229,092	119,723
208,304	5,053	228,996	119,716
209,319	4,908	228,768	119,474
210,334	5,014	228,518	119,415
211,348	4,652	228,353	119,039
212,363	4,408	228,002	118,658
213,377	4,049	227,853	118,294
214,392	4,202	227,661	118,302
215,407	4,292	227,532	118,292
216,421	4,325	227,360	118,218
217,436	4,344	227,226	118,152
218,450	3,934	227,055	117,739
219,465	3,681	226,878	117,443
220,480	3,805	226,788	117,481
221,494	3,923	226,635	117,481
222,509	4,089	226,495	117,525
223,523	4,023	226,435	117,433
224,538	4,104	226,218	117,372
225,553	4,053	225,998	117,208
226,567	4,268	226,028	117,378
227,582	4,415	225,941	117,434
228,596	4,485	225,776	117,391
229,611	4,189	225,531	117,027
230,626	4,001	225,294	116,751
231,640	3,895	225,113	116,567
232,655	4,298	225,120	116,866
233,669	4,853	224,992	117,209
234,684	4,734	224,903	117,063
235,699	4,476	224,697	116,749
236,713	4,406	224,599	116,636
237,728	4,161	224,292	116,281
238,742	4,125	224,130	116,159
239,757	4,140	223,968	116,076
240,772	4,272	223,639	115,994
241,786	3,937	223,774	115,802
242,801	4,323	223,570	115,976
243,815	4,478	223,574	116,085
244,830	4,409	223,360	115,911
245,844	4,039	223,277	115,580
246,859	4,234	222,949	115,547
247,874	4,368	222,950	115,637
248,888	4,469	222,847	115,649
249,903	4,352	222,646	115,446
250,917	4,265	222,372	115,229
251,932	4,137	222,244	115,058
252,947	3,983	222,214	114,916
253,961	3,953	222,003	114,774
254,976	3,893	221,814	114,621
255,990	4,239	221,880	114,903
257,005	4,209	221,515	114,682
258,020	4,615	221,462	114,947
259,034	4,446	221,564	114,863
260,049	4,204	221,293	114,533
261,063	4,398	221,134	114,584
262,078	4,446	220,927	114,503
263,093	4,547	220,806	114,504
264,107	4,527	220,565	114,354
265,122	4,460	220,460	114,240
266,136	4,731	220,341	114,369
267,151	4,418	220,232	114,070
268,166	4,191	219,946	113,745
269,180	3,994	219,802	113,515
270,195	4,045	219,576	113,426
271,209	4,006	219,504	113,350
272,224	4,230	219,342	113,421
273,239	4,413	219,326	113,537
274,253	4,143	219,132	113,228
275,268	3,953	218,910	112,964
276,282	3,820	218,737	112,766
277,297	3,763	218,603	112,645
278,312	4,076	218,525	112,825
279,326	4,012	218,397	112,702
280,341	3,816	218,394	112,547
281,355	4,194	218,268	112,748
282,370	4,186	217,902	112,543
283,384	3,967	217,834	112,338
284,399	4,197	217,651	112,401
285,414	4,034	217,506	112,198
286,428	4,170	217,441	112,254
287,443	4,278	217,318	112,259
288,457	4,030	217,317	112,067
289,472	4,243	216,929	112,012
290,487	3,650	216,798	111,504
291,501	3,724	216,690	111,492
292,516	3,783	216,639	111,499
293,530	4,004	216,396	111,524
294,545	3,831	216,306	111,342
295,560	3,985	216,190	111,384
296,574	3,977	216,028	111,285
297,589	4,119	215,918	111,321
298,603	4,308	215,694	111,332
299,618	4,300	215,693	111,316
300,633	4,422	215,497	111,293
301,647	4,474	215,387	111,264
302,662	4,450	215,400	111,243
303,676	4,445	215,089	111,069
304,691	4,435	215,145	111,081
305,706	4,440	214,946	110,972
306,720	4,499	214,786	110,921
307,735	4,434	214,516	110,726
308,749	4,027	214,515	110,423
309,764	4,240	214,173	110,390
310,779	4,480	214,291	110,612
311,793	4,275	214,074	110,345
312,808	4,279	213,997	110,297
313,822	4,308	213,843	110,229
314,837	4,097	213,616	109,951
315,852	4,218	213,286	109,858
316,866	4,082	213,456	109,839
317,881	4,322	213,226	109,882
318,895	4,288	213,185	109,826
319,910	4,178	212,868	109,575
320,925	3,816	212,621	109,181
321,939	3,993	212,402	109,185
322,954	3,849	212,494	109,120
323,968	4,200	212,407	109,314
324,983	4,331	212,232	109,307
325,997	4,604	212,171	109,460
327,012	4,387	211,957	109,186
328,027	4,382	211,827	109,106
329,041	4,464	211,851	109,166
330,056	4,558	211,681	109,135
331,070	4,205	211,394	108,729
332,085	3,700	211,257	108,293
333,100	4,030	211,121	108,446
334,114	4,053	211,065	108,424
335,129	4,215	210,793	108,388
336,143	3,963	210,560	108,081
337,158	3,868	210,513	107,981
338,173	3,897	210,464	107,966
339,187	3,864	210,378	107,890
340,202	3,697	210,235	107,690
341,216	3,822	209,957	107,625
342,231	3,969	209,890	107,684
343,246	3,930	209,741	107,571
344,260	3,983	209,608	107,530
345,275	3,924	209,518	107,433
346,289	4,259	209,451	107,623
347,304	4,454	209,242	107,642
348,319	4,134	209,114	107,344
349,333	4,066	209,077	107,267
350,348	4,324	208,942	107,368
351,362	4,368	208,858	107,346
352,377	4,225	208,826	107,221
353,392	4,273	208,588	107,122
354,406	4,264	208,433	107,027
355,421	194,337	1344,942	1435,269
356,435	155,083	1483,507	1435,393
