DTS Sentinel unit serial number:	SN410029Multiplexer serial number:	ORYXHardware model number:	OX2-SRSoftware version number:	ORYX F/W v4,00 Oryx Data Collector v3.7.2.0data status	okinstallation	B6 Nyhavnadifferential loss correction	single-endedforward channel	channel 2reverse channel	N/Adate	2023/12/09time	05:45:08forward acquisition time	300,00reverse acquisition time	0,00gamma	499,1914k internal	0,3142k external	0,3142temperature offset calibration	1,0000default loss term (dB/km)	0,3820temperature slope calibration	1,0000multiplexer offset coefficient	1,0000multiplexer slope coefficient	1,0000fibre end	0,00T internal ref (°C)	18,10T ext. ref 1 (°C)	2,32T ext. ref 2 (°C)	2,34length (m)	temperature (°C)	Stokes	anti-Stokes-744,400	-200,000	0,005	-0,039
-743,385	-118,701	-0,233	0,030
-742,371	247,130	0,091	0,114
-741,356	38,472	-0,195	0,129
-740,342	-133,076	0,175	-0,016
-739,327	-58,189	-0,187	-0,060
-738,312	800,000	0,043	-0,099
-737,298	-141,510	-0,174	-0,013
-736,283	-153,139	0,086	0,004
-735,269	-49,482	-0,213	0,075
-734,254	3,182	0,023	0,012
-733,239	-47,388	-0,479	-0,172
-732,225	133,580	0,092	0,088
-731,210	800,000	-0,037	-0,076
-730,196	-46,073	-0,069	0,025
-729,181	-200,000	-0,043	-0,194
-728,167	56,134	-0,059	-0,042
-727,152	1,849	-0,125	-0,066
-726,137	463,105	0,064	-0,106
-725,123	11,471	-0,097	-0,055
-724,108	-50,861	0,081	0,028
-723,094	-111,455	-0,170	0,025
-722,079	76,040	-0,083	-0,065
-721,064	800,000	0,035	-0,094
-720,050	169,981	0,113	0,120
-719,035	419,298	-0,097	0,153
-718,021	-200,000	-0,035	-0,156
-717,006	-200,000	0,027	-0,117
-715,991	81,065	-0,176	-0,140
-714,977	800,000	0,037	-0,080
-713,962	800,000	-0,032	-0,067
-712,948	-200,000	-0,012	-0,097
-711,933	338,195	0,060	0,087
-710,918	434,447	0,057	0,091
-709,904	-49,601	0,058	0,020
-708,889	800,000	0,022	-0,055
-707,875	-72,634	-0,080	-0,022
-706,860	254,735	0,008	0,010
-705,845	-200,000	-0,005	0,045
-704,831	629,163	-0,037	0,070
-703,816	800,000	0,056	0,117
-702,802	-200,000	0,004	0,049
-701,787	-200,000	-0,006	-0,064
-700,772	-200,000	-0,006	0,054
-699,758	38,701	0,067	-0,044
-698,743	800,000	0,016	0,038
-697,729	348,149	-0,034	0,050
-696,714	-90,019	0,052	-0,011
-695,699	-74,204	-0,061	-0,016
-694,685	-28,016	-0,095	0,040
-693,670	-12,650	-0,110	-0,053
-692,656	430,990	-0,080	0,129
-691,641	51,821	0,131	0,092
-690,627	-200,000	0,045	0,218
-689,612	-60,884	-0,042	0,013
-688,597	47,593	0,109	-0,075
-687,583	409,658	0,025	0,039
-686,568	253,936	-0,095	-0,120
-685,554	102,620	-0,006	0,005
-684,539	185,560	-0,120	0,132
-683,524	800,000	-0,019	-0,045
-682,510	800,000	0,039	-0,106
-681,495	158,478	-0,014	0,015
-680,481	800,000	0,020	-0,062
-679,466	152,646	-0,037	-0,038
-678,451	125,503	-0,055	0,051
-677,437	-200,000	0,034	0,127
-676,422	285,855	0,061	-0,081
-675,408	39,705	-0,045	0,030
-674,393	800,000	-0,033	0,100
-673,378	45,976	-0,078	0,053
-672,364	-200,000	-0,020	-0,084
-671,349	-32,125	0,041	-0,017
-670,335	-105,457	0,075	-0,013
-669,320	172,254	-0,057	-0,061
-668,305	-200,000	-0,013	-0,115
-667,291	251,432	-0,099	0,125
-666,276	47,144	-0,024	-0,016
-665,262	173,133	-0,108	-0,115
-664,247	-49,687	-0,122	0,043
-663,232	103,984	0,037	-0,032
-662,218	-26,032	-0,065	0,028
-661,203	-21,770	-0,037	-0,017
-660,189	-79,841	-0,127	0,031
-659,174	-200,000	-0,005	-0,128
-658,159	-200,000	0,022	-0,078
-657,145	-113,769	0,064	0,009
-656,130	-200,000	0,014	0,125
-655,116	-72,894	0,184	-0,050
-654,101	142,745	0,053	-0,052
-653,086	-200,000	0,006	-0,116
-652,072	101,775	-0,063	0,054
-651,057	-55,957	-0,104	-0,034
-650,043	115,252	0,094	-0,085
-649,028	141,113	-0,048	-0,047
-648,014	234,511	0,032	0,039
-646,999	800,000	-0,077	0,158
-645,984	800,000	0,016	0,043
-644,970	-125,546	0,080	-0,009
-643,955	344,970	0,026	-0,038
-642,941	261,136	-0,112	-0,144
-641,926	-200,000	0,010	0,080
-640,911	200,664	-0,066	-0,075
-639,897	778,881	0,062	0,126
-638,882	8,554	-0,220	-0,122
-637,868	461,956	-0,055	0,091
-636,853	-200,000	-0,014	0,062
-635,838	363,898	-0,013	-0,020
-634,824	327,232	0,109	-0,154
-633,809	-5,582	0,110	0,055
-632,795	800,000	-0,044	0,102
-631,780	1,575	-0,041	-0,022
-630,765	227,416	0,077	0,092
-629,751	-57,733	-0,104	-0,033
-628,736	-5,067	-0,037	0,019
-627,722	-200,000	-0,007	-0,107
-626,707	-133,182	0,004	-0,000
-625,692	800,000	-0,063	0,153
-624,678	566,323	0,057	-0,103
-623,663	109,178	-0,083	-0,073
-622,649	588,539	0,035	-0,063
-621,634	349,058	-0,055	-0,080
-620,619	-81,321	0,151	0,037
-619,605	231,449	-0,036	0,044
-618,590	-200,000	-0,011	-0,041
-617,576	-200,000	0,021	0,178
-616,561	370,770	0,013	-0,020
-615,546	-196,080	-0,082	-0,000
-614,532	800,000	-0,059	-0,153
-613,517	-200,000	-0,012	-0,138
-612,503	-105,693	-0,106	0,017
-611,488	-200,000	-0,001	-0,051
-610,474	800,000	0,047	0,138
-609,459	-164,651	-0,053	0,002
-608,444	15,637	-0,137	-0,079
-607,430	-147,926	-0,059	-0,004
-606,415	23,032	-0,060	-0,036
-605,401	-200,000	0,006	0,077
-604,386	-200,000	-0,013	-0,078
-603,371	144,627	0,033	0,033
-602,357	-99,411	0,093	-0,017
-601,342	2,530	-0,058	0,031
-600,328	-85,825	-0,098	-0,022
-599,313	-200,000	0,004	0,036
-598,298	-152,925	0,115	0,006
-597,284	-83,637	0,135	-0,032
-596,269	800,000	0,074	0,213
-595,255	-95,935	0,121	0,023
-594,240	-200,000	-0,015	-0,099
-593,225	-12,845	-0,053	-0,025
-592,211	-200,000	0,024	0,093
-591,196	144,552	-0,110	0,108
-590,182	800,000	0,046	0,129
-589,167	88,244	-0,079	0,065
-588,152	189,514	-0,060	-0,066
-587,138	-200,000	0,003	0,016
-586,123	157,673	0,055	0,056
-585,109	32,832	-0,046	-0,029
-584,094	10,527	-0,021	-0,012
-583,079	-66,070	-0,115	-0,034
-582,065	441,922	0,014	0,022
-581,050	115,394	0,029	0,026
-580,036	800,000	-0,022	0,050
-579,021	618,206	-0,072	-0,134
-578,006	99,178	0,050	0,043
-576,992	295,663	0,057	-0,076
-575,977	274,400	0,051	0,067
-574,963	800,000	0,038	0,113
-573,948	-200,000	0,012	0,061
-572,934	45,297	0,084	-0,057
-571,919	-200,000	0,008	0,026
-570,904	-200,000	-0,015	-0,082
-569,890	-64,504	-0,042	-0,012
-568,875	309,536	-0,038	-0,052
-567,861	-38,263	-0,047	-0,018
-566,846	800,000	-0,014	-0,030
-565,831	800,000	0,038	0,081
-564,817	800,000	-0,047	-0,140
-563,802	-185,314	-0,044	0,000
-562,788	-75,985	-0,111	-0,029
-561,773	-200,000	0,044	-0,145
-560,758	-106,084	-0,092	-0,015
-559,744	-169,060	0,010	0,000
-558,729	-164,313	-0,185	-0,006
-557,715	800,000	0,039	-0,095
-556,700	27,887	-0,102	0,063
-555,685	-102,206	0,068	-0,012
-554,671	138,231	-0,191	0,184
-553,656	-141,142	0,078	-0,006
-552,642	-97,706	0,160	0,030
-551,627	108,578	0,051	0,045
-550,612	800,000	-0,041	-0,115
-549,598	800,000	0,016	-0,051
-548,583	44,615	-0,103	0,069
-547,569	800,000	0,033	0,088
-546,554	40,177	0,006	0,004
-545,539	-107,216	0,118	0,019
-544,525	-95,153	-0,057	0,011
-543,510	-200,000	0,005	-0,019
-542,496	108,459	-0,142	-0,125
-541,481	345,887	-0,061	0,089
-540,466	278,077	0,032	-0,042
-539,452	353,963	-0,022	0,033
-538,437	-49,225	0,049	-0,017
-537,423	500,161	-0,046	0,078
-536,408	-52,798	-0,128	-0,043
-535,393	-200,000	-0,006	-0,091
-534,379	-18,256	-0,052	0,024
-533,364	-200,000	-0,026	-0,107
-532,350	516,830	-0,029	-0,050
-531,335	-56,811	-0,015	-0,005
-530,321	800,000	-0,033	-0,088
-529,306	800,000	-0,015	-0,038
-528,291	800,000	0,039	-0,117
-527,277	158,310	0,067	-0,069
-526,262	-200,000	-0,018	0,170
-525,248	647,438	0,050	-0,094
-524,233	-183,002	0,134	-0,002
-523,218	50,731	0,095	0,066
-522,204	-68,198	-0,151	-0,043
-521,189	-200,000	-0,009	0,094
-520,175	800,000	0,051	-0,124
-519,160	-200,000	-0,019	-0,079
-518,145	800,000	-0,004	0,010
-517,131	261,707	0,028	0,035
-516,116	348,545	-0,010	0,015
-515,102	250,510	-0,088	0,111
-514,087	-200,000	0,015	0,107
-513,072	-200,000	-0,016	-0,111
-512,058	7,941	0,119	-0,065
-511,043	-200,000	-0,004	0,020
-510,029	-121,617	-0,067	-0,008
-509,014	-200,000	-0,004	0,036
-507,999	-200,000	0,027	0,095
-506,985	487,799	-0,087	0,146
-505,970	-22,854	-0,077	-0,034
-504,956	320,215	0,072	0,101
-503,941	-200,000	-0,010	0,051
-502,926	113,410	-0,142	0,126
-501,912	-200,000	-0,012	-0,054
-500,897	279,039	-0,053	0,070
-499,883	-137,236	0,067	0,006
-498,868	-51,401	-0,049	-0,017
-497,853	-200,000	-0,021	0,082
-496,839	-200,000	-0,013	0,074
-495,824	4,632	0,055	-0,030
-494,810	122,995	0,098	-0,090
-493,795	-200,000	-0,005	-0,064
-492,781	-200,000	0,001	0,095
-491,766	101,673	0,055	-0,047
-490,751	-200,000	-0,028	0,113
-489,737	-200,000	-0,006	0,044
-488,722	-200,000	0,023	-0,085
-487,708	240,920	0,122	0,149
-486,693	-200,000	-0,009	0,105
-485,678	-49,906	0,047	0,016
-484,664	333,847	0,006	0,008
-483,649	70,216	0,056	-0,042
-482,635	-200,000	-0,008	-0,057
-481,620	-200,000	0,043	0,165
-480,605	743,271	0,033	-0,064
-479,591	-200,000	0,006	0,022
-478,576	-39,070	-0,070	0,027
-477,562	-110,799	-0,124	0,019
-476,547	-17,677	0,047	-0,022
-475,532	-97,036	-0,034	0,006
-474,518	340,342	-0,106	-0,152
-473,503	800,000	-0,016	-0,033
-472,489	253,638	0,010	0,012
-471,474	158,147	-0,129	-0,131
-470,459	-200,000	-0,020	0,114
-469,445	471,430	-0,017	0,029
-468,430	52,051	-0,069	-0,048
-467,416	800,000	0,047	0,099
-466,401	-77,828	0,043	-0,011
-465,386	131,223	-0,061	0,057
-464,372	-99,794	0,155	0,028
-463,357	-105,442	0,069	0,011
-462,343	800,000	-0,022	-0,059
-461,328	-200,000	-0,009	-0,110
-460,313	-200,000	0,031	0,200
-459,299	-184,938	0,228	-0,003
-458,284	-200,000	-0,004	-0,145
-457,270	800,000	-0,031	0,065
-456,255	800,000	-0,046	0,099
-455,241	423,110	0,086	0,136
-454,226	-200,000	0,026	0,087
-453,211	-200,000	0,020	0,082
-452,197	-189,095	-0,044	-0,000
-451,182	-200,000	-0,006	-0,163
-450,168	325,201	-0,031	0,043
-449,153	-200,000	0,010	0,114
-448,138	-103,053	-0,014	-0,002
-447,124	800,000	-0,054	-0,151
-446,109	-41,497	-0,053	-0,020
-445,095	-18,220	0,101	-0,046
-444,080	800,000	0,047	0,133
-443,065	-58,691	0,073	-0,023
-442,051	800,000	-0,020	-0,054
-441,036	-200,000	0,004	0,016
-440,022	66,838	0,031	-0,023
-439,007	53,323	0,026	-0,018
-437,992	-200,000	0,039	-0,131
-436,978	57,182	-0,046	-0,033
-435,963	91,198	-0,013	0,011
-434,949	402,452	0,045	-0,069
-433,934	-160,420	-0,077	-0,003
-432,919	-200,000	-0,004	0,066
-431,905	106,171	0,073	0,063
-430,890	800,000	0,028	-0,065
-429,876	800,000	-0,058	0,126
-428,861	259,409	0,076	0,096
-427,846	-200,000	-0,003	-0,039
-426,832	278,504	-0,080	-0,105
-425,817	-200,000	-0,019	-0,108
-424,803	22,915	0,047	-0,028
-423,788	800,000	0,021	0,052
-422,773	-77,337	-0,001	-0,000
-421,759	18,544	0,036	0,021
-420,744	-49,715	-0,064	0,022
-419,730	-138,556	0,024	0,002
-418,715	241,755	-0,047	-0,058
-417,701	-200,000	0,006	-0,050
-416,686	313,539	-0,026	0,037
-415,671	-200,000	0,003	0,011
-414,657	208,594	0,078	0,089
-413,642	-22,106	0,014	-0,006
-412,628	256,645	0,032	-0,040
-411,613	111,564	-0,123	-0,109
-410,598	-200,000	0,011	0,043
-409,584	80,477	0,068	-0,053
-408,569	61,184	0,092	0,067
-407,555	-200,000	-0,007	0,172
-406,540	10,677	-0,058	0,032
-405,525	-38,713	-0,061	0,023
-404,511	800,000	-0,084	-0,208
-403,496	-99,169	-0,165	-0,030
-402,482	-200,000	-0,026	-0,107
-401,467	3,290	0,126	-0,067
-400,452	704,610	-0,040	0,077
-399,438	-110,957	0,179	0,027
-398,423	-64,882	-0,120	0,035
-397,409	-200,000	0,006	-0,035
-396,394	-200,000	-0,007	0,052
-395,379	800,000	0,026	0,060
-394,365	20,985	0,082	0,049
-393,350	76,545	0,098	0,076
-392,336	-103,966	-0,042	0,007
-391,321	-33,358	-0,142	-0,057
-390,306	-102,657	0,140	0,024
-389,292	-76,582	-0,054	-0,014
-388,277	139,726	-0,115	-0,110
-387,263	59,673	0,075	-0,054
-386,248	-137,875	0,160	0,013
-385,233	661,777	0,043	0,082
-384,219	-40,344	0,135	-0,051
-383,204	194,586	-0,105	-0,117
-382,190	548,258	0,044	-0,078
-381,175	-10,316	0,147	0,071
-380,160	212,597	0,100	-0,115
-379,146	-200,000	-0,017	0,060
-378,131	1,633	0,062	-0,032
-377,117	800,000	0,024	-0,069
-376,102	230,328	-0,031	-0,037
-375,088	-14,161	-0,051	-0,024
-374,073	-6,415	0,088	-0,044
-373,058	446,257	-0,034	-0,054
-372,044	800,000	-0,027	0,071
-371,029	-79,683	0,014	0,004
-370,015	283,214	0,030	0,039
-369,000	-200,000	-0,000	-0,048
-367,985	-77,185	-0,092	-0,023
-366,971	314,509	-0,018	-0,025
-365,956	-86,981	-0,024	-0,005
-364,942	800,000	0,078	0,205
-363,927	174,245	-0,089	0,094
-362,912	-61,615	0,086	-0,026
-361,898	-66,346	0,047	-0,014
-360,883	555,157	-0,071	-0,125
-359,869	-16,575	-0,061	-0,028
-358,854	-200,000	0,021	-0,097
-357,839	-156,564	0,136	0,006
-356,825	83,273	0,076	0,061
-355,810	-200,000	0,001	0,037
-354,796	26,473	-0,145	-0,088
-353,781	-200,000	-0,004	0,089
-352,766	213,534	-0,135	-0,156
-351,752	-58,032	-0,048	-0,015
-350,737	423,225	0,018	-0,029
-349,723	75,956	-0,012	0,009
-348,708	132,954	0,098	-0,093
-347,693	-31,467	-0,090	-0,037
-346,679	185,745	-0,022	-0,024
-345,664	165,018	-0,074	0,076
-344,650	-194,154	-0,065	0,000
-343,635	-200,000	-0,007	0,026
-342,620	-6,042	0,071	-0,035
-341,606	35,338	0,054	-0,034
-340,591	-37,895	-0,070	-0,027
-339,577	53,195	0,098	0,068
-338,562	62,378	0,048	-0,035
-337,548	-5,904	0,127	0,063
-336,533	800,000	0,026	0,059
-335,518	800,000	0,029	-0,079
-334,504	496,238	0,070	0,118
-333,489	454,685	0,030	0,048
-332,475	485,780	-0,034	0,056
-331,460	78,949	-0,159	-0,124
-330,445	59,906	-0,057	0,041
-329,431	178,081	0,081	0,086
-328,416	181,955	-0,044	0,047
-327,402	-200,000	-0,022	-0,102
-326,387	-40,839	0,115	-0,043
-325,372	-36,449	-0,074	0,029
-324,358	153,639	-0,055	0,055
-323,343	187,868	0,005	0,006
-322,329	-200,000	0,004	-0,046
-321,314	-200,000	0,012	0,077
-320,299	800,000	0,040	0,090
-319,285	243,933	-0,083	-0,101
-318,270	-200,000	-0,006	-0,043
-317,256	-111,237	-0,122	0,018
-316,241	600,841	0,038	0,068
-315,226	263,008	0,023	-0,029
-314,212	-79,312	0,095	-0,023
-313,197	-200,000	0,005	0,128
-312,183	36,926	-0,026	0,017
-311,168	-114,673	0,062	-0,009
-310,153	188,093	-0,074	-0,081
-309,139	-174,779	0,103	0,002
-308,124	195,890	-0,035	-0,039
-307,110	216,667	0,118	0,137
-306,095	-19,724	0,047	0,021
-305,080	133,663	0,030	-0,028
-304,066	401,512	0,053	-0,082
-303,051	188,415	-0,113	-0,123
-302,037	-67,131	-0,054	-0,015
-301,022	55,736	-0,128	-0,090
-300,008	2,469	0,044	-0,023
-298,993	-97,971	-0,099	-0,018
-297,978	14,468	-0,050	0,028
-296,964	-200,000	0,011	-0,063
-295,949	8,703	-0,106	-0,058
-294,935	-43,524	-0,087	-0,032
-293,920	-200,000	-0,014	0,128
-292,905	47,574	0,026	0,017
-291,891	-200,000	-0,025	0,134
-290,876	-37,607	0,055	0,021
-289,862	16,629	0,100	-0,057
-288,847	-128,024	0,107	-0,011
-287,832	-122,100	-0,117	-0,014
-286,818	-200,000	0,031	-0,122
-285,803	-200,000	-0,002	0,111
-284,789	135,323	0,053	-0,050
-283,774	350,324	-0,019	-0,027
-282,759	69,213	-0,037	-0,028
-281,745	-200,000	0,021	-0,070
-280,730	-191,572	0,094	0,001
-279,716	-160,128	-0,104	-0,004
-278,701	377,813	0,073	-0,109
-277,686	800,000	0,027	0,068
-276,672	587,905	0,022	-0,040
-275,657	-200,000	-0,014	-0,100
-274,643	234,050	-0,104	0,125
-273,628	170,085	-0,103	0,107
-272,613	30,992	0,088	0,055
-271,599	20,972	-0,098	0,058
-270,584	-22,175	-0,062	0,027
-269,570	-96,449	-0,028	-0,005
-268,555	68,831	-0,105	0,079
-267,540	8,648	-0,086	-0,047
-266,526	-161,027	0,107	0,004
-265,511	-96,023	-0,087	-0,017
-264,497	-90,048	0,058	-0,012
-263,482	3,524	0,045	0,024
-262,467	130,784	0,114	-0,107
-261,453	-24,315	0,030	0,013
-260,438	27,503	-0,109	0,067
-259,424	-200,000	0,003	-0,086
-258,409	-90,937	0,083	-0,017
-257,395	800,000	-0,006	-0,015
-256,380	-39,810	0,043	0,016
-255,365	54,786	0,046	-0,032
-254,351	19,363	-0,062	0,036
-253,336	758,371	-0,056	-0,110
-252,322	-10,797	-0,032	-0,015
-251,307	34,053	-0,112	0,071
-250,292	110,054	0,180	0,157
-249,278	-110,648	0,126	0,019
-248,263	-190,062	-0,080	-0,001
-247,249	476,129	-0,045	-0,073
-246,234	309,758	0,036	-0,049
-245,219	135,486	0,015	0,014
-244,205	-79,019	-0,140	-0,034
-243,190	-139,838	0,082	-0,006
-242,176	-200,000	0,020	0,080
-241,161	196,000	0,034	-0,037
-240,146	736,291	-0,024	-0,046
-239,132	429,623	-0,019	0,030
-238,117	-8,070	0,113	0,055
-237,103	145,595	-0,096	-0,093
-236,088	349,167	0,097	-0,140
-235,073	-200,000	-0,006	-0,052
-234,059	-200,000	0,010	0,085
-233,044	-200,000	0,004	0,080
-232,030	-200,000	0,000	-0,050
-231,015	-200,000	-0,039	-0,132
-230,000	115,566	-0,043	-0,038
-228,986	800,000	0,015	0,043
-227,971	-200,000	0,005	0,082
-226,957	-132,735	-0,091	-0,008
-225,942	-130,969	-0,125	0,012
-224,927	21,871	-0,056	0,033
-223,913	620,573	0,016	0,029
-222,898	516,748	0,052	-0,088
-221,884	-200,000	0,007	0,060
-220,869	73,173	-0,059	-0,045
-219,855	187,405	0,085	0,092
-218,840	71,733	0,079	-0,060
-217,825	-200,000	0,009	-0,105
-216,811	-150,855	0,053	-0,003
-215,796	-200,000	-0,009	0,067
-214,782	-105,292	0,186	0,030
-213,767	-200,000	0,005	0,069
-212,752	1,731	0,081	0,042
-211,738	368,577	0,021	0,031
-210,723	-61,099	0,148	-0,045
-209,709	21,037	-0,083	0,049
-208,694	-19,259	0,111	-0,050
-207,679	587,104	-0,055	-0,099
-206,665	430,316	-0,027	0,043
-205,650	88,585	0,054	0,044
-204,636	4,501	0,138	0,073
-203,621	-200,000	0,027	0,093
-202,606	-200,000	0,013	0,191
-201,592	157,547	0,095	0,096
-200,577	-200,000	0,010	-0,053
-199,563	-168,527	-0,031	-0,001
-198,548	294,671	0,034	0,046
-197,533	234,707	0,074	0,088
-196,519	800,000	-0,067	0,209
-195,504	302,734	0,021	0,029
-194,490	-200,000	0,011	-0,101
-193,475	321,315	0,024	0,034
-192,460	125,859	-0,095	0,087
-191,446	-144,382	-0,052	0,003
-190,431	-147,846	0,079	-0,005
-189,417	-200,000	-0,022	0,078
-188,402	-73,071	-0,098	-0,026
-187,387	212,365	-0,017	-0,019
-186,373	800,000	0,006	0,013
-185,358	-200,000	0,004	-0,093
-184,344	5,156	0,068	-0,036
-183,329	-67,459	0,014	-0,004
-182,315	734,331	-0,048	0,094
-181,300	-200,000	-0,001	-0,044
-180,285	-147,730	-0,057	-0,003
-179,271	800,000	-0,046	-0,102
-178,256	77,513	0,081	-0,062
-177,242	189,516	0,076	0,082
-176,227	-92,562	-0,073	0,015
-175,212	521,726	0,046	-0,079
-174,198	119,179	0,045	-0,041
-173,183	68,068	0,062	-0,046
-172,169	459,858	0,051	-0,083
-171,154	330,049	0,068	-0,095
-170,139	-200,000	0,007	-0,099
-169,125	-76,336	-0,056	0,014
-168,110	-96,360	0,115	-0,022
-167,096	217,595	-0,036	-0,042
-166,081	-63,037	-0,034	-0,010
-165,066	102,520	0,105	0,089
-164,052	-200,000	0,011	-0,110
-163,037	46,584	0,063	-0,043
-162,023	273,802	0,069	0,089
-161,008	-5,791	0,048	-0,024
-159,993	-200,000	0,010	0,078
-158,979	-200,000	-0,009	-0,113
-157,964	278,121	-0,091	-0,117
-156,950	186,092	-0,088	-0,095
-155,935	114,559	-0,061	0,054
-154,920	-200,000	-0,004	0,084
-153,906	93,908	-0,035	-0,028
-152,891	800,000	-0,019	-0,056
-151,877	189,919	0,067	0,073
-150,862	-200,000	-0,017	-0,137
-149,847	-50,617	-0,139	0,047
-148,833	-121,027	0,168	0,020
-147,818	-23,821	0,124	0,054
-146,804	-200,000	-0,016	0,104
-145,789	-135,853	0,079	-0,007
-144,775	-50,193	0,054	0,018
-143,760	-200,000	-0,035	-0,129
-142,745	800,000	-0,027	-0,080
-141,731	5,560	0,048	-0,025
-140,716	-200,000	-0,004	-0,040
-139,702	-200,000	-0,024	-0,084
-138,687	-165,571	-0,162	0,005
-137,672	93,424	-0,099	0,081
-136,658	-142,064	0,062	-0,004
-135,643	-200,000	0,014	-0,131
-134,629	-200,000	0,006	-0,081
-133,614	-31,772	0,104	-0,042
-132,599	800,000	-0,045	0,134
-131,585	570,322	-0,041	-0,073
-130,570	-94,282	-0,114	-0,022
-129,556	124,884	-0,024	0,022
-128,541	-200,000	-0,001	-0,066
-127,526	521,892	-0,062	0,105
-126,512	-200,000	0,013	0,083
-125,497	-77,743	-0,132	-0,033
-124,483	-200,000	-0,004	0,041
-123,468	86,366	-0,062	-0,050
-122,453	-200,000	-0,016	0,102
-121,439	-200,000	-0,005	-0,096
-120,424	120,511	0,094	-0,085
-119,410	-83,921	0,078	-0,018
-118,395	-164,521	0,017	0,001
-117,380	-200,000	0,030	0,117
-116,366	-200,000	-0,006	-0,060
-115,351	243,098	-0,049	0,059
-114,337	-200,000	-0,009	0,047
-113,322	67,450	0,157	0,115
-112,307	800,000	0,061	0,150
-111,293	800,000	-0,066	0,141
-110,278	800,000	0,044	0,118
-109,264	-65,909	-0,082	-0,023
-108,249	-124,303	0,043	-0,005
-107,234	-19,819	-0,066	0,030
-106,220	-200,000	0,018	0,068
-105,205	-200,000	0,015	0,061
-104,191	-3,115	0,088	-0,044
-103,176	149,547	0,045	0,044
-102,162	696,248	-0,021	0,040
-101,147	-200,000	-0,025	-0,081
-100,132	54,584	-0,117	-0,082
-99,118	-103,727	0,040	-0,007
-98,103	5,015	-0,085	0,045
-97,089	101,124	0,121	-0,102
-96,074	-200,000	-0,006	0,078
-95,059	263,606	0,054	-0,068
-94,045	-117,454	-0,062	0,008
-93,030	126,261	0,066	-0,060
-92,016	46,493	-0,079	-0,053
-91,001	122,403	0,062	0,056
-89,986	-107,169	0,085	-0,013
-88,972	33,516	-0,101	-0,064
-87,957	-200,000	0,000	-0,071
-86,943	-200,000	0,004	-0,018
-85,928	-200,000	0,001	-0,053
-84,913	269,056	-0,059	0,076
-83,899	-200,000	0,015	0,100
-82,884	-135,614	0,174	0,015
-81,870	-145,124	0,114	0,007
-80,855	261,361	-0,052	0,066
-79,840	-128,605	-0,091	-0,009
-78,826	150,315	-0,097	0,095
-77,811	41,858	0,073	0,048
-76,797	800,000	-0,040	-0,106
-75,782	-200,000	0,019	-0,061
-74,767	30,495	0,077	0,048
-73,753	-169,631	0,012	-0,000
-72,738	-25,502	-0,157	0,067
-71,724	-200,000	0,048	-0,168
-70,709	281,309	0,036	-0,047
-69,694	800,000	0,044	0,096
-68,680	191,429	0,083	-0,090
-67,665	173,358	0,092	0,096
-66,651	-12,365	-0,055	0,026
-65,636	505,317	0,041	0,069
-64,622	181,382	0,049	0,052
-63,607	-200,000	-0,023	-0,127
-62,592	687,717	0,072	-0,137
-61,578	70,962	0,041	-0,031
-60,563	-200,000	-0,006	0,024
-59,549	-8,611	0,122	0,059
-58,534	-5,608	-1,678	-0,827
-57,519	800,000	-0,510	-1,116
-56,505	-200,000	-1,145	-4,728
-55,490	-112,333	0,726	0,104
-54,476	800,000	5,289	12,261
-53,461	-200,000	16,196	280,150
-52,446	800,000	705,736	2244,619
-51,432	561,145	1620,629	2836,500
-50,417	122,961	1622,218	1464,654
-49,403	84,350	1283,496	1011,327
-48,388	36,976	1029,069	655,074
-47,373	21,377	991,289	579,435
-46,359	20,281	979,867	569,119
-45,344	18,411	975,825	560,601
-44,330	18,520	974,517	560,186
-43,315	18,199	972,818	558,131
-42,300	18,189	971,679	557,422
-41,286	18,220	970,573	556,870
-40,271	18,138	969,895	556,188
-39,257	18,174	968,973	555,756
-38,242	18,144	968,298	555,247
-37,227	18,127	967,441	554,679
-36,213	18,153	966,607	554,263
-35,198	18,118	965,628	553,569
-34,184	18,161	964,878	553,254
-33,169	18,170	963,903	552,704
-32,154	18,196	963,013	552,255
-31,140	18,183	962,274	551,769
-30,125	18,178	961,619	551,354
-29,111	18,182	960,733	550,837
-28,096	18,160	960,231	550,457
-27,082	18,124	959,494	549,895
-26,067	18,144	958,488	549,362
-25,052	18,150	957,752	548,939
-24,038	18,168	957,094	548,597
-23,023	18,162	956,415	548,166
-22,009	18,174	955,652	547,747
-20,994	18,085	955,223	547,192
-19,979	18,183	954,478	547,058
-18,965	18,080	953,875	546,361
-17,950	18,114	953,418	546,187
-16,936	18,058	952,847	545,657
-15,921	18,083	951,992	545,226
-14,906	18,014	951,287	544,580
-13,892	18,006	950,759	544,229
-12,877	18,014	949,948	543,768
-11,863	17,962	949,428	543,284
-10,848	17,988	948,842	543,012
-9,833	18,048	948,292	542,867
-8,819	18,062	947,680	542,537
-7,804	18,044	946,951	542,043
-6,790	18,074	946,621	541,929
-5,775	17,974	946,034	541,252
-4,760	18,080	945,288	541,139
-3,746	18,035	944,687	540,631
-2,731	17,854	943,978	539,627
-1,717	17,882	943,126	539,211
-0,702	17,851	942,631	538,805
0,313	17,639	942,016	538,595
1,327	20,821	940,137	547,552
2,342	30,139	796,631	488,776
3,356	27,175	449,855	271,540
4,371	-2,402	296,242	149,111
5,386	-6,510	277,618	135,811
6,400	-7,703	271,819	131,849
7,415	-8,055	269,585	130,426
8,429	-7,968	268,273	129,861
9,444	-7,908	267,323	129,445
10,459	-8,106	266,777	128,987
11,473	-8,181	266,106	128,583
12,488	-8,127	265,568	128,361
13,502	-8,448	264,996	127,781
14,517	-8,523	264,529	127,475
15,531	-8,371	263,987	127,341
16,546	-8,332	263,713	127,233
17,561	-8,295	263,251	127,032
18,575	-8,404	263,054	126,828
19,590	-8,541	262,753	126,547
20,604	-8,479	262,437	126,440
21,619	-8,458	261,947	126,211
22,634	-8,404	261,745	126,151
23,648	-8,541	261,277	125,791
24,663	-8,552	261,107	125,689
25,677	-8,561	260,854	125,548
26,692	-8,457	260,601	125,507
27,707	-8,436	260,280	125,361
28,721	-8,654	260,021	125,030
29,736	-8,582	259,781	124,967
30,750	-8,884	259,717	124,656
31,765	-8,717	259,290	124,589
32,780	-8,700	259,090	124,497
33,794	-8,577	258,774	124,443
34,809	-8,802	258,656	124,176
35,823	-8,739	258,398	124,096
36,838	-8,576	257,928	124,004
37,853	-8,734	257,760	123,773
38,867	-8,765	257,653	123,683
39,882	-8,805	257,279	123,457
40,896	-8,832	257,357	123,460
41,911	-8,795	256,968	123,294
42,926	-8,771	256,755	123,203
43,940	-8,742	256,369	123,032
44,955	-8,828	256,150	122,840
45,969	-8,941	255,986	122,651
46,984	-9,155	255,762	122,345
47,999	-9,378	255,417	121,975
49,013	-9,458	255,257	121,818
50,028	-9,439	254,850	121,629
51,042	-9,621	254,655	121,366
52,057	-9,557	254,376	121,278
53,071	-9,574	254,266	121,200
54,086	-9,404	254,082	121,249
55,101	-9,340	253,992	121,252
56,115	-9,129	253,820	121,341
57,130	-8,680	253,727	121,676
58,144	-8,261	253,700	122,016
59,159	-8,265	253,551	121,930
60,174	-8,150	253,157	121,830
61,188	-8,316	252,955	121,578
62,203	-8,381	252,686	121,382
63,217	-8,549	252,517	121,145
64,232	-8,503	252,291	121,065
65,247	-8,390	252,211	121,114
66,261	-8,451	251,643	120,777
67,276	-8,652	251,459	120,505
68,290	-8,828	251,176	120,207
69,305	-9,086	251,069	119,925
70,320	-9,023	250,915	119,894
71,334	-8,830	250,819	120,003
72,349	-8,432	250,707	120,280
73,363	-8,309	250,534	120,292
74,378	-8,321	250,232	120,126
75,393	-8,493	250,030	119,871
76,407	-8,602	249,912	119,710
77,422	-8,458	249,665	119,704
78,436	-8,261	249,300	119,687
79,451	-8,655	249,302	119,341
80,466	-8,758	249,007	119,102
81,480	-8,935	248,624	118,758
82,495	-9,152	248,550	118,528
83,509	-8,836	248,345	118,688
84,524	-9,089	248,253	118,419
85,539	-9,096	248,000	118,281
86,553	-9,113	247,822	118,171
87,568	-8,828	247,475	118,236
88,582	-8,953	247,335	118,053
89,597	-9,107	247,190	117,843
90,611	-8,932	247,148	117,960
91,626	-8,667	246,930	118,069
92,641	-8,594	246,716	118,018
93,655	-8,776	246,520	117,760
94,670	-8,792	246,325	117,644
95,684	-8,902	246,044	117,406
96,699	-8,893	245,947	117,357
97,714	-9,095	245,766	117,091
98,728	-9,011	245,565	117,055
99,743	-8,893	245,226	116,982
100,757	-8,973	245,212	116,898
101,772	-9,050	244,908	116,678
102,787	-8,769	244,782	116,842
103,801	-8,996	244,733	116,619
104,816	-8,700	244,409	116,701
105,830	-8,354	244,257	116,906
106,845	-8,380	244,247	116,869
107,860	-8,626	243,990	116,531
108,874	-8,808	243,778	116,269
109,889	-8,760	243,382	116,109
110,903	-8,743	243,340	116,092
111,918	-8,647	243,105	116,050
112,933	-8,682	242,966	115,944
113,947	-8,674	242,916	115,917
114,962	-8,689	242,624	115,755
115,976	-8,663	242,483	115,698
116,991	-8,758	242,237	115,492
118,006	-8,740	242,231	115,494
119,020	-8,576	241,937	115,479
120,035	-8,826	241,961	115,273
121,049	-8,522	241,864	115,467
122,064	-8,735	241,634	115,172
123,079	-8,618	241,239	115,070
124,093	-8,576	241,037	114,998
125,108	-8,913	240,892	114,642
126,122	-9,260	240,690	114,251
127,137	-9,386	240,497	114,046
128,151	-9,148	240,305	114,140
129,166	-9,045	240,092	114,113
130,181	-8,903	239,915	114,134
131,195	-9,203	239,677	113,766
132,210	-8,741	239,426	114,012
133,224	-8,719	239,474	114,044
134,239	-8,607	239,371	114,076
135,254	-8,577	239,194	114,005
136,268	-8,706	238,942	113,771
137,283	-9,069	238,821	113,408
138,297	-9,135	238,589	113,234
139,312	-9,073	238,251	113,114
140,327	-8,671	238,266	113,436
141,341	-8,362	238,314	113,699
142,356	-8,246	238,053	113,658
143,370	-8,363	238,062	113,558
144,385	-8,232	237,834	113,545
145,400	-8,209	237,719	113,498
146,414	-8,146	237,315	113,346
147,429	-8,243	237,179	113,192
148,443	-8,605	237,050	112,830
149,458	-8,492	236,904	112,842
150,473	-8,481	236,789	112,785
151,487	-8,512	236,573	112,647
152,502	-8,309	236,339	112,689
153,516	-8,198	236,222	112,712
154,531	-8,254	236,143	112,619
155,546	-8,231	235,772	112,451
156,560	-8,461	235,734	112,238
157,575	-8,538	235,498	112,055
158,589	-8,567	235,346	111,949
159,604	-8,177	235,091	112,129
160,619	-8,285	235,136	112,054
161,633	-8,017	234,961	112,174
162,648	-8,180	234,864	111,989
163,662	-8,228	234,629	111,828
164,677	-8,459	234,395	111,523
165,692	-8,527	234,315	111,421
166,706	-8,214	234,117	111,565
167,721	-8,023	234,004	111,653
168,735	-7,970	233,888	111,629
169,750	-8,058	233,849	111,531
170,764	-8,183	233,413	111,214
171,779	-8,011	233,375	111,323
172,794	-8,145	233,359	111,199
173,808	-8,193	232,946	110,955
174,823	-9,035	232,782	110,203
175,837	-9,063	232,441	110,009
176,852	-8,576	232,615	110,466
177,867	-8,402	232,492	110,535
178,881	-8,053	232,286	110,701
179,896	-8,048	232,154	110,632
180,910	-8,205	231,954	110,404
181,925	-8,179	231,812	110,346
182,940	-8,013	231,669	110,399
183,954	-8,051	231,588	110,321
184,969	-8,103	231,385	110,174
185,983	-8,120	231,388	110,152
186,998	-8,216	231,178	109,966
188,013	-7,844	230,940	110,134
189,027	-8,038	230,652	109,836
190,042	-7,942	230,552	109,853
191,056	-8,047	230,555	109,763
192,071	-7,800	230,262	109,806
193,086	-7,878	230,084	109,650
194,100	-7,660	230,026	109,783
195,115	-7,793	229,839	109,581
196,129	-7,939	229,827	109,451
197,144	-4,245	230,954	112,859
198,159	0,439	232,091	117,067
199,173	3,252	232,996	119,715
200,188	3,566	233,055	119,980
201,202	3,668	232,848	119,943
202,217	3,916	232,693	120,046
203,232	4,139	232,648	120,186
204,246	3,909	232,485	119,912
205,261	4,125	232,288	119,968
206,275	4,166	232,186	119,936
207,290	4,289	232,138	119,996
208,304	4,394	231,929	119,960
209,319	4,335	231,563	119,714
210,334	4,129	231,564	119,544
211,348	3,874	231,414	119,258
212,363	3,621	231,035	118,856
213,377	3,462	230,895	118,650
214,392	3,369	230,778	118,508
215,407	3,690	230,616	118,662
216,421	3,481	230,351	118,353
217,436	3,509	230,264	118,320
218,450	3,211	230,063	117,976
219,465	3,387	229,892	118,013
220,480	3,224	229,829	117,846
221,494	3,263	229,598	117,747
222,509	3,340	229,619	117,806
223,523	3,227	229,421	117,607
224,538	2,965	229,332	117,349
225,553	3,223	229,013	117,374
226,567	3,478	228,940	117,521
227,582	3,777	228,922	117,731
228,596	3,905	228,848	117,781
229,611	3,409	228,610	117,268
230,626	3,148	228,422	116,961
231,640	3,130	228,302	116,876
232,655	3,426	228,101	116,989
233,669	3,982	228,105	117,404
234,684	4,164	227,864	117,408
235,699	3,714	227,722	116,982
236,713	3,370	227,482	116,586
237,728	3,568	227,410	116,690
238,742	3,519	226,986	116,425
239,757	3,313	226,969	116,249
240,772	3,426	226,851	116,264
241,786	3,574	226,677	116,277
242,801	3,443	226,744	116,202
243,815	3,609	226,531	116,208
244,830	3,904	226,444	116,376
245,844	3,394	226,299	115,906
246,859	3,369	226,064	115,756
247,874	3,612	225,877	115,833
248,888	3,646	225,794	115,805
249,903	3,580	225,605	115,649
250,917	3,201	225,476	115,287
251,932	3,307	225,355	115,294
252,947	3,296	225,053	115,121
253,961	3,310	224,966	115,077
254,976	3,382	224,741	115,006
255,990	3,562	224,732	115,126
257,005	3,563	224,585	115,041
258,020	3,583	224,498	115,002
259,034	3,711	224,443	115,059
260,049	3,727	224,273	114,973
261,063	3,727	224,020	114,834
262,078	3,931	223,915	114,922
263,093	3,613	223,849	114,640
264,107	3,908	223,603	114,724
265,122	3,655	223,450	114,447
266,136	3,763	223,311	114,446
267,151	3,906	223,244	114,508
268,166	3,415	222,956	113,984
269,180	3,123	222,709	113,631
270,195	3,203	222,650	113,650
271,209	3,148	222,596	113,572
272,224	3,145	222,421	113,471
273,239	3,437	222,379	113,656
274,253	3,437	221,922	113,412
275,268	3,018	221,887	113,074
276,282	3,239	221,702	113,133
277,297	3,191	221,625	113,047
278,312	3,024	221,584	112,894
279,326	3,393	221,453	113,089
280,341	3,417	221,211	112,973
281,355	3,538	221,277	113,086
282,370	3,310	220,940	112,735
283,384	3,119	220,847	112,538
284,399	3,017	220,533	112,293
285,414	3,076	220,482	112,300
286,428	3,414	220,327	112,459
287,443	3,365	220,279	112,389
288,457	3,677	220,093	112,513
289,472	3,397	219,931	112,215
290,487	2,981	219,596	111,730
291,501	2,808	219,490	111,539
292,516	3,178	219,270	111,688
293,530	3,284	219,234	111,737
294,545	3,096	219,157	111,550
295,560	3,342	219,037	111,659
296,574	3,455	218,881	111,651
297,589	3,439	218,821	111,599
298,603	3,558	218,646	111,586
299,618	3,420	218,614	111,460
300,633	3,400	218,535	111,395
301,647	3,504	218,420	111,402
302,662	3,666	218,129	111,362
303,676	3,590	218,129	111,297
304,691	3,562	217,979	111,189
305,706	3,767	217,837	111,255
306,720	3,863	217,658	111,224
307,735	3,385	217,368	110,720
308,749	3,347	217,296	110,647
309,764	3,661	217,212	110,821
310,779	3,717	217,124	110,805
311,793	3,585	217,021	110,648
312,808	3,584	216,841	110,546
313,822	3,498	216,637	110,370
314,837	3,493	216,406	110,239
315,852	3,053	216,382	109,900
316,866	3,301	216,228	109,991
317,881	3,275	216,136	109,915
318,895	3,467	216,047	109,998
319,910	3,721	215,823	110,057
320,925	3,333	215,470	109,589
321,939	3,153	215,360	109,395
322,954	3,428	215,276	109,539
323,968	3,556	215,288	109,627
324,983	3,635	215,123	109,590
325,997	3,514	215,045	109,453
327,012	3,509	215,025	109,430
328,027	3,426	214,816	109,254
329,041	3,749	214,762	109,447
330,056	3,806	214,674	109,434
331,070	3,342	214,326	108,916
332,085	3,230	213,971	108,647
333,100	3,358	213,931	108,708
334,114	3,431	213,962	108,766
335,129	3,600	213,819	108,803
336,143	3,491	213,622	108,615
337,158	3,594	213,487	108,610
338,173	3,329	213,418	108,378
339,187	3,256	213,102	108,156
340,202	3,113	212,930	107,958
341,216	3,304	212,764	107,999
342,231	3,057	212,666	107,766
343,246	3,204	212,602	107,828
344,260	3,190	212,517	107,765
345,275	3,400	212,458	107,873
346,289	3,367	212,462	107,842
347,304	3,461	212,184	107,758
348,319	3,512	212,108	107,745
349,333	3,473	211,821	107,562
350,348	3,643	211,623	107,571
351,362	3,674	211,722	107,634
352,377	3,454	211,456	107,335
353,392	3,357	211,352	107,205
354,406	3,552	211,118	107,213
355,421	194,931	1342,582	1425,492
356,435	155,665	1480,469	1425,523
