DTS Sentinel unit serial number:	SN410029Multiplexer serial number:	ORYXHardware model number:	OX2-SRSoftware version number:	ORYX F/W v4,00 Oryx Data Collector v3.7.2.0data status	okinstallation	B6 Nyhavnadifferential loss correction	single-endedforward channel	channel 2reverse channel	N/Adate	2023/12/10time	22:15:08forward acquisition time	300,00reverse acquisition time	0,00gamma	499,1914k internal	0,3123k external	0,3123temperature offset calibration	1,0000default loss term (dB/km)	0,3820temperature slope calibration	1,0000multiplexer offset coefficient	1,0000multiplexer slope coefficient	1,0000fibre end	0,00T internal ref (°C)	22,34T ext. ref 1 (°C)	6,13T ext. ref 2 (°C)	6,13length (m)	temperature (°C)	Stokes	anti-Stokes-744,400	-80,161	0,055	-0,014
-743,385	-33,375	-0,250	0,103
-742,371	-62,504	0,049	-0,015
-741,356	3,162	-0,283	0,153
-740,342	579,363	-0,055	-0,101
-739,327	-14,800	-0,219	0,104
-738,312	143,541	-0,119	-0,118
-737,298	-128,144	-0,248	-0,026
-736,283	-200,000	-0,010	0,035
-735,269	5,046	-0,143	0,078
-734,254	-200,000	0,016	-0,139
-733,239	38,044	-0,330	-0,218
-732,225	320,150	-0,025	0,035
-731,210	494,834	0,063	0,109
-730,196	-31,462	0,139	-0,058
-729,181	374,881	-0,138	-0,210
-728,167	-163,423	-0,174	-0,006
-727,152	-128,530	0,075	0,008
-726,137	-127,023	-0,138	0,015
-725,123	-109,932	-0,090	-0,014
-724,108	58,258	0,035	0,025
-723,094	44,431	-0,146	-0,100
-722,079	-200,000	-0,033	-0,170
-721,064	-72,139	-0,062	-0,017
-720,050	297,876	-0,054	-0,074
-719,035	584,260	-0,010	-0,018
-718,021	115,739	-0,090	-0,082
-717,006	259,274	-0,051	0,066
-715,991	-20,971	-0,077	0,035
-714,977	150,743	0,063	-0,064
-713,962	262,593	0,075	0,097
-712,948	-99,412	-0,060	0,011
-711,933	-144,479	-0,105	-0,007
-710,918	-200,000	-0,007	-0,088
-709,904	40,477	-0,156	-0,105
-708,889	-128,463	0,113	0,012
-707,875	-77,127	-0,077	0,020
-706,860	800,000	0,021	-0,060
-705,845	-200,000	-0,022	0,121
-704,831	-200,000	-0,023	-0,113
-703,816	-59,852	-0,133	0,042
-702,802	620,822	-0,013	-0,025
-701,787	72,567	-0,168	-0,130
-700,772	-41,910	-0,060	-0,023
-699,758	132,511	-0,034	-0,032
-698,743	270,991	0,070	-0,092
-697,729	-200,000	0,003	0,124
-696,714	-151,292	0,013	0,001
-695,699	-147,780	-0,064	-0,004
-694,685	-133,935	-0,079	0,007
-693,670	-71,732	0,133	-0,037
-692,656	-102,009	-0,153	0,027
-691,641	136,153	0,029	-0,029
-690,627	534,267	0,053	-0,094
-689,612	-200,000	-0,030	-0,192
-688,597	16,693	-0,149	-0,087
-687,583	-32,279	0,070	0,029
-686,568	-51,533	-0,118	-0,041
-685,554	40,358	-0,098	-0,066
-684,539	-130,690	-0,022	-0,002
-683,524	-137,229	0,191	0,016
-682,510	800,000	-0,017	0,051
-681,495	-200,000	0,004	-0,049
-680,481	36,305	-0,057	-0,037
-679,466	477,268	0,031	0,053
-678,451	-167,915	-0,081	-0,002
-677,437	626,380	-0,019	0,036
-676,422	163,735	0,067	0,071
-675,408	800,000	-0,019	0,040
-674,393	78,906	0,028	0,022
-673,378	-56,880	-0,047	-0,015
-672,364	156,982	-0,032	-0,033
-671,349	-136,347	-0,030	0,003
-670,335	52,156	-0,136	-0,096
-669,320	-200,000	0,011	-0,050
-668,305	752,592	-0,079	0,159
-667,291	382,170	-0,035	0,053
-666,276	136,561	-0,071	-0,069
-665,262	-21,224	-0,208	-0,094
-664,247	1,654	-0,100	0,053
-663,232	800,000	-0,024	-0,051
-662,218	-200,000	0,002	-0,027
-661,203	800,000	0,022	0,047
-660,189	26,876	-0,165	0,103
-659,174	-92,674	-0,176	0,036
-658,159	-16,898	-0,157	-0,073
-657,145	94,250	-0,075	-0,064
-656,130	-200,000	0,017	-0,073
-655,116	-200,000	-0,008	0,052
-654,101	228,346	0,048	-0,058
-653,086	-178,313	-0,135	-0,002
-652,072	-200,000	0,009	-0,050
-651,057	-163,802	0,066	0,002
-650,043	150,950	0,025	0,026
-649,028	-48,481	0,108	-0,038
-648,014	130,860	-0,082	-0,078
-646,999	-28,792	-0,097	0,041
-645,984	522,528	-0,066	0,116
-644,970	-31,470	-0,121	-0,050
-643,955	-200,000	-0,001	-0,050
-642,941	-4,696	-0,106	0,054
-641,926	-88,478	0,108	-0,024
-640,911	-120,084	0,060	0,008
-639,897	567,633	0,079	0,143
-638,882	-37,922	-0,110	0,043
-637,868	33,711	-0,054	-0,035
-636,853	22,933	-0,083	-0,050
-635,838	-200,000	-0,008	-0,090
-634,824	69,772	-0,014	-0,011
-633,809	371,294	-0,025	-0,038
-632,795	-200,000	-0,035	-0,172
-631,780	-126,362	-0,059	0,006
-630,765	34,962	-0,142	-0,092
-629,751	800,000	-0,068	-0,158
-628,736	-178,986	-0,107	-0,002
-627,722	800,000	-0,063	-0,151
-626,707	28,610	-0,027	-0,017
-625,692	-200,000	0,034	0,163
-624,678	-200,000	-0,045	0,149
-623,663	69,575	-0,117	0,089
-622,649	-200,000	0,030	-0,157
-621,634	-200,000	-0,026	-0,121
-620,619	-166,079	-0,045	0,001
-619,605	490,971	0,039	0,066
-618,590	-49,602	-0,066	-0,023
-617,576	-200,000	0,010	-0,052
-616,561	-200,000	-0,018	-0,069
-615,546	37,321	-0,063	-0,042
-614,532	-53,725	-0,105	0,035
-613,517	-110,007	-0,114	0,017
-612,503	-200,000	0,030	-0,166
-611,488	-9,104	-0,047	0,023
-610,474	800,000	0,022	0,051
-609,459	57,585	0,147	-0,106
-608,444	158,834	-0,094	0,097
-607,430	43,237	-0,061	0,042
-606,415	53,917	-0,069	-0,049
-605,401	-71,518	0,131	-0,036
-604,386	800,000	-0,047	0,123
-603,371	-127,478	-0,060	0,006
-602,357	-142,041	0,110	0,008
-601,342	-76,007	0,038	0,010
-600,328	-68,732	-0,012	0,003
-599,313	84,902	0,057	-0,046
-598,298	41,625	0,101	-0,068
-597,284	1,115	0,148	-0,078
-596,269	-94,152	-0,074	-0,015
-595,255	-200,000	-0,040	0,164
-594,240	119,546	0,030	0,027
-593,225	-24,414	-0,199	-0,088
-592,211	-25,390	-0,029	0,013
-591,196	-200,000	-0,012	0,103
-590,182	194,411	0,068	-0,077
-589,167	-200,000	-0,011	0,048
-588,152	-66,155	0,068	0,020
-587,138	-200,000	0,026	-0,114
-586,123	429,835	-0,028	-0,044
-585,109	246,388	0,099	-0,124
-584,094	320,930	0,007	0,010
-583,079	155,003	0,041	-0,042
-582,065	10,586	0,055	0,031
-581,050	-45,897	0,021	0,008
-580,036	-46,580	0,047	0,017
-579,021	-87,697	0,042	-0,009
-578,006	254,986	-0,066	-0,084
-576,992	800,000	0,025	0,063
-575,977	140,511	0,100	-0,098
-574,963	109,379	0,069	0,061
-573,948	-80,853	0,051	-0,012
-572,934	-115,217	0,025	-0,004
-571,919	-140,908	0,020	-0,002
-570,904	-200,000	-0,006	0,035
-569,890	-41,509	-0,160	-0,061
-568,875	-200,000	0,031	0,108
-567,861	100,086	0,098	-0,084
-566,846	-200,000	-0,008	0,107
-565,831	32,372	0,043	-0,027
-564,817	40,938	0,025	-0,017
-563,802	112,773	-0,026	0,023
-562,788	800,000	0,043	0,099
-561,773	57,753	0,164	0,119
-560,758	6,093	0,039	0,021
-559,744	66,507	0,030	-0,023
-558,729	-200,000	0,007	0,043
-557,715	800,000	0,016	0,045
-556,700	-36,227	-0,088	-0,035
-555,685	45,691	-0,105	0,072
-554,671	800,000	-0,018	-0,052
-553,656	800,000	0,038	-0,112
-552,642	800,000	0,032	-0,072
-551,627	800,000	0,015	0,041
-550,612	-84,645	-0,051	-0,012
-549,598	-80,710	0,167	-0,041
-548,583	27,075	0,132	-0,082
-547,569	-159,965	0,032	0,001
-546,554	-38,344	0,055	0,022
-545,539	800,000	-0,028	0,081
-544,525	121,878	0,039	0,036
-543,510	-140,190	0,017	0,001
-542,496	800,000	-0,051	-0,122
-541,481	20,859	-0,051	-0,031
-540,466	334,398	-0,068	-0,098
-539,452	-200,000	0,008	-0,053
-538,437	212,553	0,033	0,039
-537,423	27,484	-0,072	-0,045
-536,408	-116,246	-0,078	0,011
-535,393	680,949	-0,047	0,092
-534,379	-5,788	-0,034	-0,017
-533,364	59,160	-0,078	-0,057
-532,350	-200,000	-0,002	-0,082
-531,335	800,000	0,026	0,069
-530,321	-200,000	0,004	-0,020
-529,306	-87,380	-0,156	0,035
-528,291	-46,775	0,052	-0,019
-527,277	-200,000	-0,010	-0,062
-526,262	-200,000	-0,003	-0,047
-525,248	205,724	0,020	0,023
-524,233	-39,677	-0,094	-0,036
-523,218	-200,000	0,002	-0,067
-522,204	-57,197	-0,068	-0,022
-521,189	28,786	0,105	-0,066
-520,175	-200,000	0,017	-0,069
-519,160	800,000	-0,052	0,112
-518,145	239,344	0,054	-0,067
-517,131	-200,000	-0,009	-0,062
-516,116	-200,000	0,021	0,082
-515,102	5,717	0,045	-0,024
-514,087	-38,273	0,037	-0,014
-513,072	292,330	0,059	-0,080
-512,058	-85,984	-0,031	0,007
-511,043	479,542	0,033	0,056
-510,029	-200,000	0,004	-0,085
-509,014	49,675	0,032	0,022
-507,999	-200,000	-0,029	0,194
-506,985	424,110	0,045	-0,071
-505,970	436,707	-0,113	-0,182
-504,956	800,000	0,038	-0,120
-503,941	244,730	-0,043	-0,054
-502,926	-7,329	0,190	-0,095
-501,912	-200,000	0,004	0,045
-500,897	14,650	0,090	0,052
-499,883	-200,000	0,034	-0,143
-498,868	119,205	-0,062	0,057
-497,853	-147,366	-0,083	-0,005
-496,839	128,159	-0,033	-0,031
-495,824	-200,000	0,000	-0,048
-494,810	-83,011	0,105	0,025
-493,795	-200,000	0,009	0,059
-492,781	800,000	-0,023	-0,052
-491,766	-200,000	-0,006	-0,065
-490,751	355,663	-0,042	-0,062
-489,737	-200,000	0,043	-0,165
-488,722	7,722	0,098	0,054
-487,708	107,010	-0,049	-0,043
-486,693	-65,746	-0,063	-0,018
-485,678	648,299	-0,044	0,083
-484,664	-83,762	-0,192	0,045
-483,649	800,000	-0,028	-0,089
-482,635	-161,077	-0,106	-0,004
-481,620	17,220	-0,078	0,046
-480,605	58,437	0,034	0,024
-479,591	-1,539	-0,065	0,034
-478,576	257,151	0,029	0,037
-477,562	171,188	0,078	0,082
-476,547	-167,058	0,047	0,001
-475,532	-2,167	-0,056	-0,029
-474,518	-200,000	0,018	0,118
-473,503	287,061	0,046	0,062
-472,489	-200,000	-0,004	0,084
-471,474	-67,948	-0,076	-0,022
-470,459	631,726	0,032	-0,059
-469,445	170,525	0,086	-0,091
-468,430	41,759	-0,062	0,041
-467,416	-163,191	0,116	-0,004
-466,401	-200,000	0,015	0,065
-465,386	253,773	0,078	0,098
-464,372	25,438	-0,150	0,092
-463,357	66,265	0,149	0,111
-462,343	134,241	-0,086	0,082
-461,328	-200,000	0,004	-0,125
-460,313	800,000	-0,043	0,114
-459,299	57,258	-0,048	0,034
-458,284	-200,000	0,001	0,205
-457,270	-19,134	0,087	0,040
-456,255	800,000	-0,036	-0,110
-455,241	-200,000	-0,002	-0,058
-454,226	800,000	0,022	-0,069
-453,211	-15,708	0,025	0,012
-452,197	735,146	-0,067	-0,133
-451,182	-38,103	0,146	0,057
-450,168	-200,000	0,007	0,071
-449,153	-108,303	-0,079	-0,012
-448,138	112,442	-0,046	-0,041
-447,124	30,636	-0,120	-0,076
-446,109	287,786	0,042	-0,056
-445,095	-116,140	0,124	0,017
-444,080	-114,237	0,088	0,012
-443,065	800,000	0,016	0,046
-442,051	-99,537	-0,139	0,026
-441,036	800,000	0,024	0,067
-440,022	-200,000	-0,007	-0,114
-439,007	-200,000	-0,002	-0,046
-437,992	800,000	-0,050	0,114
-436,978	-200,000	-0,009	0,122
-435,963	-200,000	0,010	-0,079
-434,949	156,567	0,045	-0,046
-433,934	-13,641	-0,048	-0,023
-432,919	-200,000	0,007	-0,037
-431,905	449,882	-0,037	0,060
-430,890	-29,283	-0,067	0,028
-429,876	800,000	-0,022	0,066
-428,861	33,175	-0,047	0,030
-427,846	4,861	-0,028	0,015
-426,832	434,676	0,025	-0,040
-425,817	-200,000	-0,009	-0,179
-424,803	800,000	0,038	-0,094
-423,788	-76,651	-0,088	0,023
-422,773	-200,000	0,012	0,101
-421,759	17,053	-0,081	-0,047
-420,744	14,136	-0,073	0,042
-419,730	-126,364	-0,020	0,002
-418,715	-3,466	-0,061	-0,031
-417,701	-12,583	0,064	0,031
-416,686	37,136	0,054	0,035
-415,671	99,813	-0,080	0,068
-414,657	-200,000	-0,040	0,162
-413,642	362,030	-0,080	0,118
-412,628	-200,000	0,010	-0,165
-411,613	-200,000	0,002	0,041
-410,598	800,000	0,042	-0,135
-409,584	-92,988	-0,052	0,011
-408,569	-169,423	0,105	0,003
-407,555	167,610	0,105	0,110
-406,540	37,465	0,043	0,028
-405,525	41,014	-0,008	-0,005
-404,511	-134,502	-0,093	0,008
-403,496	-5,259	0,125	-0,063
-402,482	734,669	0,008	0,016
-401,467	-200,000	-0,029	-0,114
-400,452	-200,000	0,020	0,088
-399,438	16,675	0,098	0,057
-398,423	108,671	-0,080	-0,070
-397,409	488,428	-0,045	0,075
-396,394	82,199	-0,061	-0,049
-395,379	252,360	0,044	0,055
-394,365	-200,000	0,004	0,076
-393,350	-200,000	0,002	0,051
-392,336	595,121	0,020	0,037
-391,321	459,695	-0,062	-0,101
-390,306	-64,592	-0,038	-0,011
-389,292	-200,000	-0,013	-0,053
-388,277	-33,739	0,094	-0,038
-387,263	93,062	0,067	-0,056
-386,248	715,638	0,033	0,065
-385,233	70,038	0,058	-0,044
-384,219	-200,000	0,025	0,089
-383,204	57,004	-0,122	-0,087
-382,190	-152,133	0,046	0,002
-381,175	316,599	-0,048	0,067
-380,160	-200,000	0,007	0,053
-379,146	7,549	-0,025	0,013
-378,131	-60,983	-0,105	0,032
-377,117	-200,000	-0,003	0,015
-376,102	-200,000	0,032	0,136
-375,088	599,805	0,036	0,066
-374,073	-200,000	-0,001	-0,047
-373,058	-42,162	0,163	-0,061
-372,044	23,088	0,079	0,048
-371,029	-38,358	-0,046	-0,018
-370,015	-200,000	0,017	-0,090
-369,000	-97,965	-0,065	-0,012
-367,985	-99,693	-0,029	-0,005
-366,971	-200,000	0,022	-0,087
-365,956	-11,636	0,101	0,049
-364,942	-200,000	0,055	0,195
-363,927	616,757	0,057	0,105
-362,912	800,000	0,057	-0,117
-361,898	-123,907	0,055	0,006
-360,883	-95,992	0,121	0,024
-359,869	800,000	-0,032	-0,096
-358,854	423,942	-0,053	0,085
-357,839	76,417	0,045	0,035
-356,825	15,257	-0,057	-0,033
-355,810	-99,970	-0,073	-0,013
-354,796	200,078	0,053	-0,060
-353,781	-66,915	-0,065	-0,019
-352,766	389,940	0,033	-0,050
-351,752	-200,000	-0,030	-0,171
-350,737	-113,031	0,027	-0,004
-349,723	519,494	-0,040	-0,070
-348,708	133,881	0,091	0,087
-347,693	160,246	-0,100	-0,102
-346,679	800,000	0,032	-0,081
-345,664	-200,000	0,027	0,094
-344,650	-2,484	-0,116	-0,059
-343,635	585,520	0,048	0,087
-342,620	624,601	0,099	-0,183
-341,606	800,000	-0,045	-0,130
-340,591	-38,749	-0,072	0,028
-339,577	800,000	0,015	-0,031
-338,562	-200,000	0,028	-0,222
-337,548	182,010	0,031	0,034
-336,533	-200,000	0,020	0,148
-335,518	140,975	0,100	0,097
-334,504	-200,000	-0,001	-0,159
-333,489	282,933	-0,039	-0,052
-332,475	22,313	-0,032	0,019
-331,460	-30,834	0,101	0,042
-330,445	160,051	-0,040	-0,041
-329,431	-55,408	-0,118	0,038
-328,416	-13,849	0,175	0,083
-327,402	-32,324	-0,069	0,028
-326,387	-154,552	-0,114	0,005
-325,372	-200,000	0,040	-0,166
-324,358	800,000	0,009	0,028
-323,343	800,000	0,027	0,059
-322,329	287,167	0,080	0,106
-321,314	319,777	0,059	0,083
-320,299	510,537	-0,060	0,103
-319,285	327,859	0,059	0,083
-318,270	126,506	-0,174	-0,162
-317,256	-200,000	0,012	0,084
-316,241	800,000	-0,028	0,061
-315,226	-200,000	0,007	0,089
-314,212	392,800	-0,028	0,043
-313,197	-116,733	0,068	-0,009
-312,183	-200,000	-0,004	0,048
-311,168	-114,471	-0,052	0,007
-310,153	800,000	-0,023	-0,065
-309,139	-151,436	0,138	0,007
-308,124	-200,000	0,001	-0,108
-307,110	800,000	0,020	0,063
-306,095	119,949	0,033	-0,030
-305,080	178,981	0,060	-0,064
-304,066	512,993	0,036	0,062
-303,051	-200,000	0,012	0,072
-302,037	-124,576	-0,211	0,024
-301,022	227,824	-0,079	-0,095
-300,008	9,987	0,196	0,109
-298,993	470,422	0,084	0,138
-297,978	-200,000	-0,014	-0,064
-296,964	-200,000	-0,017	-0,061
-295,949	-200,000	0,001	0,029
-294,935	23,979	0,138	0,083
-293,920	325,865	0,022	0,032
-292,905	800,000	0,045	0,129
-291,891	-55,399	0,119	0,039
-290,876	-114,990	-0,036	-0,005
-289,862	-200,000	0,007	-0,026
-288,847	-29,145	-0,023	-0,010
-287,832	-200,000	-0,018	-0,134
-286,818	-200,000	-0,016	0,064
-285,803	528,270	-0,024	-0,042
-284,789	75,339	0,059	-0,046
-283,774	-200,000	-0,007	0,034
-282,759	-177,586	-0,028	-0,000
-281,745	-20,622	0,104	0,047
-280,730	-15,958	-0,060	0,028
-279,716	-166,799	0,072	0,002
-278,701	-200,000	0,008	0,059
-277,686	-153,072	-0,058	-0,003
-276,672	800,000	0,021	0,058
-275,657	154,348	-0,022	0,022
-274,643	389,714	-0,071	-0,109
-273,628	-200,000	-0,007	0,036
-272,613	389,598	-0,053	0,081
-271,599	-72,465	0,040	-0,011
-270,584	-200,000	0,003	-0,079
-269,570	800,000	0,029	-0,075
-268,555	800,000	-0,013	0,034
-267,540	8,840	0,015	-0,008
-266,526	539,664	-0,103	-0,180
-265,511	452,449	-0,024	-0,039
-264,497	-200,000	-0,004	-0,093
-263,482	-200,000	0,005	-0,029
-262,467	800,000	0,023	-0,058
-261,453	-85,776	0,061	-0,014
-260,438	-200,000	0,011	0,039
-259,424	331,438	-0,038	0,053
-258,409	800,000	-0,032	-0,076
-257,395	-200,000	-0,010	0,097
-256,380	331,833	0,051	0,072
-255,365	-200,000	-0,043	0,159
-254,351	-136,035	-0,115	0,010
-253,336	412,449	0,044	0,068
-252,322	-99,214	-0,095	0,017
-251,307	103,834	-0,149	0,128
-250,292	-200,000	-0,006	-0,037
-249,278	-135,910	0,071	-0,006
-248,263	-82,250	0,104	0,024
-247,249	499,652	0,034	0,057
-246,234	-115,066	-0,160	0,022
-245,219	47,118	-0,061	-0,041
-244,205	128,421	0,034	-0,032
-243,190	107,433	-0,008	-0,007
-242,176	344,048	-0,060	0,087
-241,161	800,000	-0,052	0,155
-240,146	800,000	0,017	0,048
-239,132	-78,849	-0,047	-0,012
-238,117	-200,000	0,052	-0,222
-237,103	800,000	0,059	-0,138
-236,088	30,883	0,039	-0,025
-235,073	-42,409	-0,037	-0,014
-234,059	-200,000	0,007	-0,099
-233,044	800,000	0,028	-0,077
-232,030	117,006	-0,053	0,048
-231,015	-71,718	-0,073	0,020
-230,000	800,000	0,053	-0,152
-228,986	332,899	0,110	0,156
-227,971	800,000	0,046	0,101
-226,957	-1,052	0,091	0,047
-225,942	81,588	0,042	-0,033
-224,927	800,000	-0,005	0,017
-223,913	-52,761	-0,055	-0,018
-222,898	-200,000	-0,050	-0,169
-221,884	-200,000	0,001	0,018
-220,869	-200,000	0,015	0,072
-219,855	79,925	0,023	-0,018
-218,840	-169,627	-0,082	0,002
-217,825	-200,000	0,002	-0,047
-216,811	120,886	-0,023	-0,021
-215,796	352,091	-0,062	-0,090
-214,782	768,733	-0,020	0,039
-213,767	800,000	0,020	-0,061
-212,752	-105,150	-0,042	-0,007
-211,738	59,810	0,093	0,067
-210,723	31,963	-0,068	0,042
-209,709	66,945	-0,053	-0,039
-208,694	-14,615	0,086	-0,040
-207,679	24,337	-0,037	-0,022
-206,665	-32,709	0,053	-0,021
-205,650	726,060	0,045	0,088
-204,636	334,694	0,019	0,027
-203,621	800,000	-0,031	-0,080
-202,606	502,937	-0,094	-0,160
-201,592	-48,644	0,062	0,022
-200,577	-200,000	0,002	-0,021
-199,563	443,631	0,061	0,097
-198,548	-200,000	0,011	0,050
-197,533	800,000	0,039	-0,120
-196,519	116,193	0,113	-0,101
-195,504	-187,065	0,139	0,001
-194,490	-37,822	0,087	0,034
-193,475	372,070	0,055	0,081
-192,460	95,620	0,082	0,068
-191,446	-106,407	-0,110	-0,018
-190,431	-200,000	0,009	0,103
-189,417	-81,366	-0,113	0,027
-188,402	19,613	-0,077	0,045
-187,387	800,000	-0,039	-0,100
-186,373	594,594	0,046	-0,084
-185,358	779,394	0,035	-0,069
-184,344	-145,528	0,114	-0,007
-183,329	800,000	-0,013	-0,030
-182,315	-83,133	0,060	0,014
-181,300	99,453	-0,166	-0,140
-180,285	506,269	0,052	-0,089
-179,271	-126,075	-0,075	-0,008
-178,256	-9,469	0,106	0,051
-177,242	11,153	-0,188	0,105
-176,227	205,012	0,093	-0,105
-175,212	116,053	0,080	0,071
-174,198	800,000	0,025	0,077
-173,183	-157,254	-0,033	-0,001
-172,169	33,900	0,008	0,005
-171,154	800,000	-0,041	0,088
-170,139	57,305	-0,004	-0,003
-169,125	442,180	0,083	0,133
-168,110	115,380	0,027	0,024
-167,096	800,000	-0,078	0,195
-166,081	800,000	-0,051	0,137
-165,066	800,000	0,003	0,005
-164,052	241,679	-0,054	-0,066
-163,037	-165,344	0,057	-0,002
-162,023	-200,000	0,001	0,175
-161,008	695,532	-0,038	0,073
-159,993	42,522	0,089	-0,059
-158,979	126,654	0,044	0,041
-157,964	-98,757	0,078	-0,014
-156,950	-200,000	-0,047	0,172
-155,935	-200,000	-0,039	0,131
-154,920	800,000	0,069	0,205
-153,906	-180,177	0,088	-0,001
-152,891	-55,781	-0,150	-0,049
-151,877	797,826	-0,056	0,114
-150,862	-28,968	-0,035	0,015
-149,847	-114,154	0,055	-0,008
-148,833	800,000	-0,029	0,088
-147,818	800,000	-0,044	0,131
-146,804	126,624	0,017	0,016
-145,789	-46,205	0,080	0,028
-144,775	45,095	-0,042	0,028
-143,760	199,144	-0,031	0,035
-142,745	800,000	-0,026	-0,071
-141,731	77,148	0,105	0,081
-140,716	-200,000	0,027	0,137
-139,702	800,000	0,018	0,045
-138,687	641,944	-0,043	0,080
-137,672	-40,771	0,072	-0,027
-136,658	-57,749	-0,144	-0,046
-135,643	-200,000	-0,022	-0,078
-134,629	800,000	0,059	-0,145
-133,614	243,068	0,074	0,090
-132,599	120,556	-0,024	0,022
-131,585	-138,107	0,107	0,009
-130,570	-116,653	0,047	-0,006
-129,556	-73,259	0,103	-0,027
-128,541	153,693	-0,120	0,119
-127,526	-200,000	0,023	-0,092
-126,512	144,760	-0,054	-0,053
-125,497	-3,713	0,075	0,038
-124,483	331,571	-0,130	0,183
-123,468	800,000	0,002	-0,005
-122,453	13,866	-0,110	-0,062
-121,439	58,942	0,064	0,046
-120,424	-14,867	-0,088	0,041
-119,410	327,753	-0,051	0,071
-118,395	641,851	0,023	0,043
-117,380	38,701	-0,054	0,035
-116,366	-1,003	-0,088	0,045
-115,351	-107,863	-0,131	-0,021
-114,337	-200,000	-0,045	-0,149
-113,322	-114,406	-0,083	0,011
-112,307	355,428	-0,108	-0,156
-111,293	-49,028	0,082	-0,028
-110,278	-71,081	-0,184	-0,050
-109,264	-200,000	-0,029	0,125
-108,249	800,000	0,031	0,088
-107,234	-200,000	-0,001	0,012
-106,220	800,000	-0,015	-0,041
-105,205	193,634	0,068	-0,075
-104,191	-105,278	0,061	0,010
-103,176	83,367	-0,042	0,034
-102,162	-200,000	0,001	0,029
-101,147	-86,035	-0,052	-0,012
-100,132	-110,945	-0,193	0,029
-99,118	-200,000	0,003	-0,075
-98,103	479,626	-0,046	-0,076
-97,089	800,000	0,046	0,113
-96,074	85,854	-0,118	-0,094
-95,059	519,179	0,028	-0,048
-94,045	800,000	0,021	-0,059
-93,030	800,000	0,030	-0,079
-92,016	42,461	-0,098	-0,065
-91,001	594,519	0,040	-0,072
-89,986	124,076	0,021	-0,019
-88,972	-200,000	0,027	0,133
-87,957	595,559	-0,016	-0,030
-86,943	75,071	-0,091	-0,070
-85,928	489,978	0,036	-0,059
-84,913	1,173	0,144	-0,075
-83,899	-82,975	-0,117	-0,027
-82,884	597,026	0,062	0,112
-81,870	-65,418	-0,060	-0,018
-80,855	3,737	0,061	0,032
-79,840	-47,309	-0,063	-0,022
-78,826	-53,543	-0,132	-0,044
-77,811	-75,521	0,073	-0,019
-76,797	414,071	-0,058	-0,089
-75,782	108,719	0,066	0,057
-74,767	800,000	-0,039	0,094
-73,753	-32,674	-0,056	0,023
-72,738	-200,000	-0,011	0,075
-71,724	-81,002	0,064	0,015
-70,709	800,000	0,051	-0,118
-69,694	72,513	-0,088	-0,066
-68,680	800,000	0,051	0,109
-67,665	218,170	-0,083	-0,096
-66,651	800,000	-0,021	-0,043
-65,636	800,000	-0,055	-0,131
-64,622	800,000	-0,012	-0,029
-63,607	48,560	-0,125	-0,085
-62,592	-200,000	-0,001	-0,012
-61,578	-48,528	0,027	-0,009
-60,563	128,463	0,039	0,036
-59,549	298,951	-0,097	0,130
-58,534	-108,921	-1,321	-0,203
-57,519	513,802	-0,797	-1,355
-56,505	-200,000	-0,905	-4,366
-55,490	-7,330	0,618	-0,303
-54,476	800,000	4,982	11,912
-53,461	-200,000	13,646	252,791
-52,446	-200,000	689,660	2258,457
-51,432	591,407	1622,204	2917,401
-50,417	119,284	1634,995	1467,947
-49,403	73,260	1288,828	977,181
-48,388	38,074	1024,185	659,758
-47,373	24,297	981,977	587,255
-46,359	23,570	971,594	578,638
-45,344	22,597	967,112	572,766
-44,330	22,499	965,764	571,626
-43,315	22,325	964,529	570,306
-42,300	22,341	963,448	569,696
-41,286	22,382	962,497	569,243
-40,271	22,366	961,449	568,551
-39,257	22,337	960,422	567,826
-38,242	22,362	959,572	567,381
-37,227	22,353	958,766	566,853
-36,213	22,295	957,906	566,136
-35,198	22,325	957,039	565,695
-34,184	22,369	956,419	565,449
-33,169	22,323	955,349	564,647
-32,154	22,383	954,452	564,288
-31,140	22,389	953,607	563,785
-30,125	22,378	952,809	563,257
-29,111	22,360	952,047	562,724
-28,096	22,387	951,286	562,340
-27,082	22,364	950,718	561,907
-26,067	22,408	949,698	561,424
-25,052	22,320	949,165	560,803
-24,038	22,385	948,523	560,611
-23,023	22,342	947,926	560,098
-22,009	22,473	947,036	559,970
-20,994	22,379	946,704	559,451
-19,979	22,392	946,023	559,066
-18,965	22,422	945,363	558,749
-17,950	22,423	944,817	558,409
-16,936	22,341	944,017	557,651
-15,921	22,305	943,399	557,149
-14,906	22,264	942,681	556,572
-13,892	22,265	941,898	556,091
-12,877	22,259	941,390	555,752
-11,863	22,216	940,742	555,211
-10,848	22,241	940,200	554,948
-9,833	22,326	939,772	554,941
-8,819	22,374	939,101	554,678
-7,804	22,259	938,456	553,909
-6,790	22,257	937,792	553,489
-5,775	22,357	937,065	553,354
-4,760	22,314	936,605	552,925
-3,746	22,206	935,997	552,204
-2,731	22,128	935,445	551,609
-1,717	22,052	934,665	550,888
-0,702	22,070	934,023	550,543
0,313	21,900	933,195	550,350
1,327	25,040	931,246	559,023
2,342	34,809	796,191	503,971
3,356	32,791	451,787	282,906
4,371	1,936	294,014	153,305
5,386	-2,544	274,850	139,058
6,400	-4,145	269,013	134,607
7,415	-4,742	266,561	132,818
8,429	-4,455	265,433	132,508
9,444	-4,356	264,483	132,113
10,459	-4,420	263,960	131,781
11,473	-4,532	263,296	131,335
12,488	-4,609	262,817	131,015
13,502	-4,660	262,198	130,649
14,517	-4,731	261,777	130,363
15,531	-4,713	261,480	130,220
16,546	-4,532	261,127	130,196
17,561	-4,742	260,797	129,830
18,575	-4,641	260,217	129,621
19,590	-4,817	260,095	129,391
20,604	-4,633	259,597	129,296
21,619	-4,559	259,390	129,248
22,634	-4,744	259,045	128,899
23,648	-4,762	258,942	128,821
24,663	-4,653	258,518	128,695
25,677	-4,736	258,326	128,514
26,692	-4,591	258,004	128,471
27,707	-4,716	257,675	128,185
28,721	-4,664	257,544	128,155
29,736	-4,871	257,211	127,794
30,750	-4,907	256,930	127,611
31,765	-4,632	256,609	127,683
32,780	-4,714	256,544	127,568
33,794	-4,721	256,235	127,396
34,809	-4,769	256,095	127,273
35,823	-4,711	255,710	127,121
36,838	-4,617	255,440	127,058
37,853	-4,725	255,312	126,888
38,867	-4,940	255,147	126,606
39,882	-4,856	254,807	126,500
40,896	-4,814	254,587	126,416
41,911	-4,719	254,275	126,333
42,926	-4,710	254,218	126,302
43,940	-4,724	253,861	126,100
44,955	-4,869	253,686	125,876
45,969	-4,790	253,370	125,777
46,984	-5,079	253,277	125,468
47,999	-5,385	252,940	125,023
49,013	-5,430	252,674	124,841
50,028	-5,585	252,509	124,614
51,042	-5,566	252,276	124,504
52,057	-5,719	251,912	124,181
53,071	-5,763	251,808	124,080
54,086	-5,499	251,566	124,178
55,101	-5,393	251,552	124,252
56,115	-5,122	251,408	124,404
57,130	-4,770	251,360	124,674
58,144	-4,481	251,196	124,830
59,159	-4,556	251,046	124,680
60,174	-4,623	250,791	124,485
61,188	-4,624	250,588	124,373
62,203	-4,677	250,347	124,196
63,217	-4,700	250,079	124,032
64,232	-4,639	250,016	124,042
65,247	-4,506	249,674	123,975
66,261	-4,615	249,473	123,771
67,276	-4,730	249,124	123,489
68,290	-4,884	248,909	123,239
69,305	-5,178	248,746	122,897
70,320	-5,095	248,478	122,824
71,334	-4,930	248,481	122,956
72,349	-4,474	248,186	123,187
73,363	-4,501	248,054	123,087
74,378	-4,542	247,907	122,969
75,393	-4,509	247,677	122,871
76,407	-4,750	247,521	122,579
77,422	-4,744	247,282	122,454
78,436	-4,666	247,128	122,433
79,451	-4,610	246,995	122,404
80,466	-4,782	246,693	122,097
81,480	-4,872	246,435	121,884
82,495	-5,003	246,217	121,654
83,509	-4,892	245,928	121,594
84,524	-4,951	245,759	121,449
85,539	-5,239	245,672	121,154
86,553	-5,027	245,425	121,199
87,568	-4,938	245,212	121,158
88,582	-4,886	245,036	121,104
89,597	-4,929	244,835	120,957
90,611	-4,887	244,804	120,967
91,626	-5,004	244,699	120,806
92,641	-4,679	244,476	120,957
93,655	-4,703	244,179	120,780
94,670	-4,709	243,939	120,645
95,684	-4,985	244,005	120,436
96,699	-4,916	243,726	120,345
97,714	-5,022	243,556	120,162
98,728	-4,995	243,270	120,033
99,743	-5,290	243,062	119,674
100,757	-5,145	242,817	119,663
101,772	-5,120	242,701	119,616
102,787	-5,041	242,489	119,566
103,801	-5,090	242,482	119,512
104,816	-4,701	242,288	119,729
105,830	-4,789	241,940	119,472
106,845	-4,869	241,988	119,419
107,860	-4,545	241,675	119,522
108,874	-4,869	241,321	119,069
109,889	-4,973	241,343	118,983
110,903	-4,885	241,087	118,919
111,918	-4,893	240,837	118,779
112,933	-4,839	240,677	118,734
113,947	-4,780	240,678	118,772
114,962	-4,844	240,564	118,653
115,976	-4,827	240,308	118,530
116,991	-4,572	240,172	118,662
118,006	-4,759	239,879	118,352
119,020	-4,761	239,824	118,314
120,035	-4,695	239,686	118,289
121,049	-4,775	239,538	118,140
122,064	-4,629	239,278	118,120
123,079	-4,780	239,066	117,882
124,093	-4,725	238,853	117,811
125,108	-4,889	238,554	117,520
126,122	-5,061	238,415	117,300
127,137	-5,274	238,344	117,082
128,151	-5,141	238,130	117,074
129,166	-5,005	237,946	117,084
130,181	-5,093	237,761	116,911
131,195	-5,077	237,499	116,785
132,210	-4,794	237,465	116,987
133,224	-4,799	237,369	116,925
134,239	-4,688	237,238	116,941
135,254	-4,523	236,988	116,940
136,268	-4,995	236,751	116,431
137,283	-5,233	236,608	116,159
138,297	-5,123	236,307	116,089
139,312	-5,330	236,181	115,850
140,327	-4,950	236,078	116,095
141,341	-4,358	236,043	116,544
142,356	-4,397	235,953	116,458
143,370	-4,382	235,586	116,279
144,385	-4,259	235,567	116,358
145,400	-4,325	235,331	116,178
146,414	-4,311	235,129	116,079
147,429	-4,433	235,049	115,931
148,443	-4,458	234,755	115,756
149,458	-4,433	234,746	115,761
150,473	-4,642	234,619	115,521
151,487	-4,400	234,359	115,576
152,502	-4,372	234,135	115,478
153,516	-4,488	234,069	115,342
154,531	-4,567	233,860	115,166
155,546	-4,495	233,746	115,157
156,560	-4,568	233,593	115,013
157,575	-4,894	233,454	114,675
158,589	-4,650	233,196	114,732
159,604	-4,231	232,904	114,910
160,619	-4,363	232,890	114,789
161,633	-4,345	232,883	114,789
162,648	-4,308	232,521	114,630
163,662	-4,671	232,419	114,282
164,677	-4,690	232,285	114,192
165,692	-4,425	232,127	114,313
166,706	-4,633	232,018	114,085
167,721	-4,442	231,910	114,172
168,735	-4,359	231,693	114,120
169,750	-4,460	231,519	113,945
170,764	-4,450	231,350	113,860
171,779	-4,415	231,297	113,851
172,794	-4,454	231,224	113,774
173,808	-4,650	231,034	113,516
174,823	-5,025	230,457	112,929
175,837	-5,083	230,354	112,823
176,852	-4,712	230,341	113,097
177,867	-4,613	230,376	113,182
178,881	-4,356	230,160	113,267
179,896	-4,196	229,979	113,292
180,910	-4,283	229,824	113,138
181,925	-4,392	229,713	112,989
182,940	-4,330	229,489	112,916
183,954	-4,336	229,279	112,798
184,969	-4,261	229,244	112,830
185,983	-4,413	229,188	112,673
186,998	-4,274	228,962	112,660
188,013	-4,075	228,788	112,719
189,027	-3,914	228,537	112,710
190,042	-4,124	228,514	112,526
191,056	-4,130	228,328	112,420
192,071	-4,324	228,232	112,212
193,086	-4,525	228,084	111,974
194,100	-4,115	227,860	112,172
195,115	-4,382	227,446	111,752
196,129	-5,324	227,194	110,891
197,144	-2,228	228,267	113,803
198,159	2,296	229,366	117,854
199,173	4,378	229,764	119,663
200,188	4,414	229,812	119,705
201,202	4,154	229,759	119,465
202,217	4,815	229,433	119,797
203,232	4,786	229,507	119,803
204,246	4,955	229,234	119,780
205,261	4,776	229,212	119,619
206,275	5,046	229,057	119,737
207,290	4,758	229,069	119,510
208,304	4,982	228,870	119,568
209,319	4,788	228,608	119,272
210,334	4,626	228,478	119,068
211,348	4,711	228,167	118,961
212,363	4,273	227,890	118,469
213,377	4,094	227,664	118,203
214,392	4,033	227,569	118,097
215,407	4,250	227,503	118,219
216,421	4,274	227,393	118,169
217,436	4,261	227,101	117,997
218,450	3,908	226,868	117,595
219,465	3,706	226,796	117,393
220,480	4,137	226,624	117,623
221,494	3,947	226,412	117,358
222,509	3,972	226,393	117,356
223,523	4,129	226,270	117,402
224,538	4,004	225,994	117,152
225,553	3,962	225,906	117,065
226,567	4,172	225,904	117,213
227,582	4,247	225,793	117,202
228,596	4,409	225,808	117,323
229,611	4,170	225,379	116,908
230,626	4,196	225,171	116,810
231,640	4,144	225,047	116,695
232,655	4,167	224,975	116,665
233,669	4,823	224,866	117,094
234,684	4,825	224,748	117,024
235,699	4,643	224,661	116,831
236,713	4,315	224,450	116,463
237,728	4,134	224,231	116,202
238,742	4,115	224,032	116,075
239,757	4,077	223,852	115,943
240,772	4,184	223,760	115,964
241,786	4,278	223,506	115,893
242,801	4,152	223,671	115,874
243,815	4,678	223,339	116,087
244,830	4,574	223,246	115,950
245,844	4,012	223,155	115,470
246,859	4,418	222,947	115,657
247,874	4,377	222,837	115,559
248,888	4,193	222,677	115,328
249,903	4,233	222,472	115,242
250,917	4,213	222,402	115,180
251,932	4,072	222,200	114,960
252,947	3,950	222,039	114,775
253,961	4,018	221,829	114,707
254,976	4,165	221,735	114,758
255,990	4,243	221,592	114,731
257,005	4,193	221,487	114,630
258,020	4,445	221,428	114,776
259,034	4,533	221,363	114,798
260,049	4,628	221,064	114,703
261,063	4,291	221,005	114,412
262,078	4,492	220,781	114,435
263,093	4,605	220,705	114,469
264,107	4,477	220,538	114,278
265,122	4,243	220,456	114,052
266,136	4,685	220,391	114,335
267,151	4,677	220,303	114,273
268,166	4,402	219,877	113,839
269,180	3,807	219,598	113,246
270,195	3,995	219,492	113,320
271,209	4,133	219,412	113,370
272,224	4,027	219,388	113,269
273,239	4,470	219,184	113,479
274,253	4,329	218,922	113,230
275,268	3,930	218,854	112,892
276,282	3,951	218,697	112,817
277,297	3,941	218,445	112,669
278,312	3,827	218,359	112,531
279,326	4,126	218,259	112,689
280,341	3,956	218,270	112,560
281,355	4,105	218,084	112,563
282,370	4,145	217,920	112,498
283,384	3,950	217,765	112,265
284,399	3,750	217,651	112,050
285,414	3,899	217,379	112,008
286,428	4,044	217,314	112,071
287,443	4,065	217,273	112,055
288,457	4,213	217,049	112,037
289,472	4,256	216,836	111,948
290,487	3,742	216,685	111,487
291,501	3,648	216,628	111,380
292,516	3,623	216,582	111,328
293,530	3,664	216,307	111,207
294,545	3,948	216,214	111,354
295,560	4,022	216,050	111,314
296,574	4,022	216,004	111,280
297,589	4,149	215,789	111,251
298,603	4,318	215,740	111,338
299,618	4,379	215,494	111,245
300,633	4,270	215,454	111,136
301,647	4,549	215,387	111,292
302,662	4,348	215,202	111,042
303,676	4,508	215,109	111,099
304,691	4,263	214,959	110,836
305,706	4,610	214,852	111,020
306,720	4,269	214,616	110,644
307,735	4,469	214,462	110,698
308,749	4,177	214,359	110,425
309,764	4,189	214,356	110,423
310,779	4,441	214,105	110,464
311,793	4,149	214,075	110,230
312,808	4,330	213,781	110,198
313,822	4,101	213,720	109,993
314,837	4,275	213,424	109,955
315,852	4,157	213,272	109,782
316,866	4,000	213,326	109,689
317,881	4,361	213,177	109,859
318,895	4,204	213,083	109,689
319,910	4,419	212,701	109,636
320,925	3,944	212,504	109,187
321,939	3,693	212,385	108,938
322,954	3,731	212,314	108,920
323,968	4,310	212,244	109,284
324,983	4,258	212,082	109,154
325,997	4,289	212,073	109,162
327,012	4,306	212,008	109,130
328,027	4,090	211,797	108,859
329,041	4,523	211,640	109,075
330,056	4,555	211,571	109,052
331,070	4,055	211,317	108,559
332,085	3,864	211,129	108,318
333,100	4,099	210,993	108,405
334,114	4,179	210,866	108,385
335,129	4,019	210,602	108,128
336,143	4,047	210,423	108,046
337,158	3,796	210,556	107,928
338,173	3,947	210,426	107,958
339,187	3,937	210,146	107,797
340,202	3,779	209,989	107,597
341,216	3,806	209,940	107,581
342,231	4,013	209,751	107,620
343,246	3,774	209,639	107,385
344,260	4,050	209,463	107,478
345,275	4,079	209,583	107,550
346,289	4,216	209,366	107,526
347,304	4,153	209,241	107,407
348,319	4,266	209,057	107,382
349,333	4,092	208,873	107,157
350,348	4,268	208,790	107,227
351,362	4,178	208,648	107,082
352,377	4,073	208,591	106,970
353,392	3,959	208,516	106,843
354,406	4,051	208,379	106,827
355,421	193,650	1346,781	1434,649
356,435	154,493	1485,585	1434,770
