DTS Sentinel unit serial number:	SN410029Multiplexer serial number:	ORYXHardware model number:	OX2-SRSoftware version number:	ORYX F/W v4,00 Oryx Data Collector v3.7.2.0data status	okinstallation	B6 Nyhavnadifferential loss correction	single-endedforward channel	channel 2reverse channel	N/Adate	2023/12/10time	08:50:08forward acquisition time	300,00reverse acquisition time	0,00gamma	499,1914k internal	0,3123k external	0,3123temperature offset calibration	1,0000default loss term (dB/km)	0,3820temperature slope calibration	1,0000multiplexer offset coefficient	1,0000multiplexer slope coefficient	1,0000fibre end	0,00T internal ref (°C)	22,56T ext. ref 1 (°C)	6,28T ext. ref 2 (°C)	6,28length (m)	temperature (°C)	Stokes	anti-Stokes-744,400	23,965	0,044	-0,027
-743,385	-21,161	-0,343	0,156
-742,371	-38,919	0,218	-0,085
-741,356	358,376	-0,158	0,235
-740,342	-6,215	0,047	-0,024
-739,327	-106,452	-0,243	0,040
-738,312	800,000	-0,041	-0,118
-737,298	-99,058	-0,262	0,049
-736,283	6,574	0,030	0,017
-735,269	-61,499	-0,216	0,067
-734,254	-200,000	-0,011	-0,087
-733,239	-76,798	-0,433	-0,112
-732,225	685,297	0,045	0,087
-731,210	-200,000	0,008	0,038
-730,196	520,267	0,061	-0,107
-729,181	35,415	0,040	0,026
-728,167	-200,000	-0,001	-0,027
-727,152	24,204	0,048	-0,029
-726,137	110,521	-0,147	-0,132
-725,123	800,000	0,032	-0,072
-724,108	41,727	-0,057	-0,038
-723,094	-200,000	-0,050	-0,184
-722,079	800,000	-0,039	-0,108
-721,064	15,977	0,099	-0,058
-720,050	-90,507	-0,066	0,014
-719,035	-64,115	-0,082	0,025
-718,021	-200,000	0,014	0,131
-717,006	610,265	0,065	-0,121
-715,991	-200,000	-0,009	-0,201
-714,977	-200,000	0,063	-0,222
-713,962	-200,000	-0,005	0,037
-712,948	-200,000	0,022	0,082
-711,933	148,606	0,007	0,007
-710,918	310,393	-0,031	0,043
-709,904	-200,000	-0,011	0,043
-708,889	-200,000	0,003	0,010
-707,875	-2,897	-0,073	-0,038
-706,860	-200,000	0,006	-0,053
-705,845	-200,000	0,003	-0,120
-704,831	-200,000	0,057	-0,217
-703,816	800,000	-0,062	0,166
-702,802	247,016	-0,077	-0,097
-701,787	-160,203	-0,104	-0,004
-700,772	-200,000	-0,003	0,051
-699,758	55,853	-0,028	-0,020
-698,743	416,132	0,071	0,113
-697,729	-59,591	0,068	0,021
-696,714	800,000	0,054	-0,143
-695,699	-98,082	-0,022	-0,004
-694,685	-122,554	-0,047	-0,006
-693,670	217,828	-0,141	-0,167
-692,656	-116,170	-0,144	0,020
-691,641	141,663	0,105	0,103
-690,627	-36,794	0,142	0,057
-689,612	784,253	-0,021	0,042
-688,597	-200,000	-0,018	-0,099
-687,583	532,261	0,076	-0,134
-686,568	-158,875	-0,103	0,004
-685,554	504,297	0,047	-0,080
-684,539	344,627	-0,052	-0,075
-683,524	-200,000	0,017	-0,072
-682,510	-200,000	0,008	0,050
-681,495	-64,844	-0,113	0,034
-680,481	-200,000	-0,032	0,135
-679,466	383,533	-0,051	-0,079
-678,451	452,729	-0,043	-0,071
-677,437	800,000	-0,022	0,055
-676,422	70,591	0,159	0,122
-675,408	800,000	-0,059	0,174
-674,393	-200,000	0,011	0,042
-673,378	-200,000	0,008	-0,085
-672,364	58,564	-0,101	-0,074
-671,349	-150,746	-0,055	-0,003
-670,335	-126,411	0,044	0,005
-669,320	-97,199	-0,085	0,016
-668,305	272,048	0,056	0,074
-667,291	800,000	-0,035	-0,074
-666,276	75,076	-0,050	-0,039
-665,262	800,000	-0,054	-0,165
-664,247	-188,137	-0,033	0,000
-663,232	244,370	-0,022	-0,028
-662,218	-153,864	-0,164	0,008
-661,203	800,000	-0,011	0,031
-660,189	43,139	-0,100	0,068
-659,174	-200,000	-0,018	-0,120
-658,159	81,812	-0,061	-0,049
-657,145	-200,000	-0,008	-0,084
-656,130	5,343	-0,037	0,020
-655,116	67,886	-0,011	0,008
-654,101	-61,078	0,064	-0,020
-653,086	78,959	0,062	0,050
-652,072	-200,000	-0,008	0,045
-651,057	-199,707	-0,067	-0,000
-650,043	800,000	0,058	-0,161
-649,028	129,084	0,029	-0,028
-648,014	-122,545	-0,106	-0,013
-646,999	-200,000	-0,032	0,128
-645,984	-200,000	0,012	-0,108
-644,970	173,005	0,063	0,067
-643,955	358,172	-0,102	-0,152
-642,941	260,357	0,014	0,019
-641,926	-17,872	0,116	-0,054
-640,911	60,643	0,087	0,064
-639,897	719,991	0,031	-0,062
-638,882	-200,000	0,003	-0,088
-637,868	597,104	0,009	0,016
-636,853	144,350	-0,095	-0,094
-635,838	-163,050	-0,058	0,002
-634,824	-21,961	0,091	-0,041
-633,809	4,615	-0,095	-0,052
-632,795	-200,000	0,003	0,058
-631,780	-50,888	0,039	-0,013
-630,765	147,400	-0,011	0,011
-629,751	-200,000	0,051	0,172
-628,736	800,000	-0,035	-0,109
-627,722	-75,219	0,044	0,012
-626,707	-200,000	0,004	-0,017
-625,692	419,805	0,065	-0,103
-624,678	-144,358	-0,114	0,008
-623,663	129,283	-0,074	-0,070
-622,649	-154,602	-0,070	0,003
-621,634	-200,000	-0,028	-0,110
-620,619	-57,461	-0,133	0,043
-619,605	-28,245	0,083	0,035
-618,590	159,651	0,095	0,098
-617,576	-200,000	-0,029	0,142
-616,561	229,690	-0,081	-0,098
-615,546	571,540	-0,147	-0,266
-614,532	125,187	-0,057	0,053
-613,517	267,710	0,055	-0,071
-612,503	46,171	0,077	-0,053
-611,488	-200,000	0,040	0,147
-610,474	800,000	-0,032	0,090
-609,459	-200,000	-0,047	-0,156
-608,444	-80,680	-0,081	0,020
-607,430	-200,000	0,007	-0,097
-606,415	-128,680	0,037	-0,004
-605,401	-127,995	0,025	-0,003
-604,386	-200,000	-0,031	0,219
-603,371	423,120	0,065	0,103
-602,357	800,000	-0,022	-0,051
-601,342	-50,596	-0,091	-0,032
-600,328	-105,113	0,038	-0,006
-599,313	-200,000	-0,001	0,026
-598,298	-120,877	0,145	0,018
-597,284	303,282	0,035	0,048
-596,269	-200,000	-0,002	-0,014
-595,255	-200,000	0,010	0,067
-594,240	31,702	-0,027	-0,017
-593,225	800,000	-0,014	-0,036
-592,211	-42,491	-0,019	-0,007
-591,196	-200,000	0,019	-0,141
-590,182	549,179	-0,052	-0,093
-589,167	-93,572	0,099	-0,020
-588,152	-26,264	-0,057	0,025
-587,138	39,336	-0,083	-0,055
-586,123	-138,643	0,098	0,008
-585,109	800,000	-0,041	-0,094
-584,094	453,513	-0,077	-0,126
-583,079	598,716	-0,071	-0,131
-582,065	255,915	0,026	-0,034
-581,050	309,683	0,029	0,041
-580,036	-200,000	0,020	0,136
-579,021	-200,000	0,003	0,042
-578,006	280,718	-0,067	-0,089
-576,992	521,534	-0,097	0,170
-575,977	210,216	0,086	0,101
-574,963	-65,146	-0,060	0,018
-573,948	40,170	0,048	-0,032
-572,934	-200,000	-0,017	0,058
-571,919	-83,962	-0,074	-0,017
-570,904	755,392	-0,020	-0,040
-569,890	439,212	-0,065	-0,105
-568,875	218,557	0,061	0,073
-567,861	104,047	-0,104	0,091
-566,846	-200,000	0,034	0,115
-565,831	422,747	-0,107	0,171
-564,817	-200,000	0,043	0,169
-563,802	53,746	-0,065	-0,046
-562,788	-200,000	0,004	-0,083
-561,773	800,000	-0,011	-0,027
-560,758	-43,154	0,206	-0,077
-559,744	-200,000	-0,010	0,033
-558,729	-167,608	0,022	0,001
-557,715	-200,000	-0,026	-0,137
-556,700	-106,812	-0,082	0,013
-555,685	-98,836	0,046	-0,009
-554,671	145,789	0,055	-0,055
-553,656	-175,200	0,050	-0,001
-552,642	-200,000	0,009	0,085
-551,627	182,221	0,023	0,025
-550,612	-21,886	-0,113	0,050
-549,598	-200,000	-0,035	0,223
-548,583	-200,000	0,014	-0,124
-547,569	358,385	-0,044	0,065
-546,554	235,396	0,037	-0,045
-545,539	-68,245	-0,185	0,053
-544,525	-144,228	0,107	-0,007
-543,510	-84,889	-0,094	-0,022
-542,496	329,437	0,014	-0,021
-541,481	-200,000	-0,038	0,305
-540,466	213,729	-0,078	0,091
-539,452	289,079	-0,059	0,080
-538,437	51,031	0,139	-0,098
-537,423	683,357	-0,024	0,046
-536,408	45,199	0,035	-0,024
-535,393	235,234	0,100	-0,123
-534,379	-145,082	-0,088	-0,006
-533,364	202,188	0,030	-0,034
-532,350	-200,000	-0,024	-0,129
-531,335	-200,000	0,008	-0,129
-530,321	347,778	-0,016	-0,023
-529,306	800,000	-0,006	0,014
-528,291	178,429	-0,074	-0,080
-527,277	-52,291	0,095	0,032
-526,262	661,542	0,015	0,029
-525,248	41,790	-0,095	0,063
-524,233	-18,427	0,103	0,047
-523,218	-123,635	-0,094	-0,011
-522,204	-111,359	-0,093	0,014
-521,189	-0,148	0,052	0,027
-520,175	233,932	0,063	-0,076
-519,160	-30,195	-0,140	0,058
-518,145	214,311	0,017	0,020
-517,131	-152,823	0,094	0,005
-516,116	-200,000	-0,015	0,193
-515,102	-107,083	-0,143	0,023
-514,087	29,444	0,034	-0,021
-513,072	89,116	-0,084	0,069
-512,058	-98,068	0,114	0,021
-511,043	-57,240	-0,125	0,040
-510,029	123,484	0,066	0,062
-509,014	-148,907	0,109	-0,006
-507,999	229,551	-0,032	-0,038
-506,985	-10,894	-0,071	0,035
-505,970	16,105	-0,068	-0,039
-504,956	-200,000	-0,016	-0,062
-503,941	-49,468	0,046	0,016
-502,926	-39,607	0,149	0,057
-501,912	-200,000	-0,016	0,167
-500,897	-118,960	-0,123	-0,016
-499,883	-200,000	-0,046	0,156
-498,868	-112,942	0,152	-0,022
-497,853	-61,471	-0,129	-0,040
-496,839	-200,000	-0,007	-0,028
-495,824	-200,000	0,015	0,059
-494,810	398,940	-0,044	0,068
-493,795	539,260	0,068	0,119
-492,781	182,799	-0,054	0,058
-491,766	800,000	0,032	-0,087
-490,751	800,000	-0,011	-0,031
-489,737	54,765	-0,025	0,018
-488,722	-121,279	0,243	-0,030
-487,708	74,268	0,136	0,105
-486,693	-180,797	0,035	0,001
-485,678	800,000	-0,019	-0,052
-484,664	141,065	-0,137	0,134
-483,649	435,657	-0,029	-0,047
-482,635	685,112	-0,035	-0,068
-481,620	-116,019	-0,136	0,018
-480,605	253,663	0,129	0,164
-479,591	-200,000	-0,011	-0,075
-478,576	262,885	0,065	-0,083
-477,562	-200,000	0,006	0,060
-476,547	800,000	-0,046	-0,102
-475,532	302,695	0,042	-0,057
-474,518	-200,000	0,021	0,079
-473,503	61,188	-0,033	0,024
-472,489	-126,015	-0,031	-0,003
-471,474	-106,678	0,197	0,032
-470,459	-113,412	-0,159	-0,023
-469,445	-200,000	-0,014	-0,105
-468,430	-179,041	0,105	0,002
-467,416	-200,000	-0,009	-0,167
-466,401	34,172	-0,112	0,072
-465,386	-200,000	0,016	0,073
-464,372	800,000	-0,029	0,092
-463,357	36,768	0,091	0,059
-462,343	184,545	-0,095	-0,104
-461,328	-138,061	0,106	-0,009
-460,313	188,720	0,036	0,039
-459,299	255,040	0,069	-0,087
-458,284	410,712	0,074	0,115
-457,270	-200,000	0,003	-0,048
-456,255	-52,840	-0,079	0,027
-455,241	800,000	-0,027	-0,061
-454,226	205,838	0,074	-0,085
-453,211	-51,496	-0,127	0,043
-452,197	193,654	-0,093	0,104
-451,182	-46,502	0,151	0,054
-450,168	-200,000	-0,005	-0,059
-449,153	-96,106	-0,115	0,022
-448,138	-200,000	-0,006	-0,115
-447,124	523,391	0,020	-0,035
-446,109	-200,000	-0,012	0,178
-445,095	-98,303	0,181	0,034
-444,080	-200,000	-0,004	0,021
-443,065	43,417	-0,109	-0,073
-442,051	-98,993	0,060	0,011
-441,036	299,880	-0,072	-0,098
-440,022	-200,000	0,029	-0,096
-439,007	100,688	-0,080	-0,068
-437,992	778,434	0,027	-0,054
-436,978	-200,000	-0,005	0,066
-435,963	-200,000	-0,003	0,025
-434,949	-149,667	-0,146	-0,008
-433,934	15,255	-0,108	-0,062
-432,919	-200,000	-0,007	-0,106
-431,905	104,324	-0,100	-0,087
-430,890	-42,497	0,029	0,011
-429,876	364,869	0,105	0,155
-428,861	80,611	0,033	0,027
-427,846	-200,000	0,015	-0,051
-426,832	800,000	-0,019	-0,045
-425,817	29,519	-0,052	0,032
-424,803	-200,000	0,019	0,067
-423,788	-154,753	-0,141	0,007
-422,773	-200,000	0,024	0,088
-421,759	-200,000	-0,011	-0,059
-420,744	491,365	-0,008	0,014
-419,730	-200,000	0,027	-0,226
-418,715	372,620	0,051	-0,076
-417,701	-15,160	-0,064	-0,030
-416,686	111,390	0,066	0,059
-415,671	-33,717	-0,044	0,018
-414,657	318,085	0,081	0,114
-413,642	-33,349	0,094	-0,038
-412,628	-200,000	-0,022	-0,085
-411,613	-200,000	-0,024	-0,209
-410,598	-200,000	0,009	-0,092
-409,584	-200,000	0,018	-0,123
-408,569	-120,511	0,123	0,015
-407,555	-28,363	0,084	0,035
-406,540	-19,333	0,058	-0,026
-405,525	317,604	0,117	0,164
-404,511	-27,702	-0,056	0,024
-403,496	256,216	-0,062	-0,079
-402,482	-200,000	0,029	-0,101
-401,467	64,122	-0,081	0,060
-400,452	-114,111	0,162	0,023
-399,438	223,462	0,081	0,096
-398,423	-200,000	0,010	0,037
-397,409	10,700	-0,024	0,014
-396,394	-103,439	0,079	-0,014
-395,379	234,891	-0,017	-0,020
-394,365	155,058	0,046	-0,047
-393,350	-90,568	0,102	0,021
-392,336	-200,000	-0,019	0,072
-391,321	559,818	-0,048	0,086
-390,306	-175,074	-0,168	-0,003
-389,292	175,702	0,036	0,038
-388,277	92,606	-0,042	0,035
-387,263	-98,055	0,142	0,027
-386,248	159,907	0,057	-0,058
-385,233	-200,000	0,006	-0,127
-384,219	-112,588	-0,082	0,012
-383,204	-200,000	0,015	-0,102
-382,190	-200,000	0,018	-0,076
-381,175	-18,338	-0,050	0,023
-380,160	800,000	0,053	0,147
-379,146	-200,000	0,032	0,116
-378,131	-200,000	0,011	0,089
-377,117	351,091	0,057	-0,084
-376,102	-149,093	-0,088	-0,005
-375,088	-200,000	0,001	-0,106
-374,073	-13,004	-0,064	0,031
-373,058	460,830	-0,036	0,060
-372,044	800,000	0,029	-0,085
-371,029	251,072	-0,008	-0,010
-370,015	-103,892	-0,050	0,009
-369,000	-27,981	-0,078	-0,033
-367,985	-200,000	0,013	-0,090
-366,971	-160,955	-0,115	-0,004
-365,956	313,631	-0,066	-0,091
-364,942	-101,699	0,141	0,025
-363,927	629,835	0,070	0,131
-362,912	49,135	-0,137	-0,095
-361,898	-41,880	-0,075	-0,028
-360,883	540,008	0,049	-0,086
-359,869	20,505	-0,065	0,038
-358,854	242,718	0,053	0,066
-357,839	-43,959	0,128	-0,047
-356,825	800,000	0,067	-0,176
-355,810	-200,000	0,022	0,125
-354,796	353,700	-0,089	-0,130
-353,781	800,000	0,030	-0,079
-352,766	800,000	-0,035	-0,086
-351,752	417,300	-0,029	0,046
-350,737	-144,229	-0,081	0,005
-349,723	198,480	0,075	0,085
-348,708	66,802	0,013	-0,010
-347,693	800,000	-0,064	-0,136
-346,679	526,676	0,041	0,072
-345,664	-200,000	-0,005	0,020
-344,650	-200,000	0,011	0,117
-343,635	800,000	-0,050	0,154
-342,620	800,000	-0,050	-0,132
-341,606	-10,851	0,005	-0,003
-340,591	-200,000	-0,020	0,116
-339,577	442,513	-0,114	-0,184
-338,562	626,399	0,045	-0,084
-337,548	-200,000	0,031	0,110
-336,533	68,531	0,068	0,051
-335,518	-200,000	0,011	0,080
-334,504	-200,000	-0,013	0,057
-333,489	79,936	0,139	-0,109
-332,475	173,708	-0,064	-0,068
-331,460	177,859	-0,063	-0,067
-330,445	715,620	0,017	-0,034
-329,431	-200,000	0,175	-0,000
-328,416	800,000	0,011	0,029
-327,402	75,771	-0,189	0,147
-326,387	17,273	0,073	-0,042
-325,372	800,000	-0,025	-0,071
-324,358	-200,000	-0,006	-0,086
-323,343	800,000	-0,047	-0,116
-322,329	-105,358	0,111	-0,018
-321,314	24,157	0,027	0,017
-320,299	-200,000	0,003	-0,079
-319,285	683,992	0,043	0,083
-318,270	-142,613	-0,070	0,005
-317,256	-176,493	0,157	0,003
-316,241	-200,000	-0,039	-0,138
-315,226	112,381	-0,085	-0,075
-314,212	-200,000	-0,019	-0,127
-313,197	94,186	0,043	0,036
-312,183	532,919	0,038	-0,066
-311,168	368,049	0,028	0,042
-310,153	-200,000	0,008	-0,061
-309,139	173,216	-0,150	-0,159
-308,124	-168,009	-0,101	-0,003
-307,110	418,569	0,115	0,181
-306,095	625,132	-0,071	0,132
-305,080	45,090	-0,041	0,028
-304,066	-200,000	0,003	-0,073
-303,051	452,942	0,067	-0,108
-302,037	800,000	0,027	-0,070
-301,022	-200,000	0,002	0,118
-300,008	-131,428	0,112	-0,011
-298,993	-200,000	-0,015	0,081
-297,978	-200,000	0,008	0,031
-296,964	368,098	0,056	0,083
-295,949	-110,486	0,128	0,019
-294,935	800,000	-0,030	0,062
-293,920	-200,000	-0,028	-0,236
-292,905	-172,924	0,127	-0,003
-291,891	455,615	0,072	-0,117
-290,876	1,455	-0,060	0,031
-289,862	-200,000	0,000	0,126
-288,847	500,781	0,043	-0,072
-287,832	5,884	0,019	0,010
-286,818	721,489	-0,041	0,080
-285,803	-200,000	-0,012	0,127
-284,789	53,501	0,037	-0,026
-283,774	189,481	-0,042	-0,046
-282,759	-45,081	-0,062	0,022
-281,745	-200,000	-0,014	-0,069
-280,730	-145,870	-0,077	0,005
-279,716	-168,514	0,026	0,001
-278,701	-189,522	-0,094	-0,001
-277,686	-82,609	-0,046	0,011
-276,672	61,534	-0,104	-0,075
-275,657	80,155	-0,053	-0,042
-274,643	-110,661	0,048	-0,007
-273,628	215,848	-0,082	0,096
-272,613	-61,940	-0,141	-0,043
-271,599	21,242	0,070	0,042
-270,584	800,000	0,039	0,109
-269,570	-58,671	0,076	-0,024
-268,555	-200,000	0,036	0,122
-267,540	504,851	0,046	0,078
-266,526	169,404	-0,149	-0,156
-265,511	102,472	0,080	0,069
-264,497	136,925	-0,084	0,081
-263,482	-91,356	0,094	-0,020
-262,467	-200,000	0,040	0,168
-261,453	-22,630	0,090	0,040
-260,438	34,923	-0,076	-0,048
-259,424	-200,000	-0,008	0,039
-258,409	761,920	0,016	-0,032
-257,395	-132,910	0,067	0,006
-256,380	800,000	0,024	0,064
-255,365	800,000	-0,007	0,023
-254,351	800,000	-0,030	0,073
-253,336	363,511	-0,096	0,141
-252,322	111,802	-0,072	-0,063
-251,307	23,450	-0,177	0,106
-250,292	-139,546	0,198	-0,015
-249,278	-200,000	-0,003	-0,053
-248,263	-44,301	-0,086	0,031
-247,249	14,997	0,098	-0,056
-246,234	-200,000	-0,008	-0,132
-245,219	0,230	0,022	-0,012
-244,205	-200,000	0,024	-0,127
-243,190	-28,608	0,153	0,064
-242,176	-37,206	-0,010	-0,004
-241,161	186,742	-0,068	0,074
-240,146	800,000	0,075	0,157
-239,132	-34,684	-0,078	0,031
-238,117	-78,080	0,067	0,017
-237,103	226,789	-0,089	-0,106
-236,088	-200,000	-0,001	0,097
-235,073	136,297	0,037	-0,035
-234,059	-200,000	-0,028	-0,095
-233,044	-5,084	-0,033	0,016
-232,030	-200,000	-0,001	0,007
-231,015	26,680	-0,034	-0,021
-230,000	800,000	0,054	-0,115
-228,986	-93,868	0,020	0,004
-227,971	-107,399	-0,107	0,017
-226,957	-151,985	0,090	0,005
-225,942	164,691	-0,038	-0,040
-224,927	268,374	0,003	-0,004
-223,913	800,000	-0,021	-0,049
-222,898	116,069	0,059	0,053
-221,884	258,370	-0,015	-0,018
-220,869	707,296	0,037	-0,072
-219,855	800,000	0,030	0,064
-218,840	-121,748	0,094	-0,011
-217,825	56,205	0,095	-0,068
-216,811	119,878	-0,096	-0,087
-215,796	381,603	0,058	0,087
-214,782	153,130	-0,129	-0,129
-213,767	-17,004	0,048	0,022
-212,752	147,601	0,048	-0,047
-211,738	-200,000	0,003	0,134
-210,723	339,525	0,043	0,062
-209,709	172,179	0,146	0,154
-208,694	110,924	-0,151	0,133
-207,679	800,000	0,046	0,132
-206,665	64,106	0,060	-0,044
-205,650	-51,165	-0,103	0,035
-204,636	593,826	0,079	0,142
-203,621	75,766	0,016	-0,013
-202,606	-200,000	0,008	-0,090
-201,592	800,000	0,061	-0,124
-200,577	-40,260	-0,024	-0,009
-199,563	-69,534	-0,097	-0,027
-198,548	28,203	0,097	0,060
-197,533	-200,000	-0,008	0,045
-196,519	-158,681	0,030	-0,001
-195,504	0,695	-0,089	0,046
-194,490	104,248	0,032	0,028
-193,475	127,348	0,067	-0,062
-192,460	-134,309	0,128	0,011
-191,446	256,308	0,043	-0,054
-190,431	111,254	-0,004	-0,003
-189,417	-30,518	0,085	-0,035
-188,402	-35,066	0,091	0,036
-187,387	125,302	-0,104	0,096
-186,373	235,015	0,069	-0,083
-185,358	-71,626	-0,149	-0,040
-184,344	-184,008	0,120	-0,001
-183,329	49,162	-0,009	0,006
-182,315	800,000	0,026	-0,063
-181,300	-200,000	-0,043	-0,175
-180,285	-16,785	-0,027	0,012
-179,271	-200,000	-0,019	0,069
-178,256	14,324	-0,128	-0,072
-177,242	-56,319	0,085	0,027
-176,227	32,603	0,104	0,065
-175,212	-105,024	-0,078	-0,013
-174,198	84,127	0,042	-0,033
-173,183	-200,000	-0,005	-0,154
-172,169	-200,000	0,020	-0,209
-171,154	-200,000	-0,026	-0,117
-170,139	245,095	0,091	0,111
-169,125	-173,607	0,026	-0,001
-168,110	-200,000	0,042	0,161
-167,096	-32,800	-0,074	0,030
-166,081	800,000	-0,029	0,069
-165,066	346,472	-0,103	0,147
-164,052	683,927	-0,021	-0,039
-163,037	93,543	0,076	-0,062
-162,023	-51,803	-0,252	-0,085
-161,008	-68,179	-0,028	0,008
-159,993	109,488	0,047	-0,041
-158,979	511,106	-0,051	0,087
-157,964	-97,347	0,045	-0,008
-156,950	69,884	-0,142	0,106
-155,935	44,633	0,192	0,128
-154,920	501,632	0,043	0,072
-153,906	-118,949	0,087	0,011
-152,891	214,042	-0,010	-0,011
-151,877	105,603	-0,089	-0,076
-150,862	-200,000	0,019	-0,138
-149,847	52,704	0,022	-0,015
-148,833	-69,674	0,101	-0,028
-147,818	-13,200	0,054	0,026
-146,804	388,349	0,037	-0,056
-145,789	-200,000	-0,045	0,147
-144,775	-100,503	-0,203	0,036
-143,760	249,463	-0,043	-0,053
-142,745	-200,000	0,002	-0,086
-141,731	800,000	0,028	0,066
-140,716	359,906	-0,057	0,084
-139,702	-183,462	0,160	-0,002
-138,687	12,791	-0,075	-0,042
-137,672	127,293	0,016	0,015
-136,658	-106,998	-0,123	0,020
-135,643	-101,420	0,163	-0,029
-134,629	129,502	-0,053	0,049
-133,614	108,493	-0,043	0,037
-132,599	800,000	0,032	0,095
-131,585	117,240	-0,070	0,062
-130,570	-55,837	-0,058	0,019
-129,556	-200,000	-0,020	-0,115
-128,541	-78,018	-0,062	0,015
-127,526	-200,000	-0,003	0,033
-126,512	-200,000	-0,006	-0,061
-125,497	422,929	-0,035	-0,055
-124,483	-67,488	0,150	0,042
-123,468	800,000	-0,020	0,048
-122,453	341,855	0,021	0,030
-121,439	-200,000	0,008	-0,039
-120,424	-200,000	-0,002	-0,009
-119,410	104,258	0,131	0,112
-118,395	-200,000	0,007	0,077
-117,380	-200,000	-0,029	0,099
-116,366	-123,818	0,113	-0,013
-115,351	-200,000	-0,012	0,082
-114,337	-42,773	-0,059	0,022
-113,322	238,389	-0,028	-0,033
-112,307	-200,000	0,020	0,140
-111,293	-200,000	-0,020	0,085
-110,278	800,000	-0,044	-0,129
-109,264	-200,000	-0,006	0,033
-108,249	-118,275	0,134	0,017
-107,234	72,587	-0,125	-0,095
-106,220	-13,604	0,027	-0,013
-105,205	-67,665	0,083	0,023
-104,191	-200,000	-0,034	-0,114
-103,176	-83,784	0,119	0,027
-102,162	-200,000	0,036	0,131
-101,147	800,000	-0,056	0,155
-100,132	141,245	0,021	0,020
-99,118	-64,468	0,080	0,024
-98,103	-200,000	-0,026	-0,103
-97,089	-200,000	0,015	0,099
-96,074	37,979	-0,052	0,034
-95,059	263,018	-0,075	0,095
-94,045	135,736	-0,101	-0,095
-93,030	-200,000	-0,008	0,062
-92,016	-73,781	-0,091	-0,024
-91,001	-151,719	0,104	0,005
-89,986	-113,255	-0,145	-0,021
-88,972	-62,376	0,090	0,027
-87,957	-200,000	-0,003	-0,011
-86,943	-200,000	0,003	0,074
-85,928	-200,000	-0,010	-0,040
-84,913	-47,690	-0,133	0,047
-83,899	257,625	0,081	0,101
-82,884	800,000	-0,029	-0,058
-81,870	-77,769	0,126	0,031
-80,855	-200,000	-0,002	0,046
-79,840	-33,871	0,118	0,047
-78,826	-200,000	0,050	0,161
-77,811	-55,719	-0,173	-0,056
-76,797	266,764	-0,070	0,089
-75,782	453,967	-0,036	-0,058
-74,767	-200,000	-0,012	0,044
-73,753	-144,311	0,119	-0,008
-72,738	-56,243	-0,031	0,010
-71,724	-17,257	0,086	0,039
-70,709	152,855	0,025	0,025
-69,694	800,000	0,036	0,112
-68,680	-200,000	-0,006	0,071
-67,665	-80,905	-0,127	-0,030
-66,651	29,000	-0,142	0,088
-65,636	-35,438	-0,005	0,002
-64,622	99,422	0,050	0,042
-63,607	800,000	-0,063	-0,181
-62,592	-129,063	-0,173	0,017
-61,578	579,536	0,056	-0,099
-60,563	30,668	0,067	-0,042
-59,549	-200,000	-0,013	0,072
-58,534	-143,772	-1,248	-0,084
-57,519	518,400	-0,813	-1,387
-56,505	-200,000	-0,739	-4,416
-55,490	-27,784	0,555	-0,233
-54,476	800,000	5,045	11,823
-53,461	-200,000	13,247	253,311
-52,446	-200,000	689,300	2268,182
-51,432	595,042	1622,924	2925,690
-50,417	120,640	1635,881	1475,153
-49,403	73,651	1289,822	979,501
-48,388	38,386	1024,773	661,183
-47,373	24,471	982,612	588,199
-46,359	23,732	972,032	579,417
-45,344	22,774	968,115	573,926
-44,330	22,724	966,378	572,712
-43,315	22,594	965,070	571,487
-42,300	22,565	963,884	570,668
-41,286	22,597	963,118	570,296
-40,271	22,603	962,144	569,717
-39,257	22,574	961,276	569,086
-38,242	22,577	960,303	568,496
-37,227	22,557	959,495	567,932
-36,213	22,597	958,398	567,391
-35,198	22,564	957,657	566,821
-34,184	22,694	956,906	566,775
-33,169	22,554	956,053	565,796
-32,154	22,602	955,178	565,409
-31,140	22,587	954,282	564,809
-30,125	22,617	953,481	564,407
-29,111	22,621	952,666	563,917
-28,096	22,650	951,925	563,549
-27,082	22,638	951,402	563,180
-26,067	22,574	950,752	562,566
-25,052	22,604	949,892	562,130
-24,038	22,588	949,274	561,690
-23,023	22,552	948,728	561,232
-22,009	22,648	947,956	561,060
-20,994	22,579	947,398	560,487
-19,979	22,609	946,840	560,230
-18,965	22,672	945,977	559,898
-17,950	22,579	945,353	559,210
-16,936	22,613	944,597	558,848
-15,921	22,600	943,979	558,418
-14,906	22,478	943,402	557,668
-13,892	22,410	942,958	557,166
-12,877	22,553	942,068	557,073
-11,863	22,429	941,500	556,319
-10,848	22,418	941,074	556,010
-9,833	22,555	940,615	556,154
-8,819	22,568	940,064	555,846
-7,804	22,470	939,293	555,059
-6,790	22,467	938,691	554,670
-5,775	22,479	938,132	554,357
-4,760	22,565	937,312	554,123
-3,746	22,465	937,021	553,611
-2,731	22,371	936,131	552,768
-1,717	22,273	935,518	552,074
-0,702	22,204	934,929	551,487
0,313	22,051	934,134	551,368
1,327	25,119	932,013	559,719
2,342	34,730	796,709	504,079
3,356	32,800	451,828	282,937
4,371	1,792	293,824	153,056
5,386	-2,587	274,571	138,872
6,400	-4,192	268,934	134,520
7,415	-4,603	266,527	132,926
8,429	-4,177	265,205	132,645
9,444	-4,263	264,283	132,094
10,459	-4,197	263,744	131,873
11,473	-4,393	263,185	131,403
12,488	-4,559	262,674	130,986
13,502	-4,390	261,929	130,756
14,517	-4,561	261,669	130,459
15,531	-4,293	261,139	130,425
16,546	-4,244	260,842	130,309
17,561	-4,516	260,517	129,891
18,575	-4,321	260,303	129,948
19,590	-4,500	259,899	129,575
20,604	-4,507	259,590	129,402
21,619	-4,386	259,211	129,310
22,634	-4,419	258,925	129,126
23,648	-4,365	258,676	129,039
24,663	-4,439	258,324	128,786
25,677	-4,371	258,134	128,740
26,692	-4,429	257,925	128,573
27,707	-4,435	257,608	128,398
28,721	-4,571	257,385	128,155
29,736	-4,587	257,143	128,009
30,750	-4,517	256,891	127,934
31,765	-4,655	256,712	127,711
32,780	-4,524	256,386	127,654
33,794	-4,488	256,246	127,604
34,809	-4,680	256,132	127,366
35,823	-4,472	255,602	127,274
36,838	-4,602	255,531	127,113
37,853	-4,506	255,317	127,080
38,867	-4,735	255,117	126,769
39,882	-4,496	254,750	126,785
40,896	-4,604	254,626	126,617
41,911	-4,493	254,441	126,610
42,926	-4,683	254,229	126,328
43,940	-4,625	253,938	126,222
44,955	-4,642	253,512	125,984
45,969	-4,613	253,480	125,983
46,984	-4,883	253,238	125,616
47,999	-5,046	252,820	125,256
49,013	-4,976	252,705	125,248
50,028	-5,023	252,358	125,024
51,042	-5,122	252,138	124,818
52,057	-5,414	252,055	124,513
53,071	-5,366	251,697	124,366
54,086	-5,186	251,669	124,498
55,101	-5,062	251,441	124,481
56,115	-4,933	251,355	124,538
57,130	-4,546	251,366	124,867
58,144	-4,267	250,941	124,886
59,159	-4,254	250,842	124,837
60,174	-4,381	250,782	124,685
61,188	-4,501	250,444	124,404
62,203	-4,383	250,295	124,420
63,217	-4,369	249,960	124,255
64,232	-4,192	249,799	124,315
65,247	-4,528	249,622	123,928
66,261	-4,523	249,502	123,862
67,276	-4,527	249,101	123,648
68,290	-4,650	248,774	123,370
69,305	-4,990	248,756	123,059
70,320	-4,988	248,548	122,947
71,334	-4,481	248,300	123,246
72,349	-4,341	248,369	123,388
73,363	-4,463	248,112	123,146
74,378	-4,197	247,827	123,220
75,393	-4,334	247,666	123,012
76,407	-4,444	247,373	122,762
77,422	-4,700	247,240	122,468
78,436	-4,442	247,104	122,608
79,451	-4,355	246,814	122,528
80,466	-4,494	246,539	122,262
81,480	-4,541	246,455	122,170
82,495	-4,537	246,094	121,983
83,509	-4,583	245,988	121,881
84,524	-4,492	245,738	121,823
85,539	-4,698	245,564	121,553
86,553	-4,767	245,389	121,397
87,568	-4,635	245,177	121,392
88,582	-4,461	244,837	121,359
89,597	-4,969	245,053	121,029
90,611	-4,632	244,703	121,128
91,626	-4,604	244,596	121,087
92,641	-4,406	244,396	121,143
93,655	-4,390	244,218	121,058
94,670	-4,582	243,902	120,730
95,684	-4,589	243,655	120,591
96,699	-4,592	243,758	120,629
97,714	-4,528	243,418	120,503
98,728	-4,847	243,288	120,162
99,743	-4,813	243,088	120,081
100,757	-4,860	242,856	119,917
101,772	-5,015	242,685	119,692
102,787	-4,898	242,477	119,677
103,801	-4,755	242,227	119,661
104,816	-4,509	242,024	119,754
105,830	-4,554	242,091	119,739
106,845	-4,505	241,859	119,655
107,860	-4,445	241,698	119,614
108,874	-4,515	241,477	119,436
109,889	-4,710	241,230	119,142
110,903	-4,624	241,157	119,166
111,918	-4,893	240,911	118,813
112,933	-4,610	240,796	118,978
113,947	-4,514	240,613	118,956
114,962	-4,534	240,393	118,820
115,976	-4,568	240,257	118,714
116,991	-4,550	239,970	118,576
118,006	-4,408	239,861	118,629
119,020	-4,641	239,883	118,438
120,035	-4,285	239,637	118,598
121,049	-4,440	239,576	118,430
122,064	-4,413	239,247	118,279
123,079	-4,342	239,053	118,230
124,093	-4,537	238,877	117,973
125,108	-4,564	238,637	117,823
126,122	-5,015	238,516	117,385
127,137	-5,013	238,080	117,161
128,151	-5,011	238,132	117,178
129,166	-4,758	237,969	117,293
130,181	-4,867	237,771	117,096
131,195	-4,708	237,645	117,153
132,210	-4,666	237,443	117,077
133,224	-4,373	237,271	117,219
134,239	-4,474	237,175	117,080
135,254	-4,425	237,007	117,026
136,268	-4,785	236,714	116,580
137,283	-4,956	236,549	116,350
138,297	-4,926	236,397	116,289
139,312	-5,052	236,114	116,038
140,327	-4,643	235,949	116,276
141,341	-4,232	235,985	116,615
142,356	-4,131	235,875	116,631
143,370	-4,192	235,637	116,454
144,385	-4,134	235,494	116,420
145,400	-4,161	235,369	116,325
146,414	-4,085	235,171	116,278
147,429	-4,171	234,984	116,106
148,443	-4,466	234,967	115,852
149,458	-4,462	234,702	115,713
150,473	-4,213	234,588	115,846
151,487	-4,378	234,299	115,561
152,502	-4,146	234,120	115,648
153,516	-4,156	233,977	115,559
154,531	-4,049	233,851	115,572
155,546	-4,200	233,734	115,383
156,560	-4,536	233,538	115,009
157,575	-4,482	233,377	114,962
158,589	-4,441	233,141	114,869
159,604	-4,245	232,966	114,928
160,619	-4,126	232,828	114,944
161,633	-4,138	232,680	114,850
162,648	-4,205	232,629	114,762
163,662	-4,123	232,397	114,702
164,677	-4,148	232,103	114,527
165,692	-4,190	232,138	114,501
166,706	-4,044	231,969	114,522
167,721	-4,104	231,798	114,381
168,735	-3,907	231,701	114,478
169,750	-4,060	231,497	114,247
170,764	-4,120	231,344	114,114
171,779	-4,098	231,206	114,053
172,794	-4,135	231,111	113,966
173,808	-4,155	230,854	113,814
174,823	-4,719	230,491	113,183
175,837	-4,864	230,338	112,983
176,852	-4,598	230,363	113,194
177,867	-4,112	230,267	113,518
178,881	-3,892	230,044	113,570
179,896	-4,000	229,928	113,417
180,910	-4,165	229,774	113,203
181,925	-4,135	229,668	113,164
182,940	-4,185	229,543	113,053
183,954	-4,032	229,191	112,989
184,969	-4,124	229,068	112,847
185,983	-3,915	228,969	112,950
186,998	-3,840	228,809	112,920
188,013	-3,992	228,878	112,826
189,027	-4,037	228,611	112,648
190,042	-4,118	228,462	112,502
191,056	-4,160	228,225	112,343
192,071	-3,884	228,178	112,524
193,086	-3,916	227,815	112,310
194,100	-3,960	227,816	112,267
195,115	-4,180	227,440	111,901
196,129	-5,059	227,212	111,101
197,144	-1,944	228,430	114,101
198,159	2,410	229,253	117,881
199,173	3,767	229,765	119,188
200,188	3,909	229,667	119,235
201,202	3,942	229,548	119,189
202,217	4,287	229,541	119,442
203,232	4,671	229,122	119,510
204,246	4,763	229,240	119,632
205,261	4,565	228,984	119,335
206,275	4,899	228,818	119,495
207,290	4,869	228,774	119,439
208,304	4,595	228,689	119,172
209,319	4,704	228,460	119,127
210,334	4,611	228,213	118,915
211,348	4,600	227,930	118,749
212,363	4,169	227,601	118,236
213,377	3,916	227,558	118,009
214,392	3,848	227,448	117,889
215,407	3,838	227,323	117,807
216,421	3,947	227,212	117,822
217,436	3,889	226,859	117,584
218,450	3,781	226,657	117,387
219,465	3,667	226,469	117,192
220,480	3,511	226,530	117,094
221,494	3,675	226,342	117,111
222,509	3,872	226,324	117,241
223,523	3,855	225,977	117,039
224,538	3,802	225,910	116,953
225,553	3,881	225,918	117,007
226,567	3,859	225,625	116,828
227,582	4,128	225,702	117,061
228,596	4,260	225,394	116,992
229,611	3,986	225,232	116,690
230,626	3,651	225,067	116,340
231,640	3,768	224,894	116,328
232,655	3,990	224,815	116,445
233,669	4,680	224,720	116,907
234,684	4,695	224,571	116,831
235,699	4,243	224,457	116,420
236,713	4,046	224,167	116,111
237,728	3,871	223,877	115,818
238,742	3,644	223,835	115,615
239,757	3,970	223,713	115,786
240,772	3,826	223,464	115,539
241,786	3,904	223,320	115,513
242,801	4,135	223,395	115,715
243,815	4,202	223,280	115,696
244,830	4,177	223,138	115,594
245,844	3,856	222,936	115,238
246,859	3,908	222,713	115,151
247,874	4,231	222,605	115,327
248,888	4,057	222,529	115,147
249,903	4,192	222,325	115,132
250,917	3,962	222,071	114,818
251,932	3,923	221,988	114,736
252,947	3,866	221,868	114,621
253,961	3,821	221,686	114,484
254,976	3,918	221,541	114,471
255,990	4,171	221,394	114,573
257,005	4,096	221,414	114,517
258,020	4,192	221,200	114,468
259,034	4,186	221,223	114,465
260,049	4,397	220,851	114,419
261,063	4,034	220,791	114,108
262,078	4,258	220,750	114,243
263,093	4,382	220,455	114,171
264,107	4,278	220,376	114,044
265,122	4,215	220,250	113,922
266,136	4,448	220,108	114,010
267,151	4,488	220,026	113,987
268,166	4,025	219,739	113,487
269,180	4,064	219,562	113,414
270,195	3,947	219,380	113,224
271,209	3,980	219,164	113,127
272,224	4,083	219,204	113,213
273,239	3,994	219,158	113,114
274,253	3,778	218,861	112,792
275,268	3,680	218,622	112,587
276,282	3,643	218,371	112,420
277,297	3,645	218,245	112,347
278,312	3,770	218,122	112,364
279,326	3,891	218,206	112,487
280,341	3,837	217,966	112,313
281,355	4,056	217,818	112,387
282,370	4,142	217,674	112,365
283,384	4,003	217,468	112,147
284,399	3,888	217,223	111,927
285,414	3,634	217,202	111,722
286,428	3,745	217,223	111,804
287,443	3,917	217,076	111,843
288,457	4,068	216,911	111,858
289,472	3,920	216,750	111,658
290,487	3,539	216,506	111,245
291,501	3,367	216,289	111,000
292,516	3,605	216,276	111,155
293,530	3,755	216,142	111,185
294,545	3,647	215,841	110,942
295,560	3,717	215,833	110,979
296,574	3,997	215,720	111,112
297,589	4,019	215,664	111,090
298,603	3,973	215,609	111,019
299,618	4,023	215,397	110,936
300,633	3,946	215,375	110,859
301,647	4,177	215,120	110,884
302,662	4,185	215,047	110,842
303,676	4,187	214,869	110,742
304,691	4,151	214,708	110,623
305,706	4,195	214,627	110,604
306,720	3,999	214,536	110,406
307,735	3,903	214,302	110,207
308,749	3,749	214,226	110,048
309,764	4,001	214,006	110,105
310,779	4,142	213,931	110,158
311,793	4,026	213,806	110,001
312,808	4,167	213,608	109,990
313,822	4,102	213,500	109,878
314,837	3,786	213,239	109,508
315,852	3,634	213,162	109,351
316,866	3,774	213,048	109,382
317,881	4,365	212,904	109,719
318,895	4,124	212,748	109,457
319,910	3,861	212,714	109,243
320,925	3,614	212,465	108,930
321,939	3,641	212,157	108,782
322,954	3,568	212,182	108,734
323,968	4,001	212,087	108,982
324,983	4,082	211,971	108,970
325,997	4,147	211,933	108,987
327,012	3,843	211,807	108,697
328,027	4,002	211,576	108,681
329,041	4,097	211,576	108,739
330,056	4,296	211,490	108,825
331,070	4,079	211,200	108,513
332,085	3,680	210,899	108,068
333,100	3,795	210,798	108,087
334,114	3,976	210,624	108,116
335,129	3,803	210,647	107,997
336,143	3,727	210,296	107,753
337,158	3,919	210,252	107,856
338,173	4,187	210,152	107,983
339,187	3,882	209,940	107,651
340,202	3,640	209,862	107,432
341,216	3,484	209,728	107,245
342,231	3,959	209,476	107,438
343,246	3,628	209,442	107,180
344,260	3,977	209,412	107,398
345,275	4,000	209,162	107,277
346,289	4,051	209,179	107,311
347,304	4,012	209,125	107,247
348,319	3,990	208,817	107,064
349,333	4,021	208,598	106,964
350,348	4,164	208,613	107,061
351,362	4,166	208,571	107,032
352,377	3,949	208,325	106,745
353,392	3,848	208,242	106,623
354,406	4,048	208,043	106,651
355,421	193,568	1345,558	1433,042
356,435	154,419	1484,259	1433,165
