DTS Sentinel unit serial number:	SN410029Multiplexer serial number:	ORYXHardware model number:	OX2-SRSoftware version number:	ORYX F/W v4,00 Oryx Data Collector v3.7.2.0data status	okinstallation	B6 Nyhavnadifferential loss correction	single-endedforward channel	channel 2reverse channel	N/Adate	2023/12/10time	09:15:08forward acquisition time	300,00reverse acquisition time	0,00gamma	499,1914k internal	0,3123k external	0,3123temperature offset calibration	1,0000default loss term (dB/km)	0,3820temperature slope calibration	1,0000multiplexer offset coefficient	1,0000multiplexer slope coefficient	1,0000fibre end	0,00T internal ref (°C)	22,56T ext. ref 1 (°C)	6,30T ext. ref 2 (°C)	6,32length (m)	temperature (°C)	Stokes	anti-Stokes-744,400	-200,000	-0,007	-0,085
-743,385	58,087	-0,261	0,190
-742,371	-200,000	-0,007	0,043
-741,356	-94,735	-0,170	0,034
-740,342	65,211	0,160	-0,120
-739,327	43,774	-0,160	0,109
-738,312	11,635	-0,106	0,061
-737,298	29,676	-0,280	0,177
-736,283	-200,000	-0,022	-0,102
-735,269	409,809	-0,120	0,191
-734,254	50,683	0,131	0,092
-733,239	-128,009	-0,406	-0,043
-732,225	-152,862	0,116	0,006
-731,210	-200,000	0,007	0,047
-730,196	-200,000	0,005	-0,060
-729,181	-53,753	0,042	-0,014
-728,167	-200,000	0,009	-0,170
-727,152	-32,031	-0,025	-0,010
-726,137	-200,000	0,012	0,055
-725,123	-200,000	-0,011	0,113
-724,108	800,000	0,029	-0,070
-723,094	800,000	-0,052	-0,143
-722,079	30,629	-0,030	-0,019
-721,064	-133,806	-0,064	0,006
-720,050	161,294	0,059	0,062
-719,035	-7,084	-0,172	0,087
-718,021	-200,000	0,018	-0,095
-717,006	-74,069	0,079	-0,021
-715,991	325,694	-0,055	-0,079
-714,977	95,344	0,038	-0,032
-713,962	800,000	-0,024	0,062
-712,948	7,991	0,016	-0,009
-711,933	-15,634	-0,112	0,053
-710,918	699,630	-0,030	-0,060
-709,904	800,000	0,048	-0,120
-708,889	111,408	-0,049	-0,044
-707,875	360,103	-0,022	-0,034
-706,860	-200,000	0,018	0,101
-705,845	-16,613	0,060	0,028
-704,831	-48,966	0,093	0,033
-703,816	125,686	-0,085	-0,080
-702,802	-89,578	-0,106	0,023
-701,787	169,087	-0,150	-0,159
-700,772	147,996	0,024	0,024
-699,758	18,965	-0,072	0,043
-698,743	-58,051	0,120	-0,039
-697,729	204,050	0,068	-0,078
-696,714	-122,416	0,116	-0,014
-695,699	800,000	-0,027	-0,058
-694,685	259,919	-0,075	-0,097
-693,670	353,843	-0,034	-0,050
-692,656	-169,014	0,195	-0,005
-691,641	8,753	0,033	0,018
-690,627	-75,834	-0,038	-0,010
-689,612	-28,736	0,083	-0,036
-688,597	-200,000	-0,011	-0,080
-687,583	-37,957	-0,040	-0,016
-686,568	-200,000	0,019	-0,081
-685,554	-48,428	0,146	0,052
-684,539	-141,923	0,137	-0,010
-683,524	116,865	-0,009	-0,008
-682,510	86,384	-0,061	0,050
-681,495	6,069	-0,052	-0,028
-680,481	86,399	0,079	-0,065
-679,466	-66,736	0,049	0,014
-678,451	342,692	-0,064	-0,094
-677,437	800,000	0,037	-0,097
-676,422	89,124	-0,113	0,093
-675,408	-200,000	-0,012	0,129
-674,393	800,000	-0,025	-0,073
-673,378	293,812	-0,096	-0,131
-672,364	-200,000	-0,038	-0,142
-671,349	-200,000	-0,013	-0,053
-670,335	-91,178	0,112	0,024
-669,320	-98,804	-0,186	-0,035
-668,305	-51,013	0,087	0,030
-667,291	259,237	-0,073	-0,094
-666,276	295,575	-0,060	-0,081
-665,262	-71,185	0,037	0,010
-664,247	245,376	-0,075	-0,094
-663,232	208,468	0,138	0,160
-662,218	125,513	0,099	-0,093
-661,203	57,926	-0,021	-0,015
-660,189	800,000	0,059	-0,126
-659,174	113,710	0,030	0,027
-658,159	154,369	-0,111	-0,113
-657,145	24,774	-0,172	-0,106
-656,130	-123,590	-0,149	-0,017
-655,116	-97,108	-0,081	0,016
-654,101	399,300	0,009	0,014
-653,086	16,389	-0,137	-0,080
-652,072	2,741	-0,067	0,036
-651,057	-104,861	-0,012	0,002
-650,043	-45,093	-0,063	0,023
-649,028	138,692	0,098	0,095
-648,014	-39,334	0,088	-0,034
-646,999	-200,000	0,005	-0,114
-645,984	-200,000	-0,007	0,053
-644,970	367,533	-0,007	-0,011
-643,955	-144,393	-0,197	0,013
-642,941	16,267	-0,107	-0,062
-641,926	-52,571	-0,101	0,034
-640,911	-200,000	0,014	0,105
-639,897	800,000	-0,024	0,056
-638,882	-46,749	0,069	-0,025
-637,868	45,342	-0,077	0,053
-636,853	800,000	0,050	-0,164
-635,838	-200,000	0,014	-0,334
-634,824	-200,000	-0,004	-0,138
-633,809	-109,771	0,110	-0,017
-632,795	800,000	0,043	0,122
-631,780	486,542	-0,015	0,025
-630,765	-200,000	-0,035	-0,143
-629,751	800,000	-0,034	0,080
-628,736	689,573	0,061	0,119
-627,722	-127,350	-0,069	-0,007
-626,707	12,261	-0,067	-0,038
-625,692	-68,883	-0,014	0,004
-624,678	-200,000	0,009	-0,051
-623,663	167,493	-0,106	-0,112
-622,649	-88,022	-0,162	0,036
-621,634	-183,747	-0,063	-0,001
-620,619	-133,226	0,025	0,002
-619,605	-200,000	0,003	0,037
-618,590	-200,000	0,004	0,166
-617,576	58,057	0,032	0,023
-616,561	800,000	0,013	-0,040
-615,546	-27,697	-0,072	-0,031
-614,532	-154,079	-0,109	0,005
-613,517	306,162	-0,058	-0,081
-612,503	-38,298	-0,098	0,038
-611,488	-200,000	0,009	0,077
-610,474	321,735	0,045	0,064
-609,459	-200,000	0,008	0,107
-608,444	149,198	-0,105	-0,105
-607,430	-107,726	0,020	-0,003
-606,415	-200,000	-0,002	-0,056
-605,401	170,290	-0,087	-0,093
-604,386	-14,890	-0,045	0,021
-603,371	69,870	-0,085	0,065
-602,357	631,556	0,010	0,019
-601,342	-54,451	-0,079	-0,026
-600,328	-84,859	0,090	0,021
-599,313	-200,000	-0,009	0,113
-598,298	-103,560	-0,125	-0,022
-597,284	699,253	0,049	0,097
-596,269	323,423	0,017	0,025
-595,255	-26,818	0,047	-0,020
-594,240	59,904	-0,049	0,036
-593,225	-200,000	-0,013	-0,057
-592,211	29,443	-0,042	0,026
-591,196	84,458	0,017	0,013
-590,182	26,344	0,120	0,074
-589,167	-200,000	0,002	0,049
-588,152	26,614	0,078	0,048
-587,138	187,178	0,011	-0,013
-586,123	635,612	0,051	-0,096
-585,109	269,151	-0,051	0,066
-584,094	-51,632	-0,074	0,026
-583,079	-200,000	-0,047	0,203
-582,065	25,014	-0,139	-0,085
-581,050	-102,071	0,156	0,028
-580,036	800,000	0,023	-0,064
-579,021	-136,633	-0,069	-0,006
-578,006	99,515	-0,036	0,031
-576,992	-90,312	-0,051	0,011
-575,977	497,479	0,089	0,152
-574,963	800,000	-0,047	-0,100
-573,948	243,531	-0,029	0,036
-572,934	61,114	-0,065	0,048
-571,919	63,820	0,122	0,091
-570,904	800,000	-0,066	0,137
-569,890	-19,078	-0,088	0,040
-568,875	-97,316	0,170	-0,032
-567,861	12,613	0,127	0,072
-566,846	-180,592	0,043	0,001
-565,831	-97,684	-0,141	0,027
-564,817	-146,959	-0,104	-0,006
-563,802	-92,140	0,042	0,009
-562,788	-29,787	-0,069	0,029
-561,773	211,503	0,146	-0,170
-560,758	396,941	-0,029	-0,046
-559,744	16,026	0,027	0,016
-558,729	-141,273	-0,050	-0,004
-557,715	391,630	0,016	0,025
-556,700	800,000	-0,016	0,047
-555,685	-200,000	-0,040	-0,224
-554,671	-74,297	-0,066	-0,017
-553,656	-102,950	0,102	0,018
-552,642	-200,000	0,027	0,110
-551,627	292,869	-0,115	-0,155
-550,612	182,042	0,087	-0,095
-549,598	800,000	-0,008	0,022
-548,583	98,559	-0,125	-0,106
-547,569	581,910	-0,054	-0,099
-546,554	-89,833	0,057	0,012
-545,539	-200,000	-0,010	-0,113
-544,525	-200,000	-0,017	-0,058
-543,510	800,000	0,023	0,061
-542,496	51,500	-0,013	0,009
-541,481	-134,327	0,074	0,007
-540,466	290,295	0,069	-0,092
-539,452	131,183	-0,041	-0,039
-538,437	5,339	-0,047	-0,026
-537,423	-200,000	-0,016	0,150
-536,408	800,000	0,014	-0,038
-535,393	99,374	-0,034	-0,029
-534,379	-200,000	0,021	-0,113
-533,364	-200,000	-0,007	0,028
-532,350	-200,000	0,013	0,056
-531,335	-157,551	0,043	-0,002
-530,321	-73,092	0,129	-0,035
-529,306	144,933	-0,112	0,111
-528,291	-122,021	0,013	0,002
-527,277	-38,720	-0,104	-0,040
-526,262	-57,188	-0,024	-0,008
-525,248	63,640	0,145	-0,108
-524,233	-147,515	0,108	-0,007
-523,218	178,712	-0,024	-0,026
-522,204	800,000	0,044	0,139
-521,189	11,735	0,147	-0,083
-520,175	25,521	-0,106	-0,065
-519,160	-85,646	0,095	-0,022
-518,145	1,903	0,029	0,015
-517,131	227,541	0,039	-0,047
-516,116	93,167	0,101	-0,085
-515,102	800,000	0,034	0,079
-514,087	166,620	-0,072	-0,075
-513,072	800,000	-0,040	-0,106
-512,058	45,455	0,017	-0,011
-511,043	-83,043	0,039	-0,009
-510,029	-126,122	0,170	-0,019
-509,014	-200,000	0,008	-0,030
-507,999	-11,732	0,063	-0,030
-506,985	-200,000	0,001	-0,026
-505,970	-6,454	-0,101	-0,051
-504,956	484,498	-0,042	0,071
-503,941	800,000	-0,008	-0,025
-502,926	800,000	0,027	-0,067
-501,912	18,137	0,061	0,036
-500,897	-178,560	-0,064	0,001
-499,883	-200,000	-0,022	0,074
-498,868	800,000	-0,050	-0,130
-497,853	212,336	-0,040	-0,047
-496,839	-200,000	-0,001	0,024
-495,824	-30,092	0,152	0,063
-494,810	118,062	0,159	0,145
-493,795	156,807	-0,093	0,095
-492,781	-62,101	-0,051	0,016
-491,766	-200,000	0,001	-0,104
-490,751	51,858	0,015	-0,010
-489,737	-109,908	0,057	-0,009
-488,722	800,000	-0,081	0,197
-487,708	93,617	-0,062	-0,052
-486,693	-200,000	-0,031	-0,125
-485,678	-200,000	0,001	-0,112
-484,664	190,139	0,021	-0,024
-483,649	58,271	-0,064	0,046
-482,635	11,573	0,135	-0,076
-481,620	-200,000	-0,003	-0,014
-480,605	71,632	0,077	0,059
-479,591	-200,000	0,017	0,068
-478,576	190,503	0,070	0,078
-477,562	177,883	-0,011	0,012
-476,547	98,515	0,162	-0,138
-475,532	-92,957	-0,087	0,018
-474,518	-124,399	0,083	-0,009
-473,503	632,952	0,045	0,084
-472,489	77,949	0,036	0,028
-471,474	-141,928	0,009	0,001
-470,459	44,555	-0,036	-0,025
-469,445	234,444	-0,033	-0,040
-468,430	-22,915	-0,025	-0,011
-467,416	-134,179	-0,069	-0,006
-466,401	379,677	-0,033	-0,050
-465,386	800,000	-0,036	0,106
-464,372	-200,000	-0,020	0,070
-463,357	-200,000	-0,004	-0,025
-462,343	259,767	0,081	-0,103
-461,328	-49,849	-0,159	-0,055
-460,313	9,692	0,067	0,037
-459,299	40,995	0,038	-0,025
-458,284	800,000	0,012	0,038
-457,270	-157,474	0,072	0,003
-456,255	17,228	-0,092	0,053
-455,241	800,000	0,026	0,079
-454,226	131,501	0,062	0,059
-453,211	18,652	0,053	-0,031
-452,197	-200,000	-0,012	0,149
-451,182	-55,482	0,090	0,029
-450,168	8,216	-0,133	-0,074
-449,153	-26,731	-0,159	-0,068
-448,138	-200,000	0,026	-0,125
-447,124	-92,278	-0,063	0,013
-446,109	-200,000	0,041	-0,145
-445,095	-200,000	0,022	0,221
-444,080	-14,392	0,178	-0,084
-443,065	191,590	0,040	-0,045
-442,051	-59,172	0,057	-0,018
-441,036	-30,619	-0,090	-0,037
-440,022	800,000	0,026	0,067
-439,007	12,716	0,066	-0,037
-437,992	128,336	0,127	0,119
-436,978	274,563	0,018	0,023
-435,963	227,688	-0,111	0,134
-434,949	-73,417	0,086	-0,023
-433,934	-200,000	-0,004	-0,102
-432,919	-200,000	-0,033	-0,155
-431,905	-200,000	0,003	0,073
-430,890	-200,000	-0,008	0,030
-429,876	522,102	0,037	0,064
-428,861	-2,421	0,024	-0,012
-427,846	800,000	-0,034	-0,102
-426,832	-200,000	-0,001	0,111
-425,817	-62,204	-0,018	0,005
-424,803	800,000	0,053	-0,128
-423,788	-200,000	-0,011	0,053
-422,773	-53,198	0,106	0,036
-421,759	143,313	0,063	-0,062
-420,744	800,000	-0,048	-0,123
-419,730	-200,000	0,007	-0,072
-418,715	-22,458	-0,111	-0,049
-417,701	-200,000	-0,005	-0,132
-416,686	492,449	0,037	-0,062
-415,671	98,167	0,116	0,099
-414,657	-200,000	-0,003	0,082
-413,642	-200,000	-0,020	0,076
-412,628	-200,000	0,005	0,115
-411,613	-200,000	-0,010	0,039
-410,598	152,959	-0,076	0,077
-409,584	800,000	-0,022	0,065
-408,569	-116,043	0,089	-0,012
-407,555	-200,000	0,011	0,044
-406,540	-76,684	0,121	-0,031
-405,525	-116,828	0,044	-0,006
-404,511	741,062	0,029	0,058
-403,496	-200,000	-0,009	-0,081
-402,482	800,000	0,043	-0,090
-401,467	-90,525	0,084	0,018
-400,452	-12,067	0,057	0,027
-399,438	-200,000	-0,012	0,069
-398,423	125,616	0,077	0,072
-397,409	455,208	0,096	-0,157
-396,394	-97,978	0,081	-0,015
-395,379	-200,000	-0,025	-0,159
-394,365	115,013	0,057	0,051
-393,350	484,642	0,032	0,053
-392,336	-200,000	0,028	0,121
-391,321	-151,101	-0,143	0,008
-390,306	96,059	-0,015	-0,012
-389,292	-200,000	-0,036	-0,164
-388,277	-200,000	0,007	-0,156
-387,263	27,519	-0,060	-0,037
-386,248	351,658	0,092	-0,134
-385,233	61,700	0,032	-0,023
-384,219	99,454	0,063	0,054
-383,204	-28,715	-0,079	-0,033
-382,190	-200,000	0,028	-0,123
-381,175	800,000	-0,007	-0,016
-380,160	800,000	0,047	0,139
-379,146	-128,158	0,177	-0,018
-378,131	652,338	-0,044	0,084
-377,117	-200,000	0,039	-0,165
-376,102	680,114	-0,029	-0,056
-375,088	39,828	-0,159	-0,104
-374,073	48,777	0,102	-0,070
-373,058	-95,042	0,024	-0,005
-372,044	564,897	0,115	0,205
-371,029	-200,000	0,008	0,045
-370,015	-200,000	0,059	0,000
-369,000	800,000	0,051	-0,108
-367,985	-200,000	-0,028	-0,099
-366,971	100,838	-0,045	-0,038
-365,956	56,837	0,056	0,040
-364,942	-200,000	0,025	0,192
-363,927	-36,584	0,029	-0,011
-362,912	294,320	0,049	0,066
-361,898	-70,705	-0,147	0,040
-360,883	-51,299	0,059	0,020
-359,869	-95,902	0,088	0,017
-358,854	-110,084	0,056	-0,009
-357,839	800,000	-0,022	-0,053
-356,825	-200,000	-0,020	0,112
-355,810	44,279	0,059	0,040
-354,796	226,486	-0,033	0,039
-353,781	800,000	-0,028	-0,059
-352,766	595,638	-0,016	-0,030
-351,752	-200,000	0,009	0,107
-350,737	-51,698	0,036	-0,012
-349,723	-200,000	-0,008	-0,092
-348,708	-200,000	0,013	0,120
-347,693	27,103	-0,058	0,036
-346,679	68,648	-0,122	-0,092
-345,664	76,602	-0,092	-0,072
-344,650	-20,750	0,056	0,025
-343,635	800,000	0,052	-0,141
-342,620	800,000	0,040	0,082
-341,606	272,550	0,065	-0,085
-340,591	94,948	-0,100	-0,084
-339,577	-46,336	0,099	-0,035
-338,562	126,470	-0,096	-0,089
-337,548	-50,672	0,086	-0,030
-336,533	-106,873	-0,066	-0,011
-335,518	-200,000	0,004	0,138
-334,504	800,000	0,031	0,070
-333,489	-16,355	0,041	-0,019
-332,475	11,620	-0,156	-0,087
-331,460	416,654	-0,119	-0,187
-330,445	19,191	0,057	-0,034
-329,431	12,162	0,041	0,023
-328,416	800,000	0,060	0,136
-327,402	11,040	-0,040	-0,023
-326,387	-150,521	0,009	0,001
-325,372	800,000	-0,046	-0,119
-324,358	-51,766	0,090	0,031
-323,343	666,039	-0,060	-0,114
-322,329	-133,901	0,111	-0,010
-321,314	-200,000	-0,018	0,190
-320,299	-91,346	0,103	-0,021
-319,285	536,393	0,067	-0,117
-318,270	-97,636	-0,117	-0,022
-317,256	-54,016	-0,123	0,041
-316,241	-200,000	-0,010	-0,217
-315,226	11,510	0,100	0,056
-314,212	-200,000	-0,004	0,050
-313,197	800,000	-0,057	0,137
-312,183	257,116	-0,019	0,024
-311,168	-200,000	-0,019	-0,114
-310,153	800,000	0,045	-0,110
-309,139	254,146	-0,122	-0,153
-308,124	-200,000	0,015	0,162
-307,110	200,537	0,027	0,030
-306,095	-200,000	-0,014	0,074
-305,080	-200,000	-0,020	0,128
-304,066	442,039	-0,028	-0,046
-303,051	81,929	-0,096	-0,076
-302,037	94,555	-0,028	0,023
-301,022	266,739	0,129	-0,166
-300,008	-55,542	-0,045	0,015
-298,993	108,703	0,075	0,066
-297,978	-7,620	-0,091	-0,045
-296,964	772,351	-0,033	-0,066
-295,949	-8,060	-0,032	0,016
-294,935	-200,000	-0,056	0,230
-293,920	19,674	0,042	-0,024
-292,905	214,266	0,106	0,124
-291,891	800,000	-0,020	-0,044
-290,876	-94,015	0,037	-0,007
-289,862	157,836	-0,098	-0,099
-288,847	85,022	0,053	0,043
-287,832	-98,562	-0,081	-0,015
-286,818	-3,960	0,034	0,017
-285,803	149,008	0,059	0,058
-284,789	-119,466	-0,046	-0,006
-283,774	-200,000	0,010	0,048
-282,759	-200,000	-0,043	-0,163
-281,745	-76,674	-0,159	0,040
-280,730	-81,304	-0,167	-0,040
-279,716	220,544	-0,103	0,122
-278,701	-200,000	-0,004	0,025
-277,686	800,000	0,041	0,089
-276,672	-200,000	0,001	0,029
-275,657	-141,526	-0,120	0,009
-274,643	800,000	-0,037	0,076
-273,628	-103,947	-0,097	-0,016
-272,613	-134,383	0,075	0,007
-271,599	-200,000	0,025	-0,081
-270,584	496,830	0,098	0,165
-269,570	476,278	0,074	0,122
-268,555	4,307	-0,084	0,045
-267,540	546,063	0,041	-0,072
-266,526	492,905	-0,078	-0,132
-265,511	800,000	0,003	-0,010
-264,497	800,000	0,038	0,111
-263,482	-200,000	-0,004	0,083
-262,467	800,000	0,025	0,064
-261,453	800,000	-0,059	0,132
-260,438	-113,117	-0,125	-0,018
-259,424	1,170	-0,160	-0,084
-258,409	132,572	0,033	0,031
-257,395	-126,371	0,034	-0,004
-256,380	-93,420	0,037	0,007
-255,365	35,199	-0,063	-0,040
-254,351	-200,000	-0,013	0,228
-253,336	9,444	-0,091	-0,050
-252,322	800,000	0,036	0,087
-251,307	-86,783	-0,164	0,036
-250,292	46,881	-0,098	0,067
-249,278	-13,569	0,045	-0,021
-248,263	-200,000	0,037	0,124
-247,249	192,933	-0,085	0,094
-246,234	-42,165	-0,048	0,018
-245,219	69,788	0,038	0,028
-244,205	-141,274	-0,053	-0,004
-243,190	-16,963	0,018	-0,008
-242,176	655,265	-0,044	0,082
-241,161	160,248	-0,111	0,113
-240,146	48,683	0,119	0,081
-239,132	156,744	-0,051	-0,052
-238,117	800,000	-0,047	-0,134
-237,103	-172,084	-0,102	0,002
-236,088	-1,049	0,090	-0,046
-235,073	30,670	0,090	-0,056
-234,059	-25,056	0,095	0,041
-233,044	8,748	0,082	0,045
-232,030	-200,000	-0,029	0,100
-231,015	-94,968	-0,101	0,020
-230,000	-79,899	-0,071	0,017
-228,986	246,332	0,073	0,090
-227,971	213,119	0,086	-0,100
-226,957	534,215	0,029	0,051
-225,942	72,381	-0,034	-0,026
-224,927	800,000	0,031	0,076
-223,913	-200,000	-0,028	-0,189
-222,898	-200,000	-0,021	-0,120
-221,884	-47,389	-0,080	0,028
-220,869	-82,486	0,090	0,021
-219,855	665,275	-0,024	-0,045
-218,840	465,783	0,017	0,028
-217,825	-4,153	-0,102	0,051
-216,811	800,000	-0,038	-0,114
-215,796	-200,000	0,022	-0,112
-214,782	75,481	0,120	0,092
-213,767	800,000	-0,045	0,113
-212,752	-14,170	0,093	0,043
-211,738	-71,158	-0,042	-0,011
-210,723	-200,000	-0,033	0,113
-209,709	108,938	-0,083	0,072
-208,694	800,000	0,060	-0,136
-207,679	228,254	-0,016	-0,020
-206,665	-22,070	0,073	0,032
-205,650	-57,899	0,100	0,032
-204,636	-200,000	0,039	0,138
-203,621	-173,821	-0,147	0,003
-202,606	-200,000	-0,013	0,123
-201,592	-33,365	-0,097	0,039
-200,577	-200,000	-0,039	-0,000
-199,563	65,725	0,050	-0,037
-198,548	-155,293	-0,055	0,003
-197,533	800,000	0,031	0,084
-196,519	800,000	-0,065	-0,139
-195,504	-200,000	0,010	-0,061
-194,490	71,862	-0,071	-0,054
-193,475	800,000	0,033	-0,084
-192,460	753,937	0,070	-0,139
-191,446	-200,000	-0,013	-0,119
-190,431	62,664	0,013	-0,009
-189,417	-200,000	0,027	0,137
-188,402	-93,663	0,134	0,027
-187,387	374,748	-0,051	-0,076
-186,373	-200,000	0,002	-0,163
-185,358	800,000	-0,017	-0,039
-184,344	-200,000	-0,006	0,099
-183,329	-55,037	0,076	-0,025
-182,315	-147,722	-0,048	0,003
-181,300	-200,000	-0,022	0,164
-180,285	-65,272	-0,088	-0,026
-179,271	-200,000	0,003	-0,155
-178,256	60,479	-0,042	0,030
-177,242	-120,612	0,100	0,012
-176,227	-134,284	0,033	-0,003
-175,212	-200,000	0,029	0,123
-174,198	663,579	0,054	0,102
-173,183	276,014	-0,092	0,119
-172,169	-40,465	-0,045	0,017
-171,154	243,539	0,058	-0,071
-170,139	800,000	-0,031	0,089
-169,125	27,261	0,107	-0,066
-168,110	17,964	0,056	0,033
-167,096	-200,000	0,002	-0,181
-166,081	482,551	0,034	0,056
-165,066	-200,000	0,028	-0,168
-164,052	123,636	-0,038	-0,035
-163,037	-1,145	0,120	0,062
-162,023	-200,000	0,016	0,053
-161,008	-200,000	-0,012	-0,071
-159,993	-45,109	-0,107	0,038
-158,979	-200,000	-0,021	-0,112
-157,964	138,088	-0,064	0,061
-156,950	496,415	0,048	-0,081
-155,935	238,212	-0,021	-0,025
-154,920	800,000	-0,031	0,069
-153,906	110,464	0,113	0,099
-152,891	485,162	0,066	0,110
-151,877	335,221	-0,064	-0,090
-150,862	-200,000	-0,037	-0,227
-149,847	-200,000	0,013	-0,101
-148,833	-200,000	-0,015	-0,142
-147,818	800,000	0,020	-0,048
-146,804	319,974	-0,025	0,034
-145,789	117,204	0,038	0,034
-144,775	-200,000	0,004	-0,043
-143,760	800,000	0,064	-0,129
-142,745	800,000	-0,041	-0,116
-141,731	348,339	-0,017	-0,025
-140,716	408,443	-0,048	-0,073
-139,702	800,000	0,035	0,103
-138,687	-32,727	0,124	0,050
-137,672	800,000	0,023	0,053
-136,658	192,179	0,136	-0,150
-135,643	555,353	-0,092	-0,161
-134,629	-26,676	0,167	-0,071
-133,614	-77,913	0,134	-0,033
-132,599	263,500	-0,038	0,048
-131,585	36,328	-0,104	0,067
-130,570	-200,000	0,017	0,283
-129,556	331,345	-0,068	0,096
-128,541	800,000	-0,075	-0,164
-127,526	800,000	0,051	-0,153
-126,512	529,265	0,078	-0,134
-125,497	800,000	-0,019	-0,059
-124,483	-200,000	-0,006	0,092
-123,468	-200,000	0,003	0,032
-122,453	334,870	0,016	0,023
-121,439	-13,141	-0,072	-0,034
-120,424	-200,000	0,014	-0,086
-119,410	-10,070	0,132	0,064
-118,395	-38,864	-0,039	0,015
-117,380	53,546	0,055	0,038
-116,366	-66,810	0,024	-0,007
-115,351	97,606	-0,049	-0,041
-114,337	800,000	-0,070	-0,167
-113,322	755,261	0,024	-0,047
-112,307	341,906	0,045	-0,064
-111,293	547,326	0,074	-0,130
-110,278	-22,440	-0,137	-0,060
-109,264	-200,000	0,015	0,051
-108,249	249,941	0,108	0,134
-107,234	-200,000	-0,005	-0,152
-106,220	760,920	-0,080	-0,158
-105,205	174,375	-0,042	0,045
-104,191	148,111	-0,048	0,047
-103,176	57,706	0,022	0,015
-102,162	-200,000	-0,026	0,121
-101,147	800,000	0,057	0,152
-100,132	-30,018	-0,075	0,031
-99,118	84,429	0,099	-0,078
-98,103	800,000	0,034	-0,109
-97,089	-69,841	-0,038	-0,010
-96,074	4,184	0,040	0,021
-95,059	119,672	0,036	0,032
-94,045	-154,317	-0,119	-0,006
-93,030	70,452	-0,070	0,053
-92,016	-106,738	-0,052	0,008
-91,001	84,484	-0,040	0,032
-89,986	-84,782	0,065	0,015
-88,972	-85,419	0,074	0,017
-87,957	800,000	0,040	0,102
-86,943	200,875	0,053	0,059
-85,928	-200,000	0,023	0,132
-84,913	48,117	-0,138	-0,093
-83,899	-200,000	0,032	-0,131
-82,884	59,215	0,077	-0,055
-81,870	-12,618	0,048	-0,022
-80,855	382,737	-0,067	0,100
-79,840	-64,428	-0,165	0,048
-78,826	-53,995	0,040	-0,013
-77,811	150,551	0,067	0,067
-76,797	117,540	0,098	0,088
-75,782	38,933	-0,029	0,019
-74,767	-137,578	-0,047	-0,004
-73,753	-167,916	0,139	0,004
-72,738	800,000	-0,052	0,107
-71,724	-92,397	-0,242	-0,049
-70,709	123,845	-0,116	-0,106
-69,694	42,091	0,060	-0,039
-68,680	500,524	-0,049	0,082
-67,665	-200,000	0,018	0,108
-66,651	-29,974	0,035	0,014
-65,636	-45,252	-0,068	-0,024
-64,622	-55,842	-0,044	-0,014
-63,607	202,876	0,014	-0,016
-62,592	-68,538	-0,108	-0,030
-61,578	-200,000	-0,006	-0,062
-60,563	439,069	0,051	-0,080
-59,549	-26,129	0,035	0,015
-58,534	-136,869	-1,366	-0,112
-57,519	800,000	-0,689	-1,424
-56,505	-200,000	-0,721	-4,418
-55,490	49,686	0,545	-0,372
-54,476	800,000	4,895	11,777
-53,461	-200,000	13,299	253,967
-52,446	-200,000	689,259	2268,565
-51,432	595,274	1622,693	2925,468
-50,417	120,585	1635,966	1474,841
-49,403	73,595	1290,143	979,431
-48,388	38,420	1024,759	661,232
-47,373	24,525	982,344	588,164
-46,359	23,804	972,024	579,598
-45,344	22,780	967,953	573,801
-44,330	22,701	966,507	572,661
-43,315	22,642	965,088	571,606
-42,300	22,566	964,182	570,799
-41,286	22,592	963,076	570,207
-40,271	22,599	962,049	569,599
-39,257	22,600	961,241	569,099
-38,242	22,579	960,358	568,488
-37,227	22,550	959,444	567,828
-36,213	22,573	958,489	567,315
-35,198	22,523	957,685	566,656
-34,184	22,610	957,124	566,582
-33,169	22,477	956,336	565,663
-32,154	22,624	955,253	565,475
-31,140	22,615	954,396	564,917
-30,125	22,594	953,671	564,399
-29,111	22,586	952,790	563,828
-28,096	22,625	952,038	563,485
-27,082	22,597	951,308	562,943
-26,067	22,573	950,750	562,511
-25,052	22,533	950,039	561,940
-24,038	22,505	949,410	561,456
-23,023	22,573	948,568	561,154
-22,009	22,588	948,033	560,863
-20,994	22,667	947,253	560,632
-19,979	22,572	946,877	560,083
-18,965	22,599	946,018	559,640
-17,950	22,628	945,526	559,421
-16,936	22,613	944,889	558,972
-15,921	22,566	944,022	558,287
-14,906	22,529	943,392	557,776
-13,892	22,523	942,766	557,364
-12,877	22,520	942,059	556,913
-11,863	22,472	941,385	556,342
-10,848	22,506	941,050	556,230
-9,833	22,588	940,560	556,176
-8,819	22,586	939,793	555,696
-7,804	22,490	939,280	555,066
-6,790	22,477	938,775	554,705
-5,775	22,514	938,036	554,364
-4,760	22,507	937,415	553,951
-3,746	22,531	936,704	553,585
-2,731	22,408	936,122	552,831
-1,717	22,297	935,499	552,089
-0,702	22,354	934,715	551,784
0,313	22,152	934,047	551,587
1,327	25,224	931,941	559,957
2,342	34,720	796,749	504,033
3,356	32,756	451,948	282,922
4,371	1,741	293,997	153,082
5,386	-2,540	274,768	139,005
6,400	-3,988	268,933	134,697
7,415	-4,559	266,501	132,942
8,429	-4,460	265,422	132,483
9,444	-4,208	264,476	132,228
10,459	-4,300	263,986	131,888
11,473	-4,373	263,256	131,445
12,488	-4,391	262,507	131,043
13,502	-4,560	262,300	130,775
14,517	-4,527	261,813	130,551
15,531	-4,398	261,482	130,491
16,546	-4,392	261,052	130,269
17,561	-4,410	260,624	130,028
18,575	-4,378	260,294	129,881
19,590	-4,447	259,972	129,647
20,604	-4,432	259,765	129,545
21,619	-4,369	259,390	129,403
22,634	-4,416	258,969	129,139
23,648	-4,427	258,654	128,961
24,663	-4,491	258,566	128,849
25,677	-4,392	258,213	128,750
26,692	-4,487	257,969	128,532
27,707	-4,563	257,706	128,322
28,721	-4,494	257,520	128,279
29,736	-4,488	257,314	128,171
30,750	-4,505	256,903	127,939
31,765	-4,557	256,742	127,802
32,780	-4,482	256,381	127,677
33,794	-4,560	256,344	127,578
34,809	-4,525	256,037	127,445
35,823	-4,435	255,724	127,357
36,838	-4,477	255,436	127,165
37,853	-4,535	255,329	127,050
38,867	-4,429	255,023	126,979
39,882	-4,619	255,007	126,793
40,896	-4,508	254,667	126,710
41,911	-4,655	254,515	126,494
42,926	-4,555	254,159	126,393
43,940	-4,699	254,014	126,184
44,955	-4,541	253,664	126,137
45,969	-4,807	253,642	125,882
46,984	-4,899	253,282	125,612
47,999	-5,073	253,080	125,350
49,013	-5,129	252,835	125,169
50,028	-5,536	252,650	124,712
51,042	-5,256	252,223	124,733
52,057	-5,321	252,089	124,599
53,071	-5,275	251,933	124,551
54,086	-5,266	251,959	124,561
55,101	-5,111	251,577	124,494
56,115	-4,848	251,358	124,602
57,130	-4,561	251,427	124,874
58,144	-4,306	251,149	124,945
59,159	-4,065	250,987	125,060
60,174	-4,454	250,717	124,580
61,188	-4,360	250,534	124,558
62,203	-4,466	250,361	124,370
63,217	-4,405	250,025	124,244
64,232	-4,361	249,920	124,219
65,247	-4,479	249,820	124,057
66,261	-4,406	249,314	123,857
67,276	-4,592	249,109	123,586
68,290	-4,793	248,844	123,272
69,305	-4,987	248,937	123,141
70,320	-4,952	248,567	122,976
71,334	-4,552	248,421	123,234
72,349	-4,240	248,367	123,462
73,363	-4,374	248,130	123,220
74,378	-4,110	247,756	123,248
75,393	-4,541	247,774	122,879
76,407	-4,583	247,659	122,775
77,422	-4,675	247,410	122,562
78,436	-4,440	247,189	122,641
79,451	-4,480	246,916	122,461
80,466	-4,450	246,657	122,347
81,480	-4,553	246,390	122,117
82,495	-4,830	246,434	121,894
83,509	-4,657	246,094	121,861
84,524	-4,798	246,069	121,718
85,539	-4,796	245,727	121,540
86,553	-4,897	245,546	121,354
87,568	-4,741	245,244	121,326
88,582	-4,753	245,251	121,309
89,597	-4,834	244,888	121,050
90,611	-4,512	244,812	121,272
91,626	-4,568	244,759	121,188
92,641	-4,595	244,580	121,066
93,655	-4,532	244,410	121,024
94,670	-4,522	244,150	120,893
95,684	-4,640	243,898	120,658
96,699	-4,598	243,779	120,624
97,714	-4,629	243,593	120,495
98,728	-4,696	243,402	120,334
99,743	-4,649	243,058	120,192
100,757	-4,739	242,844	120,001
101,772	-4,630	242,766	120,042
102,787	-4,734	242,457	119,793
103,801	-4,571	242,292	119,836
104,816	-4,507	242,307	119,885
105,830	-4,408	242,131	119,870
106,845	-4,486	242,105	119,781
107,860	-4,339	241,723	119,703
108,874	-4,713	241,589	119,317
109,889	-4,639	241,336	119,242
110,903	-4,839	241,251	119,024
111,918	-4,866	240,946	118,841
112,933	-4,773	240,991	118,930
113,947	-4,581	240,643	118,906
114,962	-4,614	240,570	118,832
115,976	-4,482	240,337	118,814
116,991	-4,686	240,246	118,591
118,006	-4,760	240,110	118,453
119,020	-4,464	239,916	118,589
120,035	-4,256	239,706	118,645
121,049	-4,299	239,567	118,531
122,064	-4,386	239,410	118,371
123,079	-4,464	239,108	118,147
124,093	-4,473	238,976	118,065
125,108	-4,698	238,778	117,773
126,122	-4,940	238,567	117,460
127,137	-4,782	238,221	117,409
128,151	-4,994	238,277	117,253
129,166	-4,820	238,094	117,294
130,181	-4,664	237,731	117,232
131,195	-5,046	237,764	116,927
132,210	-4,809	237,581	117,019
133,224	-4,418	237,461	117,266
134,239	-4,504	237,240	117,077
135,254	-4,453	237,118	117,048
136,268	-4,772	236,817	116,631
137,283	-4,887	236,612	116,427
138,297	-4,797	236,273	116,322
139,312	-5,043	236,220	116,087
140,327	-4,844	236,169	116,212
141,341	-4,278	236,171	116,659
142,356	-4,194	236,020	116,641
143,370	-4,193	235,864	116,554
144,385	-4,221	235,644	116,413
145,400	-4,321	235,612	116,307
146,414	-4,221	235,178	116,162
147,429	-4,209	235,188	116,167
148,443	-4,250	235,050	116,055
149,458	-4,440	234,886	115,811
150,473	-4,345	234,633	115,752
151,487	-4,308	234,475	115,694
152,502	-4,210	234,238	115,645
153,516	-4,222	234,269	115,640
154,531	-4,369	233,914	115,338
155,546	-4,196	233,744	115,381
156,560	-4,419	233,609	115,126
157,575	-4,481	233,332	114,930
158,589	-4,551	233,257	114,828
159,604	-4,395	233,100	114,865
160,619	-4,081	232,949	115,029
161,633	-4,079	232,845	114,969
162,648	-3,981	232,767	114,997
163,662	-4,205	232,618	114,736
164,677	-4,219	232,323	114,569
165,692	-4,192	232,231	114,536
166,706	-4,222	232,072	114,423
167,721	-4,051	231,984	114,504
168,735	-4,159	231,709	114,273
169,750	-4,268	231,574	114,110
170,764	-4,023	231,430	114,222
171,779	-4,182	231,387	114,066
172,794	-4,151	231,058	113,918
173,808	-4,306	230,976	113,746
174,823	-4,615	230,643	113,329
175,837	-4,605	230,308	113,162
176,852	-4,629	230,369	113,163
177,867	-4,204	230,427	113,514
178,881	-4,197	230,167	113,382
179,896	-4,082	230,161	113,459
180,910	-4,218	229,991	113,258
181,925	-4,131	229,762	113,204
182,940	-4,166	229,631	113,102
183,954	-4,018	229,526	113,155
184,969	-4,230	229,442	112,939
185,983	-4,130	229,296	112,934
186,998	-4,030	228,978	112,846
188,013	-3,960	228,910	112,856
189,027	-4,015	228,626	112,664
190,042	-4,037	228,586	112,616
191,056	-4,160	228,408	112,424
192,071	-4,044	228,307	112,454
193,086	-4,031	228,085	112,344
194,100	-4,165	227,847	112,114
195,115	-4,282	227,562	111,873
196,129	-4,838	227,321	111,316
197,144	-1,302	228,687	114,717
198,159	2,689	229,555	118,243
199,173	4,031	229,803	119,401
200,188	4,083	229,823	119,441
201,202	3,976	229,584	119,223
202,217	4,153	229,685	119,403
203,232	4,648	229,257	119,552
204,246	4,629	229,271	119,535
205,261	4,690	229,122	119,493
206,275	4,800	229,014	119,511
207,290	5,058	228,776	119,575
208,304	4,850	228,699	119,364
209,319	4,749	228,618	119,233
210,334	4,640	228,391	119,020
211,348	4,641	228,049	118,832
212,363	4,173	227,827	118,346
213,377	3,810	227,652	117,967
214,392	3,864	227,444	117,890
215,407	4,163	227,399	118,085
216,421	4,077	227,309	117,962
217,436	4,056	227,024	117,787
218,450	3,673	226,906	117,422
219,465	3,530	226,658	117,174
220,480	3,786	226,458	117,256
221,494	3,906	226,405	117,310
222,509	3,825	226,456	117,264
223,523	3,816	226,284	117,157
224,538	3,842	225,920	116,978
225,553	4,012	225,843	117,057
226,567	3,858	225,848	116,933
227,582	4,164	225,725	117,091
228,596	4,398	225,626	117,207
229,611	4,098	225,323	116,811
230,626	3,727	225,189	116,450
231,640	3,714	224,974	116,319
232,655	4,161	224,838	116,576
233,669	4,501	224,808	116,807
234,684	4,637	224,778	116,884
235,699	4,266	224,585	116,494
236,713	4,233	224,357	116,340
237,728	3,929	224,185	116,011
238,742	3,671	223,973	115,696
239,757	4,083	223,724	115,868
240,772	4,075	223,552	115,763
241,786	4,018	223,495	115,679
242,801	3,988	223,505	115,652
243,815	4,528	223,279	115,930
244,830	4,275	223,277	115,729
245,844	4,259	222,974	115,550
246,859	4,022	222,871	115,308
247,874	4,037	222,735	115,239
248,888	4,136	222,686	115,277
249,903	4,069	222,450	115,095
250,917	3,831	222,252	114,804
251,932	4,150	222,020	114,912
252,947	3,957	221,936	114,715
253,961	3,884	221,800	114,580
254,976	3,842	221,594	114,431
255,990	4,167	221,613	114,674
257,005	4,256	221,509	114,676
258,020	4,045	221,314	114,407
259,034	4,380	221,198	114,586
260,049	4,113	221,090	114,321
261,063	4,139	220,949	114,258
262,078	4,296	220,811	114,293
263,093	4,192	220,713	114,155
264,107	4,197	220,366	113,969
265,122	4,138	220,383	113,923
266,136	4,334	220,289	114,009
267,151	4,459	220,136	114,013
268,166	4,185	219,759	113,605
269,180	3,610	219,586	113,082
270,195	3,716	219,607	113,161
271,209	3,824	219,398	113,123
272,224	3,981	219,143	113,096
273,239	3,972	219,232	113,126
274,253	3,896	218,968	112,924
275,268	3,732	218,823	112,719
276,282	3,644	218,579	112,518
277,297	3,570	218,415	112,369
278,312	3,638	218,479	112,442
279,326	3,960	218,293	112,572
280,341	4,042	218,279	112,615
281,355	3,927	218,045	112,401
282,370	3,854	217,724	112,171
283,384	3,786	217,657	112,077
284,399	3,563	217,400	111,772
285,414	3,622	217,489	111,851
286,428	3,878	217,248	111,903
287,443	3,971	217,251	111,963
288,457	4,158	217,056	111,988
289,472	4,016	216,793	111,740
290,487	3,402	216,596	111,182
291,501	3,288	216,468	111,024
292,516	3,593	216,417	111,209
293,530	3,808	216,261	111,275
294,545	3,466	216,200	110,986
295,560	3,635	216,109	111,052
296,574	4,070	215,859	111,228
297,589	3,756	215,910	111,017
298,603	3,888	215,687	110,988
299,618	3,829	215,514	110,847
300,633	4,008	215,293	110,852
301,647	4,060	215,405	110,936
302,662	4,175	215,137	110,872
303,676	4,325	215,004	110,901
304,691	4,191	214,777	110,678
305,706	4,260	214,721	110,689
306,720	4,094	214,651	110,523
307,735	4,093	214,441	110,404
308,749	3,737	214,329	110,082
309,764	3,811	214,258	110,089
310,779	4,348	214,023	110,343
311,793	3,880	213,963	109,967
312,808	4,198	213,716	110,057
313,822	4,088	213,553	109,885
314,837	3,908	213,475	109,707
315,852	3,692	213,314	109,461
316,866	3,789	213,109	109,414
317,881	4,052	213,110	109,592
318,895	4,217	212,874	109,579
319,910	4,185	212,610	109,410
320,925	3,738	212,565	109,060
321,939	3,140	212,389	108,536
322,954	3,446	212,347	108,722
323,968	3,859	212,347	109,005
324,983	3,836	212,175	108,891
325,997	4,075	211,900	108,908
327,012	4,194	211,703	108,882
328,027	3,981	211,640	108,690
329,041	4,385	211,667	108,979
330,056	4,450	211,600	108,981
331,070	4,042	211,299	108,528
332,085	3,626	211,077	108,111
333,100	3,702	210,923	108,076
334,114	4,054	210,938	108,322
335,129	3,843	210,712	108,049
336,143	3,691	210,380	107,762
337,158	3,745	210,452	107,827
338,173	3,747	210,354	107,768
339,187	3,963	210,019	107,738
340,202	3,887	209,843	107,586
341,216	3,577	209,744	107,308
342,231	3,724	209,720	107,389
343,246	3,756	209,535	107,307
344,260	3,725	209,467	107,241
345,275	3,912	209,333	107,293
346,289	3,745	209,281	107,141
347,304	4,022	209,192	107,279
348,319	4,072	208,946	107,178
349,333	3,934	208,882	107,040
350,348	3,942	208,872	107,030
351,362	3,999	208,698	106,971
352,377	3,966	208,486	106,830
353,392	4,206	208,231	106,857
354,406	3,962	208,283	106,704
355,421	194,068	1344,848	1433,800
356,435	154,847	1483,434	1433,916
