DTS Sentinel unit serial number:	SN410029Multiplexer serial number:	ORYXHardware model number:	OX2-SRSoftware version number:	ORYX F/W v4,00 Oryx Data Collector v3.7.2.0data status	okinstallation	B6 Nyhavnadifferential loss correction	single-endedforward channel	channel 2reverse channel	N/Adate	2023/12/07time	18:30:08forward acquisition time	300,00reverse acquisition time	0,00gamma	499,1914k internal	0,3164k external	0,3164temperature offset calibration	1,0000default loss term (dB/km)	0,3820temperature slope calibration	1,0000multiplexer offset coefficient	1,0000multiplexer slope coefficient	1,0000fibre end	0,00T internal ref (°C)	14,25T ext. ref 1 (°C)	-2,73T ext. ref 2 (°C)	-2,73length (m)	temperature (°C)	Stokes	anti-Stokes-744,400	-87,194	0,152	-0,034
-743,385	-89,229	-0,283	-0,061
-742,371	-200,000	0,027	0,163
-741,356	-85,780	-0,246	-0,056
-740,342	-98,521	0,161	0,030
-739,327	-149,716	-0,368	0,021
-738,312	3,154	0,157	-0,084
-737,298	-19,826	-0,271	-0,123
-736,283	52,543	0,119	0,083
-735,269	-78,350	-0,261	-0,065
-734,254	97,263	0,091	-0,076
-733,239	-21,212	-0,437	-0,196
-732,225	-117,769	0,246	0,032
-731,210	-200,000	0,070	0,000
-730,196	-200,000	0,001	-0,010
-729,181	271,998	-0,141	-0,183
-728,167	800,000	-0,022	-0,065
-727,152	118,699	-0,063	-0,057
-726,137	-200,000	0,001	0,093
-725,123	589,504	-0,054	-0,098
-724,108	-26,750	-0,064	0,027
-723,094	26,865	0,059	-0,036
-722,079	-200,000	-0,002	-0,023
-721,064	800,000	-0,029	-0,080
-720,050	-194,093	-0,112	0,001
-719,035	-200,000	-0,043	-0,161
-718,021	800,000	-0,059	-0,124
-717,006	-200,000	-0,019	-0,107
-715,991	79,318	-0,162	-0,128
-714,977	-200,000	-0,014	-0,099
-713,962	31,683	-0,136	-0,086
-712,948	-200,000	-0,000	-0,051
-711,933	576,806	-0,020	-0,036
-710,918	-48,655	0,124	-0,043
-709,904	-200,000	0,012	-0,105
-708,889	800,000	-0,072	-0,234
-707,875	800,000	-0,043	-0,135
-706,860	248,238	-0,033	-0,041
-705,845	-195,607	0,169	0,001
-704,831	-200,000	-0,010	-0,068
-703,816	636,292	-0,054	-0,102
-702,802	16,393	0,114	-0,066
-701,787	258,384	-0,053	-0,067
-700,772	-97,141	-0,119	-0,023
-699,758	-200,000	0,047	0,000
-698,743	-85,736	0,024	0,005
-697,729	800,000	-0,012	0,034
-696,714	-73,620	0,035	-0,009
-695,699	12,382	-0,051	-0,029
-694,685	-134,115	-0,261	0,023
-693,670	163,804	0,016	-0,017
-692,656	58,665	-0,098	0,071
-691,641	778,225	0,036	0,072
-690,627	-200,000	-0,011	-0,113
-689,612	-101,332	-0,087	-0,015
-688,597	-200,000	0,014	-0,074
-687,583	-13,640	-0,015	-0,007
-686,568	-200,000	0,028	0,095
-685,554	244,365	0,047	-0,058
-684,539	-90,985	0,056	0,012
-683,524	-200,000	0,036	-0,157
-682,510	-200,000	-0,010	-0,034
-681,495	-200,000	-0,009	-0,063
-680,481	404,214	-0,061	-0,094
-679,466	470,339	-0,110	-0,182
-678,451	-200,000	-0,009	0,047
-677,437	676,384	-0,022	-0,043
-676,422	509,307	-0,070	0,119
-675,408	-78,601	0,064	0,016
-674,393	-200,000	-0,026	-0,223
-673,378	-18,737	-0,073	-0,033
-672,364	-200,000	0,002	-0,032
-671,349	-78,935	0,093	-0,023
-670,335	494,200	-0,011	0,018
-669,320	-51,481	0,046	0,016
-668,305	544,463	0,036	0,064
-667,291	-165,489	-0,038	0,001
-666,276	800,000	-0,070	-0,144
-665,262	-5,321	-0,153	-0,077
-664,247	-34,388	0,030	-0,012
-663,232	-200,000	0,005	-0,078
-662,218	-200,000	-0,002	0,050
-661,203	71,656	0,069	0,053
-660,189	-11,664	0,075	-0,036
-659,174	-4,173	-0,074	-0,038
-658,159	800,000	0,022	-0,068
-657,145	57,490	-0,065	-0,047
-656,130	-171,465	0,058	-0,001
-655,116	253,253	-0,102	0,128
-654,101	40,649	0,168	-0,111
-653,086	101,565	-0,025	0,022
-652,072	-100,918	-0,095	-0,017
-651,057	596,578	-0,068	-0,124
-650,043	139,974	-0,025	-0,024
-649,028	800,000	0,013	-0,033
-648,014	159,786	-0,043	0,044
-646,999	4,408	-0,063	0,034
-645,984	28,247	-0,041	-0,025
-644,970	213,866	0,054	-0,062
-643,955	800,000	0,013	-0,026
-642,941	-12,972	-0,013	0,006
-641,926	-200,000	-0,002	0,063
-640,911	-89,581	0,084	0,018
-639,897	288,011	0,064	0,085
-638,882	-200,000	-0,017	-0,059
-637,868	-119,899	-0,140	0,017
-636,853	-94,281	-0,133	-0,026
-635,838	-161,191	-0,170	0,006
-634,824	133,500	-0,112	0,106
-633,809	-99,492	0,037	-0,007
-632,795	110,640	-0,093	0,082
-631,780	215,063	0,072	0,084
-630,765	155,545	-0,087	-0,087
-629,751	-200,000	0,016	-0,065
-628,736	-43,892	-0,035	0,013
-627,722	92,298	-0,017	-0,014
-626,707	-30,682	0,037	0,015
-625,692	0,590	-0,058	0,030
-624,678	-62,497	0,076	0,023
-623,663	184,266	0,046	0,050
-622,649	-200,000	0,027	-0,225
-621,634	800,000	-0,078	-0,170
-620,619	800,000	0,012	-0,034
-619,605	703,259	-0,016	0,030
-618,590	-108,191	0,056	-0,009
-617,576	-200,000	-0,000	-0,059
-616,561	73,043	-0,026	0,020
-615,546	-200,000	-0,014	-0,103
-614,532	-37,978	-0,078	-0,030
-613,517	-171,100	-0,112	0,003
-612,503	800,000	0,021	0,047
-611,488	160,206	0,062	-0,063
-610,474	-200,000	-0,020	-0,204
-609,459	34,447	-0,076	0,048
-608,444	800,000	-0,053	-0,134
-607,430	229,418	-0,035	-0,042
-606,415	-46,463	0,064	-0,023
-605,401	-200,000	-0,040	0,145
-604,386	-57,243	0,139	-0,044
-603,371	319,354	0,029	-0,040
-602,357	-9,681	0,084	-0,041
-601,342	-200,000	0,024	0,123
-600,328	222,290	-0,072	-0,085
-599,313	-85,838	0,156	-0,035
-598,298	-18,649	-0,121	0,055
-597,284	492,955	-0,082	0,138
-596,269	66,408	-0,030	-0,022
-595,255	800,000	-0,046	0,133
-594,240	-137,328	0,057	0,005
-593,225	564,790	-0,053	0,094
-592,211	64,638	0,098	-0,072
-591,196	-98,725	0,031	0,006
-590,182	213,899	-0,047	-0,054
-589,167	800,000	-0,042	0,130
-588,152	498,152	-0,079	0,133
-587,138	-99,049	0,109	0,020
-586,123	-92,700	-0,080	0,016
-585,109	800,000	-0,025	0,065
-584,094	-200,000	0,017	0,092
-583,079	-200,000	0,008	-0,086
-582,065	800,000	0,016	-0,034
-581,050	442,809	0,026	-0,041
-580,036	-23,492	-0,044	-0,019
-579,021	3,833	-0,119	0,064
-578,006	24,069	0,058	-0,035
-576,992	-200,000	0,010	0,065
-575,977	-38,702	-0,029	0,011
-574,963	295,445	-0,048	-0,065
-573,948	-200,000	-0,001	-0,043
-572,934	204,411	0,104	-0,119
-571,919	-9,794	-0,036	0,017
-570,904	408,095	-0,037	0,057
-569,890	-200,000	-0,004	-0,020
-568,875	322,289	-0,012	-0,016
-567,861	75,945	-0,012	0,009
-566,846	-200,000	0,021	0,103
-565,831	-200,000	0,026	-0,101
-564,817	227,235	0,002	0,002
-563,802	-200,000	0,007	-0,092
-562,788	236,365	-0,109	-0,132
-561,773	-60,567	0,102	-0,031
-560,758	34,449	-0,048	-0,031
-559,744	488,335	0,062	-0,104
-558,729	367,706	-0,015	-0,022
-557,715	800,000	0,033	0,083
-556,700	63,282	-0,055	0,040
-555,685	91,727	-0,105	0,086
-554,671	31,915	0,125	0,079
-553,656	-41,971	0,088	0,033
-552,642	-80,280	-0,177	0,043
-551,627	800,000	0,019	0,047
-550,612	671,253	0,068	-0,129
-549,598	-71,521	0,038	0,010
-548,583	-200,000	0,024	-0,141
-547,569	85,997	0,031	0,025
-546,554	6,637	-0,070	0,038
-545,539	-70,499	0,131	0,036
-544,525	55,657	-0,095	0,067
-543,510	-200,000	-0,045	0,172
-542,496	-124,677	-0,015	-0,002
-541,481	87,963	-0,128	-0,104
-540,466	-200,000	0,026	0,132
-539,452	146,501	-0,040	0,040
-538,437	-200,000	0,000	0,106
-537,423	-200,000	-0,001	0,030
-536,408	-129,774	0,066	-0,007
-535,393	-200,000	0,015	-0,135
-534,379	287,937	-0,045	-0,060
-533,364	-186,971	0,012	0,000
-532,350	-200,000	-0,020	0,116
-531,335	-200,000	0,019	0,069
-530,321	772,018	0,075	0,149
-529,306	-143,697	-0,027	0,002
-528,291	26,371	-0,061	-0,037
-527,277	332,292	0,036	-0,051
-526,262	-95,341	-0,043	0,008
-525,248	-76,293	0,056	0,014
-524,233	122,037	0,019	0,017
-523,218	-200,000	0,027	-0,155
-522,204	-87,422	-0,080	-0,018
-521,189	402,095	0,040	0,061
-520,175	-200,000	-0,022	-0,139
-519,160	-200,000	0,011	-0,064
-518,145	-200,000	-0,016	0,070
-517,131	212,180	0,047	-0,054
-516,116	-47,198	-0,043	-0,015
-515,102	-67,285	-0,013	0,004
-514,087	101,562	0,048	-0,041
-513,072	-168,571	-0,096	0,003
-512,058	65,116	0,062	-0,046
-511,043	101,071	-0,033	0,028
-510,029	-200,000	-0,003	0,027
-509,014	-200,000	-0,015	0,131
-507,999	303,445	0,062	-0,084
-506,985	-20,890	0,093	0,041
-505,970	-146,284	-0,019	-0,001
-504,956	800,000	-0,036	-0,117
-503,941	-200,000	-0,030	0,133
-502,926	-125,593	0,083	-0,009
-501,912	-200,000	-0,033	0,121
-500,897	-200,000	-0,033	0,140
-499,883	800,000	-0,031	0,074
-498,868	10,954	0,125	-0,069
-497,853	-48,386	0,118	0,041
-496,839	20,170	-0,150	-0,088
-495,824	-79,220	-0,124	-0,030
-494,810	-26,510	0,041	-0,017
-493,795	-200,000	-0,002	0,095
-492,781	-44,041	-0,070	0,026
-491,766	205,759	-0,118	-0,133
-490,751	-163,550	-0,102	0,003
-489,737	679,982	0,084	0,161
-488,722	800,000	-0,063	-0,139
-487,708	563,357	-0,044	-0,078
-486,693	-30,233	0,014	0,006
-485,678	158,108	-0,076	0,077
-484,664	-200,000	-0,027	-0,100
-483,649	-200,000	-0,065	-0,274
-482,635	41,178	0,075	-0,049
-481,620	181,630	0,063	0,067
-480,605	-200,000	0,006	0,054
-479,591	153,152	-0,123	0,122
-478,576	-200,000	0,026	0,084
-477,562	-64,726	-0,107	-0,031
-476,547	34,870	0,056	-0,036
-475,532	-25,260	-0,028	-0,012
-474,518	172,258	-0,040	0,042
-473,503	-51,352	0,042	-0,014
-472,489	-117,678	-0,113	-0,015
-471,474	-14,410	-0,123	0,057
-470,459	770,506	-0,022	-0,045
-469,445	4,834	0,147	-0,078
-468,430	-114,976	-0,104	-0,014
-467,416	-136,141	0,066	0,006
-466,401	-55,045	-0,041	-0,013
-465,386	-5,377	0,012	0,006
-464,372	37,922	0,091	-0,059
-463,357	618,347	0,055	-0,100
-462,343	243,391	0,088	-0,107
-461,328	-200,000	0,027	0,095
-460,313	338,862	0,033	-0,047
-459,299	-74,351	0,090	-0,023
-458,284	-116,460	-0,053	0,007
-457,270	111,514	-0,001	-0,001
-456,255	800,000	0,013	0,029
-455,241	-126,210	-0,097	-0,010
-454,226	33,523	0,091	0,057
-453,211	-200,000	-0,012	0,038
-452,197	346,288	0,059	0,085
-451,182	96,511	-0,105	-0,088
-450,168	-200,000	0,018	0,089
-449,153	-200,000	0,018	-0,134
-448,138	800,000	-0,031	-0,070
-447,124	779,650	0,021	-0,042
-446,109	800,000	0,008	-0,020
-445,095	202,316	0,045	-0,050
-444,080	39,120	0,074	-0,048
-443,065	502,894	-0,024	0,041
-442,051	181,038	0,033	0,035
-441,036	-200,000	0,002	0,076
-440,022	-200,000	0,023	-0,109
-439,007	-130,645	-0,091	-0,009
-437,992	800,000	-0,055	0,159
-436,978	4,587	0,061	-0,032
-435,963	-147,386	-0,063	0,004
-434,949	-102,679	0,225	-0,039
-433,934	-124,425	-0,103	-0,012
-432,919	530,611	-0,009	-0,016
-431,905	490,139	-0,073	-0,122
-430,890	-131,654	0,051	-0,005
-429,876	800,000	-0,031	0,066
-428,861	-200,000	0,001	0,018
-427,846	-29,235	-0,113	0,047
-426,832	-62,571	-0,140	0,042
-425,817	250,819	0,110	-0,136
-424,803	-200,000	0,031	-0,126
-423,788	800,000	-0,021	-0,043
-422,773	-133,456	0,062	0,006
-421,759	-200,000	-0,019	0,102
-420,744	206,175	0,013	-0,015
-419,730	-67,804	-0,131	-0,037
-418,715	800,000	0,049	-0,134
-417,701	800,000	-0,011	0,033
-416,686	-200,000	0,017	-0,103
-415,671	319,518	-0,024	-0,033
-414,657	758,704	-0,018	0,036
-413,642	-104,602	0,180	-0,030
-412,628	-74,157	0,152	-0,040
-411,613	800,000	-0,036	-0,113
-410,598	196,866	-0,119	-0,131
-409,584	225,203	0,032	-0,038
-408,569	605,872	0,047	-0,085
-407,555	147,119	-0,034	0,034
-406,540	234,313	0,017	-0,020
-405,525	193,514	-0,030	-0,033
-404,511	-200,000	-0,035	-0,179
-403,496	719,601	0,026	-0,050
-402,482	-200,000	0,053	-0,207
-401,467	800,000	-0,035	0,102
-400,452	378,829	-0,036	0,053
-399,438	-45,402	-0,143	0,051
-398,423	-200,000	-0,001	0,088
-397,409	127,025	0,069	0,063
-396,394	122,834	0,069	-0,063
-395,379	-200,000	0,010	0,107
-394,365	2,495	0,139	0,073
-393,350	-200,000	-0,013	-0,118
-392,336	46,960	0,112	0,075
-391,321	-91,312	0,096	0,020
-390,306	-11,157	-0,057	-0,027
-389,292	120,964	-0,086	0,077
-388,277	39,841	-0,152	0,099
-387,263	-200,000	-0,015	-0,062
-386,248	-50,751	-0,072	-0,024
-385,233	-178,385	-0,086	0,001
-384,219	-200,000	0,008	0,133
-383,204	-200,000	0,006	0,059
-382,190	40,195	0,057	-0,037
-381,175	95,108	-0,027	0,023
-380,160	-121,836	0,108	0,013
-379,146	239,858	0,095	0,114
-378,131	-102,950	-0,019	0,003
-377,117	786,113	0,059	0,118
-376,102	396,271	-0,042	0,063
-375,088	-9,536	0,107	0,052
-374,073	-92,010	0,080	-0,016
-373,058	800,000	-0,048	0,103
-372,044	-9,809	-0,064	-0,031
-371,029	-130,238	0,101	0,010
-370,015	186,049	0,153	0,165
-369,000	166,880	-0,061	-0,062
-367,985	-200,000	0,020	-0,086
-366,971	-200,000	-0,014	-0,055
-365,956	166,330	-0,102	0,105
-364,942	42,239	0,186	0,122
-363,927	241,229	0,030	0,037
-362,912	-34,179	-0,076	0,030
-361,898	800,000	-0,035	-0,109
-360,883	-200,000	-0,006	0,027
-359,869	-200,000	-0,022	-0,103
-358,854	800,000	-0,016	0,036
-357,839	-200,000	0,002	0,060
-356,825	322,655	0,054	0,075
-355,810	419,877	0,073	0,114
-354,796	-130,276	-0,052	-0,005
-353,781	-200,000	-0,028	0,134
-352,766	25,676	-0,103	-0,062
-351,752	182,260	0,108	-0,116
-350,737	53,178	0,152	-0,105
-349,723	800,000	0,030	0,074
-348,708	423,944	0,089	0,139
-347,693	155,439	0,028	0,028
-346,679	-120,434	-0,108	-0,013
-345,664	343,270	-0,023	0,032
-344,650	-23,505	0,129	0,056
-343,635	-200,000	0,017	0,089
-342,620	243,019	-0,022	0,027
-341,606	800,000	-0,006	0,018
-340,591	-150,739	-0,136	0,007
-339,577	-75,031	-0,036	0,009
-338,562	800,000	-0,027	-0,064
-337,548	-200,000	-0,016	-0,069
-336,533	800,000	0,075	-0,182
-335,518	610,611	0,040	-0,072
-334,504	-118,684	0,099	-0,013
-333,489	320,170	-0,026	-0,035
-332,475	800,000	0,093	-0,222
-331,460	472,532	-0,062	-0,102
-330,445	61,819	0,029	-0,021
-329,431	-106,306	-0,072	0,012
-328,416	229,428	0,098	0,116
-327,402	-200,000	0,006	-0,038
-326,387	56,216	0,059	0,041
-325,372	558,211	-0,042	0,074
-324,358	-29,003	-0,191	0,079
-323,343	-67,737	0,010	-0,003
-322,329	778,232	-0,048	0,094
-321,314	-200,000	0,018	0,093
-320,299	-107,463	0,080	-0,013
-319,285	800,000	-0,020	-0,061
-318,270	79,387	-0,039	0,030
-317,256	141,381	0,028	-0,026
-316,241	66,078	-0,138	0,101
-315,226	231,372	0,105	0,125
-314,212	63,830	0,009	0,006
-313,197	-200,000	0,018	0,122
-312,183	-200,000	-0,024	0,141
-311,168	800,000	0,014	-0,030
-310,153	66,390	-0,097	0,071
-309,139	-7,460	-0,122	0,060
-308,124	42,603	-0,038	-0,025
-307,110	93,823	-0,058	0,048
-306,095	182,471	0,030	-0,032
-305,080	-200,000	-0,003	0,060
-304,066	172,663	-0,040	-0,042
-303,051	-200,000	0,015	-0,082
-302,037	800,000	-0,031	-0,067
-301,022	258,677	-0,044	-0,055
-300,008	136,670	0,054	-0,051
-298,993	-18,836	0,125	-0,056
-297,978	-200,000	-0,027	0,140
-296,964	471,373	0,078	-0,127
-295,949	800,000	-0,037	-0,104
-294,935	-60,931	0,066	0,020
-293,920	-200,000	-0,002	-0,009
-292,905	-200,000	0,004	0,106
-291,891	-200,000	0,024	0,142
-290,876	-200,000	0,010	0,044
-289,862	92,383	-0,071	0,057
-288,847	800,000	0,081	-0,182
-287,832	450,011	-0,037	-0,059
-286,818	-102,626	-0,009	-0,002
-285,803	355,906	-0,097	0,141
-284,789	120,791	0,070	0,063
-283,774	-51,937	0,040	-0,013
-282,759	-131,405	-0,063	-0,006
-281,745	800,000	-0,029	0,085
-280,730	745,556	-0,057	-0,112
-279,716	-85,227	0,153	0,034
-278,701	390,074	0,044	0,066
-277,686	-200,000	0,024	0,100
-276,672	800,000	-0,026	0,079
-275,657	104,970	-0,050	0,042
-274,643	-200,000	-0,014	-0,131
-273,628	-200,000	0,029	-0,109
-272,613	244,556	0,048	0,059
-271,599	307,783	0,039	-0,052
-270,584	152,941	0,080	-0,079
-269,570	-39,041	0,054	0,021
-268,555	-39,076	-0,123	0,047
-267,540	23,926	-0,174	0,103
-266,526	278,427	0,045	0,058
-265,511	-125,121	0,047	0,005
-264,497	148,656	0,058	-0,057
-263,482	-165,688	0,071	0,002
-262,467	23,933	-0,116	0,069
-261,453	193,188	0,037	-0,041
-260,438	552,102	0,050	-0,087
-259,424	-200,000	0,003	-0,033
-258,409	-200,000	-0,010	-0,048
-257,395	-84,004	0,120	0,027
-256,380	366,358	-0,030	0,044
-255,365	-200,000	-0,017	0,148
-254,351	-200,000	0,076	0,278
-253,336	624,559	-0,014	-0,025
-252,322	26,785	-0,123	-0,074
-251,307	-57,181	-0,069	-0,022
-250,292	145,571	0,058	-0,057
-249,278	-35,015	0,097	-0,038
-248,263	-200,000	0,009	0,085
-247,249	51,544	0,085	0,058
-246,234	-32,799	0,110	-0,044
-245,219	350,495	-0,056	-0,079
-244,205	-160,667	-0,063	0,002
-243,190	-37,777	-0,048	0,018
-242,176	-143,817	0,109	-0,007
-241,161	-200,000	0,023	-0,120
-240,146	15,653	-0,061	0,035
-239,132	-63,140	0,016	-0,005
-238,117	138,811	0,062	-0,059
-237,103	-200,000	-0,018	0,077
-236,088	-61,358	-0,150	-0,045
-235,073	37,536	0,083	0,053
-234,059	800,000	-0,057	-0,115
-233,044	76,244	-0,055	-0,042
-232,030	39,198	0,080	0,051
-231,015	695,308	0,063	-0,121
-230,000	41,439	0,094	0,061
-228,986	136,403	0,093	0,087
-227,971	484,190	0,063	-0,103
-226,957	298,140	0,030	0,040
-225,942	331,347	0,046	-0,064
-224,927	-64,487	-0,071	0,021
-223,913	124,349	-0,027	-0,025
-222,898	200,866	-0,050	-0,056
-221,884	152,897	-0,131	-0,129
-220,869	-165,578	0,049	-0,001
-219,855	-69,186	0,101	-0,028
-218,840	-200,000	-0,025	0,124
-217,825	398,702	-0,014	-0,021
-216,811	374,968	-0,040	-0,059
-215,796	-53,299	0,086	0,028
-214,782	123,289	-0,066	0,060
-213,767	-36,035	0,104	-0,040
-212,752	-200,000	-0,008	0,112
-211,738	763,862	-0,044	0,087
-210,723	800,000	0,005	0,012
-209,709	485,096	-0,010	-0,017
-208,694	800,000	0,053	-0,159
-207,679	-78,734	-0,092	0,022
-206,665	-56,950	-0,089	-0,028
-205,650	16,239	0,147	0,083
-204,636	291,188	-0,068	0,090
-203,621	790,072	0,060	0,120
-202,606	-200,000	-0,001	0,042
-201,592	800,000	0,064	-0,186
-200,577	647,737	-0,049	-0,091
-199,563	-104,105	0,157	-0,026
-198,548	-79,427	0,070	-0,017
-197,533	800,000	0,075	-0,165
-196,519	189,375	0,034	0,037
-195,504	-200,000	-0,000	0,046
-194,490	259,679	0,051	-0,063
-193,475	-41,809	0,048	-0,017
-192,460	132,343	0,128	-0,119
-191,446	800,000	-0,041	0,087
-190,431	800,000	0,044	0,134
-189,417	15,841	-0,096	0,054
-188,402	-55,301	-0,053	-0,017
-187,387	80,146	-0,050	0,039
-186,373	125,726	-0,073	-0,066
-185,358	65,855	0,036	-0,026
-184,344	302,805	0,069	0,092
-183,329	324,138	-0,097	0,134
-182,315	-14,742	0,018	-0,008
-181,300	676,754	-0,035	-0,065
-180,285	-94,496	0,098	-0,019
-179,271	-200,000	0,005	-0,168
-178,256	242,924	-0,054	-0,066
-177,242	74,377	0,027	0,021
-176,227	112,524	-0,049	0,042
-175,212	-200,000	-0,000	0,015
-174,198	-89,961	-0,019	0,004
-173,183	-200,000	0,023	-0,087
-172,169	742,083	-0,031	-0,061
-171,154	-200,000	-0,012	-0,052
-170,139	-122,476	0,040	-0,005
-169,125	-45,628	-0,130	-0,046
-168,110	387,069	0,041	-0,062
-167,096	800,000	-0,015	0,034
-166,081	-44,430	0,052	0,018
-165,066	-200,000	0,007	-0,023
-164,052	-200,000	-0,007	-0,065
-163,037	-200,000	-0,008	-0,032
-162,023	-130,438	-0,042	0,004
-161,008	-193,400	-0,090	0,001
-159,993	-200,000	-0,003	-0,028
-158,979	-200,000	-0,020	-0,086
-157,964	324,672	-0,052	0,072
-156,950	-200,000	-0,007	0,204
-155,935	-12,043	-0,094	-0,044
-154,920	118,729	0,086	0,077
-153,906	339,701	0,116	0,163
-152,891	800,000	0,027	-0,083
-151,877	800,000	-0,023	-0,056
-150,862	-200,000	-0,003	0,028
-149,847	-69,394	0,059	-0,016
-148,833	-99,063	-0,034	-0,006
-147,818	-106,471	0,111	-0,018
-146,804	-49,273	-0,147	0,050
-145,789	-17,009	-0,035	0,016
-144,775	-200,000	-0,025	0,094
-143,760	-77,819	0,107	-0,026
-142,745	-65,592	0,074	0,021
-141,731	118,919	0,066	0,059
-140,716	460,230	-0,007	-0,011
-139,702	359,067	0,074	-0,107
-138,687	-200,000	0,003	-0,081
-137,672	-138,927	0,170	0,013
-136,658	-200,000	-0,007	-0,083
-135,643	646,045	-0,053	-0,097
-134,629	800,000	0,065	0,163
-133,614	800,000	0,006	0,016
-132,599	800,000	-0,040	0,094
-131,585	800,000	0,044	0,102
-130,570	160,626	0,076	0,077
-129,556	-200,000	-0,015	-0,073
-128,541	156,010	0,166	-0,165
-127,526	800,000	-0,054	0,118
-126,512	-78,647	-0,139	0,034
-125,497	-148,216	-0,095	0,006
-124,483	-136,427	0,014	-0,001
-123,468	1,064	-0,052	0,027
-122,453	-49,123	0,042	0,014
-121,439	397,824	0,011	-0,017
-120,424	800,000	-0,047	-0,131
-119,410	400,713	-0,049	0,075
-118,395	-93,175	-0,042	0,008
-117,380	-99,191	-0,063	-0,011
-116,366	-74,744	-0,088	0,023
-115,351	334,896	0,033	0,046
-114,337	315,096	-0,045	0,061
-113,322	-108,904	0,059	0,009
-112,307	281,014	0,073	-0,094
-111,293	243,059	0,016	-0,019
-110,278	-31,592	-0,076	-0,031
-109,264	-200,000	-0,014	0,076
-108,249	-113,798	-0,141	0,020
-107,234	-7,929	0,135	0,065
-106,220	690,386	-0,021	-0,040
-105,205	474,795	0,074	-0,120
-104,191	48,214	-0,093	0,062
-103,176	-200,000	-0,037	-0,124
-102,162	800,000	0,023	-0,070
-101,147	517,948	0,061	0,103
-100,132	-99,218	-0,129	-0,023
-99,118	-200,000	-0,013	-0,069
-98,103	-200,000	0,011	0,049
-97,089	-63,251	0,090	-0,026
-96,074	115,216	-0,034	0,030
-95,059	288,082	0,022	0,029
-94,045	800,000	0,005	-0,016
-93,030	-76,276	-0,069	-0,017
-92,016	-168,919	-0,028	-0,001
-91,001	-91,672	0,071	-0,014
-89,986	-15,800	0,076	-0,034
-88,972	154,446	0,014	-0,014
-87,957	-49,869	0,091	-0,031
-86,943	-200,000	-0,000	-0,226
-85,928	800,000	-0,047	0,135
-84,913	800,000	0,047	-0,143
-83,899	-200,000	0,037	0,130
-82,884	800,000	0,097	0,232
-81,870	61,926	-0,070	-0,050
-80,855	-200,000	0,021	0,169
-79,840	-67,125	-0,102	-0,029
-78,826	63,244	-0,120	-0,086
-77,811	-200,000	-0,030	-0,193
-76,797	-66,371	-0,085	-0,024
-75,782	800,000	-0,032	-0,093
-74,767	-148,504	0,099	0,006
-73,753	451,950	0,035	0,055
-72,738	-200,000	-0,017	-0,053
-71,724	-200,000	0,010	0,052
-70,709	417,863	-0,033	-0,050
-69,694	138,195	-0,068	0,063
-68,680	223,881	-0,034	-0,039
-67,665	-200,000	-0,005	0,056
-66,651	800,000	-0,021	-0,045
-65,636	117,348	-0,106	-0,093
-64,622	7,968	-0,048	-0,025
-63,607	-200,000	0,013	-0,074
-62,592	-88,857	0,132	-0,028
-61,578	800,000	0,021	0,063
-60,563	-37,787	0,114	0,043
-59,549	85,694	-0,110	0,087
-58,534	21,224	-2,199	-1,276
-57,519	-200,000	-0,217	-0,827
-56,505	-200,000	-1,130	-5,064
-55,490	72,266	0,905	0,674
-54,476	800,000	5,383	12,131
-53,461	-200,000	18,169	296,682
-52,446	800,000	731,146	2235,324
-51,432	528,322	1644,543	2789,563
-50,417	107,186	1633,076	1389,844
-49,403	71,191	1284,092	952,694
-48,388	30,239	1024,887	625,218
-47,373	19,809	987,026	567,840
-46,359	17,706	974,677	553,848
-45,344	14,533	970,781	541,268
-44,330	14,879	969,149	541,465
-43,315	14,309	967,250	538,529
-42,300	14,316	965,872	537,761
-41,286	14,307	965,124	537,296
-40,271	14,281	964,365	536,768
-39,257	14,324	963,363	536,328
-38,242	14,275	962,599	535,723
-37,227	14,313	961,720	535,336
-36,213	14,232	960,854	534,570
-35,198	14,227	960,083	534,104
-34,184	14,272	959,268	533,772
-33,169	14,231	958,376	533,124
-32,154	14,320	957,052	532,653
-31,140	14,253	956,458	532,084
-30,125	14,284	955,836	531,817
-29,111	14,259	955,017	531,260
-28,096	14,275	954,355	530,922
-27,082	14,287	953,660	530,554
-26,067	14,327	952,846	530,207
-25,052	14,300	952,011	529,635
-24,038	14,256	951,392	529,130
-23,023	14,277	950,689	528,785
-22,009	14,335	950,208	528,682
-20,994	14,331	949,456	528,230
-19,979	14,331	948,788	527,837
-18,965	14,270	948,184	527,284
-17,950	14,329	947,562	527,108
-16,936	14,267	946,915	526,529
-15,921	14,201	946,353	525,987
-14,906	14,197	945,442	525,447
-13,892	14,093	945,068	524,885
-12,877	14,134	944,352	524,597
-11,863	14,176	943,709	524,354
-10,848	14,177	943,217	524,063
-9,833	14,271	942,876	524,151
-8,819	14,255	942,220	523,713
-7,804	14,211	941,591	523,204
-6,790	14,176	940,836	522,654
-5,775	14,193	940,410	522,449
-4,760	14,204	939,696	522,065
-3,746	14,152	939,217	521,615
-2,731	14,061	938,261	520,777
-1,717	14,001	937,613	520,209
-0,702	13,981	937,093	519,837
0,313	13,829	936,431	519,775
1,327	17,350	934,298	529,594
2,342	26,551	786,512	469,932
3,356	22,808	442,322	258,750
4,371	-6,911	295,009	142,946
5,386	-10,820	276,742	130,388
6,400	-12,241	271,093	126,399
7,415	-12,304	268,811	125,266
8,429	-12,316	267,413	124,591
9,444	-12,461	266,664	124,100
10,459	-12,405	265,793	123,735
11,473	-12,643	265,304	123,280
12,488	-12,769	264,850	122,944
13,502	-12,781	264,022	122,538
14,517	-12,822	263,631	122,309
15,531	-12,667	263,291	122,279
16,546	-12,555	262,849	122,163
17,561	-12,577	262,614	122,023
18,575	-12,669	262,357	121,811
19,590	-12,713	261,903	121,550
20,604	-12,617	261,741	121,550
21,619	-12,566	261,232	121,348
22,634	-12,863	260,876	120,908
23,648	-12,607	260,474	120,937
24,663	-12,641	260,342	120,835
25,677	-12,433	259,984	120,843
26,692	-12,550	259,834	120,659
27,707	-12,718	259,665	120,421
28,721	-12,792	259,306	120,178
29,736	-12,646	258,981	120,146
30,750	-12,616	258,789	120,072
31,765	-12,717	258,458	119,819
32,780	-12,595	258,221	119,806
33,794	-12,596	258,078	119,727
34,809	-12,709	257,876	119,524
35,823	-12,677	257,499	119,367
36,838	-12,728	257,197	119,172
37,853	-12,642	257,022	119,155
38,867	-12,751	256,841	118,965
39,882	-12,852	256,676	118,790
40,896	-12,808	256,445	118,711
41,911	-12,843	256,246	118,578
42,926	-12,795	255,982	118,487
43,940	-12,868	255,598	118,235
44,955	-12,992	255,555	118,096
45,969	-12,985	255,217	117,936
46,984	-12,960	255,046	117,868
47,999	-13,193	254,775	117,530
49,013	-13,225	254,554	117,390
50,028	-13,259	254,199	117,186
51,042	-13,448	253,813	116,834
52,057	-13,492	253,625	116,700
53,071	-13,452	253,475	116,654
54,086	-13,331	253,296	116,666
55,101	-13,240	253,228	116,703
56,115	-12,937	253,008	116,852
57,130	-12,662	253,056	117,100
58,144	-12,572	252,743	117,023
59,159	-12,475	252,489	116,978
60,174	-12,622	252,268	116,739
61,188	-12,613	252,048	116,634
62,203	-12,630	252,004	116,589
63,217	-12,648	251,636	116,393
64,232	-12,660	251,596	116,354
65,247	-12,773	251,144	116,039
66,261	-12,605	251,001	116,105
67,276	-12,647	250,535	115,844
68,290	-12,754	250,533	115,741
69,305	-13,136	250,191	115,248
70,320	-12,890	249,946	115,334
71,334	-12,594	249,865	115,537
72,349	-12,628	249,671	115,408
73,363	-12,615	249,571	115,363
74,378	-12,783	249,343	115,105
75,393	-12,549	249,012	115,140
76,407	-12,581	248,930	115,065
77,422	-12,664	248,742	114,897
78,436	-12,587	248,440	114,813
79,451	-12,632	248,170	114,640
80,466	-12,691	247,953	114,480
81,480	-12,906	247,982	114,302
82,495	-12,836	247,665	114,205
83,509	-12,888	247,548	114,096
84,524	-12,767	247,250	114,050
85,539	-12,753	246,918	113,899
86,553	-13,128	246,859	113,547
87,568	-13,057	246,713	113,529
88,582	-12,644	246,433	113,736
89,597	-12,993	246,290	113,368
90,611	-12,822	246,114	113,420
91,626	-12,644	245,912	113,465
92,641	-12,792	245,743	113,254
93,655	-12,829	245,538	113,118
94,670	-12,720	245,333	113,105
95,684	-12,777	245,178	112,975
96,699	-12,839	244,990	112,827
97,714	-12,737	244,780	112,805
98,728	-12,936	244,577	112,536
99,743	-13,056	244,504	112,393
100,757	-13,049	244,155	112,228
101,772	-13,117	244,030	112,105
102,787	-12,850	243,671	112,151
103,801	-12,702	243,624	112,241
104,816	-12,708	243,430	112,136
105,830	-12,752	243,316	112,038
106,845	-12,692	243,275	112,059
107,860	-12,637	242,998	111,967
108,874	-12,858	242,813	111,689
109,889	-12,724	242,516	111,653
110,903	-12,868	242,379	111,461
111,918	-12,858	242,175	111,366
112,933	-12,770	241,920	111,310
113,947	-12,621	241,778	111,358
114,962	-12,528	241,524	111,306
115,976	-12,620	241,461	111,192
116,991	-12,642	241,212	111,050
118,006	-12,613	240,954	110,945
119,020	-12,773	240,976	110,815
120,035	-12,849	240,905	110,710
121,049	-12,539	240,585	110,805
122,064	-12,439	240,454	110,817
123,079	-12,613	240,262	110,577
124,093	-12,799	239,968	110,281
125,108	-12,990	239,786	110,033
126,122	-13,017	239,670	109,948
127,137	-12,888	239,253	109,851
128,151	-12,890	239,199	109,814
129,166	-12,977	238,959	109,624
130,181	-12,989	238,914	109,584
131,195	-12,959	238,727	109,513
132,210	-12,875	238,481	109,458
133,224	-12,460	238,423	109,756
134,239	-12,778	238,407	109,482
135,254	-12,662	237,940	109,352
136,268	-12,720	237,803	109,232
137,283	-13,040	237,521	108,837
138,297	-13,147	237,319	108,648
139,312	-13,144	237,152	108,564
140,327	-12,844	237,116	108,779
141,341	-12,399	237,012	109,077
142,356	-12,252	236,861	109,116
143,370	-12,357	236,596	108,900
144,385	-12,460	236,507	108,768
145,400	-12,604	236,547	108,661
146,414	-12,610	236,200	108,487
147,429	-12,595	235,992	108,394
148,443	-12,467	235,683	108,344
149,458	-12,484	235,593	108,280
150,473	-12,570	235,638	108,222
151,487	-12,656	235,317	107,997
152,502	-12,449	235,088	108,046
153,516	-12,441	234,942	107,977
154,531	-12,531	234,806	107,833
155,546	-12,652	234,539	107,605
156,560	-12,611	234,443	107,584
157,575	-12,489	234,012	107,472
158,589	-12,445	234,070	107,524
159,604	-12,711	234,022	107,282
160,619	-12,272	233,684	107,464
161,633	-12,320	233,583	107,370
162,648	-12,312	233,422	107,292
163,662	-12,499	233,341	107,099
164,677	-12,569	233,253	106,994
165,692	-12,492	233,004	106,930
166,706	-12,662	232,972	106,773
167,721	-12,220	232,785	107,024
168,735	-12,090	232,470	106,972
169,750	-12,279	232,460	106,810
170,764	-12,470	232,236	106,548
171,779	-12,520	232,211	106,488
172,794	-12,404	232,000	106,472
173,808	-12,614	231,751	106,184
174,823	-12,911	231,451	105,806
175,837	-13,159	231,316	105,542
176,852	-12,633	231,173	105,876
177,867	-12,473	231,046	105,934
178,881	-12,696	231,046	105,750
179,896	-12,543	230,807	105,751
180,910	-12,324	230,696	105,861
181,925	-12,418	230,407	105,645
182,940	-12,347	230,269	105,627
183,954	-12,365	230,196	105,571
184,969	-12,471	230,147	105,457
185,983	-12,338	229,951	105,460
186,998	-12,073	229,783	105,579
188,013	-12,205	229,597	105,382
189,027	-12,267	229,650	105,349
190,042	-12,369	229,194	105,052
191,056	-12,293	229,075	105,047
192,071	-12,211	228,911	105,025
193,086	-12,324	228,697	104,830
194,100	-12,247	228,736	104,899
195,115	-12,703	228,189	104,289
196,129	-13,273	228,182	103,838
197,144	-7,595	229,853	108,974
198,159	-1,853	231,659	114,278
199,173	1,335	232,549	117,185
200,188	1,913	232,631	117,665
201,202	1,726	232,339	117,361
202,217	1,877	232,374	117,486
203,232	2,076	232,133	117,507
204,246	2,051	232,069	117,445
205,261	2,431	231,840	117,613
206,275	2,294	231,877	117,515
207,290	2,443	231,646	117,502
208,304	2,275	231,419	117,247
209,319	2,282	231,243	117,153
210,334	2,377	230,990	117,088
211,348	2,127	230,977	116,878
212,363	1,798	230,598	116,423
213,377	1,712	230,415	116,254
214,392	1,624	230,356	116,147
215,407	1,805	230,273	116,233
216,421	1,715	230,158	116,095
217,436	1,688	229,814	115,891
218,450	1,561	229,588	115,670
219,465	1,444	229,478	115,515
220,480	1,630	229,200	115,507
221,494	1,609	229,205	115,483
222,509	1,703	229,263	115,573
223,523	1,951	228,935	115,587
224,538	1,876	228,708	115,405
225,553	1,580	228,635	115,132
226,567	1,552	228,590	115,078
227,582	1,942	228,476	115,306
228,596	2,101	228,440	115,399
229,611	2,042	228,084	115,165
230,626	1,596	227,709	114,627
231,640	1,674	227,584	114,613
232,655	1,969	227,560	114,814
233,669	2,294	227,489	115,014
234,684	2,401	227,426	115,053
235,699	2,041	227,293	114,702
236,713	1,887	227,100	114,479
237,728	1,814	226,716	114,220
238,742	1,675	226,516	114,004
239,757	1,874	226,573	114,173
240,772	1,587	226,432	113,875
241,786	1,699	226,216	113,841
242,801	2,034	226,062	114,005
243,815	2,329	226,091	114,231
244,830	2,171	226,037	114,075
245,844	1,829	225,576	113,576
246,859	2,047	225,457	113,669
247,874	2,055	225,396	113,634
248,888	2,081	225,222	113,556
249,903	1,867	225,172	113,360
250,917	1,772	224,864	113,124
251,932	1,771	224,837	113,100
252,947	1,453	224,667	112,767
253,961	1,477	224,349	112,615
254,976	1,640	224,302	112,703
255,990	1,868	224,353	112,888
257,005	2,134	224,122	112,960
258,020	2,125	223,892	112,827
259,034	1,980	223,954	112,740
260,049	1,896	223,764	112,573
261,063	2,109	223,570	112,624
262,078	2,136	223,466	112,580
263,093	2,012	223,468	112,479
264,107	2,071	223,140	112,348
265,122	2,099	223,016	112,297
266,136	2,367	222,838	112,395
267,151	2,187	222,757	112,211
268,166	1,974	222,324	111,826
269,180	1,545	222,298	111,487
270,195	1,627	222,237	111,507
271,209	1,688	222,077	111,461
272,224	1,676	221,900	111,353
273,239	1,714	221,846	111,344
274,253	1,769	221,608	111,255
275,268	1,486	221,509	110,988
276,282	1,603	221,244	110,931
277,297	1,399	221,020	110,659
278,312	1,765	220,964	110,890
279,326	1,773	220,912	110,859
280,341	1,843	220,752	110,820
281,355	1,794	220,699	110,749
282,370	1,971	220,439	110,737
283,384	1,483	220,401	110,352
284,399	1,474	220,100	110,185
285,414	1,560	220,090	110,233
286,428	1,679	219,958	110,243
287,443	1,892	219,953	110,386
288,457	2,156	219,691	110,437
289,472	1,768	219,464	110,031
290,487	1,507	219,322	109,761
291,501	1,463	218,992	109,554
292,516	1,384	218,973	109,477
293,530	1,424	218,954	109,487
294,545	1,507	218,649	109,384
295,560	1,650	218,694	109,500
296,574	1,849	218,454	109,515
297,589	1,746	218,386	109,396
298,603	1,916	218,180	109,406
299,618	1,676	218,105	109,186
300,633	1,607	218,067	109,107
301,647	1,977	217,981	109,321
302,662	2,016	217,628	109,162
303,676	2,224	217,526	109,251
304,691	2,003	217,435	109,037
305,706	2,006	217,364	108,994
306,720	2,066	217,067	108,878
307,735	1,639	217,030	108,544
308,749	1,560	216,863	108,394
309,764	2,064	216,773	108,700
310,779	2,168	216,644	108,700
311,793	1,821	216,447	108,344
312,808	1,915	216,437	108,396
313,822	2,022	216,108	108,298
314,837	1,865	216,000	108,123
315,852	1,567	215,858	107,828
316,866	1,694	215,828	107,895
317,881	1,885	215,822	108,018
318,895	1,948	215,435	107,860
319,910	1,640	215,333	107,581
320,925	1,597	215,001	107,374
321,939	1,118	214,851	106,949
322,954	1,511	214,828	107,208
323,968	1,806	214,882	107,434
324,983	2,007	214,776	107,514
325,997	2,310	214,573	107,618
327,012	1,916	214,597	107,341
328,027	1,928	214,362	107,222
329,041	2,256	214,138	107,332
330,056	2,227	214,094	107,280
331,070	1,906	213,959	106,977
332,085	1,862	213,697	106,805
333,100	1,865	213,515	106,707
334,114	2,115	213,397	106,814
335,129	2,000	213,253	106,652
336,143	1,795	213,200	106,472
337,158	1,809	213,011	106,378
338,173	1,907	212,783	106,323
339,187	1,664	212,791	106,147
340,202	1,455	212,551	105,872
341,216	1,648	212,289	105,866
342,231	1,525	212,288	105,771
343,246	1,503	212,150	105,677
344,260	1,811	212,187	105,901
345,275	2,274	212,096	106,170
346,289	2,390	211,949	106,168
347,304	2,128	211,626	105,814
348,319	1,990	211,498	105,645
349,333	1,892	211,450	105,543
350,348	1,997	211,304	105,534
351,362	2,116	211,223	105,566
352,377	2,092	211,104	105,481
353,392	1,919	210,983	105,291
354,406	2,040	210,843	105,296
355,421	196,603	1317,460	1394,580
356,435	157,183	1452,247	1394,543
