DTS Sentinel unit serial number:	SN410029Multiplexer serial number:	ORYXHardware model number:	OX2-SRSoftware version number:	ORYX F/W v4,00 Oryx Data Collector v3.7.2.0data status	okinstallation	B6 Nyhavnadifferential loss correction	single-endedforward channel	channel 2reverse channel	N/Adate	2023/12/08time	10:15:08forward acquisition time	300,00reverse acquisition time	0,00gamma	499,1914k internal	0,3164k external	0,3164temperature offset calibration	1,0000default loss term (dB/km)	0,3820temperature slope calibration	1,0000multiplexer offset coefficient	1,0000multiplexer slope coefficient	1,0000fibre end	0,00T internal ref (°C)	14,20T ext. ref 1 (°C)	-1,39T ext. ref 2 (°C)	-1,37length (m)	temperature (°C)	Stokes	anti-Stokes-744,400	-164,220	0,123	0,004
-743,385	-47,152	-0,230	0,082
-742,371	-8,693	0,062	0,031
-741,356	-163,912	-0,293	0,010
-740,342	-101,771	0,160	-0,028
-739,327	-65,765	-0,267	0,078
-738,312	265,281	0,047	-0,061
-737,298	-11,258	-0,245	-0,118
-736,283	201,992	0,039	0,044
-735,269	-53,882	-0,220	0,073
-734,254	46,797	0,154	0,105
-733,239	16,944	-0,482	-0,280
-732,225	-14,241	0,098	0,046
-731,210	740,639	0,023	0,046
-730,196	727,661	0,046	0,091
-729,181	147,568	-0,093	-0,092
-728,167	-200,000	0,002	0,096
-727,152	800,000	0,060	-0,160
-726,137	-200,000	-0,018	-0,102
-725,123	800,000	-0,009	-0,028
-724,108	-107,197	-0,140	-0,022
-723,094	85,997	-0,177	-0,143
-722,079	621,938	-0,040	-0,075
-721,064	604,340	0,016	0,030
-720,050	82,524	-0,036	0,029
-719,035	-51,413	0,118	0,040
-718,021	-20,806	0,013	0,006
-717,006	108,310	-0,137	-0,120
-715,991	55,496	-0,120	-0,085
-714,977	800,000	-0,067	-0,181
-713,962	29,808	-0,054	0,034
-712,948	800,000	-0,044	0,101
-711,933	492,338	0,095	-0,161
-710,918	800,000	-0,028	-0,064
-709,904	52,752	-0,073	0,051
-708,889	-9,434	-0,107	0,053
-707,875	-134,479	-0,076	-0,007
-706,860	-200,000	-0,006	-0,028
-705,845	-68,713	0,168	-0,047
-704,831	359,303	0,101	0,148
-703,816	56,956	-0,058	0,042
-702,802	-51,457	-0,185	-0,063
-701,787	281,730	0,054	-0,071
-700,772	-200,000	-0,010	-0,239
-699,758	139,936	-0,070	0,067
-698,743	-69,701	-0,118	-0,033
-697,729	800,000	0,022	-0,059
-696,714	162,270	-0,140	-0,144
-695,699	27,101	0,032	-0,019
-694,685	-69,209	0,129	-0,036
-693,670	84,768	-0,062	0,050
-692,656	404,673	0,014	0,021
-691,641	333,210	0,016	0,023
-690,627	800,000	-0,051	-0,134
-689,612	-46,694	-0,075	-0,027
-688,597	-200,000	0,004	-0,088
-687,583	-38,548	-0,101	-0,039
-686,568	-40,875	-0,085	0,032
-685,554	-23,697	-0,061	-0,027
-684,539	436,310	-0,063	-0,101
-683,524	-115,243	0,094	-0,013
-682,510	-200,000	0,002	0,028
-681,495	-200,000	0,015	-0,069
-680,481	-82,701	-0,071	0,017
-679,466	386,197	-0,064	0,097
-678,451	-161,611	0,116	-0,004
-677,437	-200,000	0,003	0,114
-676,422	-46,124	0,046	0,016
-675,408	57,563	0,141	-0,101
-674,393	800,000	0,009	-0,023
-673,378	-79,766	-0,114	-0,028
-672,364	-200,000	0,013	-0,060
-671,349	-200,000	0,033	0,118
-670,335	-22,491	0,148	0,065
-669,320	-21,281	0,061	0,027
-668,305	-73,835	0,057	-0,015
-667,291	247,539	-0,072	0,090
-666,276	207,765	-0,015	0,017
-665,262	-200,000	-0,025	0,092
-664,247	210,695	0,040	-0,047
-663,232	-140,452	0,020	0,001
-662,218	742,214	-0,045	0,089
-661,203	316,027	-0,013	0,018
-660,189	-31,261	0,030	-0,012
-659,174	582,744	0,011	0,020
-658,159	-124,883	-0,095	-0,011
-657,145	-200,000	0,001	0,027
-656,130	-111,375	0,102	0,015
-655,116	-54,428	-0,055	0,018
-654,101	119,033	-0,023	0,021
-653,086	-200,000	-0,031	-0,120
-652,072	-200,000	-0,021	-0,085
-651,057	-200,000	0,004	0,141
-650,043	40,520	-0,054	-0,036
-649,028	226,900	-0,106	-0,127
-648,014	5,185	0,118	-0,064
-646,999	-200,000	0,020	-0,070
-645,984	800,000	0,043	-0,124
-644,970	-148,564	-0,040	0,002
-643,955	186,293	-0,023	-0,025
-642,941	192,480	0,024	0,027
-641,926	-47,924	0,086	0,030
-640,911	-96,602	0,140	0,027
-639,897	-200,000	-0,002	-0,036
-638,882	55,490	-0,142	0,101
-637,868	-164,005	-0,079	0,003
-636,853	7,585	-0,047	-0,025
-635,838	-85,229	0,045	0,010
-634,824	-200,000	0,023	-0,107
-633,809	-120,724	0,039	-0,005
-632,795	-88,173	0,062	-0,014
-631,780	-129,348	0,120	-0,012
-630,765	-160,385	0,065	-0,003
-629,751	-104,582	-0,074	0,012
-628,736	-94,487	-0,099	0,020
-627,722	-200,000	0,020	-0,151
-626,707	342,228	0,051	0,073
-625,692	-200,000	-0,005	-0,051
-624,678	103,127	-0,074	0,063
-623,663	-200,000	0,006	-0,073
-622,649	-200,000	-0,005	-0,055
-621,634	291,221	0,056	0,074
-620,619	191,749	-0,109	0,120
-619,605	-200,000	0,005	0,052
-618,590	173,920	0,058	-0,061
-617,576	377,697	-0,072	-0,109
-616,561	-49,488	0,128	0,045
-615,546	468,544	-0,063	0,104
-614,532	-73,925	-0,023	-0,006
-613,517	-200,000	0,015	0,110
-612,503	-200,000	0,017	0,072
-611,488	-167,085	0,094	0,003
-610,474	597,784	0,048	0,087
-609,459	-54,886	-0,163	-0,054
-608,444	-15,650	0,022	0,010
-607,430	-200,000	0,005	-0,124
-606,415	-60,562	-0,109	-0,034
-605,401	-200,000	0,005	-0,189
-604,386	18,254	0,082	0,047
-603,371	-200,000	0,005	0,035
-602,357	-131,171	-0,083	0,008
-601,342	388,345	0,049	0,074
-600,328	98,506	-0,099	-0,084
-599,313	-131,264	-0,079	-0,008
-598,298	800,000	-0,015	-0,044
-597,284	238,321	0,086	0,105
-596,269	386,963	-0,040	-0,061
-595,255	302,347	0,089	0,121
-594,240	800,000	-0,072	-0,150
-593,225	-148,763	-0,144	-0,008
-592,211	-132,199	-0,053	0,005
-591,196	241,558	-0,088	-0,107
-590,182	-200,000	0,006	0,045
-589,167	-145,658	0,122	-0,008
-588,152	531,385	0,106	0,185
-587,138	800,000	0,042	-0,101
-586,123	-132,978	-0,180	-0,017
-585,109	-168,447	0,021	0,001
-584,094	66,978	0,043	0,032
-583,079	-200,000	0,020	0,093
-582,065	150,811	0,041	0,041
-581,050	421,214	-0,064	0,100
-580,036	-26,523	0,020	-0,009
-579,021	800,000	-0,016	0,044
-578,006	800,000	0,105	-0,229
-576,992	71,213	-0,174	0,132
-575,977	-194,353	0,173	-0,001
-574,963	800,000	0,019	0,050
-573,948	-34,852	-0,042	-0,017
-572,934	-148,240	-0,089	-0,005
-571,919	88,758	-0,013	-0,011
-570,904	34,553	0,078	0,049
-569,890	-200,000	-0,056	-0,184
-568,875	-61,487	-0,017	-0,005
-567,861	-200,000	-0,012	-0,085
-566,846	800,000	-0,090	0,203
-565,831	-200,000	-0,018	-0,064
-564,817	-200,000	-0,010	-0,036
-563,802	800,000	-0,081	-0,173
-562,788	800,000	-0,015	-0,039
-561,773	165,588	0,067	-0,070
-560,758	314,444	0,059	0,081
-559,744	371,822	-0,073	-0,108
-558,729	-87,864	-0,053	-0,012
-557,715	44,209	-0,145	0,097
-556,700	104,467	0,049	-0,042
-555,685	-69,735	0,094	0,026
-554,671	-200,000	0,017	0,078
-553,656	-200,000	-0,016	0,093
-552,642	29,233	0,054	-0,033
-551,627	48,013	0,099	-0,067
-550,612	768,349	-0,021	-0,043
-549,598	148,724	0,119	-0,118
-548,583	33,708	-0,039	0,024
-547,569	800,000	0,057	-0,129
-546,554	-97,015	-0,096	-0,018
-545,539	228,271	-0,086	0,103
-544,525	800,000	0,052	0,136
-543,510	-61,656	-0,102	-0,031
-542,496	164,964	0,081	0,083
-541,481	-200,000	0,008	-0,044
-540,466	4,648	-0,081	0,043
-539,452	-69,276	0,028	0,008
-538,437	373,421	0,078	0,117
-537,423	680,692	0,062	-0,118
-536,408	800,000	0,024	0,072
-535,393	-126,841	-0,061	-0,006
-534,379	86,664	-0,076	-0,061
-533,364	-200,000	-0,006	-0,106
-532,350	595,493	-0,064	0,116
-531,335	-200,000	0,024	0,103
-530,321	152,279	0,068	-0,068
-529,306	-63,224	-0,033	0,010
-528,291	-200,000	0,012	-0,132
-527,277	158,550	0,041	-0,042
-526,262	-17,821	0,101	0,046
-525,248	-110,667	0,051	-0,008
-524,233	800,000	0,093	0,193
-523,218	-146,749	-0,132	-0,008
-522,204	316,576	-0,143	-0,198
-521,189	275,489	0,059	0,076
-520,175	-200,000	-0,016	0,054
-519,160	565,788	0,072	0,128
-518,145	669,515	-0,031	0,059
-517,131	-200,000	0,011	0,058
-516,116	-8,214	-0,004	-0,002
-515,102	789,345	0,036	-0,073
-514,087	-200,000	0,010	-0,089
-513,072	-200,000	-0,003	0,034
-512,058	800,000	0,034	0,098
-511,043	667,225	-0,032	0,060
-510,029	800,000	0,058	0,129
-509,014	53,520	-0,111	-0,077
-507,999	-200,000	0,009	0,093
-506,985	68,621	-0,026	0,019
-505,970	339,116	-0,076	-0,108
-504,956	625,218	-0,020	-0,036
-503,941	114,063	-0,051	-0,045
-502,926	49,242	-0,126	-0,086
-501,912	623,937	-0,033	0,062
-500,897	49,968	-0,028	-0,019
-499,883	800,000	-0,031	0,101
-498,868	110,825	-0,152	0,133
-497,853	62,640	0,112	0,082
-496,839	-200,000	-0,039	0,125
-495,824	105,961	0,037	0,032
-494,810	-200,000	-0,000	0,177
-493,795	800,000	-0,029	0,087
-492,781	44,164	-0,031	0,021
-491,766	272,735	-0,040	0,052
-490,751	193,365	-0,074	-0,082
-489,737	800,000	-0,015	-0,048
-488,722	593,866	-0,054	-0,097
-487,708	706,732	0,038	-0,074
-486,693	253,216	0,075	0,093
-485,678	-200,000	-0,005	0,092
-484,664	-74,315	-0,085	0,022
-483,649	-200,000	-0,021	-0,086
-482,635	-200,000	-0,014	-0,104
-481,620	-105,870	0,196	0,032
-480,605	-124,515	0,103	-0,012
-479,591	-139,414	-0,162	0,012
-478,576	264,822	-0,029	0,037
-477,562	549,306	-0,041	-0,072
-476,547	77,808	-0,071	0,055
-475,532	-200,000	0,026	0,101
-474,518	110,269	-0,084	0,073
-473,503	-62,261	0,117	0,035
-472,489	231,161	-0,020	0,024
-471,474	250,377	-0,041	-0,051
-470,459	-36,863	-0,160	0,062
-469,445	202,285	-0,017	-0,019
-468,430	427,923	-0,069	-0,109
-467,416	239,276	-0,052	0,063
-466,401	-169,422	0,087	-0,002
-465,386	370,542	-0,045	0,066
-464,372	-156,398	0,198	0,009
-463,357	-200,000	-0,005	0,085
-462,343	800,000	-0,002	-0,005
-461,328	-38,441	0,104	-0,040
-460,313	-200,000	-0,056	0,214
-459,299	11,410	0,157	0,087
-458,284	-61,402	0,044	0,013
-457,270	-200,000	0,018	0,121
-456,255	-144,590	-0,116	0,008
-455,241	-200,000	-0,025	-0,107
-454,226	800,000	-0,031	-0,066
-453,211	-74,659	-0,034	0,009
-452,197	-200,000	-0,008	0,153
-451,182	69,751	0,088	0,066
-450,168	292,879	0,060	0,080
-449,153	800,000	-0,048	-0,141
-448,138	58,233	0,080	0,057
-447,124	-102,734	-0,105	-0,018
-446,109	-200,000	0,007	-0,043
-445,095	-37,298	0,044	0,017
-444,080	800,000	0,059	0,159
-443,065	206,402	0,080	0,091
-442,051	171,657	-0,090	0,094
-441,036	66,200	-0,049	-0,036
-440,022	-161,858	-0,051	-0,002
-439,007	800,000	-0,090	-0,184
-437,992	800,000	-0,029	-0,081
-436,978	-200,000	-0,014	-0,096
-435,963	483,406	0,030	0,051
-434,949	13,281	-0,108	-0,060
-433,934	40,995	-0,092	0,061
-432,919	460,570	-0,052	0,085
-431,905	58,955	0,064	-0,045
-430,890	800,000	0,040	-0,108
-429,876	-200,000	0,001	0,065
-428,861	-22,386	-0,058	0,026
-427,846	363,838	-0,016	0,024
-426,832	800,000	0,042	0,093
-425,817	-200,000	-0,013	0,053
-424,803	203,287	-0,059	0,066
-423,788	-200,000	-0,016	-0,144
-422,773	-200,000	-0,024	-0,169
-421,759	-100,849	0,065	0,011
-420,744	260,328	0,055	-0,070
-419,730	-109,332	-0,133	0,020
-418,715	-92,794	0,066	-0,013
-417,701	-8,171	-0,015	0,007
-416,686	0,745	0,058	0,030
-415,671	246,379	0,078	0,096
-414,657	58,749	0,137	0,098
-413,642	-140,554	-0,099	-0,007
-412,628	326,708	0,056	0,078
-411,613	-91,464	-0,026	-0,005
-410,598	551,392	-0,032	-0,056
-409,584	169,667	0,012	-0,012
-408,569	25,979	0,051	0,031
-407,555	-200,000	0,003	0,064
-406,540	31,846	-0,094	0,059
-405,525	-0,123	0,081	0,042
-404,511	-190,738	0,110	-0,001
-403,496	8,168	0,107	-0,058
-402,482	-183,911	-0,096	-0,001
-401,467	25,809	0,141	0,085
-400,452	-52,957	0,114	0,038
-399,438	183,485	-0,064	-0,069
-398,423	-200,000	-0,001	-0,087
-397,409	62,861	-0,092	-0,067
-396,394	-167,397	-0,009	0,000
-395,379	800,000	-0,022	-0,045
-394,365	166,359	0,061	0,063
-393,350	521,388	-0,096	0,164
-392,336	-163,380	0,116	0,004
-391,321	16,483	0,099	0,057
-390,306	800,000	-0,040	-0,081
-389,292	-102,291	-0,114	0,020
-388,277	574,703	0,051	0,091
-387,263	125,628	0,076	-0,069
-386,248	-200,000	0,000	0,084
-385,233	-123,885	0,134	-0,015
-384,219	-133,248	-0,078	0,007
-383,204	445,152	0,048	-0,076
-382,190	-200,000	0,010	-0,072
-381,175	31,427	0,042	-0,026
-380,160	-149,593	0,123	0,007
-379,146	-28,889	0,060	0,025
-378,131	-200,000	-0,014	-0,053
-377,117	-100,119	-0,051	-0,009
-376,102	-200,000	-0,008	0,088
-375,088	178,688	0,043	-0,046
-374,073	156,671	-0,111	-0,111
-373,058	-200,000	-0,023	0,172
-372,044	-82,594	0,010	0,002
-371,029	333,230	0,060	0,085
-370,015	189,559	-0,012	-0,013
-369,000	-200,000	-0,005	-0,075
-367,985	-200,000	-0,055	-0,206
-366,971	-89,734	0,086	-0,018
-365,956	-35,604	-0,170	0,067
-364,942	84,653	0,125	0,099
-363,927	-99,276	0,028	-0,005
-362,912	20,453	0,068	0,040
-361,898	12,936	-0,080	-0,045
-360,883	101,945	-0,092	-0,078
-359,869	211,448	-0,062	-0,071
-358,854	376,322	-0,033	-0,049
-357,839	41,687	0,192	0,126
-356,825	-200,000	0,019	-0,115
-355,810	-55,824	-0,153	0,049
-354,796	-142,873	-0,103	-0,007
-353,781	82,770	0,155	-0,122
-352,766	-124,642	-0,042	0,005
-351,752	800,000	-0,016	0,048
-350,737	12,988	-0,065	0,036
-349,723	505,643	-0,088	0,148
-348,708	62,653	-0,094	-0,068
-347,693	-130,530	-0,059	-0,006
-346,679	-6,558	-0,156	-0,077
-345,664	-44,028	-0,144	-0,052
-344,650	-97,028	0,167	-0,031
-343,635	-200,000	0,031	0,120
-342,620	-43,365	0,069	0,025
-341,606	-107,571	0,128	0,020
-340,591	-186,104	0,134	0,001
-339,577	-60,506	-0,174	-0,053
-338,562	70,101	-0,065	-0,048
-337,548	-200,000	0,023	-0,144
-336,533	-200,000	-0,000	-0,048
-335,518	-200,000	-0,009	-0,061
-334,504	800,000	-0,010	0,025
-333,489	-49,305	0,091	0,031
-332,475	557,985	0,031	-0,055
-331,460	-6,003	-0,045	0,022
-330,445	-200,000	-0,009	0,083
-329,431	223,054	-0,006	-0,007
-328,416	-200,000	0,026	-0,121
-327,402	800,000	-0,019	0,057
-326,387	-128,720	-0,162	0,016
-325,372	177,127	0,029	-0,031
-324,358	-200,000	0,002	0,021
-323,343	-200,000	-0,004	0,027
-322,329	29,433	0,102	0,062
-321,314	55,322	0,016	0,011
-320,299	181,952	0,073	-0,078
-319,285	476,329	0,052	-0,085
-318,270	-114,983	-0,151	0,020
-317,256	100,995	-0,115	-0,097
-316,241	-200,000	0,002	0,015
-315,226	133,857	-0,066	-0,062
-314,212	-93,107	0,172	0,034
-313,197	-168,540	0,086	-0,002
-312,183	-42,929	-0,052	0,019
-311,168	9,751	-0,048	0,026
-310,153	286,549	-0,028	0,036
-309,139	-200,000	0,021	0,173
-308,124	428,859	-0,008	-0,013
-307,110	172,767	-0,022	-0,022
-306,095	-143,501	0,117	0,008
-305,080	-30,122	-0,083	0,034
-304,066	800,000	-0,051	-0,111
-303,051	-149,538	-0,095	-0,005
-302,037	337,801	-0,078	0,110
-301,022	-133,685	-0,090	-0,008
-300,008	20,739	-0,020	0,012
-298,993	-200,000	-0,006	-0,083
-297,978	-200,000	-0,001	-0,026
-296,964	59,414	-0,197	-0,140
-295,949	800,000	0,020	0,050
-294,935	-200,000	-0,008	-0,063
-293,920	55,536	0,046	0,032
-292,905	75,677	0,142	0,109
-291,891	-161,461	0,026	0,001
-290,876	-16,913	0,076	-0,035
-289,862	-38,601	-0,036	-0,014
-288,847	55,399	-0,046	-0,032
-287,832	-166,521	0,110	-0,003
-286,818	-24,183	0,026	0,011
-285,803	-148,361	0,090	0,005
-284,789	122,203	0,110	0,100
-283,774	41,819	0,044	0,029
-282,759	800,000	0,020	-0,054
-281,745	-200,000	-0,016	-0,094
-280,730	-200,000	-0,006	-0,066
-279,716	145,457	-0,108	-0,105
-278,701	-200,000	-0,022	0,126
-277,686	-29,925	0,015	-0,006
-276,672	-27,118	0,103	0,043
-275,657	-70,079	0,085	0,023
-274,643	598,879	-0,087	-0,156
-273,628	-100,872	0,060	-0,011
-272,613	22,834	0,115	-0,068
-271,599	-46,839	0,193	0,068
-270,584	450,228	-0,045	-0,072
-269,570	-54,023	0,080	0,026
-268,555	-35,196	0,169	0,066
-267,540	800,000	-0,022	0,056
-266,526	800,000	-0,009	0,026
-265,511	248,482	0,051	-0,063
-264,497	-134,666	-0,045	0,004
-263,482	800,000	0,079	-0,175
-262,467	142,955	-0,078	-0,075
-261,453	800,000	0,054	0,120
-260,438	33,992	0,069	-0,043
-259,424	34,960	-0,025	0,016
-258,409	-179,851	0,138	0,002
-257,395	-200,000	-0,015	-0,093
-256,380	88,157	-0,059	-0,047
-255,365	-200,000	0,003	-0,014
-254,351	-200,000	0,012	-0,103
-253,336	62,357	0,020	0,014
-252,322	-123,801	-0,062	0,007
-251,307	-61,033	-0,083	-0,025
-250,292	350,502	0,054	-0,077
-249,278	367,452	0,030	0,044
-248,263	800,000	0,005	0,016
-247,249	201,307	-0,062	-0,069
-246,234	-200,000	0,006	-0,059
-245,219	546,898	-0,027	-0,047
-244,205	42,278	0,073	0,048
-243,190	562,512	0,034	0,059
-242,176	39,921	-0,069	-0,045
-241,161	-200,000	-0,004	0,106
-240,146	-140,377	0,034	-0,003
-239,132	-200,000	-0,003	0,124
-238,117	-5,977	-0,172	0,084
-237,103	73,364	-0,061	-0,046
-236,088	-200,000	-0,037	-0,127
-235,073	-200,000	0,036	-0,154
-234,059	460,331	-0,082	0,133
-233,044	158,232	-0,077	0,077
-232,030	315,344	0,032	0,044
-231,015	66,563	-0,054	0,039
-230,000	-12,786	-0,059	-0,028
-228,986	-200,000	-0,036	-0,130
-227,971	-200,000	0,006	-0,069
-226,957	-200,000	-0,010	0,056
-225,942	300,226	0,028	0,037
-224,927	-200,000	-0,007	0,118
-223,913	-162,654	-0,083	-0,003
-222,898	-200,000	-0,007	-0,071
-221,884	71,690	0,068	-0,051
-220,869	36,380	-0,030	-0,019
-219,855	-64,370	0,060	-0,017
-218,840	-28,371	-0,033	-0,014
-217,825	-167,497	0,083	-0,002
-216,811	-200,000	-0,006	-0,027
-215,796	-90,081	-0,059	0,012
-214,782	800,000	0,043	-0,103
-213,767	800,000	0,010	0,024
-212,752	-200,000	0,000	0,053
-211,738	142,076	-0,044	0,042
-210,723	-200,000	-0,006	0,044
-209,709	-130,487	-0,030	-0,003
-208,694	-1,037	0,063	-0,032
-207,679	24,185	-0,105	-0,062
-206,665	-51,619	0,197	0,066
-205,650	112,243	-0,072	-0,062
-204,636	800,000	0,038	0,094
-203,621	90,814	-0,016	0,013
-202,606	208,332	-0,067	0,076
-201,592	800,000	-0,043	-0,122
-200,577	324,692	-0,062	-0,086
-199,563	141,403	0,171	-0,164
-198,548	-96,004	-0,106	-0,020
-197,533	140,918	-0,017	-0,016
-196,519	-200,000	0,024	0,221
-195,504	-71,037	0,125	-0,034
-194,490	181,550	-0,039	-0,042
-193,475	109,554	0,056	0,049
-192,460	47,423	-0,058	-0,039
-191,446	549,147	-0,075	0,131
-190,431	-200,000	-0,002	0,158
-189,417	75,274	-0,089	0,068
-188,402	2,948	0,111	0,058
-187,387	-31,402	-0,160	0,064
-186,373	85,336	0,055	-0,043
-185,358	233,196	0,077	-0,091
-184,344	-200,000	0,014	-0,046
-183,329	-200,000	0,005	0,019
-182,315	42,434	0,105	-0,068
-181,300	800,000	-0,014	0,041
-180,285	-200,000	0,010	-0,078
-179,271	129,171	-0,053	-0,048
-178,256	-33,625	0,080	-0,032
-177,242	-103,294	0,145	-0,024
-176,227	500,234	-0,079	-0,132
-175,212	186,214	0,078	-0,084
-174,198	800,000	0,018	0,038
-173,183	-38,607	0,105	-0,040
-172,169	-101,697	0,056	-0,010
-171,154	166,953	0,063	-0,065
-170,139	338,304	-0,049	-0,069
-169,125	800,000	-0,028	0,079
-168,110	800,000	-0,064	0,152
-167,096	-173,266	0,072	0,002
-166,081	525,280	0,020	-0,035
-165,066	62,826	0,042	-0,030
-164,052	-200,000	-0,003	-0,070
-163,037	12,586	-0,076	-0,042
-162,023	-163,008	0,177	-0,006
-161,008	-200,000	-0,005	0,105
-159,993	313,786	0,010	-0,014
-158,979	-200,000	-0,002	-0,025
-157,964	335,025	-0,058	0,080
-156,950	-200,000	-0,013	-0,065
-155,935	-200,000	-0,011	-0,082
-154,920	679,650	0,027	0,051
-153,906	-200,000	-0,004	-0,031
-152,891	800,000	0,024	0,049
-151,877	-13,471	0,082	0,038
-150,862	-200,000	0,002	-0,068
-149,847	385,385	0,060	0,090
-148,833	154,370	-0,082	-0,081
-147,818	777,470	-0,036	-0,072
-146,804	-94,809	0,100	-0,019
-145,789	-200,000	-0,005	0,164
-144,775	-162,779	-0,164	0,006
-143,760	800,000	0,032	-0,097
-142,745	9,130	-0,101	0,055
-141,731	39,001	-0,015	-0,010
-140,716	635,143	0,076	0,139
-139,702	-200,000	-0,006	0,206
-138,687	72,973	-0,081	-0,061
-137,672	-23,279	0,009	0,004
-136,658	317,458	-0,071	-0,096
-135,643	106,336	-0,110	0,093
-134,629	-200,000	-0,000	0,061
-133,614	-73,368	0,037	-0,010
-132,599	-55,603	0,150	-0,048
-131,585	167,005	-0,027	-0,028
-130,570	212,801	-0,052	0,059
-129,556	-129,504	-0,099	0,010
-128,541	800,000	0,033	-0,077
-127,526	68,123	-0,060	-0,044
-126,512	12,279	0,105	0,058
-125,497	800,000	-0,023	0,049
-124,483	-200,000	-0,002	-0,056
-123,468	49,307	0,017	-0,011
-122,453	-200,000	0,004	-0,025
-121,439	-200,000	0,020	-0,107
-120,424	580,510	-0,041	0,072
-119,410	-192,103	-0,067	-0,000
-118,395	797,508	0,032	0,064
-117,380	264,272	0,057	0,071
-116,366	355,737	-0,045	0,065
-115,351	-200,000	-0,013	-0,052
-114,337	-144,992	-0,008	-0,001
-113,322	-32,642	-0,066	0,026
-112,307	235,774	-0,022	-0,026
-111,293	-84,938	-0,106	0,024
-110,278	317,977	0,042	0,057
-109,264	106,423	-0,101	-0,086
-108,249	800,000	0,064	-0,160
-107,234	-12,607	0,033	0,015
-106,220	-200,000	0,000	0,015
-105,205	-200,000	0,008	-0,049
-104,191	-200,000	0,044	0,000
-103,176	17,990	-0,096	0,055
-102,162	44,833	-0,045	0,030
-101,147	800,000	0,016	-0,038
-100,132	-65,029	-0,068	-0,020
-99,118	-141,655	-0,188	0,013
-98,103	-131,093	-0,062	0,006
-97,089	-200,000	0,019	-0,106
-96,074	357,663	-0,037	0,053
-95,059	-14,194	-0,059	-0,027
-94,045	100,125	0,053	-0,044
-93,030	-200,000	0,015	-0,098
-92,016	86,728	-0,154	-0,122
-91,001	72,905	0,076	0,057
-89,986	-25,550	0,119	0,050
-88,972	244,936	0,102	0,123
-87,957	197,372	0,023	-0,026
-86,943	404,613	-0,014	-0,021
-85,928	-200,000	-0,014	0,065
-84,913	-110,493	-0,051	-0,007
-83,899	183,411	-0,072	-0,076
-82,884	141,675	0,015	0,015
-81,870	-200,000	0,028	0,119
-80,855	-200,000	-0,012	0,093
-79,840	-200,000	-0,007	0,075
-78,826	-200,000	-0,006	-0,135
-77,811	800,000	-0,053	-0,111
-76,797	-67,000	-0,053	-0,015
-75,782	-200,000	-0,009	-0,066
-74,767	-200,000	0,006	0,060
-73,753	-200,000	-0,018	0,091
-72,738	98,607	-0,091	-0,075
-71,724	-165,613	-0,122	0,004
-70,709	-14,554	-0,155	-0,071
-69,694	493,497	0,136	-0,225
-68,680	-173,508	-0,052	-0,001
-67,665	70,025	0,039	0,029
-66,651	-24,597	0,070	0,030
-65,636	-200,000	-0,002	-0,013
-64,622	-200,000	-0,002	-0,063
-63,607	-55,444	-0,186	0,060
-62,592	269,256	-0,125	-0,157
-61,578	128,380	0,135	-0,123
-60,563	-200,000	0,017	0,103
-59,549	800,000	-0,031	0,071
-58,534	31,004	-2,079	-1,274
-57,519	-200,000	-0,137	-0,688
-56,505	-200,000	-1,201	-5,192
-55,490	24,276	0,828	0,489
-54,476	800,000	5,419	12,111
-53,461	-200,000	18,280	297,377
-52,446	800,000	731,435	2241,081
-51,432	532,449	1644,748	2798,605
-50,417	107,360	1633,292	1390,750
-49,403	71,366	1284,243	953,433
-48,388	30,211	1025,131	625,222
-47,373	19,703	987,110	567,492
-46,359	17,690	974,893	553,874
-45,344	14,511	970,962	541,255
-44,330	14,743	969,332	541,080
-43,315	14,238	967,474	538,378
-42,300	14,196	966,441	537,645
-41,286	14,183	965,416	537,014
-40,271	14,235	964,474	536,634
-39,257	14,279	963,517	536,226
-38,242	14,225	962,781	535,620
-37,227	14,218	962,005	535,143
-36,213	14,227	960,997	534,589
-35,198	14,199	960,157	534,013
-34,184	14,255	959,401	533,751
-33,169	14,165	958,535	532,959
-32,154	14,240	957,576	532,645
-31,140	14,343	956,565	532,394
-30,125	14,308	955,876	531,874
-29,111	14,233	955,266	531,275
-28,096	14,257	954,429	530,865
-27,082	14,247	953,885	530,509
-26,067	14,234	953,202	530,066
-25,052	14,171	952,414	529,405
-24,038	14,229	951,610	529,123
-23,023	14,160	951,036	528,562
-22,009	14,287	950,389	528,586
-20,994	14,216	949,628	527,917
-19,979	14,210	949,070	527,565
-18,965	14,197	948,415	527,138
-17,950	14,239	947,775	526,896
-16,936	14,132	947,284	526,263
-15,921	14,216	946,378	526,004
-14,906	14,136	945,625	525,310
-13,892	14,130	945,197	525,033
-12,877	14,123	944,491	524,600
-11,863	14,114	943,737	524,130
-10,848	14,127	943,428	523,978
-9,833	14,195	943,080	523,980
-8,819	14,208	942,242	523,534
-7,804	14,127	941,583	522,892
-6,790	14,147	940,879	522,543
-5,775	14,154	940,426	522,294
-4,760	14,243	939,540	522,061
-3,746	14,136	939,204	521,517
-2,731	13,968	938,427	520,534
-1,717	13,981	937,684	520,144
-0,702	13,981	936,982	519,734
0,313	13,754	936,564	519,571
1,327	17,253	934,618	529,428
2,342	26,719	787,362	470,841
3,356	23,486	443,510	260,427
4,371	-5,548	295,913	144,748
5,386	-9,399	277,720	132,187
6,400	-10,516	272,043	128,435
7,415	-10,694	269,823	127,212
8,429	-10,854	268,222	126,299
9,444	-11,000	267,406	125,770
10,459	-11,167	266,822	125,332
11,473	-11,115	266,020	124,992
12,488	-11,152	265,536	124,720
13,502	-11,527	264,950	124,094
14,517	-11,509	264,621	123,945
15,531	-11,471	264,131	123,738
16,546	-11,300	263,745	123,701
17,561	-11,685	263,463	123,211
18,575	-11,561	263,221	123,198
19,590	-11,668	262,690	122,843
20,604	-11,547	262,539	122,870
21,619	-11,694	261,994	122,473
22,634	-11,571	261,720	122,443
23,648	-11,707	261,400	122,161
24,663	-11,649	261,097	122,061
25,677	-11,629	260,837	121,946
26,692	-11,712	260,637	121,768
27,707	-11,673	260,432	121,695
28,721	-11,816	260,177	121,438
29,736	-11,664	259,695	121,338
30,750	-11,811	259,523	121,117
31,765	-11,779	259,142	120,955
32,780	-11,735	259,071	120,951
33,794	-11,765	258,817	120,794
34,809	-11,805	258,405	120,557
35,823	-11,806	258,375	120,531
36,838	-11,907	258,110	120,308
37,853	-12,072	257,923	120,065
38,867	-11,896	257,526	120,024
39,882	-11,967	257,337	119,863
40,896	-11,888	257,249	119,880
41,911	-12,126	256,934	119,514
42,926	-11,913	256,699	119,581
43,940	-11,949	256,401	119,400
44,955	-11,834	255,993	119,299
45,969	-12,006	256,008	119,146
46,984	-12,158	255,661	118,842
47,999	-12,335	255,485	118,595
49,013	-12,328	255,194	118,455
50,028	-12,557	254,905	118,111
51,042	-12,619	254,650	117,929
52,057	-12,643	254,407	117,786
53,071	-12,674	254,149	117,629
54,086	-12,442	253,981	117,741
55,101	-12,369	253,919	117,764
56,115	-12,033	253,668	117,928
57,130	-11,638	253,620	118,236
58,144	-11,718	253,634	118,163
59,159	-11,538	253,359	118,180
60,174	-11,424	253,029	118,114
61,188	-11,607	252,878	117,875
62,203	-11,615	252,660	117,756
63,217	-11,715	252,504	117,586
64,232	-11,757	252,105	117,355
65,247	-11,539	251,956	117,461
66,261	-11,740	251,625	117,125
67,276	-11,915	251,406	116,862
68,290	-12,147	251,173	116,546
69,305	-12,369	251,048	116,288
70,320	-12,074	250,720	116,377
71,334	-11,839	250,578	116,501
72,349	-11,504	250,401	116,694
73,363	-11,416	250,280	116,702
74,378	-11,387	250,028	116,598
75,393	-11,629	249,905	116,325
76,407	-11,817	249,707	116,063
77,422	-11,558	249,210	116,041
78,436	-11,600	249,132	115,959
79,451	-11,620	248,950	115,847
80,466	-11,582	248,693	115,749
81,480	-11,866	248,388	115,357
82,495	-12,132	248,248	115,058
83,509	-11,902	248,181	115,210
84,524	-11,967	247,818	114,977
85,539	-12,180	247,644	114,707
86,553	-11,969	247,547	114,829
87,568	-11,941	247,301	114,728
88,582	-11,971	247,069	114,585
89,597	-11,871	246,850	114,557
90,611	-11,981	246,786	114,425
91,626	-12,007	246,931	114,461
92,641	-11,710	246,460	114,480
93,655	-11,851	246,189	114,226
94,670	-11,756	246,056	114,233
95,684	-12,020	245,965	113,961
96,699	-11,861	245,703	113,962
97,714	-12,058	245,472	113,680
98,728	-12,052	245,199	113,549
99,743	-12,279	245,115	113,311
100,757	-12,284	244,876	113,186
101,772	-12,139	244,712	113,221
102,787	-12,112	244,470	113,121
103,801	-11,837	244,142	113,187
104,816	-12,014	244,115	113,018
105,830	-11,587	244,028	113,320
106,845	-11,667	243,878	113,175
107,860	-11,664	243,614	113,044
108,874	-11,854	243,484	112,817
109,889	-11,892	243,251	112,668
110,903	-11,968	243,040	112,497
111,918	-11,965	242,966	112,455
112,933	-11,942	242,691	112,337
113,947	-11,790	242,624	112,421
114,962	-11,775	242,259	112,255
115,976	-11,548	242,082	112,349
116,991	-11,977	242,131	112,010
118,006	-11,602	241,712	112,113
119,020	-11,562	241,685	112,123
120,035	-11,758	241,626	111,925
121,049	-11,804	241,457	111,799
122,064	-11,600	241,260	111,865
123,079	-11,843	241,136	111,599
124,093	-12,013	240,825	111,306
125,108	-11,994	240,520	111,171
126,122	-12,042	240,278	111,010
127,137	-12,266	239,995	110,688
128,151	-12,283	239,890	110,616
129,166	-11,977	239,784	110,805
130,181	-12,042	239,556	110,637
131,195	-12,226	239,423	110,417
132,210	-11,917	239,329	110,613
133,224	-11,952	239,146	110,491
134,239	-11,713	239,065	110,637
135,254	-11,757	238,744	110,443
136,268	-11,895	238,686	110,295
137,283	-12,287	238,318	109,799
138,297	-12,176	238,085	109,772
139,312	-12,307	237,896	109,569
140,327	-12,141	237,769	109,634
141,341	-11,338	237,835	110,300
142,356	-11,193	237,602	110,299
143,370	-11,322	237,446	110,113
144,385	-11,041	237,245	110,235
145,400	-11,203	237,103	110,029
146,414	-11,239	236,985	109,936
147,429	-11,413	236,653	109,633
148,443	-11,214	236,660	109,786
149,458	-11,337	236,334	109,527
150,473	-11,287	236,215	109,501
151,487	-11,575	235,996	109,161
152,502	-11,515	235,956	109,180
153,516	-11,364	235,686	109,166
154,531	-11,542	235,560	108,957
155,546	-11,365	235,436	109,030
156,560	-11,712	235,204	108,637
157,575	-11,661	234,829	108,495
158,589	-11,474	234,762	108,602
159,604	-11,387	234,862	108,708
160,619	-11,075	234,570	108,810
161,633	-11,297	234,483	108,584
162,648	-11,113	234,257	108,615
163,662	-11,414	234,158	108,322
164,677	-11,488	233,826	108,100
165,692	-11,301	233,789	108,221
166,706	-11,354	233,720	108,138
167,721	-11,163	233,533	108,192
168,735	-11,178	233,355	108,088
169,750	-11,177	233,176	107,996
170,764	-11,331	233,064	107,814
171,779	-11,171	232,983	107,892
172,794	-11,267	232,724	107,687
173,808	-11,343	232,420	107,478
174,823	-11,921	232,158	106,895
175,837	-12,192	232,079	106,637
176,852	-11,473	232,116	107,206
177,867	-11,401	231,939	107,172
178,881	-11,266	231,824	107,214
179,896	-11,329	231,741	107,117
180,910	-11,178	231,467	107,099
181,925	-11,333	231,407	106,940
182,940	-11,024	231,191	107,071
183,954	-11,153	231,101	106,920
184,969	-11,186	230,965	106,822
185,983	-11,098	230,740	106,777
186,998	-11,253	230,659	106,609
188,013	-11,084	230,437	106,628
189,027	-11,111	230,194	106,485
190,042	-11,196	230,211	106,418
191,056	-11,252	230,083	106,306
192,071	-10,950	229,744	106,373
193,086	-10,893	229,594	106,338
194,100	-10,685	229,436	106,416
195,115	-10,738	229,396	106,347
196,129	-10,178	229,629	106,878
197,144	-5,062	231,309	111,621
198,159	-0,016	232,720	116,222
199,173	2,380	233,405	118,421
200,188	2,799	233,324	118,695
201,202	2,913	233,133	118,676
202,217	3,217	233,048	118,858
203,232	3,314	233,009	118,904
204,246	3,211	232,836	118,725
205,261	3,489	232,719	118,870
206,275	3,825	232,624	119,071
207,290	3,800	232,540	118,999
208,304	3,760	232,522	118,947
209,319	3,762	232,176	118,761
210,334	3,532	232,006	118,486
211,348	3,549	231,542	118,252
212,363	2,785	231,560	117,661
213,377	2,826	231,193	117,496
214,392	2,829	231,114	117,447
215,407	2,869	230,999	117,409
216,421	3,089	230,849	117,492
217,436	2,800	230,682	117,174
218,450	2,813	230,400	117,031
219,465	2,710	230,294	116,887
220,480	2,638	230,184	116,765
221,494	2,716	230,097	116,771
222,509	3,018	230,021	116,953
223,523	3,018	229,805	116,833
224,538	2,730	229,553	116,475
225,553	2,822	229,540	116,528
226,567	2,996	229,287	116,522
227,582	3,126	229,327	116,630
228,596	3,310	229,046	116,618
229,611	2,765	228,900	116,118
230,626	2,601	228,676	115,869
231,640	2,845	228,475	115,943
232,655	2,988	228,527	116,067
233,669	3,541	228,281	116,351
234,684	3,465	228,272	116,279
235,699	3,266	227,982	115,970
236,713	3,069	227,941	115,789
237,728	2,981	227,576	115,527
238,742	2,683	227,390	115,198
239,757	2,944	227,377	115,377
240,772	2,951	227,076	115,220
241,786	3,033	226,954	115,210
242,801	3,255	226,894	115,336
243,815	3,385	226,974	115,465
244,830	2,997	226,937	115,143
245,844	2,886	226,675	114,916
246,859	3,048	226,338	114,857
247,874	3,076	226,270	114,833
248,888	3,151	226,066	114,775
249,903	3,160	225,918	114,697
250,917	2,951	225,845	114,493
251,932	2,824	225,771	114,350
252,947	2,703	225,527	114,126
253,961	2,645	225,295	113,954
254,976	2,881	225,153	114,049
255,990	3,050	225,146	114,162
257,005	3,037	224,972	114,054
258,020	3,110	224,832	114,027
259,034	3,156	224,761	114,015
260,049	3,219	224,541	113,940
261,063	3,228	224,426	113,878
262,078	3,339	224,193	113,832
263,093	3,421	224,080	113,826
264,107	3,193	223,947	113,579
265,122	3,244	223,803	113,533
266,136	3,495	223,814	113,715
267,151	3,249	223,644	113,436
268,166	3,051	223,245	113,078
269,180	2,862	223,020	112,814
270,195	3,003	222,896	112,845
271,209	2,665	222,752	112,513
272,224	2,932	222,714	112,680
273,239	3,037	222,582	112,681
274,253	2,888	222,467	112,503
275,268	2,854	222,253	112,359
276,282	2,869	222,037	112,251
277,297	2,471	221,936	111,898
278,312	2,751	221,898	112,074
279,326	2,792	221,757	112,024
280,341	3,135	221,477	112,123
281,355	2,987	221,361	111,946
282,370	3,290	221,213	112,083
283,384	2,376	221,206	111,400
284,399	2,613	220,834	111,376
285,414	2,597	220,785	111,330
286,428	3,003	220,749	111,599
287,443	3,135	220,543	111,581
288,457	2,981	220,596	111,486
289,472	2,685	220,229	111,074
290,487	2,286	220,072	110,695
291,501	2,294	219,979	110,644
292,516	2,438	219,858	110,678
293,530	2,466	219,676	110,596
294,545	2,680	219,549	110,678
295,560	2,708	219,568	110,698
296,574	2,760	219,370	110,627
297,589	2,834	219,181	110,575
298,603	3,003	219,063	110,628
299,618	2,839	218,957	110,445
300,633	3,084	218,777	110,522
301,647	3,200	218,812	110,614
302,662	3,128	218,614	110,452
303,676	3,187	218,379	110,366
304,691	3,030	218,360	110,234
305,706	3,221	218,051	110,205
306,720	2,960	218,058	110,011
307,735	2,755	217,789	109,717
308,749	2,695	217,675	109,607
309,764	2,864	217,485	109,623
310,779	3,341	217,496	109,962
311,793	2,995	217,323	109,616
312,808	3,113	217,165	109,611
313,822	2,864	217,113	109,397
314,837	3,056	216,849	109,391
315,852	2,968	216,676	109,231
316,866	3,142	216,624	109,320
317,881	3,023	216,502	109,163
318,895	3,169	216,382	109,198
319,910	2,919	216,083	108,859
320,925	2,495	215,925	108,467
321,939	2,123	215,756	108,108
322,954	2,624	215,567	108,359
323,968	2,969	215,558	108,591
324,983	3,113	215,520	108,664
325,997	3,392	215,392	108,788
327,012	2,934	215,279	108,397
328,027	2,749	215,168	108,200
329,041	3,144	215,084	108,428
330,056	3,284	214,890	108,420
331,070	2,717	214,610	107,868
332,085	2,241	214,454	107,443
333,100	2,481	214,263	107,508
334,114	2,865	214,050	107,662
335,129	3,067	214,062	107,800
336,143	2,949	213,869	107,611
337,158	2,999	213,851	107,627
338,173	3,110	213,679	107,609
339,187	2,991	213,441	107,396
340,202	2,802	213,380	107,223
341,216	2,668	213,179	107,018
342,231	2,908	213,079	107,127
343,246	2,586	212,969	106,836
344,260	2,721	213,009	106,942
345,275	2,962	212,713	106,952
346,289	3,000	212,630	106,928
347,304	3,102	212,544	106,946
348,319	3,025	212,196	106,708
349,333	2,800	212,306	106,596
350,348	3,009	212,006	106,582
351,362	3,090	212,023	106,637
352,377	3,188	211,945	106,657
353,392	2,843	211,835	106,352
354,406	3,078	211,572	106,374
355,421	196,765	1337,395	1416,090
356,435	157,241	1474,516	1416,038
