DTS Sentinel unit serial number:	SN410029Multiplexer serial number:	ORYXHardware model number:	OX2-SRSoftware version number:	ORYX F/W v4,00 Oryx Data Collector v3.7.2.0data status	okinstallation	B6 Nyhavnadifferential loss correction	single-endedforward channel	channel 2reverse channel	N/Adate	2023/12/09time	21:00:08forward acquisition time	300,00reverse acquisition time	0,00gamma	499,1914k internal	0,3128k external	0,3128temperature offset calibration	1,0000default loss term (dB/km)	0,3820temperature slope calibration	1,0000multiplexer offset coefficient	1,0000multiplexer slope coefficient	1,0000fibre end	0,00T internal ref (°C)	21,44T ext. ref 1 (°C)	5,40T ext. ref 2 (°C)	5,39length (m)	temperature (°C)	Stokes	anti-Stokes-744,400	473,157	-0,006	-0,010
-743,385	-71,074	-0,066	0,018
-742,371	-200,000	-0,012	0,102
-741,356	187,189	-0,106	0,117
-740,342	720,814	0,048	0,096
-739,327	-17,620	-0,375	0,175
-738,312	-70,544	0,148	-0,041
-737,298	-170,552	-0,313	-0,008
-736,283	-158,181	0,134	-0,006
-735,269	204,758	-0,078	0,090
-734,254	800,000	-0,030	-0,093
-733,239	-45,416	-0,462	-0,170
-732,225	-200,000	-0,003	-0,011
-731,210	32,190	0,104	0,067
-730,196	140,900	-0,144	-0,141
-729,181	-200,000	0,008	-0,044
-728,167	-73,444	-0,025	-0,007
-727,152	-200,000	0,009	-0,128
-726,137	464,239	0,011	-0,019
-725,123	93,757	-0,059	0,050
-724,108	-200,000	0,002	0,032
-723,094	-98,803	-0,182	0,034
-722,079	-200,000	0,001	0,011
-721,064	-101,260	-0,149	-0,027
-720,050	-14,113	-0,014	-0,007
-719,035	-200,000	0,001	0,072
-718,021	-76,033	-0,025	-0,006
-717,006	-200,000	0,025	-0,142
-715,991	-200,000	-0,014	-0,225
-714,977	-54,269	-0,060	-0,020
-713,962	-108,534	0,173	0,027
-712,948	68,351	-0,057	0,043
-711,933	800,000	0,051	0,162
-710,918	-27,327	-0,060	-0,026
-709,904	619,340	-0,049	-0,093
-708,889	-79,831	-0,058	-0,014
-707,875	800,000	-0,011	-0,026
-706,860	800,000	0,045	0,095
-705,845	-200,000	0,051	0,200
-704,831	-123,856	-0,017	0,002
-703,816	-71,593	-0,071	-0,020
-702,802	-12,517	-0,076	-0,037
-701,787	29,603	-0,174	0,110
-700,772	-141,018	0,047	0,004
-699,758	-124,219	-0,102	0,012
-698,743	-131,234	0,010	-0,001
-697,729	800,000	-0,026	-0,078
-696,714	449,449	-0,081	0,133
-695,699	-9,487	0,146	-0,072
-694,685	177,367	-0,102	-0,110
-693,670	-200,000	-0,009	0,063
-692,656	-109,378	-0,034	0,005
-691,641	-94,334	0,041	-0,008
-690,627	-118,650	0,038	-0,005
-689,612	249,602	0,059	-0,074
-688,597	-64,697	-0,056	0,017
-687,583	-200,000	0,005	-0,093
-686,568	-72,311	-0,050	0,014
-685,554	143,256	-0,055	-0,054
-684,539	19,994	0,103	-0,062
-683,524	21,937	0,111	-0,067
-682,510	753,710	-0,048	0,096
-681,495	505,162	0,036	0,062
-680,481	800,000	0,078	-0,206
-679,466	378,559	-0,026	0,040
-678,451	-200,000	0,001	0,069
-677,437	370,312	0,015	-0,022
-676,422	-14,294	-0,091	0,044
-675,408	-52,489	-0,053	-0,018
-674,393	-200,000	0,012	0,044
-673,378	-133,165	-0,076	-0,007
-672,364	197,169	-0,071	-0,081
-671,349	756,715	0,047	0,094
-670,335	800,000	-0,022	-0,047
-669,320	0,044	-0,119	0,063
-668,305	-60,657	0,019	-0,006
-667,291	-82,209	0,022	-0,005
-666,276	362,913	-0,042	-0,063
-665,262	800,000	-0,018	0,047
-664,247	-78,314	-0,134	0,034
-663,232	69,454	0,075	-0,057
-662,218	-200,000	-0,010	0,052
-661,203	-7,879	0,069	0,034
-660,189	6,947	0,115	-0,063
-659,174	-200,000	-0,034	-0,168
-658,159	38,199	-0,135	-0,089
-657,145	-131,072	0,156	0,015
-656,130	800,000	0,057	0,146
-655,116	-200,000	0,007	0,077
-654,101	47,007	-0,070	0,048
-653,086	-87,103	0,024	0,005
-652,072	-73,409	0,078	-0,021
-651,057	260,824	-0,124	-0,159
-650,043	-200,000	0,001	-0,014
-649,028	-62,313	-0,152	-0,047
-648,014	97,606	-0,076	-0,064
-646,999	-162,426	-0,056	0,002
-645,984	-15,898	0,060	0,028
-644,970	-25,665	-0,157	-0,068
-643,955	462,819	0,035	0,058
-642,941	-154,814	-0,096	0,005
-641,926	-40,063	0,064	-0,024
-640,911	534,762	0,012	0,020
-639,897	518,763	0,044	-0,077
-638,882	-87,222	0,057	0,013
-637,868	15,042	-0,038	0,022
-636,853	-84,066	0,094	-0,022
-635,838	11,714	-0,094	0,053
-634,824	800,000	-0,008	0,022
-633,809	-63,450	-0,101	0,031
-632,795	-17,632	0,101	0,047
-631,780	-200,000	-0,027	0,202
-630,765	147,052	-0,008	0,008
-629,751	-130,948	-0,141	-0,014
-628,736	370,081	-0,103	-0,156
-627,722	40,240	-0,060	0,040
-626,707	-200,000	-0,011	0,075
-625,692	135,450	0,099	0,095
-624,678	-89,651	0,086	0,018
-623,663	800,000	-0,059	-0,130
-622,649	323,402	0,124	-0,175
-621,634	-82,295	-0,152	-0,036
-620,619	145,657	0,012	-0,012
-619,605	-83,946	0,114	0,027
-618,590	11,261	0,069	0,039
-617,576	-83,368	0,115	-0,027
-616,561	297,743	0,016	-0,022
-615,546	157,820	-0,105	-0,108
-614,532	58,876	-0,053	-0,038
-613,517	363,378	-0,074	0,110
-612,503	-200,000	0,024	0,097
-611,488	-10,531	0,105	0,051
-610,474	506,113	-0,034	0,059
-609,459	-200,000	0,008	0,096
-608,444	203,007	0,068	-0,078
-607,430	-4,038	-0,054	-0,027
-606,415	157,569	-0,050	0,051
-605,401	165,872	0,016	0,016
-604,386	-24,158	-0,109	0,048
-603,371	-130,840	0,061	0,006
-602,357	388,552	-0,097	-0,150
-601,342	-58,950	-0,098	0,031
-600,328	43,639	-0,128	-0,086
-599,313	402,574	-0,082	-0,128
-598,298	71,250	-0,037	0,028
-597,284	460,959	-0,036	-0,060
-596,269	800,000	0,028	-0,075
-595,255	-126,369	-0,091	-0,010
-594,240	84,655	-0,093	-0,076
-593,225	-200,000	0,030	-0,226
-592,211	-138,613	-0,125	0,010
-591,196	209,345	-0,052	0,060
-590,182	419,205	0,055	0,088
-589,167	196,816	0,096	0,109
-588,152	316,254	-0,009	-0,013
-587,138	165,538	-0,141	-0,148
-586,123	109,532	-0,119	-0,106
-585,109	-200,000	0,014	0,070
-584,094	187,804	0,040	0,044
-583,079	800,000	-0,051	0,148
-582,065	365,844	-0,080	0,119
-581,050	-200,000	0,033	0,199
-580,036	154,102	-0,066	-0,067
-579,021	119,939	0,102	-0,093
-578,006	303,280	-0,036	0,049
-576,992	-24,301	-0,137	0,060
-575,977	-200,000	0,016	0,134
-574,963	-62,300	-0,033	-0,010
-573,948	321,919	-0,016	0,023
-572,934	-200,000	0,002	-0,017
-571,919	50,794	0,145	-0,102
-570,904	800,000	0,044	0,095
-569,890	-145,006	-0,097	0,006
-568,875	487,378	0,052	0,087
-567,861	800,000	-0,024	0,060
-566,846	-200,000	-0,002	0,022
-565,831	72,196	0,046	0,035
-564,817	641,918	-0,048	-0,091
-563,802	-200,000	0,014	-0,108
-562,788	-200,000	-0,009	-0,133
-561,773	671,325	-0,052	-0,099
-560,758	380,977	0,007	-0,010
-559,744	-200,000	-0,006	0,027
-558,729	800,000	0,054	0,137
-557,715	-200,000	-0,018	-0,113
-556,700	-200,000	-0,026	-0,225
-555,685	-10,179	-0,060	-0,029
-554,671	329,216	-0,111	0,159
-553,656	552,955	-0,055	0,098
-552,642	52,703	-0,051	-0,036
-551,627	242,377	-0,075	-0,093
-550,612	-90,859	-0,101	0,021
-549,598	800,000	-0,017	0,034
-548,583	-133,825	0,080	-0,007
-547,569	-61,747	-0,107	0,033
-546,554	22,891	0,101	0,061
-545,539	-200,000	-0,028	0,136
-544,525	800,000	-0,025	0,057
-543,510	800,000	0,059	0,133
-542,496	159,160	-0,063	-0,065
-541,481	100,351	-0,071	0,061
-540,466	-124,978	0,103	0,012
-539,452	-198,202	-0,124	0,001
-538,437	18,256	0,127	0,074
-537,423	698,059	0,028	0,055
-536,408	311,268	0,060	-0,083
-535,393	105,279	-0,020	-0,017
-534,379	-8,072	-0,075	0,037
-533,364	-200,000	0,006	0,134
-532,350	-200,000	-0,028	0,097
-531,335	620,814	0,039	0,073
-530,321	-87,001	-0,110	0,024
-529,306	-71,132	0,155	-0,043
-528,291	82,911	-0,070	0,056
-527,277	17,913	0,065	-0,038
-526,262	-200,000	-0,043	-0,170
-525,248	143,248	0,152	-0,150
-524,233	-56,661	-0,034	0,011
-523,218	800,000	-0,039	-0,110
-522,204	-76,364	-0,122	-0,031
-521,189	-47,815	0,014	0,005
-520,175	754,967	-0,026	0,052
-519,160	171,795	-0,032	0,034
-518,145	-200,000	0,024	-0,084
-517,131	-200,000	0,005	-0,037
-516,116	119,855	0,074	0,068
-515,102	36,664	-0,047	-0,030
-514,087	31,334	0,058	0,036
-513,072	800,000	0,061	-0,161
-512,058	39,305	0,077	-0,051
-511,043	800,000	0,042	-0,117
-510,029	-103,069	-0,107	-0,018
-509,014	707,821	0,037	-0,073
-507,999	-200,000	0,023	0,163
-506,985	-200,000	-0,012	-0,055
-505,970	-1,473	-0,069	-0,036
-504,956	800,000	-0,026	0,072
-503,941	73,876	-0,055	-0,042
-502,926	-200,000	0,004	0,092
-501,912	24,411	0,145	-0,088
-500,897	225,003	0,068	-0,081
-499,883	423,722	-0,011	-0,017
-498,868	278,442	0,027	-0,035
-497,853	-200,000	-0,010	0,043
-496,839	19,295	0,166	-0,098
-495,824	250,470	0,111	-0,139
-494,810	-200,000	-0,012	-0,188
-493,795	8,082	-0,016	0,009
-492,781	-200,000	-0,003	0,115
-491,766	-179,976	-0,059	-0,001
-490,751	-200,000	0,030	-0,163
-489,737	-73,775	-0,046	0,012
-488,722	800,000	0,041	0,099
-487,708	422,756	-0,034	0,053
-486,693	34,370	0,065	-0,042
-485,678	244,224	-0,020	0,025
-484,664	238,262	-0,022	0,027
-483,649	-200,000	-0,004	-0,078
-482,635	-200,000	-0,010	-0,123
-481,620	93,217	-0,089	0,074
-480,605	65,500	0,061	0,045
-479,591	800,000	0,031	0,094
-478,576	-200,000	0,024	0,169
-477,562	-145,921	-0,036	0,002
-476,547	800,000	-0,010	-0,032
-475,532	418,968	-0,065	0,103
-474,518	541,516	-0,030	0,053
-473,503	-31,001	0,107	0,044
-472,489	601,920	0,031	0,057
-471,474	-200,000	0,015	0,058
-470,459	45,667	-0,065	-0,044
-469,445	-129,498	-0,092	0,009
-468,430	-159,966	0,054	0,002
-467,416	-174,215	-0,040	0,001
-466,401	-16,668	0,102	0,047
-465,386	-90,046	0,064	0,014
-464,372	-200,000	-0,001	0,011
-463,357	-121,825	-0,059	0,007
-462,343	-6,873	-0,133	-0,066
-461,328	683,268	-0,031	-0,059
-460,313	115,495	0,027	0,024
-459,299	14,716	0,056	-0,032
-458,284	-61,729	-0,087	0,027
-457,270	-200,000	0,001	-0,115
-456,255	800,000	-0,017	-0,034
-455,241	147,249	0,088	-0,088
-454,226	800,000	0,017	0,048
-453,211	-200,000	0,014	0,048
-452,197	2,443	0,048	-0,025
-451,182	322,155	0,037	0,051
-450,168	-57,969	0,070	-0,022
-449,153	63,290	-0,008	0,006
-448,138	68,590	-0,072	0,055
-447,124	-38,228	-0,074	-0,029
-446,109	-200,000	0,015	0,061
-445,095	-74,623	0,065	-0,017
-444,080	4,389	0,119	0,064
-443,065	-23,406	0,086	0,038
-442,051	208,411	0,015	0,017
-441,036	573,942	-0,063	-0,114
-440,022	-200,000	0,001	-0,123
-439,007	-200,000	-0,005	0,020
-437,992	-8,509	0,046	-0,023
-436,978	-81,073	0,033	-0,008
-435,963	-200,000	-0,013	-0,089
-434,949	800,000	-0,057	-0,133
-433,934	103,763	0,028	-0,024
-432,919	-200,000	-0,015	-0,086
-431,905	-200,000	-0,034	-0,143
-430,890	96,198	0,054	-0,045
-429,876	9,013	-0,033	-0,018
-428,861	278,834	0,051	0,067
-427,846	-200,000	-0,005	0,131
-426,832	-200,000	-0,012	0,061
-425,817	197,750	-0,049	0,055
-424,803	800,000	-0,017	0,043
-423,788	-163,194	0,147	-0,005
-422,773	-200,000	-0,024	0,083
-421,759	800,000	0,054	0,155
-420,744	800,000	0,025	-0,057
-419,730	304,381	-0,104	0,142
-418,715	-200,000	0,006	-0,124
-417,701	-200,000	-0,007	-0,115
-416,686	-86,430	-0,098	0,022
-415,671	63,881	0,153	-0,113
-414,657	-200,000	0,029	-0,116
-413,642	800,000	0,066	-0,146
-412,628	398,239	0,054	-0,084
-411,613	800,000	-0,042	-0,127
-410,598	-129,283	0,097	-0,010
-409,584	17,459	0,033	0,019
-408,569	-200,000	-0,005	-0,043
-407,555	-200,000	-0,023	0,097
-406,540	-200,000	-0,002	0,136
-405,525	-5,895	0,089	-0,045
-404,511	122,666	-0,083	0,076
-403,496	-2,827	0,176	0,090
-402,482	55,898	0,067	-0,047
-401,467	-200,000	-0,028	0,115
-400,452	-168,351	0,103	-0,003
-399,438	728,414	-0,042	-0,082
-398,423	101,775	0,068	0,058
-397,409	-10,366	-0,052	0,025
-396,394	237,147	-0,025	0,030
-395,379	114,144	0,069	-0,061
-394,365	467,217	0,049	-0,081
-393,350	-200,000	0,000	0,039
-392,336	141,725	0,060	0,058
-391,321	522,473	0,014	0,024
-390,306	-87,270	0,092	-0,020
-389,292	64,743	0,127	0,094
-388,277	-200,000	-0,021	-0,078
-387,263	-70,978	0,219	0,060
-386,248	800,000	0,008	0,024
-385,233	-87,861	0,071	0,016
-384,219	-168,522	-0,100	-0,003
-383,204	264,943	0,019	0,024
-382,190	179,156	0,061	0,065
-381,175	15,149	-0,132	0,076
-380,160	800,000	0,023	-0,065
-379,146	513,286	0,041	0,070
-378,131	-13,886	0,051	0,024
-377,117	-200,000	0,018	-0,070
-376,102	-200,000	-0,004	-0,083
-375,088	405,998	-0,023	0,036
-374,073	800,000	-0,018	-0,042
-373,058	62,475	0,044	0,032
-372,044	-136,753	0,047	-0,004
-371,029	-66,353	-0,233	-0,068
-370,015	231,234	0,002	0,002
-369,000	105,386	-0,035	-0,031
-367,985	17,259	0,021	0,012
-366,971	800,000	-0,031	0,082
-365,956	800,000	0,030	0,068
-364,942	-200,000	0,032	0,105
-363,927	-89,416	0,159	0,034
-362,912	-51,824	0,140	0,047
-361,898	-200,000	-0,012	-0,051
-360,883	-200,000	0,011	-0,092
-359,869	-200,000	-0,016	-0,138
-358,854	800,000	0,023	0,063
-357,839	-73,888	0,087	0,023
-356,825	106,100	0,035	0,031
-355,810	529,125	0,054	-0,094
-354,796	58,911	-0,123	-0,089
-353,781	-7,436	0,052	0,026
-352,766	-200,000	-0,001	-0,059
-351,752	159,104	0,047	-0,048
-350,737	-129,744	0,135	0,013
-349,723	800,000	-0,027	-0,059
-348,708	-132,734	-0,185	-0,017
-347,693	800,000	-0,055	0,127
-346,679	-200,000	-0,010	0,082
-345,664	222,300	-0,038	0,045
-344,650	32,653	0,038	-0,024
-343,635	62,631	-0,093	-0,068
-342,620	90,436	0,113	0,092
-341,606	-3,269	-0,057	-0,029
-340,591	219,440	-0,059	-0,069
-339,577	7,853	-0,045	0,024
-338,562	44,796	-0,103	-0,069
-337,548	-200,000	-0,009	0,092
-336,533	800,000	0,050	0,118
-335,518	-137,317	-0,087	0,007
-334,504	386,693	0,075	0,115
-333,489	297,351	0,043	0,057
-332,475	800,000	0,063	-0,197
-331,460	114,872	0,043	-0,038
-330,445	101,309	-0,054	0,046
-329,431	127,182	-0,146	0,135
-328,416	-200,000	0,025	-0,186
-327,402	2,995	-0,063	-0,033
-326,387	17,281	-0,082	0,048
-325,372	28,151	0,031	-0,019
-324,358	-174,039	-0,017	-0,000
-323,343	-200,000	-0,003	0,022
-322,329	-123,329	-0,075	0,009
-321,314	172,842	0,064	-0,067
-320,299	-114,463	0,190	0,026
-319,285	800,000	-0,037	0,087
-318,270	-73,261	-0,064	0,017
-317,256	112,258	0,044	-0,039
-316,241	30,766	0,015	0,010
-315,226	99,978	0,062	0,053
-314,212	-85,106	-0,136	-0,031
-313,197	55,302	0,021	-0,015
-312,183	151,391	-0,148	0,148
-311,168	800,000	0,081	0,165
-310,153	324,065	-0,048	-0,067
-309,139	25,930	-0,096	-0,058
-308,124	392,911	0,037	0,057
-307,110	-171,775	0,054	0,001
-306,095	193,016	-0,029	0,032
-305,080	-200,000	0,069	-0,240
-304,066	660,576	-0,021	0,040
-303,051	254,038	0,062	-0,077
-302,037	800,000	-0,093	-0,203
-301,022	-200,000	0,025	0,091
-300,008	-63,091	0,028	0,008
-298,993	-22,298	0,086	0,038
-297,978	-64,988	-0,140	0,041
-296,964	-200,000	0,009	-0,035
-295,949	-3,012	-0,101	-0,052
-294,935	485,801	0,064	-0,107
-293,920	-200,000	0,004	-0,045
-292,905	73,836	0,063	-0,048
-291,891	800,000	-0,006	0,020
-290,876	362,843	-0,040	-0,059
-289,862	-46,879	0,153	0,055
-288,847	273,138	0,064	-0,082
-287,832	-32,832	-0,074	-0,030
-286,818	281,445	-0,028	-0,036
-285,803	659,020	0,023	-0,044
-284,789	-200,000	0,027	0,127
-283,774	8,587	0,089	0,049
-282,759	-56,456	-0,112	0,036
-281,745	800,000	0,036	-0,108
-280,730	800,000	0,014	-0,039
-279,716	31,965	-0,098	-0,062
-278,701	157,715	0,017	0,017
-277,686	-162,496	0,086	-0,003
-276,672	-9,677	0,027	0,013
-275,657	0,015	0,059	0,031
-274,643	-65,952	0,081	0,024
-273,628	800,000	0,019	0,054
-272,613	-116,680	0,034	-0,005
-271,599	296,049	-0,026	0,035
-270,584	217,101	0,022	0,025
-269,570	-5,015	-0,067	0,034
-268,555	13,312	-0,114	-0,064
-267,540	800,000	0,038	0,103
-266,526	42,506	0,058	0,038
-265,511	800,000	0,033	-0,095
-264,497	800,000	0,063	-0,151
-263,482	356,129	-0,128	0,186
-262,467	178,479	0,043	0,046
-261,453	-200,000	-0,027	0,093
-260,438	251,309	-0,081	0,101
-259,424	71,456	0,019	0,014
-258,409	-200,000	0,037	0,195
-257,395	289,532	-0,053	-0,071
-256,380	71,286	0,035	0,026
-255,365	160,959	-0,035	0,036
-254,351	713,212	-0,084	0,163
-253,336	-33,409	-0,011	0,005
-252,322	-200,000	-0,019	0,177
-251,307	-200,000	-0,027	0,116
-250,292	469,886	0,031	0,051
-249,278	800,000	0,056	0,174
-248,263	245,291	0,033	0,040
-247,249	216,129	-0,045	0,053
-246,234	228,422	-0,059	-0,071
-245,219	290,181	0,017	-0,023
-244,205	338,671	-0,091	-0,130
-243,190	-200,000	-0,022	-0,077
-242,176	29,786	0,116	-0,072
-241,161	800,000	0,069	0,146
-240,146	-18,007	-0,149	0,068
-239,132	-200,000	-0,043	-0,206
-238,117	-97,900	-0,132	-0,025
-237,103	117,854	0,135	-0,121
-236,088	-36,918	0,146	0,057
-235,073	-40,623	0,026	-0,010
-234,059	800,000	0,049	-0,110
-233,044	800,000	0,015	-0,038
-232,030	23,280	-0,086	0,051
-231,015	149,756	-0,008	-0,008
-230,000	-200,000	0,007	-0,154
-228,986	-200,000	-0,011	0,063
-227,971	-200,000	-0,005	0,055
-226,957	-200,000	0,006	0,034
-225,942	-5,649	-0,088	0,044
-224,927	800,000	-0,052	-0,156
-223,913	71,290	0,131	-0,099
-222,898	-17,285	-0,068	-0,031
-221,884	302,124	0,039	-0,053
-220,869	800,000	0,023	-0,070
-219,855	800,000	0,020	-0,044
-218,840	201,045	0,020	-0,023
-217,825	-200,000	-0,006	-0,052
-216,811	348,678	-0,044	0,064
-215,796	6,262	-0,040	0,022
-214,782	-200,000	0,013	0,045
-213,767	99,208	-0,054	0,045
-212,752	-200,000	-0,033	0,119
-211,738	238,616	0,044	0,053
-210,723	503,386	0,064	0,109
-209,709	-200,000	-0,001	-0,047
-208,694	800,000	0,022	-0,056
-207,679	-76,872	-0,128	-0,032
-206,665	50,288	-0,089	-0,061
-205,650	-200,000	-0,005	-0,033
-204,636	76,333	0,060	0,046
-203,621	-200,000	0,001	0,127
-202,606	-70,332	0,057	-0,016
-201,592	100,005	0,064	0,054
-200,577	175,036	0,062	-0,065
-199,563	2,382	0,021	-0,011
-198,548	-13,196	0,056	0,026
-197,533	63,538	0,082	0,060
-196,519	-123,884	-0,071	0,008
-195,504	-135,047	-0,032	-0,003
-194,490	-5,908	0,091	-0,045
-193,475	136,999	0,037	-0,035
-192,460	59,302	0,089	-0,064
-191,446	800,000	-0,005	-0,011
-190,431	137,970	-0,110	0,105
-189,417	530,674	-0,038	-0,065
-188,402	-25,948	-0,100	0,043
-187,387	800,000	0,037	0,084
-186,373	-200,000	-0,009	-0,098
-185,358	-5,723	-0,051	-0,025
-184,344	-65,150	0,035	0,010
-183,329	256,689	0,060	-0,076
-182,315	622,864	0,010	0,019
-181,300	615,933	0,062	-0,113
-180,285	115,261	-0,151	-0,134
-179,271	-200,000	0,015	-0,074
-178,256	91,950	0,034	0,028
-177,242	-200,000	0,001	0,104
-176,227	541,726	0,077	0,135
-175,212	255,058	0,073	0,092
-174,198	630,563	0,065	0,120
-173,183	65,837	-0,049	-0,036
-172,169	219,678	0,086	-0,101
-171,154	174,703	0,131	-0,138
-170,139	603,462	0,026	0,048
-169,125	800,000	-0,022	0,055
-168,110	-107,489	-0,091	-0,014
-167,096	-200,000	-0,047	0,151
-166,081	-86,909	-0,029	0,006
-165,066	112,918	-0,062	-0,055
-164,052	67,534	0,035	-0,026
-163,037	-39,946	-0,098	-0,037
-162,023	35,150	0,070	0,045
-161,008	194,156	0,132	-0,146
-159,993	800,000	-0,027	-0,081
-158,979	7,571	-0,058	0,032
-157,964	263,309	-0,033	0,042
-156,950	11,069	-0,031	-0,017
-155,935	-19,377	0,077	0,035
-154,920	551,463	0,046	0,081
-153,906	112,686	-0,054	0,048
-152,891	-126,253	-0,132	-0,014
-151,877	-85,936	-0,066	0,015
-150,862	-200,000	-0,017	0,064
-149,847	60,227	0,060	-0,043
-148,833	-108,308	-0,148	0,023
-147,818	-194,154	0,172	-0,001
-146,804	-200,000	-0,007	0,051
-145,789	-200,000	-0,023	-0,125
-144,775	521,767	-0,017	-0,030
-143,760	177,334	-0,058	-0,062
-142,745	325,598	-0,022	0,030
-141,731	-50,208	-0,107	-0,037
-140,716	-200,000	-0,000	0,122
-139,702	-141,866	0,081	0,006
-138,687	-43,759	-0,044	0,016
-137,672	652,685	-0,010	0,019
-136,658	-125,896	-0,177	-0,019
-135,643	-200,000	-0,009	0,081
-134,629	-70,514	0,097	-0,027
-133,614	800,000	0,009	0,025
-132,599	-17,136	0,090	0,041
-131,585	31,829	0,084	-0,053
-130,570	2,149	-0,107	-0,056
-129,556	535,551	-0,014	-0,024
-128,541	800,000	0,055	-0,120
-127,526	90,131	-0,076	-0,061
-126,512	-200,000	0,005	-0,076
-125,497	800,000	0,065	0,163
-124,483	728,659	-0,034	-0,067
-123,468	174,842	0,083	-0,087
-122,453	-9,346	-0,106	-0,051
-121,439	-200,000	0,006	0,058
-120,424	-200,000	-0,013	-0,106
-119,410	-127,551	0,086	0,009
-118,395	-27,990	0,139	0,058
-117,380	90,225	-0,138	0,112
-116,366	-200,000	-0,017	0,106
-115,351	-109,952	-0,211	0,032
-114,337	-61,227	-0,099	-0,030
-113,322	800,000	0,046	0,119
-112,307	800,000	-0,030	0,089
-111,293	168,490	0,082	0,085
-110,278	391,264	0,063	0,096
-109,264	347,851	0,021	-0,030
-108,249	66,606	-0,014	-0,011
-107,234	62,899	0,115	0,083
-106,220	-46,131	-0,152	-0,054
-105,205	-200,000	-0,005	-0,016
-104,191	66,604	0,024	0,018
-103,176	800,000	-0,029	0,078
-102,162	-26,028	0,026	-0,011
-101,147	-200,000	-0,023	-0,123
-100,132	800,000	-0,009	0,024
-99,118	134,068	-0,061	-0,058
-98,103	-200,000	0,020	-0,135
-97,089	-57,426	0,042	-0,013
-96,074	-85,774	0,035	0,008
-95,059	-45,330	-0,135	-0,048
-94,045	-56,610	0,119	0,038
-93,030	383,613	-0,064	0,096
-92,016	800,000	0,025	0,078
-91,001	46,458	-0,038	0,025
-89,986	-200,000	-0,013	0,091
-88,972	-50,429	0,077	0,026
-87,957	-200,000	0,002	0,074
-86,943	-76,085	-0,105	-0,027
-85,928	54,347	0,116	-0,081
-84,913	-111,784	-0,089	0,013
-83,899	-29,711	-0,070	0,029
-82,884	45,582	-0,059	0,039
-81,870	72,456	0,044	0,033
-80,855	327,574	-0,099	0,138
-79,840	800,000	0,007	-0,021
-78,826	-200,000	-0,000	-0,063
-77,811	-200,000	-0,001	-0,039
-76,797	-60,029	-0,073	-0,023
-75,782	379,112	0,047	-0,070
-74,767	800,000	-0,017	0,049
-73,753	700,830	-0,047	0,090
-72,738	349,353	0,082	-0,117
-71,724	62,424	-0,023	0,017
-70,709	-90,956	-0,100	-0,021
-69,694	-200,000	-0,002	-0,137
-68,680	245,859	-0,028	0,034
-67,665	-200,000	-0,013	-0,072
-66,651	51,286	-0,054	0,037
-65,636	800,000	-0,030	0,077
-64,622	-89,674	-0,114	0,024
-63,607	134,623	0,124	-0,117
-62,592	-112,867	0,167	-0,024
-61,578	-150,023	0,151	0,008
-60,563	800,000	-0,029	0,083
-59,549	304,867	0,061	0,082
-58,534	-108,880	-1,471	-0,225
-57,519	525,391	-0,756	-1,294
-56,505	-200,000	-0,961	-4,634
-55,490	-73,262	0,624	-0,164
-54,476	800,000	4,965	11,697
-53,461	-200,000	14,481	254,533
-52,446	800,000	697,017	2227,647
-51,432	564,131	1624,428	2861,972
-50,417	116,687	1630,550	1449,076
-49,403	73,350	1284,258	972,381
-48,388	37,381	1022,299	655,049
-47,373	23,593	980,755	583,177
-46,359	22,736	970,331	574,151
-45,344	21,629	966,096	568,010
-44,330	21,617	964,679	567,117
-43,315	21,534	963,116	565,905
-42,300	21,492	962,086	565,140
-41,286	21,517	960,929	564,520
-40,271	21,492	960,017	563,882
-39,257	21,499	959,032	563,304
-38,242	21,484	958,257	562,777
-37,227	21,424	957,518	562,126
-36,213	21,383	956,535	561,396
-35,198	21,344	955,614	560,706
-34,184	21,489	954,836	560,696
-33,169	21,428	953,932	559,944
-32,154	21,464	953,367	559,707
-31,140	21,464	952,288	559,053
-30,125	21,520	951,436	558,708
-29,111	21,496	950,730	558,195
-28,096	21,533	950,020	557,876
-27,082	21,478	949,358	557,290
-26,067	21,517	948,554	556,919
-25,052	21,488	947,745	556,330
-24,038	21,514	947,161	556,048
-23,023	21,529	946,536	555,706
-22,009	21,495	945,948	555,229
-20,994	21,515	945,164	554,813
-19,979	21,549	944,686	554,618
-18,965	21,460	944,118	553,979
-17,950	21,483	943,391	553,605
-16,936	21,462	942,662	553,088
-15,921	21,434	941,993	552,583
-14,906	21,354	941,307	551,903
-13,892	21,343	940,843	551,575
-12,877	21,353	939,938	551,055
-11,863	21,307	939,547	550,657
-10,848	21,344	938,833	550,335
-9,833	21,431	938,621	550,464
-8,819	21,449	937,852	550,050
-7,804	21,307	937,324	549,267
-6,790	21,288	936,767	548,859
-5,775	21,397	935,891	548,669
-4,760	21,377	935,336	548,259
-3,746	21,387	934,638	547,858
-2,731	21,234	934,102	547,040
-1,717	21,191	933,369	546,456
-0,702	21,149	932,788	545,962
0,313	20,993	932,008	545,839
1,327	24,065	930,173	554,355
2,342	33,305	793,814	497,619
3,356	30,982	450,651	278,982
4,371	0,847	294,614	152,247
5,386	-3,676	275,593	138,116
6,400	-4,794	269,820	134,172
7,415	-5,180	267,470	132,635
8,429	-5,115	266,276	132,091
9,444	-5,127	265,449	131,658
10,459	-4,993	264,770	131,432
11,473	-5,086	264,198	131,052
12,488	-5,219	263,728	130,686
13,502	-5,340	263,131	130,269
14,517	-5,207	262,551	130,090
15,531	-5,237	262,323	129,939
16,546	-5,297	262,002	129,714
17,561	-5,357	261,518	129,409
18,575	-5,068	261,270	129,535
19,590	-5,242	260,928	129,197
20,604	-5,216	260,696	129,094
21,619	-5,442	260,185	128,627
22,634	-5,248	259,855	128,626
23,648	-5,365	259,573	128,370
24,663	-5,145	259,307	128,424
25,677	-5,426	259,028	128,023
26,692	-5,219	258,670	128,019
27,707	-5,253	258,679	127,982
28,721	-5,542	258,480	127,615
29,736	-5,326	257,932	127,525
30,750	-5,402	257,791	127,377
31,765	-5,533	257,575	127,143
32,780	-5,422	257,451	127,168
33,794	-5,416	257,044	126,962
34,809	-5,431	256,877	126,855
35,823	-5,356	256,638	126,791
36,838	-5,311	256,269	126,637
37,853	-5,439	256,151	126,454
38,867	-5,464	255,877	126,286
39,882	-5,545	255,728	126,130
40,896	-5,412	255,532	126,140
41,911	-5,576	255,256	125,848
42,926	-5,384	254,939	125,848
43,940	-5,367	254,630	125,700
44,955	-5,453	254,385	125,492
45,969	-5,519	254,310	125,386
46,984	-5,866	254,128	124,983
47,999	-5,884	253,761	124,775
49,013	-5,986	253,626	124,609
50,028	-6,054	253,276	124,366
51,042	-6,192	252,976	124,088
52,057	-6,018	252,799	124,142
53,071	-6,149	252,672	123,955
54,086	-6,025	252,488	123,960
55,101	-6,028	252,383	123,895
56,115	-5,643	252,236	124,146
57,130	-5,217	251,956	124,365
58,144	-5,104	251,841	124,395
59,159	-5,293	251,772	124,187
60,174	-5,290	251,642	124,114
61,188	-4,894	251,057	124,155
62,203	-5,211	251,092	123,889
63,217	-5,394	250,917	123,634
64,232	-5,180	250,590	123,645
65,247	-5,248	250,502	123,533
66,261	-5,364	250,191	123,269
67,276	-5,579	249,950	122,954
68,290	-5,790	249,748	122,664
69,305	-5,571	249,601	122,768
70,320	-5,670	249,180	122,465
71,334	-5,491	249,149	122,592
72,349	-5,299	249,119	122,730
73,363	-5,047	248,835	122,794
74,378	-5,248	248,587	122,490
75,393	-5,314	248,458	122,359
76,407	-5,481	248,275	122,116
77,422	-5,393	247,978	122,034
78,436	-5,234	247,810	122,075
79,451	-5,296	247,668	121,941
80,466	-5,234	247,249	121,777
81,480	-5,456	247,060	121,485
82,495	-5,543	246,861	121,303
83,509	-5,428	246,771	121,345
84,524	-5,566	246,540	121,104
85,539	-5,791	246,291	120,781
86,553	-5,540	246,107	120,892
87,568	-5,530	245,876	120,776
88,582	-5,535	245,824	120,736
89,597	-5,615	245,556	120,526
90,611	-5,232	245,347	120,734
91,626	-5,452	245,487	120,608
92,641	-5,224	245,161	120,628
93,655	-5,461	245,108	120,393
94,670	-5,477	244,758	120,196
95,684	-5,356	244,580	120,199
96,699	-5,393	244,264	120,003
97,714	-5,666	244,032	119,650
98,728	-5,551	244,057	119,748
99,743	-5,637	243,724	119,501
100,757	-5,769	243,618	119,329
101,772	-5,662	243,425	119,313
102,787	-5,665	243,397	119,286
103,801	-5,523	243,141	119,268
104,816	-5,481	242,939	119,193
105,830	-5,290	242,700	119,224
106,845	-5,325	242,665	119,167
107,860	-5,362	242,461	119,025
108,874	-5,473	242,140	118,765
109,889	-5,541	241,929	118,595
110,903	-5,350	241,658	118,610
111,918	-5,490	241,552	118,432
112,933	-5,519	241,571	118,406
113,947	-5,392	241,264	118,350
114,962	-5,206	241,015	118,370
115,976	-5,288	240,944	118,257
116,991	-5,541	240,866	118,001
118,006	-5,316	240,745	118,116
119,020	-5,466	240,533	117,877
120,035	-5,218	240,357	117,984
121,049	-5,202	240,228	117,924
122,064	-5,440	239,998	117,605
123,079	-5,414	239,891	117,564
124,093	-5,335	239,494	117,423
125,108	-5,492	239,291	117,185
126,122	-5,834	239,070	116,787
127,137	-5,657	238,956	116,866
128,151	-5,691	238,715	116,710
129,166	-5,509	238,576	116,779
130,181	-5,590	238,475	116,654
131,195	-5,558	238,267	116,567
132,210	-5,556	238,099	116,476
133,224	-5,240	237,860	116,605
134,239	-5,487	237,849	116,390
135,254	-5,443	237,576	116,281
136,268	-5,468	237,455	116,191
137,283	-5,795	237,154	115,769
138,297	-5,839	237,053	115,674
139,312	-5,591	236,791	115,736
140,327	-5,587	236,823	115,745
141,341	-5,031	236,668	116,107
142,356	-5,005	236,562	116,065
143,370	-4,974	236,297	115,950
144,385	-4,949	236,123	115,874
145,400	-4,863	235,945	115,846
146,414	-5,107	235,894	115,615
147,429	-5,092	235,659	115,501
148,443	-5,211	235,431	115,284
149,458	-5,043	235,271	115,329
150,473	-5,086	235,203	115,252
151,487	-5,179	234,957	115,047
152,502	-5,263	234,835	114,910
153,516	-4,964	234,552	114,999
154,531	-5,085	234,490	114,861
155,546	-5,271	234,298	114,609
156,560	-5,220	234,193	114,589
157,575	-5,210	233,972	114,478
158,589	-5,209	233,898	114,433
159,604	-4,970	233,696	114,514
160,619	-4,894	233,516	114,475
161,633	-5,110	233,425	114,249
162,648	-5,019	233,321	114,260
163,662	-5,005	232,987	114,097
164,677	-4,942	232,674	113,983
165,692	-5,026	232,583	113,862
166,706	-5,049	232,612	113,849
167,721	-5,133	232,537	113,735
168,735	-4,945	232,231	113,724
169,750	-4,896	232,179	113,726
170,764	-5,025	231,952	113,504
171,779	-5,169	231,832	113,321
172,794	-4,984	231,808	113,445
173,808	-5,000	231,449	113,247
174,823	-5,608	231,094	112,586
175,837	-5,424	230,898	112,625
176,852	-5,277	230,877	112,720
177,867	-4,808	230,809	113,044
178,881	-4,791	230,665	112,976
179,896	-4,912	230,614	112,847
180,910	-4,983	230,449	112,701
181,925	-4,978	230,270	112,607
182,940	-5,154	230,224	112,437
183,954	-4,760	229,937	112,594
184,969	-4,981	229,824	112,356
185,983	-4,847	229,676	112,379
186,998	-4,754	229,576	112,392
188,013	-4,884	229,500	112,243
189,027	-4,875	229,224	112,105
190,042	-4,818	228,911	111,987
191,056	-4,669	228,768	112,022
192,071	-4,864	228,759	111,857
193,086	-4,880	228,608	111,761
194,100	-4,778	228,321	111,689
195,115	-4,727	228,065	111,593
196,129	-5,164	228,078	111,252
197,144	-1,828	229,103	114,331
198,159	2,107	230,080	117,868
199,173	3,822	230,542	119,428
200,188	3,754	230,422	119,302
201,202	3,916	230,280	119,344
202,217	4,208	230,380	119,611
203,232	4,250	230,209	119,544
204,246	4,532	229,841	119,561
205,261	4,242	229,931	119,372
206,275	4,673	229,554	119,500
207,290	4,575	229,668	119,472
208,304	4,612	229,298	119,298
209,319	4,677	229,188	119,280
210,334	4,601	228,878	119,050
211,348	4,414	228,734	118,820
212,363	3,978	228,560	118,383
213,377	3,714	228,309	118,040
214,392	3,648	228,142	117,892
215,407	3,841	228,113	118,015
216,421	3,983	227,865	117,985
217,436	3,701	227,845	117,748
218,450	3,574	227,512	117,468
219,465	3,517	227,415	117,364
220,480	3,511	227,141	117,208
221,494	3,624	227,119	117,272
222,509	3,778	227,032	117,334
223,523	3,553	226,816	117,041
224,538	3,469	226,703	116,908
225,553	3,935	226,425	117,109
226,567	3,885	226,437	117,066
227,582	4,008	226,348	117,103
228,596	4,042	226,269	117,078
229,611	3,742	226,130	116,768
230,626	3,846	225,643	116,585
231,640	3,508	225,667	116,331
232,655	3,670	225,823	116,524
233,669	4,319	225,565	116,872
234,684	4,379	225,443	116,844
235,699	4,143	225,201	116,530
236,713	3,980	225,052	116,319
237,728	3,833	224,727	116,030
238,742	3,749	224,483	115,830
239,757	3,731	224,429	115,778
240,772	3,543	224,433	115,628
241,786	3,545	224,227	115,513
242,801	3,837	224,184	115,701
243,815	3,935	224,054	115,696
244,830	4,296	223,810	115,831
245,844	3,757	223,735	115,378
246,859	3,756	223,459	115,224
247,874	4,130	223,248	115,386
248,888	4,068	223,290	115,350
249,903	4,015	223,107	115,206
250,917	3,657	222,990	114,868
251,932	3,668	222,702	114,717
252,947	3,788	222,506	114,695
253,961	3,504	222,544	114,492
254,976	3,692	222,307	114,501
255,990	3,814	222,359	114,609
257,005	4,075	222,031	114,623
258,020	3,883	221,989	114,448
259,034	4,144	221,986	114,631
260,049	3,701	221,725	114,157
261,063	3,777	221,467	114,070
262,078	4,150	221,421	114,313
263,093	4,230	221,309	114,305
264,107	3,871	221,369	114,059
265,122	3,907	221,095	113,934
266,136	4,175	221,088	114,119
267,151	4,045	220,931	113,931
268,166	3,952	220,508	113,635
269,180	3,571	220,288	113,230
270,195	3,728	219,985	113,180
271,209	3,528	220,041	113,051
272,224	3,698	219,925	113,107
273,239	3,753	219,794	113,070
274,253	3,609	219,687	112,899
275,268	3,686	219,459	112,828
276,282	3,191	219,334	112,390
277,297	3,426	219,076	112,420
278,312	3,676	219,013	112,561
279,326	3,751	218,946	112,571
280,341	3,788	218,677	112,450
281,355	3,886	218,578	112,461
282,370	3,825	218,457	112,344
283,384	3,465	218,288	111,984
284,399	3,486	218,110	111,899
285,414	3,485	217,883	111,771
286,428	3,668	217,912	111,909
287,443	3,962	217,831	112,072
288,457	3,796	217,655	111,851
289,472	3,810	217,417	111,729
290,487	3,317	217,285	111,293
291,501	3,360	217,177	111,258
292,516	3,476	216,912	111,197
293,530	3,539	216,841	111,196
294,545	3,348	216,801	111,028
295,560	3,622	216,591	111,108
296,574	3,725	216,541	111,148
297,589	3,595	216,349	110,945
298,603	3,754	216,119	110,932
299,618	3,808	216,203	111,004
300,633	3,937	216,114	111,042
301,647	4,177	215,935	111,113
302,662	3,995	215,667	110,834
303,676	3,898	215,689	110,765
304,691	4,120	215,509	110,823
305,706	4,072	215,380	110,712
306,720	3,918	215,250	110,525
307,735	3,867	214,922	110,310
308,749	3,674	214,882	110,141
309,764	3,760	214,853	110,178
310,779	4,024	214,650	110,253
311,793	4,082	214,438	110,176
312,808	3,987	214,294	110,024
313,822	3,953	214,241	109,963
314,837	3,546	214,150	109,616
315,852	3,771	213,815	109,596
316,866	3,749	213,828	109,577
317,881	4,035	213,706	109,708
318,895	4,004	213,579	109,611
319,910	3,737	213,393	109,315
320,925	3,364	213,118	108,900
321,939	3,112	213,003	108,652
322,954	3,429	212,848	108,788
323,968	3,892	212,794	109,080
324,983	3,880	212,908	109,119
325,997	4,162	212,610	109,157
327,012	3,898	212,415	108,860
328,027	3,947	212,402	108,879
329,041	4,211	212,211	108,958
330,056	4,368	212,048	108,975
331,070	3,955	211,832	108,563
332,085	3,537	211,690	108,186
333,100	3,720	211,500	108,208
334,114	3,743	211,401	108,164
335,129	3,913	211,176	108,159
336,143	3,875	211,020	108,043
337,158	3,751	211,014	107,943
338,173	3,484	210,944	107,710
339,187	3,560	210,738	107,648
340,202	3,426	210,428	107,386
341,216	3,442	210,312	107,329
342,231	3,567	210,355	107,429
343,246	3,537	210,169	107,303
344,260	3,522	210,135	107,266
345,275	3,643	209,901	107,221
346,289	3,722	209,981	107,308
347,304	4,058	209,710	107,394
348,319	3,854	209,527	107,149
349,333	3,725	209,327	106,947
350,348	3,849	209,290	107,005
351,362	4,158	209,206	107,168
352,377	4,051	209,016	106,987
353,392	3,857	209,005	106,836
354,406	3,680	208,827	106,613
355,421	195,390	1343,475	1434,319
356,435	155,981	1481,799	1434,415
