DTS Sentinel unit serial number:	SN410029Multiplexer serial number:	ORYXHardware model number:	OX2-SRSoftware version number:	ORYX F/W v4,00 Oryx Data Collector v3.7.2.0data status	okinstallation	B6 Nyhavnadifferential loss correction	single-endedforward channel	channel 2reverse channel	N/Adate	2023/12/11time	03:20:08forward acquisition time	300,00reverse acquisition time	0,00gamma	499,1914k internal	0,3124k external	0,3124temperature offset calibration	1,0000default loss term (dB/km)	0,3820temperature slope calibration	1,0000multiplexer offset coefficient	1,0000multiplexer slope coefficient	1,0000fibre end	0,00T internal ref (°C)	21,26T ext. ref 1 (°C)	4,05T ext. ref 2 (°C)	4,06length (m)	temperature (°C)	Stokes	anti-Stokes-744,400	800,000	0,016	-0,043
-743,385	-157,706	-0,152	-0,007
-742,371	-200,000	0,009	0,194
-741,356	800,000	-0,070	0,194
-740,342	125,583	-0,039	-0,037
-739,327	-20,521	-0,284	0,130
-738,312	-40,104	-0,103	-0,040
-737,298	-123,043	-0,318	-0,038
-736,283	-88,693	0,145	-0,032
-735,269	601,683	-0,085	0,159
-734,254	-103,849	-0,097	-0,017
-733,239	-58,043	-0,372	-0,120
-732,225	-104,280	0,162	0,028
-731,210	111,756	0,122	0,110
-730,196	800,000	0,053	-0,125
-729,181	800,000	0,053	-0,154
-728,167	106,149	-0,141	-0,125
-727,152	-3,599	0,116	0,060
-726,137	-125,377	-0,116	-0,013
-725,123	-79,516	-0,076	-0,019
-724,108	22,194	-0,071	-0,043
-723,094	-64,530	-0,183	-0,055
-722,079	-200,000	0,051	-0,180
-721,064	800,000	-0,049	0,117
-720,050	39,345	-0,098	-0,065
-719,035	296,907	-0,043	-0,059
-718,021	441,328	-0,082	0,135
-717,006	800,000	0,044	-0,132
-715,991	800,000	-0,050	-0,124
-714,977	-36,588	0,069	0,027
-713,962	49,428	-0,125	0,088
-712,948	-171,551	-0,106	0,003
-711,933	800,000	-0,039	0,111
-710,918	-83,982	0,034	0,008
-709,904	71,202	-0,039	0,030
-708,889	-52,803	0,039	0,013
-707,875	43,417	-0,131	-0,089
-706,860	800,000	-0,016	0,051
-705,845	83,909	-0,059	0,048
-704,831	141,430	0,059	0,058
-703,816	162,220	-0,039	-0,040
-702,802	-28,850	-0,079	0,034
-701,787	-200,000	0,001	-0,096
-700,772	311,681	-0,038	0,053
-699,758	-200,000	-0,023	-0,080
-698,743	-200,000	0,028	-0,109
-697,729	-63,393	0,032	-0,010
-696,714	10,882	-0,045	-0,025
-695,699	53,206	-0,066	-0,047
-694,685	293,213	-0,087	-0,118
-693,670	800,000	-0,023	-0,052
-692,656	-200,000	0,009	-0,055
-691,641	558,983	-0,031	0,055
-690,627	-71,502	0,095	-0,026
-689,612	144,958	-0,073	-0,073
-688,597	-53,323	0,068	-0,023
-687,583	-60,431	-0,050	-0,016
-686,568	800,000	-0,060	-0,132
-685,554	-23,840	-0,087	-0,038
-684,539	21,822	0,037	0,022
-683,524	246,480	0,047	-0,059
-682,510	800,000	-0,029	-0,085
-681,495	663,799	-0,059	-0,114
-680,481	-180,890	-0,165	-0,002
-679,466	7,383	-0,143	0,079
-678,451	20,376	-0,044	-0,026
-677,437	97,409	-0,020	0,017
-676,422	-200,000	-0,018	0,124
-675,408	-111,664	-0,084	-0,013
-674,393	300,710	0,053	0,073
-673,378	23,096	-0,048	-0,029
-672,364	-17,825	-0,045	0,021
-671,349	800,000	0,007	-0,020
-670,335	-200,000	0,009	0,079
-669,320	-200,000	0,001	0,005
-668,305	800,000	0,033	0,100
-667,291	-76,147	-0,116	0,030
-666,276	159,665	-0,058	-0,060
-665,262	68,785	-0,073	-0,056
-664,247	-200,000	0,014	-0,047
-663,232	237,352	-0,071	0,088
-662,218	100,291	0,046	-0,040
-661,203	109,891	0,102	-0,091
-660,189	180,670	-0,045	-0,049
-659,174	-56,175	-0,100	0,033
-658,159	-200,000	-0,034	-0,113
-657,145	-200,000	0,013	-0,153
-656,130	-112,064	-0,184	-0,027
-655,116	20,427	-0,070	0,042
-654,101	-200,000	-0,019	0,064
-653,086	140,863	-0,109	0,107
-652,072	800,000	-0,016	-0,043
-651,057	800,000	-0,026	0,062
-650,043	290,535	0,089	-0,121
-649,028	522,857	-0,029	-0,051
-648,014	63,954	-0,050	-0,037
-646,999	-33,156	0,065	-0,027
-645,984	181,118	0,015	-0,016
-644,970	142,737	0,023	-0,023
-643,955	-35,096	-0,066	0,027
-642,941	-116,144	-0,144	-0,020
-641,926	-137,003	0,024	-0,002
-640,911	-33,836	0,055	-0,022
-639,897	-148,775	0,099	-0,006
-638,882	-35,549	0,053	0,021
-637,868	-77,248	-0,170	0,043
-636,853	800,000	-0,015	0,047
-635,838	-200,000	0,029	-0,115
-634,824	99,594	0,060	-0,052
-633,809	407,921	-0,053	-0,084
-632,795	270,505	-0,031	-0,041
-631,780	-150,038	0,174	0,010
-630,765	-48,793	-0,093	0,033
-629,751	517,859	-0,069	-0,120
-628,736	800,000	-0,057	-0,138
-627,722	283,225	0,051	-0,068
-626,707	-53,600	0,133	-0,045
-625,692	27,912	0,049	0,031
-624,678	56,694	-0,109	-0,079
-623,663	800,000	-0,020	0,048
-622,649	-200,000	0,002	-0,017
-621,634	-107,856	-0,044	0,007
-620,619	800,000	-0,013	0,039
-619,605	-200,000	0,017	0,148
-618,590	-69,890	-0,038	0,011
-617,576	15,291	0,100	0,058
-616,561	86,467	-0,102	-0,084
-615,546	-84,507	0,044	-0,010
-614,532	0,983	-0,035	0,018
-613,517	-200,000	0,028	-0,203
-612,503	-76,790	0,084	-0,022
-611,488	164,540	0,105	0,110
-610,474	800,000	-0,015	0,047
-609,459	3,787	-0,074	0,040
-608,444	332,579	-0,110	-0,157
-607,430	-23,613	0,039	-0,017
-606,415	478,247	-0,046	-0,077
-605,401	-200,000	0,034	-0,158
-604,386	-200,000	0,034	0,134
-603,371	142,219	0,107	0,105
-602,357	365,769	-0,009	0,013
-601,342	-200,000	-0,048	-0,202
-600,328	800,000	-0,034	-0,102
-599,313	-162,672	-0,071	-0,003
-598,298	193,546	0,021	0,024
-597,284	-80,866	0,125	-0,030
-596,269	79,307	-0,054	0,042
-595,255	110,770	-0,069	-0,061
-594,240	147,650	0,079	-0,079
-593,225	800,000	-0,052	0,143
-592,211	85,959	-0,054	-0,044
-591,196	172,627	0,161	-0,172
-590,182	-117,250	-0,175	0,023
-589,167	446,423	-0,062	-0,101
-588,152	-200,000	-0,015	-0,086
-587,138	-200,000	-0,021	-0,069
-586,123	171,869	-0,059	0,063
-585,109	-69,848	-0,067	0,019
-584,094	-93,715	-0,083	-0,017
-583,079	-200,000	-0,005	0,037
-582,065	-146,062	0,029	-0,002
-581,050	-44,853	-0,112	0,041
-580,036	539,287	0,085	-0,151
-579,021	482,843	-0,054	0,092
-578,006	-146,963	0,041	0,003
-576,992	-200,000	-0,004	-0,076
-575,977	-200,000	-0,004	0,046
-574,963	-22,025	0,044	-0,020
-573,948	800,000	0,013	0,037
-572,934	-38,347	-0,104	-0,041
-571,919	230,068	0,076	-0,093
-570,904	-200,000	-0,014	-0,050
-569,890	128,878	0,040	-0,038
-568,875	-200,000	0,005	0,059
-567,861	-73,133	-0,031	-0,008
-566,846	-66,242	0,220	0,064
-565,831	-200,000	0,016	0,092
-564,817	32,709	-0,057	-0,036
-563,802	-200,000	-0,012	-0,190
-562,788	93,324	-0,030	-0,025
-561,773	22,036	-0,057	-0,034
-560,758	-36,630	0,063	0,025
-559,744	-82,081	0,075	0,018
-558,729	-184,217	-0,167	-0,002
-557,715	303,380	-0,064	-0,088
-556,700	-200,000	-0,016	-0,058
-555,685	3,015	0,167	-0,089
-554,671	-200,000	-0,003	-0,028
-553,656	16,415	0,061	0,035
-552,642	-200,000	0,018	0,087
-551,627	-67,043	-0,088	-0,026
-550,612	-200,000	-0,013	0,044
-549,598	50,590	0,062	0,043
-548,583	-200,000	-0,011	-0,072
-547,569	-153,237	-0,086	0,004
-546,554	241,015	-0,047	-0,058
-545,539	-200,000	0,025	0,105
-544,525	-200,000	0,009	0,153
-543,510	-101,513	-0,066	-0,012
-542,496	293,714	-0,056	-0,076
-541,481	-200,000	0,003	-0,065
-540,466	-44,562	-0,095	0,035
-539,452	485,224	-0,030	0,051
-538,437	472,491	-0,041	0,069
-537,423	241,087	-0,124	-0,154
-536,408	324,942	-0,017	-0,025
-535,393	-10,152	-0,048	0,024
-534,379	-200,000	-0,007	-0,079
-533,364	-113,818	-0,128	0,018
-532,350	-39,042	0,066	-0,026
-531,335	-200,000	0,014	0,046
-530,321	-200,000	-0,009	0,062
-529,306	42,898	-0,013	0,008
-528,291	20,606	0,059	0,035
-527,277	800,000	-0,024	0,059
-526,262	-92,107	0,014	0,003
-525,248	-15,287	0,032	-0,015
-524,233	48,876	0,074	-0,052
-523,218	307,700	-0,067	0,093
-522,204	-19,384	0,087	0,040
-521,189	69,908	0,041	-0,031
-520,175	-120,579	-0,115	0,014
-519,160	-200,000	-0,014	0,055
-518,145	-84,805	0,052	0,012
-517,131	-89,402	0,084	0,018
-516,116	800,000	-0,024	0,060
-515,102	-162,636	-0,041	-0,001
-514,087	4,144	0,059	-0,032
-513,072	-49,346	-0,049	-0,017
-512,058	46,274	0,128	-0,087
-511,043	95,985	-0,075	-0,063
-510,029	119,476	0,106	0,097
-509,014	70,254	-0,118	0,090
-507,999	-170,776	0,097	-0,002
-506,985	-136,961	0,023	-0,002
-505,970	-81,818	-0,154	0,037
-504,956	800,000	-0,032	-0,104
-503,941	-23,449	-0,090	0,040
-502,926	-150,660	0,032	-0,002
-501,912	-200,000	-0,023	0,102
-500,897	800,000	0,028	0,078
-499,883	-200,000	0,033	0,195
-498,868	-200,000	0,020	-0,067
-497,853	102,127	-0,127	-0,110
-496,839	791,545	0,050	-0,101
-495,824	-131,069	-0,046	0,004
-494,810	-200,000	0,000	0,037
-493,795	177,953	0,085	0,092
-492,781	-200,000	0,006	0,202
-491,766	113,339	-0,057	-0,051
-490,751	-157,394	0,083	0,004
-489,737	-200,000	-0,009	0,097
-488,722	-200,000	0,020	0,097
-487,708	-50,827	0,038	0,013
-486,693	-200,000	0,008	0,042
-485,678	-200,000	0,038	-0,198
-484,664	-200,000	-0,018	-0,163
-483,649	800,000	-0,036	-0,116
-482,635	-200,000	0,002	-0,043
-481,620	305,232	0,049	-0,067
-480,605	-26,996	0,040	0,017
-479,591	-119,590	-0,121	-0,015
-478,576	-73,470	-0,085	0,023
-477,562	800,000	0,047	-0,097
-476,547	-200,000	0,027	-0,099
-475,532	9,193	-0,057	-0,032
-474,518	-200,000	0,012	-0,042
-473,503	87,610	0,104	0,085
-472,489	-38,339	-0,141	0,055
-471,474	101,700	0,138	0,118
-470,459	8,205	-0,069	0,038
-469,445	800,000	-0,015	-0,037
-468,430	-200,000	-0,013	0,057
-467,416	43,450	-0,025	-0,017
-466,401	-8,851	0,086	0,042
-465,386	279,617	-0,046	-0,061
-464,372	-200,000	-0,017	0,067
-463,357	-200,000	0,004	-0,150
-462,343	-33,622	0,053	0,022
-461,328	473,709	-0,017	-0,028
-460,313	-150,450	0,084	0,005
-459,299	800,000	0,045	0,133
-458,284	124,815	0,085	0,079
-457,270	154,351	-0,078	-0,079
-456,255	-85,033	-0,167	0,038
-455,241	-56,876	0,119	-0,039
-454,226	-65,846	-0,057	0,017
-453,211	365,672	0,092	0,138
-452,197	800,000	-0,038	0,121
-451,182	-55,056	0,014	-0,004
-450,168	-200,000	-0,007	-0,058
-449,153	-44,565	0,071	-0,026
-448,138	800,000	-0,023	-0,065
-447,124	-165,316	-0,067	0,002
-446,109	-200,000	-0,007	0,050
-445,095	-104,924	0,053	-0,009
-444,080	156,916	0,031	0,031
-443,065	509,568	-0,029	0,049
-442,051	42,765	0,049	0,033
-441,036	-63,913	0,108	-0,032
-440,022	83,396	-0,042	0,033
-439,007	260,992	0,024	0,030
-437,992	-200,000	0,024	0,135
-436,978	189,225	0,017	-0,019
-435,963	332,734	-0,030	0,042
-434,949	-200,000	-0,005	-0,036
-433,934	-200,000	-0,004	-0,019
-432,919	87,546	-0,078	-0,064
-431,905	505,251	-0,037	0,064
-430,890	350,101	0,006	0,008
-429,876	-95,496	0,038	0,007
-428,861	-43,771	0,045	0,017
-427,846	545,678	0,062	-0,110
-426,832	-91,752	-0,133	-0,028
-425,817	17,649	-0,028	-0,017
-424,803	-147,133	-0,062	0,004
-423,788	179,206	0,025	0,027
-422,773	-28,329	-0,070	0,029
-421,759	-86,566	0,095	-0,021
-420,744	-128,930	-0,111	-0,011
-419,730	138,570	0,044	-0,043
-418,715	-189,584	-0,162	-0,001
-417,701	108,617	0,053	0,047
-416,686	-200,000	0,009	0,050
-415,671	-200,000	-0,005	-0,071
-414,657	-200,000	0,010	0,062
-413,642	800,000	0,022	-0,060
-412,628	-200,000	0,011	-0,074
-411,613	800,000	0,013	0,036
-410,598	57,642	0,111	-0,080
-409,584	108,335	-0,051	-0,045
-408,569	192,901	0,074	0,082
-407,555	233,873	-0,069	-0,083
-406,540	-99,610	0,064	-0,012
-405,525	100,014	0,036	0,031
-404,511	-91,679	-0,030	-0,006
-403,496	-200,000	-0,003	-0,093
-402,482	107,469	0,042	0,037
-401,467	-43,252	-0,101	-0,037
-400,452	133,084	-0,060	0,057
-399,438	154,713	-0,066	0,067
-398,423	800,000	0,019	-0,038
-397,409	-200,000	0,007	0,061
-396,394	669,435	0,029	0,055
-395,379	42,128	0,110	0,073
-394,365	156,141	-0,133	0,135
-393,350	14,763	0,087	-0,050
-392,336	-200,000	-0,015	0,092
-391,321	18,531	0,098	-0,057
-390,306	683,456	-0,021	-0,041
-389,292	12,662	0,094	-0,053
-388,277	-200,000	0,002	0,028
-387,263	533,020	-0,025	-0,044
-386,248	12,126	0,078	0,044
-385,233	-144,658	-0,249	0,017
-384,219	133,048	-0,045	-0,043
-383,204	429,393	0,097	-0,154
-382,190	26,153	-0,083	-0,051
-381,175	-200,000	0,021	-0,109
-380,160	-200,000	-0,007	0,200
-379,146	319,522	0,055	0,077
-378,131	25,453	-0,077	-0,047
-377,117	-43,382	0,107	0,040
-376,102	-49,070	-0,048	-0,017
-375,088	-127,583	-0,136	0,014
-374,073	39,023	-0,055	0,036
-373,058	-200,000	-0,016	-0,092
-372,044	800,000	-0,010	0,031
-371,029	319,272	0,031	-0,043
-370,015	-200,000	0,005	-0,042
-369,000	-200,000	0,005	-0,119
-367,985	98,696	-0,053	0,045
-366,971	34,314	0,050	0,032
-365,956	213,550	-0,032	-0,037
-364,942	5,742	0,158	0,085
-363,927	800,000	-0,050	0,138
-362,912	-200,000	-0,003	-0,038
-361,898	132,510	0,045	0,042
-360,883	42,091	0,022	0,015
-359,869	-74,373	-0,097	0,025
-358,854	-200,000	-0,001	0,116
-357,839	796,898	0,037	-0,076
-356,825	493,983	0,050	0,084
-355,810	-179,306	0,065	0,001
-354,796	-200,000	-0,049	-0,196
-353,781	168,685	-0,112	-0,117
-352,766	800,000	0,077	-0,188
-351,752	213,743	-0,052	-0,060
-350,737	126,261	-0,090	0,083
-349,723	800,000	-0,023	0,073
-348,708	380,106	0,031	-0,047
-347,693	25,281	-0,058	-0,036
-346,679	-95,953	-0,086	0,017
-345,664	-28,876	-0,069	0,029
-344,650	22,864	-0,063	-0,038
-343,635	800,000	-0,026	0,055
-342,620	571,565	0,044	0,079
-341,606	775,714	0,082	0,165
-340,591	-30,539	-0,133	0,055
-339,577	-200,000	0,005	-0,133
-338,562	-200,000	0,009	-0,045
-337,548	-200,000	-0,002	0,129
-336,533	-73,243	-0,150	0,040
-335,518	442,789	0,041	-0,066
-334,504	130,136	-0,031	0,029
-333,489	-104,471	0,031	0,005
-332,475	38,073	0,114	0,074
-331,460	-165,911	-0,107	0,003
-330,445	-114,543	0,109	0,015
-329,431	177,377	0,109	0,117
-328,416	-73,976	-0,107	-0,028
-327,402	-200,000	-0,004	-0,026
-326,387	344,430	0,046	0,066
-325,372	382,326	0,031	0,047
-324,358	1,264	0,099	-0,052
-323,343	-38,313	-0,041	-0,016
-322,329	-200,000	0,009	0,068
-321,314	18,442	0,068	-0,040
-320,299	113,807	-0,040	-0,036
-319,285	-141,221	-0,079	0,006
-318,270	-200,000	-0,025	-0,115
-317,256	-200,000	0,020	-0,099
-316,241	800,000	0,016	-0,038
-315,226	-52,064	-0,130	0,044
-314,212	664,748	0,070	-0,134
-313,197	-93,650	0,062	0,012
-312,183	60,543	0,019	-0,014
-311,168	-15,598	-0,112	-0,052
-310,153	-200,000	-0,007	0,076
-309,139	-52,358	-0,061	-0,020
-308,124	-200,000	-0,007	0,228
-307,110	202,855	0,107	0,121
-306,095	800,000	0,019	0,043
-305,080	-61,219	0,048	0,015
-304,066	19,401	-0,103	-0,060
-303,051	-104,039	-0,165	0,028
-302,037	-200,000	-0,002	0,229
-301,022	800,000	0,022	0,067
-300,008	-200,000	0,010	0,098
-298,993	-178,321	-0,081	0,001
-297,978	-98,885	-0,079	0,015
-296,964	332,396	-0,034	-0,048
-295,949	28,034	0,196	-0,121
-294,935	800,000	-0,042	-0,118
-293,920	-200,000	-0,007	-0,043
-292,905	-200,000	0,006	-0,100
-291,891	-12,051	0,078	0,037
-290,876	240,802	0,014	0,017
-289,862	-200,000	-0,017	0,081
-288,847	800,000	0,036	-0,085
-287,832	-200,000	0,006	0,051
-286,818	270,582	0,054	-0,069
-285,803	-200,000	-0,001	-0,017
-284,789	752,572	0,011	0,022
-283,774	217,854	0,042	-0,049
-282,759	-200,000	0,011	0,153
-281,745	258,886	0,053	-0,067
-280,730	-200,000	-0,009	-0,105
-279,716	800,000	0,073	-0,152
-278,701	-200,000	0,038	0,131
-277,686	689,802	0,045	0,087
-276,672	589,939	0,026	0,047
-275,657	800,000	0,004	-0,010
-274,643	-103,074	0,068	-0,012
-273,628	-200,000	-0,017	0,077
-272,613	587,607	-0,042	-0,076
-271,599	-82,634	0,067	0,016
-270,584	64,619	0,060	0,044
-269,570	-200,000	0,010	-0,104
-268,555	760,542	-0,009	-0,019
-267,540	800,000	-0,026	-0,059
-266,526	-49,257	0,037	0,013
-265,511	754,852	0,025	-0,050
-264,497	90,460	0,137	-0,112
-263,482	299,845	-0,030	-0,041
-262,467	15,742	0,029	0,017
-261,453	-30,557	0,079	-0,033
-260,438	-21,253	0,047	0,021
-259,424	-200,000	0,008	0,055
-258,409	-200,000	-0,007	-0,048
-257,395	36,814	0,051	0,033
-256,380	-37,175	0,151	0,059
-255,365	-119,937	0,041	-0,005
-254,351	800,000	0,014	-0,045
-253,336	-179,443	0,162	0,003
-252,322	246,120	0,033	-0,040
-251,307	-102,013	0,050	0,009
-250,292	90,399	-0,119	-0,097
-249,278	-200,000	-0,008	0,126
-248,263	92,367	-0,028	-0,023
-247,249	800,000	0,015	0,048
-246,234	-10,681	-0,078	0,038
-245,219	-53,353	-0,019	0,006
-244,205	51,669	-0,066	-0,046
-243,190	800,000	0,033	0,096
-242,176	-28,353	0,097	0,041
-241,161	-200,000	0,016	0,069
-240,146	160,187	0,012	0,012
-239,132	327,571	-0,032	0,045
-238,117	-113,626	0,065	0,009
-237,103	184,772	-0,083	0,090
-236,088	532,674	-0,111	0,192
-235,073	224,431	0,048	-0,057
-234,059	232,224	0,033	-0,039
-233,044	48,043	0,024	0,017
-232,030	-200,000	0,027	0,124
-231,015	365,320	-0,054	0,080
-230,000	422,680	0,026	-0,041
-228,986	-53,531	-0,132	0,044
-227,971	76,182	0,230	0,177
-226,957	554,242	0,030	-0,052
-225,942	-78,833	0,137	-0,034
-224,927	126,197	0,069	-0,064
-223,913	156,415	-0,051	0,051
-222,898	-15,682	0,038	-0,018
-221,884	-200,000	0,009	0,057
-220,869	800,000	0,045	0,091
-219,855	-36,903	-0,077	0,030
-218,840	102,147	0,105	0,090
-217,825	1,817	0,154	-0,081
-216,811	-136,861	0,025	-0,002
-215,796	35,287	-0,088	-0,056
-214,782	-200,000	-0,002	0,088
-213,767	-25,261	0,071	0,031
-212,752	-84,678	0,168	0,038
-211,738	800,000	-0,072	-0,169
-210,723	-200,000	0,017	-0,060
-209,709	-200,000	-0,022	-0,077
-208,694	270,640	-0,056	-0,072
-207,679	34,761	0,055	0,035
-206,665	-200,000	0,022	-0,072
-205,650	-4,071	0,117	0,059
-204,636	-93,385	-0,039	0,008
-203,621	-63,507	-0,063	-0,019
-202,606	153,843	-0,084	-0,084
-201,592	458,504	-0,046	-0,074
-200,577	-200,000	0,002	-0,010
-199,563	-161,242	-0,086	0,003
-198,548	71,882	0,096	0,073
-197,533	-29,273	0,189	-0,079
-196,519	-200,000	-0,012	0,083
-195,504	-29,808	-0,132	0,055
-194,490	800,000	-0,011	0,028
-193,475	-144,210	-0,046	0,003
-192,460	96,840	0,123	0,103
-191,446	-200,000	0,035	0,118
-190,431	800,000	0,028	0,090
-189,417	98,500	0,083	0,070
-188,402	-164,443	0,025	0,001
-187,387	520,026	-0,043	-0,073
-186,373	800,000	0,006	-0,015
-185,358	-200,000	-0,004	-0,067
-184,344	101,353	-0,051	0,043
-183,329	-200,000	0,003	0,050
-182,315	-200,000	0,028	0,122
-181,300	298,196	0,073	0,098
-180,285	600,840	-0,016	-0,028
-179,271	48,253	-0,163	-0,111
-178,256	-156,726	-0,075	0,003
-177,242	-93,650	0,101	0,020
-176,227	205,744	-0,036	0,041
-175,212	-123,046	0,097	0,011
-174,198	-74,240	-0,066	0,017
-173,183	800,000	-0,039	0,120
-172,169	510,715	0,030	-0,051
-171,154	800,000	-0,050	-0,105
-170,139	-151,134	0,015	0,001
-169,125	323,370	0,068	0,094
-168,110	-64,139	-0,135	0,040
-167,096	432,169	0,044	0,070
-166,081	28,033	-0,156	-0,096
-165,066	184,940	-0,063	-0,068
-164,052	464,680	0,017	-0,028
-163,037	65,004	0,134	0,098
-162,023	265,160	0,049	-0,062
-161,008	720,741	-0,090	-0,175
-159,993	800,000	-0,032	-0,078
-158,979	800,000	-0,020	-0,054
-157,964	625,535	-0,059	0,108
-156,950	748,933	-0,063	-0,125
-155,935	53,009	-0,092	-0,064
-154,920	-142,932	0,021	-0,001
-153,906	212,672	-0,041	0,048
-152,891	364,794	-0,057	0,084
-151,877	82,851	-0,079	0,063
-150,862	-200,000	-0,014	-0,133
-149,847	47,514	-0,022	-0,015
-148,833	800,000	0,014	-0,043
-147,818	-145,139	0,074	0,005
-146,804	602,403	-0,081	0,147
-145,789	4,168	-0,033	0,018
-144,775	-200,000	0,014	-0,090
-143,760	-32,302	-0,108	-0,044
-142,745	-85,430	-0,127	-0,029
-141,731	-50,485	0,015	0,005
-140,716	460,433	0,046	0,074
-139,702	-200,000	0,005	0,123
-138,687	-24,376	0,076	-0,033
-137,672	-111,758	-0,111	0,016
-136,658	443,356	0,041	-0,065
-135,643	21,731	0,050	-0,030
-134,629	69,376	-0,088	-0,066
-133,614	1,035	0,106	-0,055
-132,599	362,071	-0,068	0,100
-131,585	800,000	0,029	0,092
-130,570	-66,565	-0,166	-0,048
-129,556	102,893	0,113	-0,096
-128,541	800,000	0,099	-0,249
-127,526	40,762	-0,090	-0,059
-126,512	132,644	0,085	-0,080
-125,497	-132,931	-0,118	0,011
-124,483	800,000	-0,071	-0,156
-123,468	-150,908	-0,073	-0,004
-122,453	-73,716	0,158	-0,042
-121,439	-66,557	-0,060	-0,017
-120,424	85,099	-0,115	-0,091
-119,410	64,490	-0,021	0,016
-118,395	618,516	-0,046	0,084
-117,380	-48,726	0,099	-0,034
-116,366	800,000	-0,033	-0,091
-115,351	26,107	0,115	-0,070
-114,337	250,946	-0,036	0,044
-113,322	-169,768	0,074	0,002
-112,307	-18,422	0,171	-0,077
-111,293	710,911	-0,044	0,084
-110,278	800,000	0,024	0,071
-109,264	-52,767	-0,082	0,027
-108,249	231,445	-0,064	-0,076
-107,234	-200,000	-0,001	-0,031
-106,220	64,378	-0,087	0,064
-105,205	112,203	0,108	0,095
-104,191	-151,942	0,067	0,004
-103,176	-200,000	0,008	0,081
-102,162	-200,000	0,015	0,176
-101,147	227,510	-0,124	0,147
-100,132	79,220	0,055	-0,042
-99,118	-5,247	0,108	-0,054
-98,103	-200,000	-0,001	-0,120
-97,089	-6,754	0,118	0,058
-96,074	152,142	-0,015	-0,015
-95,059	329,540	0,067	0,093
-94,045	-17,978	-0,129	0,059
-93,030	-200,000	0,001	-0,029
-92,016	266,216	-0,034	-0,043
-91,001	-200,000	0,011	0,077
-89,986	-84,800	0,074	-0,017
-88,972	648,124	0,022	-0,042
-87,957	-155,323	0,054	-0,003
-86,943	-25,780	-0,070	-0,030
-85,928	-200,000	0,019	-0,063
-84,913	-0,739	-0,185	-0,095
-83,899	592,572	0,034	0,062
-82,884	-86,450	0,104	0,023
-81,870	512,933	-0,023	-0,039
-80,855	39,367	-0,037	-0,024
-79,840	-57,193	-0,035	-0,011
-78,826	274,196	-0,107	0,138
-77,811	-200,000	-0,016	-0,129
-76,797	-200,000	0,047	-0,152
-75,782	123,463	0,148	0,135
-74,767	-200,000	0,045	0,152
-73,753	-200,000	0,031	0,112
-72,738	-32,555	0,139	0,056
-71,724	428,328	0,051	-0,080
-70,709	-63,273	-0,025	-0,007
-69,694	93,594	0,008	-0,007
-68,680	390,229	-0,040	-0,061
-67,665	537,986	0,066	0,114
-66,651	-35,091	0,053	0,021
-65,636	253,901	0,012	0,014
-64,622	800,000	-0,027	-0,084
-63,607	-171,004	0,078	-0,002
-62,592	759,317	-0,031	0,062
-61,578	568,548	-0,114	0,201
-60,563	-200,000	-0,008	0,080
-59,549	273,522	-0,027	0,034
-58,534	-67,744	-1,417	-0,400
-57,519	800,000	-0,687	-1,419
-56,505	-200,000	-0,985	-4,537
-55,490	-87,422	0,673	-0,147
-54,476	800,000	4,924	11,764
-53,461	-200,000	14,521	262,081
-52,446	-200,000	695,626	2268,701
-51,432	586,947	1623,515	2910,216
-50,417	119,285	1632,377	1465,190
-49,403	76,223	1286,257	986,946
-48,388	37,814	1023,893	658,503
-47,373	23,489	982,945	584,989
-46,359	22,597	972,326	575,716
-45,344	21,523	967,967	569,597
-44,330	21,492	966,467	568,591
-43,315	21,326	964,867	567,086
-42,300	21,273	963,930	566,340
-41,286	21,295	962,937	565,805
-40,271	21,273	962,000	565,162
-39,257	21,264	961,132	564,600
-38,242	21,277	960,092	564,009
-37,227	21,296	959,176	563,510
-36,213	21,280	958,197	562,861
-35,198	21,222	957,537	562,264
-34,184	21,328	956,641	562,056
-33,169	21,233	956,072	561,394
-32,154	21,330	954,849	560,966
-31,140	21,360	954,177	560,645
-30,125	21,340	953,313	560,051
-29,111	21,317	952,598	559,533
-28,096	21,333	951,773	559,081
-27,082	21,302	951,161	558,598
-26,067	21,300	950,261	558,042
-25,052	21,309	949,650	557,689
-24,038	21,220	949,151	557,087
-23,023	21,318	948,392	556,934
-22,009	21,302	947,622	556,409
-20,994	21,287	947,269	556,133
-19,979	21,334	946,478	555,797
-18,965	21,333	945,868	555,412
-17,950	21,293	945,231	554,888
-16,936	21,255	944,669	554,414
-15,921	21,249	943,912	553,929
-14,906	21,206	943,057	553,269
-13,892	21,185	942,631	552,930
-12,877	21,155	941,908	552,390
-11,863	21,119	941,365	551,934
-10,848	21,147	940,942	551,752
-9,833	21,283	940,392	551,842
-8,819	21,273	939,810	551,446
-7,804	21,158	939,066	550,622
-6,790	21,155	938,498	550,257
-5,775	21,220	937,848	550,060
-4,760	21,195	937,370	549,680
-3,746	21,208	936,623	549,261
-2,731	21,048	935,865	548,289
-1,717	20,985	935,129	547,636
-0,702	21,045	934,661	547,531
0,313	20,814	934,052	547,270
1,327	23,865	932,098	555,687
2,342	33,171	794,950	498,706
3,356	30,633	451,367	279,306
4,371	-0,025	294,983	151,777
5,386	-4,554	276,223	137,798
6,400	-6,249	270,333	133,265
7,415	-6,643	268,003	131,740
8,429	-6,129	266,803	131,612
9,444	-5,998	265,965	131,308
10,459	-5,975	265,393	131,035
11,473	-6,119	264,787	130,592
12,488	-5,995	264,209	130,409
13,502	-6,188	263,733	129,987
14,517	-6,110	263,378	129,870
15,531	-5,820	263,134	130,002
16,546	-5,478	262,607	130,040
17,561	-5,770	262,274	129,599
18,575	-5,602	261,981	129,595
19,590	-5,879	261,678	129,184
20,604	-5,784	261,577	129,208
21,619	-5,822	261,167	128,960
22,634	-5,680	260,627	128,809
23,648	-5,694	260,518	128,731
24,663	-5,833	260,202	128,439
25,677	-5,754	259,897	128,348
26,692	-5,852	259,733	128,168
27,707	-5,917	259,304	127,887
28,721	-5,697	259,190	128,016
29,736	-5,937	258,872	127,632
30,750	-5,754	258,564	127,632
31,765	-5,921	258,383	127,383
32,780	-5,871	258,293	127,372
33,794	-5,922	257,904	127,123
34,809	-5,752	257,623	127,124
35,823	-5,802	257,437	126,977
36,838	-5,893	257,200	126,768
37,853	-5,854	256,984	126,685
38,867	-5,790	256,782	126,630
39,882	-5,878	256,496	126,400
40,896	-5,942	256,335	126,253
41,911	-5,751	256,002	126,246
42,926	-6,013	255,908	125,958
43,940	-6,022	255,637	125,805
44,955	-5,847	255,399	125,830
45,969	-5,995	255,300	125,641
46,984	-6,173	255,027	125,339
47,999	-6,393	254,779	125,013
49,013	-6,457	254,593	124,854
50,028	-6,448	254,086	124,602
51,042	-6,763	253,996	124,272
52,057	-6,544	253,696	124,305
53,071	-6,451	253,530	124,294
54,086	-6,473	253,251	124,127
55,101	-6,515	253,294	124,100
56,115	-6,229	252,978	124,184
57,130	-6,042	253,180	124,435
58,144	-5,647	252,578	124,470
59,159	-5,558	252,380	124,439
60,174	-5,720	252,246	124,221
61,188	-5,750	251,987	124,057
62,203	-5,892	252,049	123,953
63,217	-5,756	251,637	123,857
64,232	-5,903	251,463	123,633
65,247	-5,913	251,164	123,466
66,261	-5,905	250,882	123,324
67,276	-6,133	250,826	123,088
68,290	-6,184	250,545	122,896
69,305	-6,426	250,296	122,555
70,320	-6,254	250,208	122,648
71,334	-5,975	250,006	122,778
72,349	-5,652	249,787	122,937
73,363	-5,608	249,588	122,866
74,378	-5,916	249,559	122,577
75,393	-5,610	249,159	122,631
76,407	-5,725	249,058	122,472
77,422	-5,944	248,943	122,217
78,436	-5,737	248,646	122,237
79,451	-5,718	248,277	122,061
80,466	-5,862	248,161	121,870
81,480	-6,028	248,005	121,641
82,495	-5,986	247,788	121,560
83,509	-6,014	247,631	121,449
84,524	-6,021	247,394	121,315
85,539	-6,245	247,249	121,044
86,553	-6,221	247,028	120,945
87,568	-6,086	246,790	120,932
88,582	-5,992	246,539	120,877
89,597	-5,948	246,409	120,841
90,611	-5,832	246,238	120,843
91,626	-5,700	246,081	120,867
92,641	-5,870	245,925	120,637
93,655	-6,100	245,776	120,359
94,670	-5,914	245,603	120,420
95,684	-5,990	245,281	120,187
96,699	-5,854	245,129	120,217
97,714	-6,073	245,035	119,976
98,728	-6,008	244,721	119,866
99,743	-5,996	244,502	119,758
100,757	-6,099	244,392	119,607
101,772	-6,237	244,191	119,382
102,787	-6,123	244,117	119,431
103,801	-6,028	243,843	119,366
104,816	-5,993	243,823	119,375
105,830	-6,014	243,633	119,253
106,845	-5,765	243,241	119,258
107,860	-5,849	243,135	119,126
108,874	-5,925	242,924	118,949
109,889	-6,034	242,593	118,686
110,903	-6,072	242,467	118,582
111,918	-6,324	242,352	118,305
112,933	-5,960	242,138	118,492
113,947	-5,959	241,985	118,408
114,962	-6,094	241,992	118,289
115,976	-5,950	241,710	118,260
116,991	-5,857	241,502	118,224
118,006	-6,152	241,312	117,877
119,020	-5,811	241,203	118,094
120,035	-5,828	241,138	118,038
121,049	-5,860	240,985	117,927
122,064	-5,927	240,775	117,758
123,079	-5,853	240,674	117,759
124,093	-6,212	240,505	117,370
125,108	-6,296	240,252	117,168
126,122	-6,362	239,880	116,922
127,137	-6,271	239,778	116,936
128,151	-6,241	239,533	116,831
129,166	-6,124	239,294	116,800
130,181	-6,178	239,203	116,701
131,195	-6,257	239,149	116,599
132,210	-6,169	238,860	116,520
133,224	-6,015	238,556	116,486
134,239	-6,165	238,618	116,384
135,254	-6,125	238,417	116,308
136,268	-6,230	238,254	116,133
137,283	-6,196	237,953	116,004
138,297	-6,445	237,717	115,676
139,312	-6,247	237,478	115,710
140,327	-6,100	237,474	115,817
141,341	-5,548	237,427	116,231
142,356	-5,658	237,208	116,024
143,370	-5,818	237,110	115,837
144,385	-5,733	236,966	115,825
145,400	-5,540	236,781	115,879
146,414	-5,675	236,520	115,633
147,429	-5,716	236,492	115,576
148,443	-5,988	236,492	115,346
149,458	-5,643	236,057	115,401
150,473	-5,737	235,879	115,229
151,487	-5,856	235,694	115,033
152,502	-5,595	235,431	115,103
153,516	-5,573	235,329	115,060
154,531	-5,823	235,284	114,828
155,546	-5,847	234,964	114,642
156,560	-5,753	234,832	114,643
157,575	-5,751	234,614	114,528
158,589	-5,788	234,492	114,428
159,604	-5,478	234,291	114,567
160,619	-5,590	234,222	114,434
161,633	-5,372	233,993	114,486
162,648	-5,556	233,952	114,309
163,662	-5,495	233,734	114,240
164,677	-6,012	233,646	113,776
165,692	-5,772	233,519	113,895
166,706	-5,523	233,359	114,005
167,721	-5,638	233,197	113,824
168,735	-5,415	233,114	113,950
169,750	-5,562	232,961	113,749
170,764	-5,663	232,638	113,501
171,779	-5,588	232,632	113,548
172,794	-5,653	232,440	113,393
173,808	-5,753	232,099	113,137
174,823	-6,295	231,796	112,552
175,837	-6,148	231,656	112,589
176,852	-6,014	231,609	112,662
177,867	-5,752	231,492	112,802
178,881	-5,629	231,327	112,808
179,896	-5,678	231,428	112,808
180,910	-5,727	231,252	112,674
181,925	-5,536	230,878	112,632
182,940	-5,737	230,816	112,434
183,954	-5,668	230,744	112,443
184,969	-5,460	230,499	112,476
185,983	-5,450	230,431	112,441
186,998	-5,517	230,303	112,316
188,013	-5,350	230,077	112,327
189,027	-5,517	229,871	112,085
190,042	-5,488	229,818	112,073
191,056	-5,622	229,597	111,850
192,071	-5,589	229,466	111,802
193,086	-5,603	229,189	111,646
194,100	-5,847	228,966	111,338
195,115	-6,417	228,497	110,657
196,129	-7,343	228,180	109,776
197,144	-3,823	229,328	113,059
198,159	0,985	230,794	117,531
199,173	4,417	231,560	120,596
200,188	4,636	231,524	120,737
201,202	4,348	231,424	120,449
202,217	4,598	231,349	120,595
203,232	4,873	231,131	120,685
204,246	5,046	231,020	120,751
205,261	4,940	230,839	120,563
206,275	5,156	230,895	120,750
207,290	5,279	230,587	120,673
208,304	5,108	230,545	120,507
209,319	4,939	230,330	120,253
210,334	4,926	230,101	120,113
211,348	4,557	229,770	119,644
212,363	4,210	229,640	119,296
213,377	4,310	229,273	119,172
214,392	4,134	229,332	119,056
215,407	4,377	229,032	119,078
216,421	4,493	228,885	119,080
217,436	4,291	228,757	118,848
218,450	4,050	228,575	118,557
219,465	4,080	228,428	118,493
220,480	4,165	228,241	118,451
221,494	3,952	228,388	118,353
222,509	4,083	228,170	118,330
223,523	4,201	228,027	118,336
224,538	4,331	227,686	118,248
225,553	4,310	227,554	118,153
226,567	4,373	227,599	118,214
227,582	4,449	227,542	118,231
228,596	4,493	227,339	118,150
229,611	4,247	227,136	117,846
230,626	4,153	226,784	117,580
231,640	4,073	226,802	117,518
232,655	4,511	226,715	117,797
233,669	4,681	226,656	117,886
234,684	4,707	226,586	117,858
235,699	4,602	226,262	117,599
236,713	4,233	226,014	117,179
237,728	4,254	225,954	117,153
238,742	4,073	225,748	116,899
239,757	4,251	225,628	116,962
240,772	4,102	225,435	116,738
241,786	4,217	225,268	116,729
242,801	4,379	225,141	116,775
243,815	4,553	225,159	116,906
244,830	4,642	225,042	116,901
245,844	4,424	224,625	116,510
246,859	4,449	224,469	116,438
247,874	4,431	224,496	116,428
248,888	4,481	224,331	116,369
249,903	4,135	224,224	116,043
250,917	4,104	224,007	115,897
251,932	4,361	223,751	115,947
252,947	3,921	223,698	115,579
253,961	3,895	223,559	115,477
254,976	4,314	223,263	115,628
255,990	4,155	223,334	115,535
257,005	4,333	223,252	115,616
258,020	4,398	223,092	115,572
259,034	4,799	222,950	115,788
260,049	4,524	222,718	115,451
261,063	4,381	222,529	115,236
262,078	4,645	222,359	115,335
263,093	4,660	222,402	115,358
264,107	4,528	222,192	115,141
265,122	4,557	221,966	115,035
266,136	4,687	221,996	115,137
267,151	4,617	221,821	114,984
268,166	4,300	221,565	114,605
269,180	4,035	221,319	114,271
270,195	4,133	221,211	114,278
271,209	4,135	220,940	114,129
272,224	4,145	220,963	114,138
273,239	4,332	220,704	114,132
274,253	4,221	220,535	113,953
275,268	4,223	220,357	113,852
276,282	3,992	220,139	113,559
277,297	3,989	220,101	113,527
278,312	4,248	220,007	113,659
279,326	4,214	219,784	113,509
280,341	4,253	219,811	113,541
281,355	4,316	219,763	113,553
282,370	4,271	219,472	113,359
283,384	4,110	219,315	113,150
284,399	4,024	219,057	112,944
285,414	4,052	218,948	112,898
286,428	4,099	218,877	112,886
287,443	4,250	218,829	112,962
288,457	4,568	218,556	113,044
289,472	4,191	218,614	112,787
290,487	3,840	218,320	112,369
291,501	3,732	218,138	112,186
292,516	3,882	218,086	112,259
293,530	3,838	217,954	112,149
294,545	3,834	217,739	112,026
295,560	4,006	217,657	112,098
296,574	4,172	217,636	112,198
297,589	4,213	217,454	112,125
298,603	4,275	217,203	112,031
299,618	4,445	217,179	112,131
300,633	4,110	217,149	111,862
301,647	4,441	216,995	112,014
302,662	4,331	216,850	111,849
303,676	4,498	216,673	111,869
304,691	4,502	216,487	111,766
305,706	4,651	216,288	111,760
306,720	4,442	216,249	111,579
307,735	4,308	216,098	111,395
308,749	4,131	215,955	111,183
309,764	4,348	215,873	111,288
310,779	4,589	215,765	111,396
311,793	4,440	215,634	111,211
312,808	4,334	215,403	111,006
313,822	4,318	215,248	110,905
314,837	4,411	215,113	110,892
315,852	4,281	214,806	110,630
316,866	4,172	214,875	110,578
317,881	4,444	214,823	110,736
318,895	4,400	214,600	110,580
319,910	4,412	214,284	110,416
320,925	3,889	214,208	109,992
321,939	3,755	214,052	109,807
322,954	3,791	213,940	109,766
323,968	4,238	213,884	110,046
324,983	4,485	213,771	110,155
325,997	4,396	213,689	110,039
327,012	4,365	213,472	109,895
328,027	4,137	213,361	109,666
329,041	4,461	213,311	109,861
330,056	4,416	213,297	109,812
331,070	4,109	212,880	109,370
332,085	3,952	212,803	109,209
333,100	4,128	212,471	109,153
334,114	4,290	212,567	109,308
335,129	4,287	212,296	109,157
336,143	4,020	212,199	108,908
337,158	3,999	212,058	108,811
338,173	4,265	211,871	108,893
339,187	4,169	211,653	108,704
340,202	3,630	211,632	108,303
341,216	3,612	211,422	108,173
342,231	3,960	211,341	108,367
343,246	3,977	211,240	108,318
344,260	3,853	211,211	108,206
345,275	4,262	211,052	108,403
346,289	4,484	210,866	108,453
347,304	4,335	210,748	108,278
348,319	4,296	210,578	108,154
349,333	3,999	210,503	107,898
350,348	4,426	210,388	108,128
351,362	4,516	210,244	108,107
352,377	4,446	210,165	108,008
353,392	4,429	209,936	107,869
354,406	4,277	209,768	107,667
355,421	193,737	1345,736	1433,422
356,435	154,613	1484,229	1433,529
