DTS Sentinel unit serial number:	SN410029Multiplexer serial number:	ORYXHardware model number:	OX2-SRSoftware version number:	ORYX F/W v4,00 Oryx Data Collector v3.7.2.0data status	okinstallation	B6 Nyhavnadifferential loss correction	single-endedforward channel	channel 2reverse channel	N/Adate	2023/12/10time	10:50:08forward acquisition time	300,00reverse acquisition time	0,00gamma	499,1914k internal	0,3123k external	0,3123temperature offset calibration	1,0000default loss term (dB/km)	0,3820temperature slope calibration	1,0000multiplexer offset coefficient	1,0000multiplexer slope coefficient	1,0000fibre end	0,00T internal ref (°C)	22,61T ext. ref 1 (°C)	6,48T ext. ref 2 (°C)	6,47length (m)	temperature (°C)	Stokes	anti-Stokes-744,400	-200,000	0,041	-0,155
-743,385	-25,168	-0,214	0,094
-742,371	64,326	-0,116	0,087
-741,356	69,887	-0,137	0,105
-740,342	102,924	-0,046	0,040
-739,327	-15,325	-0,249	0,118
-738,312	-77,805	0,074	-0,019
-737,298	8,817	-0,149	-0,083
-736,283	800,000	-0,061	-0,151
-735,269	-26,691	-0,141	0,061
-734,254	800,000	0,031	-0,090
-733,239	-68,887	-0,254	-0,073
-732,225	-20,923	0,152	0,069
-731,210	393,420	-0,074	0,116
-730,196	341,890	0,054	-0,079
-729,181	466,966	-0,026	-0,043
-728,167	-96,730	0,113	-0,022
-727,152	-56,846	-0,149	-0,049
-726,137	22,158	-0,099	-0,060
-725,123	162,208	-0,068	-0,071
-724,108	23,529	-0,046	-0,028
-723,094	432,626	-0,092	-0,150
-722,079	32,167	-0,041	-0,026
-721,064	-200,000	0,013	-0,071
-720,050	-91,863	-0,205	-0,043
-719,035	-76,294	0,090	0,023
-718,021	254,652	-0,075	-0,096
-717,006	-32,258	-0,108	-0,045
-715,991	145,825	-0,074	-0,074
-714,977	-20,387	0,030	0,014
-713,962	-114,675	-0,036	0,005
-712,948	-200,000	-0,000	-0,139
-711,933	-145,229	-0,110	0,007
-710,918	150,417	0,127	0,129
-709,904	213,360	0,027	0,032
-708,889	800,000	-0,067	-0,187
-707,875	-200,000	-0,004	-0,131
-706,860	-149,144	0,062	-0,004
-705,845	800,000	0,027	-0,074
-704,831	-200,000	-0,012	0,047
-703,816	800,000	-0,013	-0,031
-702,802	67,661	0,061	-0,046
-701,787	-200,000	-0,018	-0,112
-700,772	260,678	-0,138	-0,178
-699,758	9,610	0,045	0,026
-698,743	-159,953	-0,048	-0,002
-697,729	353,907	-0,051	-0,076
-696,714	362,232	-0,012	-0,017
-695,699	-39,816	-0,076	-0,029
-694,685	501,214	0,042	-0,073
-693,670	78,497	0,052	-0,041
-692,656	423,631	-0,023	-0,038
-691,641	67,990	0,110	0,084
-690,627	-200,000	-0,002	-0,008
-689,612	-143,435	0,104	-0,007
-688,597	240,450	-0,021	-0,026
-687,583	-200,000	-0,022	0,108
-686,568	465,071	-0,069	-0,115
-685,554	-32,649	-0,103	-0,043
-684,539	-200,000	-0,001	-0,025
-683,524	-49,378	-0,034	0,012
-682,510	-200,000	-0,038	0,148
-681,495	195,573	-0,040	0,046
-680,481	-88,882	-0,053	0,011
-679,466	487,668	0,032	0,055
-678,451	-18,102	-0,007	-0,003
-677,437	43,161	0,134	-0,091
-676,422	-103,004	0,107	0,019
-675,408	17,685	-0,063	-0,037
-674,393	-200,000	0,005	0,043
-673,378	43,956	-0,059	0,040
-672,364	800,000	-0,059	-0,125
-671,349	471,286	-0,024	-0,040
-670,335	-38,849	0,229	-0,089
-669,320	-45,950	0,057	0,021
-668,305	-200,000	-0,004	0,020
-667,291	800,000	-0,061	-0,186
-666,276	-200,000	0,014	-0,170
-665,262	-111,914	-0,067	-0,010
-664,247	10,775	-0,109	-0,062
-663,232	-200,000	-0,013	0,080
-662,218	74,715	0,028	0,022
-661,203	20,905	-0,094	-0,057
-660,189	738,307	-0,069	0,139
-659,174	-200,000	-0,044	-0,152
-658,159	-200,000	-0,000	0,011
-657,145	11,921	-0,091	-0,052
-656,130	-200,000	-0,006	0,022
-655,116	-200,000	0,006	0,122
-654,101	39,375	0,127	0,085
-653,086	800,000	0,018	0,057
-652,072	184,003	-0,032	-0,035
-651,057	-200,000	0,047	-0,260
-650,043	-200,000	0,031	-0,155
-649,028	52,701	0,076	0,054
-648,014	9,095	-0,015	-0,008
-646,999	78,478	-0,169	-0,134
-645,984	14,774	0,062	-0,036
-644,970	-1,981	0,059	-0,031
-643,955	-67,361	-0,123	-0,036
-642,941	205,165	0,052	-0,060
-641,926	800,000	-0,053	0,149
-640,911	273,212	0,066	0,087
-639,897	162,852	-0,043	0,044
-638,882	-200,000	-0,017	0,102
-637,868	245,027	0,035	-0,044
-636,853	105,772	-0,026	-0,023
-635,838	-200,000	-0,016	-0,079
-634,824	-200,000	-0,006	-0,174
-633,809	-200,000	-0,011	-0,064
-632,795	0,357	-0,103	0,054
-631,780	-200,000	0,009	0,126
-630,765	800,000	-0,033	0,069
-629,751	-200,000	0,027	-0,202
-628,736	163,261	0,044	-0,046
-627,722	800,000	-0,015	-0,043
-626,707	-155,643	-0,207	0,010
-625,692	-200,000	0,000	0,129
-624,678	-200,000	-0,033	0,121
-623,663	683,805	-0,041	0,080
-622,649	115,865	-0,042	0,038
-621,634	105,109	-0,014	-0,012
-620,619	-53,956	-0,099	-0,033
-619,605	-65,770	0,126	0,037
-618,590	-116,609	-0,213	0,029
-617,576	220,387	0,068	-0,081
-616,561	620,675	-0,056	-0,104
-615,546	285,355	-0,038	-0,051
-614,532	791,900	-0,115	-0,237
-613,517	-200,000	-0,051	-0,182
-612,503	-200,000	0,019	0,070
-611,488	439,394	0,005	-0,008
-610,474	1,625	0,091	0,048
-609,459	-200,000	-0,006	0,040
-608,444	338,184	-0,035	-0,050
-607,430	-12,888	-0,098	0,047
-606,415	66,521	-0,062	-0,047
-605,401	680,484	-0,041	0,080
-604,386	103,773	-0,107	-0,093
-603,371	-15,688	0,019	0,009
-602,357	-80,954	-0,019	-0,005
-601,342	-200,000	0,016	0,070
-600,328	-85,205	-0,081	0,019
-599,313	-37,772	-0,114	-0,045
-598,298	-87,931	-0,174	-0,038
-597,284	258,983	0,082	0,105
-596,269	202,479	-0,005	-0,005
-595,255	-200,000	-0,020	-0,072
-594,240	-200,000	0,002	-0,065
-593,225	-200,000	0,008	0,074
-592,211	740,255	-0,011	0,022
-591,196	800,000	0,045	-0,134
-590,182	43,801	0,130	0,088
-589,167	-200,000	-0,014	0,069
-588,152	0,195	0,015	0,008
-587,138	800,000	-0,016	-0,052
-586,123	800,000	-0,059	-0,156
-585,109	607,507	0,061	-0,114
-584,094	800,000	-0,056	-0,135
-583,079	-200,000	0,022	0,105
-582,065	-40,025	0,096	0,037
-581,050	-200,000	-0,009	0,101
-580,036	284,585	0,069	-0,092
-579,021	-200,000	0,008	-0,067
-578,006	490,909	0,035	-0,060
-576,992	25,595	-0,054	-0,033
-575,977	-116,170	0,056	0,008
-574,963	374,350	-0,077	0,116
-573,948	-149,490	0,119	0,007
-572,934	103,549	0,025	0,022
-571,919	122,824	-0,048	-0,045
-570,904	-21,025	-0,041	-0,019
-569,890	-25,945	-0,058	-0,025
-568,875	800,000	-0,016	0,033
-567,861	163,371	-0,024	0,025
-566,846	-74,479	0,054	0,014
-565,831	-200,000	-0,005	-0,169
-564,817	-200,000	0,040	-0,178
-563,802	800,000	0,049	-0,102
-562,788	697,134	-0,023	-0,045
-561,773	145,167	-0,176	-0,175
-560,758	-200,000	0,007	-0,082
-559,744	12,300	0,081	0,046
-558,729	61,384	-0,038	-0,028
-557,715	800,000	0,046	-0,130
-556,700	-200,000	-0,020	-0,085
-555,685	124,973	-0,070	-0,065
-554,671	-132,172	-0,063	0,006
-553,656	-105,376	0,038	-0,006
-552,642	-200,000	-0,016	-0,099
-551,627	-200,000	-0,017	-0,100
-550,612	-200,000	-0,025	-0,172
-549,598	206,796	-0,006	0,007
-548,583	-200,000	0,001	-0,092
-547,569	25,216	-0,095	0,058
-546,554	415,805	-0,028	0,044
-545,539	-130,658	0,136	0,013
-544,525	-90,902	0,047	0,010
-543,510	-200,000	-0,030	-0,104
-542,496	-200,000	0,014	-0,122
-541,481	-109,778	-0,086	-0,013
-540,466	-200,000	0,007	-0,121
-539,452	209,019	-0,022	0,026
-538,437	-200,000	0,010	-0,112
-537,423	800,000	0,023	0,073
-536,408	-51,405	-0,093	0,032
-535,393	376,642	0,072	0,109
-534,379	-200,000	0,001	-0,027
-533,364	163,919	0,012	0,013
-532,350	15,001	0,072	0,042
-531,335	25,999	-0,098	-0,060
-530,321	309,731	-0,022	0,031
-529,306	32,912	0,025	-0,016
-528,291	62,567	-0,056	-0,041
-527,277	492,933	-0,013	0,022
-526,262	-128,012	0,089	-0,009
-525,248	186,447	0,042	0,047
-524,233	27,651	0,095	0,059
-523,218	12,368	0,094	0,053
-522,204	800,000	0,029	0,069
-521,189	792,649	-0,025	-0,051
-520,175	-200,000	-0,016	-0,106
-519,160	712,307	0,006	-0,012
-518,145	800,000	-0,060	0,175
-517,131	16,703	0,009	0,005
-516,116	-4,803	-0,024	0,012
-515,102	-200,000	-0,006	0,101
-514,087	384,763	0,046	-0,070
-513,072	-122,705	-0,158	0,019
-512,058	538,423	0,040	-0,071
-511,043	354,600	0,089	0,131
-510,029	45,111	0,027	0,018
-509,014	-200,000	-0,022	0,108
-507,999	-83,980	-0,073	0,017
-506,985	681,541	-0,041	-0,079
-505,970	-87,269	-0,141	0,031
-504,956	-200,000	0,014	-0,142
-503,941	-200,000	0,028	-0,149
-502,926	800,000	0,025	-0,056
-501,912	-200,000	-0,011	0,054
-500,897	-200,000	-0,027	0,113
-499,883	-12,738	-0,113	-0,054
-498,868	-34,027	0,015	-0,006
-497,853	-122,340	-0,056	0,007
-496,839	388,004	-0,046	0,070
-495,824	29,487	0,008	-0,005
-494,810	-57,800	0,091	-0,029
-493,795	313,713	-0,096	0,133
-492,781	183,986	0,071	-0,078
-491,766	404,541	-0,041	-0,064
-490,751	358,654	-0,067	-0,098
-489,737	-23,143	-0,032	0,014
-488,722	-10,827	-0,132	0,064
-487,708	82,697	-0,076	0,061
-486,693	-95,460	0,026	-0,005
-485,678	-101,061	-0,114	0,020
-484,664	-200,000	0,002	-0,020
-483,649	-109,062	-0,044	0,007
-482,635	-130,829	-0,150	-0,015
-481,620	50,508	0,113	0,079
-480,605	431,817	-0,020	0,032
-479,591	631,002	0,026	0,049
-478,576	12,769	-0,088	0,050
-477,562	87,449	0,109	-0,089
-476,547	72,932	0,026	0,020
-475,532	-118,386	0,174	0,022
-474,518	800,000	0,036	0,097
-473,503	321,298	0,098	0,137
-472,489	-200,000	-0,005	-0,053
-471,474	-200,000	-0,011	0,102
-470,459	80,142	0,031	-0,024
-469,445	7,059	-0,105	-0,058
-468,430	69,057	0,091	0,069
-467,416	800,000	-0,022	0,069
-466,401	-31,074	0,063	0,026
-465,386	-101,126	0,082	-0,015
-464,372	-200,000	0,007	0,062
-463,357	231,594	-0,033	-0,040
-462,343	99,546	0,051	-0,043
-461,328	155,427	-0,051	-0,052
-460,313	-200,000	-0,017	0,076
-459,299	800,000	0,018	0,053
-458,284	-200,000	-0,008	-0,042
-457,270	800,000	0,028	0,072
-456,255	700,326	0,015	-0,029
-455,241	800,000	-0,076	-0,167
-454,226	-54,915	-0,085	-0,028
-453,211	800,000	-0,012	0,038
-452,197	-42,044	0,080	-0,030
-451,182	120,436	0,095	0,087
-450,168	-200,000	-0,012	0,067
-449,153	0,481	0,099	-0,052
-448,138	71,454	0,072	0,055
-447,124	145,395	0,109	-0,108
-446,109	-13,297	0,151	-0,072
-445,095	-200,000	0,005	0,025
-444,080	-144,460	0,190	-0,013
-443,065	60,786	0,028	-0,021
-442,051	243,216	-0,066	0,081
-441,036	-200,000	-0,004	0,033
-440,022	-200,000	0,007	0,113
-439,007	147,657	-0,110	0,109
-437,992	-27,778	0,188	0,080
-436,978	-200,000	-0,009	0,124
-435,963	31,389	0,080	0,051
-434,949	-200,000	0,016	-0,113
-433,934	800,000	-0,088	-0,184
-432,919	-54,852	-0,136	0,045
-431,905	-200,000	-0,011	0,064
-430,890	200,910	-0,100	0,113
-429,876	-33,326	0,075	0,030
-428,861	-200,000	-0,002	0,029
-427,846	107,495	-0,038	-0,033
-426,832	-200,000	-0,035	0,000
-425,817	800,000	-0,016	-0,040
-424,803	-125,380	-0,015	-0,002
-423,788	800,000	0,037	0,092
-422,773	800,000	0,017	0,049
-421,759	800,000	-0,016	0,048
-420,744	-81,275	0,130	0,031
-419,730	15,500	-0,055	-0,032
-418,715	-59,661	0,054	0,017
-417,701	-68,528	-0,111	0,031
-416,686	633,597	0,047	0,088
-415,671	-89,988	0,104	0,022
-414,657	-83,134	-0,053	0,013
-413,642	-148,989	0,081	0,005
-412,628	800,000	0,008	-0,022
-411,613	99,647	-0,166	-0,142
-410,598	-108,163	-0,029	-0,004
-409,584	-200,000	-0,014	-0,065
-408,569	-200,000	-0,041	0,199
-407,555	273,831	-0,038	0,049
-406,540	-200,000	0,022	-0,111
-405,525	-86,261	0,099	0,022
-404,511	-200,000	-0,014	0,146
-403,496	-155,131	-0,166	0,008
-402,482	-15,437	0,080	0,037
-401,467	422,683	0,111	-0,175
-400,452	-54,225	-0,008	0,003
-399,438	284,705	-0,032	0,043
-398,423	800,000	0,018	0,037
-397,409	-25,611	0,103	-0,044
-396,394	-200,000	-0,022	-0,127
-395,379	395,690	0,078	0,120
-394,365	-52,471	-0,119	-0,040
-393,350	-109,147	-0,080	0,012
-392,336	54,228	0,069	0,049
-391,321	-200,000	-0,003	0,095
-390,306	-200,000	-0,001	0,045
-389,292	26,548	0,068	-0,042
-388,277	78,888	-0,159	-0,125
-387,263	-106,256	0,059	-0,010
-386,248	-7,524	0,148	0,073
-385,233	-60,234	0,073	0,023
-384,219	-145,407	-0,089	-0,006
-383,204	-37,787	-0,074	0,029
-382,190	-182,320	0,159	-0,002
-381,175	800,000	0,017	-0,051
-380,160	-138,909	0,054	-0,004
-379,146	800,000	0,051	0,154
-378,131	182,076	-0,049	0,053
-377,117	800,000	-0,041	0,088
-376,102	553,311	-0,051	-0,091
-375,088	800,000	0,054	-0,111
-374,073	584,283	-0,052	-0,094
-373,058	131,444	-0,019	0,018
-372,044	456,719	0,025	-0,041
-371,029	158,277	-0,093	-0,095
-370,015	-200,000	0,003	-0,072
-369,000	-185,421	0,014	-0,000
-367,985	-200,000	-0,057	-0,227
-366,971	-200,000	0,011	-0,050
-365,956	-131,738	0,113	-0,011
-364,942	800,000	0,059	-0,147
-363,927	-127,958	0,093	-0,010
-362,912	166,894	-0,089	0,092
-361,898	671,584	0,040	0,077
-360,883	149,023	-0,049	0,049
-359,869	34,197	0,059	0,038
-358,854	-45,230	-0,142	0,052
-357,839	115,179	-0,105	0,094
-356,825	-148,897	0,064	-0,004
-355,810	-4,114	0,116	0,059
-354,796	166,003	0,056	0,058
-353,781	22,616	-0,061	-0,036
-352,766	95,228	-0,055	-0,046
-351,752	800,000	-0,040	0,095
-350,737	250,266	-0,056	0,069
-349,723	-82,408	-0,104	-0,025
-348,708	-160,902	-0,118	0,004
-347,693	442,903	0,032	0,052
-346,679	-200,000	0,001	-0,210
-345,664	36,034	-0,050	-0,032
-344,650	-200,000	-0,017	0,082
-343,635	800,000	-0,025	0,079
-342,620	230,312	-0,045	-0,055
-341,606	800,000	0,030	-0,072
-340,591	75,948	-0,022	0,017
-339,577	-200,000	-0,012	-0,045
-338,562	330,737	-0,052	0,073
-337,548	-157,157	-0,095	0,004
-336,533	56,141	0,131	0,093
-335,518	-81,212	0,066	0,016
-334,504	145,233	0,062	-0,061
-333,489	331,638	0,028	-0,039
-332,475	-200,000	0,000	-0,073
-331,460	-200,000	-0,017	-0,127
-330,445	-200,000	-0,022	-0,140
-329,431	-103,358	0,069	-0,012
-328,416	-86,289	0,066	0,015
-327,402	-200,000	-0,003	0,023
-326,387	41,081	-0,053	0,035
-325,372	200,955	0,053	-0,060
-324,358	800,000	-0,029	-0,094
-323,343	0,975	0,024	-0,012
-322,329	800,000	0,073	0,159
-321,314	-200,000	0,015	0,192
-320,299	-12,417	0,040	-0,019
-319,285	-115,000	-0,089	0,012
-318,270	800,000	-0,032	-0,096
-317,256	-200,000	0,011	-0,081
-316,241	-26,454	-0,048	0,021
-315,226	31,949	-0,083	0,052
-314,212	-3,476	0,066	-0,034
-313,197	211,596	0,044	0,051
-312,183	733,791	-0,023	0,045
-311,168	61,045	-0,124	-0,090
-310,153	27,177	0,027	-0,016
-309,139	-200,000	-0,011	-0,124
-308,124	189,092	0,034	0,037
-307,110	500,907	-0,032	0,054
-306,095	-200,000	0,072	0,234
-305,080	-200,000	0,002	0,112
-304,066	-116,701	-0,144	-0,019
-303,051	-200,000	0,001	-0,097
-302,037	-200,000	-0,031	0,109
-301,022	800,000	0,093	0,241
-300,008	129,527	0,078	0,073
-298,993	98,412	-0,050	0,042
-297,978	800,000	0,027	0,080
-296,964	79,159	-0,069	0,054
-295,949	68,434	-0,107	0,080
-294,935	315,970	-0,058	-0,080
-293,920	-200,000	0,005	0,095
-292,905	-200,000	0,025	0,149
-291,891	-200,000	0,005	0,090
-290,876	-200,000	-0,026	0,207
-289,862	-200,000	-0,031	0,172
-288,847	321,507	-0,060	0,083
-287,832	98,217	0,112	-0,094
-286,818	-200,000	0,005	-0,033
-285,803	800,000	0,013	0,042
-284,789	179,989	-0,037	-0,040
-283,774	36,102	0,040	0,026
-282,759	528,727	0,050	-0,086
-281,745	-119,238	-0,097	-0,012
-280,730	-97,882	0,164	-0,031
-279,716	-200,000	-0,019	0,062
-278,701	729,732	-0,022	0,044
-277,686	-28,513	0,139	0,059
-276,672	387,066	0,070	0,107
-275,657	0,377	-0,151	-0,079
-274,643	-109,731	-0,111	0,017
-273,628	286,294	0,063	-0,083
-272,613	90,115	-0,100	-0,082
-271,599	191,889	0,120	-0,132
-270,584	128,881	-0,065	0,061
-269,570	279,267	0,060	0,079
-268,555	630,541	-0,134	-0,250
-267,540	-200,000	0,005	0,133
-266,526	-200,000	-0,001	0,118
-265,511	266,513	-0,050	-0,064
-264,497	-14,999	0,047	-0,022
-263,482	-200,000	-0,002	0,026
-262,467	707,661	0,038	-0,075
-261,453	-8,309	-0,093	-0,045
-260,438	-64,281	0,089	-0,026
-259,424	800,000	-0,062	-0,154
-258,409	-200,000	0,001	0,067
-257,395	650,952	0,057	0,108
-256,380	96,211	0,143	-0,120
-255,365	-33,803	-0,133	0,054
-254,351	-150,294	0,116	-0,006
-253,336	-16,402	-0,037	0,017
-252,322	43,245	-0,160	-0,106
-251,307	507,390	-0,049	-0,084
-250,292	-23,560	0,208	-0,091
-249,278	-125,832	-0,040	-0,004
-248,263	-17,715	0,152	0,069
-247,249	-200,000	-0,013	0,110
-246,234	144,191	-0,130	0,127
-245,219	-200,000	-0,023	-0,077
-244,205	-200,000	-0,012	-0,170
-243,190	282,813	-0,025	0,033
-242,176	-182,970	0,074	-0,001
-241,161	-200,000	0,026	-0,092
-240,146	365,801	0,083	0,122
-239,132	-200,000	-0,007	0,057
-238,117	128,600	0,031	0,028
-237,103	-51,608	-0,064	-0,022
-236,088	-200,000	0,008	0,104
-235,073	319,793	0,047	0,066
-234,059	-200,000	-0,002	0,061
-233,044	-15,510	0,072	-0,033
-232,030	144,265	-0,136	-0,133
-231,015	-62,206	0,055	-0,017
-230,000	800,000	0,035	-0,111
-228,986	46,796	0,063	0,042
-227,971	-200,000	-0,008	0,118
-226,957	800,000	0,061	0,130
-225,942	58,705	-0,065	0,047
-224,927	-73,189	-0,156	0,042
-223,913	-200,000	0,014	0,168
-222,898	-146,646	-0,032	0,002
-221,884	-18,661	-0,041	-0,018
-220,869	167,910	0,140	-0,146
-219,855	-3,573	-0,036	-0,018
-218,840	-122,445	0,117	0,014
-217,825	-200,000	-0,031	-0,153
-216,811	129,491	-0,019	-0,018
-215,796	-65,310	0,154	-0,045
-214,782	-178,726	0,189	0,003
-213,767	287,086	0,039	-0,052
-212,752	-200,000	0,019	0,067
-211,738	382,489	0,081	-0,121
-210,723	68,573	-0,024	0,018
-209,709	-96,490	-0,045	0,009
-208,694	-200,000	-0,011	-0,094
-207,679	-200,000	0,022	-0,141
-206,665	422,513	-0,032	0,050
-205,650	547,595	0,034	0,059
-204,636	72,845	0,037	-0,028
-203,621	264,754	0,099	0,126
-202,606	-138,495	-0,064	0,005
-201,592	568,158	-0,060	-0,108
-200,577	247,997	-0,091	-0,112
-199,563	-110,807	0,088	-0,013
-198,548	56,629	0,099	-0,070
-197,533	500,795	0,040	0,068
-196,519	64,987	-0,046	0,034
-195,504	269,079	-0,024	0,031
-194,490	-59,409	0,077	0,024
-193,475	800,000	-0,056	-0,141
-192,460	-139,066	0,113	-0,009
-191,446	234,664	0,035	0,042
-190,431	-200,000	0,009	0,047
-189,417	289,341	0,053	0,071
-188,402	-80,516	-0,131	-0,032
-187,387	-125,194	-0,065	-0,007
-186,373	-200,000	-0,020	-0,108
-185,358	-200,000	-0,010	-0,089
-184,344	58,127	0,117	-0,083
-183,329	-67,244	-0,103	0,029
-182,315	-72,302	0,119	0,032
-181,300	-200,000	0,006	-0,045
-180,285	172,308	0,069	0,072
-179,271	-15,752	0,097	-0,045
-178,256	-200,000	0,016	0,180
-177,242	-53,817	0,023	0,007
-176,227	-200,000	0,001	0,144
-175,212	87,928	0,099	0,080
-174,198	-115,548	0,093	0,013
-173,183	800,000	0,056	-0,137
-172,169	-200,000	0,002	-0,012
-171,154	637,803	-0,053	-0,098
-170,139	-200,000	0,059	0,000
-169,125	19,614	0,141	0,083
-168,110	-112,204	-0,032	-0,005
-167,096	164,766	0,050	0,052
-166,081	-42,117	-0,080	0,030
-165,066	60,419	0,059	0,043
-164,052	800,000	-0,048	-0,109
-163,037	-200,000	-0,010	0,055
-162,023	306,157	0,032	0,043
-161,008	-200,000	-0,018	0,067
-159,993	-200,000	-0,003	-0,080
-158,979	800,000	-0,063	0,155
-157,964	274,973	0,073	-0,095
-156,950	-200,000	0,020	-0,080
-155,935	-51,693	0,056	-0,019
-154,920	-143,177	-0,118	-0,008
-153,906	542,770	0,071	0,124
-152,891	-200,000	-0,003	0,104
-151,877	603,715	-0,032	-0,058
-150,862	141,222	-0,102	0,098
-149,847	16,137	-0,135	0,077
-148,833	103,297	-0,011	0,009
-147,818	140,488	-0,104	0,100
-146,804	-200,000	-0,004	-0,078
-145,789	-126,051	0,094	-0,010
-144,775	636,378	-0,063	-0,116
-143,760	-200,000	-0,011	-0,042
-142,745	-125,281	0,027	-0,003
-141,731	576,476	-0,021	-0,038
-140,716	57,146	0,125	0,089
-139,702	249,640	0,079	-0,098
-138,687	800,000	0,078	-0,179
-137,672	348,903	-0,069	-0,100
-136,658	381,497	-0,015	0,023
-135,643	-72,489	-0,014	-0,004
-134,629	15,276	-0,088	0,050
-133,614	800,000	0,053	0,110
-132,599	180,649	-0,061	0,065
-131,585	594,549	0,038	0,068
-130,570	28,695	0,088	0,054
-129,556	800,000	0,026	-0,069
-128,541	426,544	-0,073	-0,115
-127,526	-200,000	-0,005	-0,024
-126,512	288,322	0,070	0,093
-125,497	-130,157	-0,126	-0,012
-124,483	418,124	-0,054	0,085
-123,468	-200,000	-0,019	0,127
-122,453	165,622	-0,033	0,034
-121,439	-145,193	-0,139	0,009
-120,424	47,084	-0,112	-0,076
-119,410	38,598	0,015	0,010
-118,395	-200,000	-0,021	0,071
-117,380	-200,000	-0,073	0,000
-116,366	800,000	-0,017	0,052
-115,351	-200,000	-0,026	-0,137
-114,337	-55,990	-0,139	-0,045
-113,322	352,841	-0,130	-0,189
-112,307	-200,000	-0,012	-0,072
-111,293	-97,299	0,105	-0,020
-110,278	91,828	0,062	0,051
-109,264	-142,731	0,095	0,007
-108,249	800,000	-0,033	0,093
-107,234	-200,000	0,027	-0,102
-106,220	100,901	-0,134	-0,114
-105,205	403,553	0,050	-0,077
-104,191	-200,000	0,002	-0,074
-103,176	-31,094	0,030	0,012
-102,162	123,078	-0,074	-0,068
-101,147	-200,000	0,019	-0,125
-100,132	144,822	-0,010	-0,010
-99,118	268,621	-0,100	0,127
-98,103	630,764	0,042	-0,078
-97,089	7,127	0,051	-0,027
-96,074	800,000	-0,046	0,108
-95,059	-200,000	-0,018	0,155
-94,045	656,152	0,060	0,112
-93,030	114,459	-0,072	0,064
-92,016	-51,597	-0,092	-0,031
-91,001	146,652	-0,097	0,095
-89,986	412,001	0,134	0,207
-88,972	800,000	0,024	0,067
-87,957	200,404	-0,025	0,028
-86,943	-200,000	-0,014	0,048
-85,928	5,623	-0,114	0,061
-84,913	-200,000	0,024	-0,121
-83,899	-200,000	-0,008	-0,082
-82,884	800,000	-0,019	0,053
-81,870	-0,355	-0,126	-0,065
-80,855	100,947	0,063	-0,054
-79,840	86,946	-0,092	0,074
-78,826	-147,425	0,051	0,003
-77,811	-70,029	-0,056	0,015
-76,797	-96,063	0,101	-0,019
-75,782	800,000	0,049	0,098
-74,767	-200,000	0,028	0,132
-73,753	-200,000	0,013	-0,072
-72,738	556,237	-0,056	0,099
-71,724	-200,000	0,023	-0,078
-70,709	800,000	0,051	-0,107
-69,694	31,385	-0,113	-0,070
-68,680	36,320	-0,063	0,040
-67,665	-15,764	-0,077	-0,036
-66,651	129,024	0,071	0,065
-65,636	-200,000	-0,031	-0,146
-64,622	-200,000	-0,013	-0,089
-63,607	-200,000	0,027	-0,154
-62,592	-200,000	0,003	-0,046
-61,578	773,151	0,030	0,059
-60,563	-200,000	0,022	0,083
-59,549	108,911	-0,018	-0,015
-58,534	-141,324	-1,447	-0,105
-57,519	800,000	-0,837	-1,696
-56,505	-200,000	-1,000	-4,441
-55,490	47,816	0,506	-0,342
-54,476	800,000	5,025	11,901
-53,461	-200,000	13,545	253,362
-52,446	-200,000	688,858	2269,834
-51,432	596,929	1622,681	2928,742
-50,417	120,898	1636,091	1476,488
-49,403	73,684	1290,129	979,812
-48,388	38,439	1025,003	661,478
-47,373	24,514	982,551	588,270
-46,359	23,790	972,184	579,667
-45,344	22,886	967,933	574,155
-44,330	22,784	966,455	572,922
-43,315	22,640	965,113	571,632
-42,300	22,639	964,104	571,009
-41,286	22,632	963,300	570,488
-40,271	22,603	962,309	569,783
-39,257	22,658	961,199	569,284
-38,242	22,652	960,348	568,738
-37,227	22,643	959,577	568,228
-36,213	22,603	958,593	567,492
-35,198	22,565	957,852	566,908
-34,184	22,694	956,985	566,789
-33,169	22,551	956,237	565,863
-32,154	22,673	955,193	565,616
-31,140	22,648	954,497	565,103
-30,125	22,639	953,746	564,605
-29,111	22,642	952,785	564,024
-28,096	22,661	952,030	563,616
-27,082	22,618	951,469	563,124
-26,067	22,670	950,765	562,851
-25,052	22,666	949,838	562,267
-24,038	22,683	949,316	561,989
-23,023	22,577	948,892	561,377
-22,009	22,637	948,042	561,043
-20,994	22,744	947,269	560,906
-19,979	22,721	946,750	560,504
-18,965	22,679	946,272	560,064
-17,950	22,671	945,310	559,448
-16,936	22,584	945,046	558,990
-15,921	22,552	944,257	558,401
-14,906	22,511	943,437	557,763
-13,892	22,538	942,790	557,445
-12,877	22,446	942,373	556,883
-11,863	22,517	941,544	556,595
-10,848	22,507	941,117	556,290
-9,833	22,638	940,492	556,315
-8,819	22,600	940,022	555,892
-7,804	22,571	939,386	555,405
-6,790	22,517	938,860	554,899
-5,775	22,608	938,036	554,680
-4,760	22,551	937,372	554,085
-3,746	22,526	936,916	553,714
-2,731	22,349	936,299	552,766
-1,717	22,313	935,512	552,168
-0,702	22,326	934,960	551,859
0,313	22,205	934,090	551,799
1,327	25,195	932,132	559,998
2,342	34,872	796,821	504,500
3,356	32,986	451,966	283,289
4,371	2,026	293,793	153,268
5,386	-2,460	274,845	139,124
6,400	-3,880	268,883	134,777
7,415	-4,566	266,623	133,001
8,429	-4,051	265,163	132,733
9,444	-3,933	264,361	132,427
10,459	-4,200	263,833	131,907
11,473	-4,068	263,158	131,678
12,488	-4,237	262,630	131,248
13,502	-4,319	262,043	130,869
14,517	-4,266	261,684	130,727
15,531	-4,379	261,406	130,474
16,546	-4,212	260,849	130,334
17,561	-4,487	260,607	129,955
18,575	-4,247	260,320	130,015
19,590	-4,249	259,770	129,727
20,604	-4,527	259,754	129,459
21,619	-4,556	259,448	129,269
22,634	-4,377	258,844	129,117
23,648	-4,304	258,579	129,038
24,663	-4,318	258,425	128,937
25,677	-4,471	258,257	128,706
26,692	-4,452	257,938	128,553
27,707	-4,400	257,619	128,428
28,721	-4,426	257,410	128,289
29,736	-4,522	257,157	128,066
30,750	-4,406	256,860	128,009
31,765	-4,454	256,683	127,868
32,780	-4,496	256,505	127,730
33,794	-4,441	256,310	127,671
34,809	-4,439	255,905	127,459
35,823	-4,432	255,599	127,301
36,838	-4,486	255,550	127,218
37,853	-4,497	255,351	127,098
38,867	-4,527	254,976	126,874
39,882	-4,403	254,853	126,910
40,896	-4,515	254,675	126,712
41,911	-4,585	254,438	126,521
42,926	-4,409	254,013	126,453
43,940	-4,477	253,869	126,311
44,955	-4,531	253,604	126,120
45,969	-4,867	253,673	125,850
46,984	-4,704	253,168	125,730
47,999	-4,906	252,970	125,445
49,013	-5,035	252,806	125,240
50,028	-5,231	252,406	124,860
51,042	-5,183	252,167	124,773
52,057	-5,271	251,968	124,587
53,071	-5,299	251,725	124,432
54,086	-5,212	251,697	124,482
55,101	-5,090	251,562	124,509
56,115	-4,848	251,563	124,708
57,130	-4,419	251,255	124,915
58,144	-4,199	251,150	125,042
59,159	-4,215	250,923	124,904
60,174	-4,215	250,598	124,730
61,188	-4,240	250,492	124,645
62,203	-4,383	250,227	124,379
63,217	-4,341	250,075	124,328
64,232	-4,193	249,838	124,326
65,247	-4,304	249,618	124,111
66,261	-4,313	249,394	123,981
67,276	-4,488	249,147	123,697
68,290	-5,096	249,113	123,149
69,305	-4,953	248,607	123,011
70,320	-4,832	248,534	123,066
71,334	-4,446	248,410	123,323
72,349	-4,449	248,393	123,301
73,363	-4,258	248,142	123,328
74,378	-4,136	247,878	123,290
75,393	-4,194	247,573	123,078
76,407	-4,178	247,396	122,992
77,422	-4,303	247,329	122,843
78,436	-4,274	246,969	122,677
79,451	-4,233	246,931	122,682
80,466	-4,395	246,657	122,398
81,480	-4,413	246,207	122,149
82,495	-4,756	246,207	121,848
83,509	-4,609	246,042	121,880
84,524	-4,566	245,907	121,838
85,539	-4,797	245,594	121,477
86,553	-4,733	245,397	121,423
87,568	-4,692	245,231	121,365
88,582	-4,644	245,127	121,342
89,597	-4,707	245,005	121,219
90,611	-4,381	244,739	121,350
91,626	-4,398	244,713	121,312
92,641	-4,497	244,553	121,138
93,655	-4,542	244,140	120,885
94,670	-4,543	244,016	120,813
95,684	-4,442	243,860	120,808
96,699	-4,688	243,714	120,521
97,714	-4,565	243,378	120,446
98,728	-4,933	243,383	120,131
99,743	-5,027	243,109	119,907
100,757	-4,953	242,851	119,830
101,772	-4,632	242,525	119,925
102,787	-4,625	242,545	119,931
103,801	-4,660	242,385	119,811
104,816	-4,476	242,288	119,905
105,830	-4,627	242,106	119,680
106,845	-4,489	241,896	119,679
107,860	-4,404	241,709	119,646
108,874	-4,529	241,464	119,411
109,889	-4,591	241,205	119,221
110,903	-4,775	241,174	119,044
111,918	-4,606	240,885	119,030
112,933	-4,527	240,826	119,055
113,947	-4,473	240,588	118,971
114,962	-4,362	240,474	118,995
115,976	-4,463	240,396	118,863
116,991	-4,193	239,955	118,856
118,006	-4,617	239,983	118,511
119,020	-4,326	239,784	118,641
120,035	-4,560	239,746	118,420
121,049	-4,471	239,588	118,404
122,064	-4,264	239,349	118,445
123,079	-4,372	239,130	118,237
124,093	-4,621	238,937	117,929
125,108	-4,684	238,611	117,705
126,122	-4,641	238,288	117,571
127,137	-4,846	238,222	117,361
128,151	-4,835	238,065	117,282
129,166	-4,574	237,986	117,445
130,181	-4,730	237,710	117,171
131,195	-4,794	237,530	117,020
132,210	-4,630	237,414	117,086
133,224	-4,518	237,287	117,104
134,239	-4,544	237,203	117,030
135,254	-4,375	236,944	117,029
136,268	-4,562	236,751	116,772
137,283	-4,837	236,621	116,475
138,297	-4,752	236,263	116,357
139,312	-4,921	236,126	116,143
140,327	-4,571	236,042	116,374
141,341	-4,147	236,032	116,700
142,356	-4,214	236,011	116,625
143,370	-4,012	235,721	116,633
144,385	-4,345	235,552	116,272
145,400	-4,230	235,357	116,258
146,414	-3,912	235,120	116,385
147,429	-4,213	235,155	116,151
148,443	-4,209	234,883	116,009
149,458	-4,231	234,625	115,854
150,473	-4,081	234,573	115,938
151,487	-4,235	234,171	115,606
152,502	-4,124	234,165	115,682
153,516	-4,192	234,118	115,593
154,531	-4,010	233,858	115,600
155,546	-4,250	233,723	115,332
156,560	-4,123	233,432	115,279
157,575	-4,333	233,285	115,029
158,589	-4,283	233,142	114,988
159,604	-4,203	233,003	114,973
160,619	-4,001	232,726	114,986
161,633	-4,048	232,805	114,977
162,648	-3,987	232,596	114,912
163,662	-4,158	232,376	114,658
164,677	-4,257	232,338	114,551
165,692	-4,227	232,122	114,458
166,706	-3,801	232,006	114,726
167,721	-3,903	231,830	114,549
168,735	-4,075	231,792	114,384
169,750	-4,164	231,735	114,276
170,764	-4,157	231,232	114,023
171,779	-4,252	231,227	113,936
172,794	-4,032	230,986	113,979
173,808	-4,391	230,957	113,673
174,823	-4,688	230,614	113,261
175,837	-4,725	230,326	113,081
176,852	-4,259	230,296	113,421
177,867	-4,068	230,190	113,508
178,881	-4,234	230,159	113,352
179,896	-3,965	229,992	113,471
180,910	-4,096	229,862	113,294
181,925	-3,802	229,499	113,334
182,940	-3,976	229,518	113,198
183,954	-3,773	229,461	113,318
184,969	-3,934	229,231	113,069
185,983	-3,864	229,195	113,095
186,998	-3,976	229,000	112,902
188,013	-3,957	228,729	112,773
189,027	-3,971	228,537	112,658
190,042	-3,815	228,506	112,753
191,056	-3,947	228,239	112,509
192,071	-3,989	228,291	112,493
193,086	-4,042	227,969	112,282
194,100	-3,942	227,866	112,299
195,115	-4,297	227,440	111,805
196,129	-4,499	227,266	111,553
197,144	-1,211	228,412	114,653
198,159	2,740	229,409	118,211
199,173	3,830	229,818	119,257
200,188	4,294	229,526	119,455
201,202	4,170	229,454	119,310
202,217	4,392	229,348	119,416
203,232	4,754	229,253	119,636
204,246	4,915	229,044	119,641
205,261	4,580	229,146	119,425
206,275	5,034	228,834	119,601
207,290	4,983	228,702	119,482
208,304	4,973	228,658	119,442
209,319	4,829	228,429	119,200
210,334	4,735	228,277	119,038
211,348	4,691	227,978	118,837
212,363	4,371	227,620	118,395
213,377	3,807	227,599	117,941
214,392	4,012	227,345	117,955
215,407	4,043	227,270	117,930
216,421	4,158	227,160	117,950
217,436	3,993	226,987	117,723
218,450	3,713	226,733	117,367
219,465	3,714	226,575	117,276
220,480	4,002	226,276	117,331
221,494	3,770	226,353	117,182
222,509	3,840	226,282	117,189
223,523	3,900	226,009	117,083
224,538	3,788	225,871	116,916
225,553	4,142	225,680	117,075
226,567	4,058	225,697	117,010
227,582	4,379	225,532	117,157
228,596	4,338	225,450	117,074
229,611	4,069	225,156	116,707
230,626	3,906	224,952	116,467
231,640	3,861	224,777	116,332
232,655	4,186	224,796	116,577
233,669	4,518	224,730	116,784
234,684	4,554	224,660	116,764
235,699	4,436	224,352	116,504
236,713	4,033	224,325	116,176
237,728	4,013	224,005	115,985
238,742	3,940	223,766	115,796
239,757	4,050	223,590	115,777
240,772	3,877	223,398	115,538
241,786	3,960	223,320	115,549
242,801	4,180	223,342	115,715
243,815	4,721	223,101	115,986
244,830	4,552	223,005	115,799
245,844	4,443	222,642	115,518
246,859	4,228	222,689	115,372
247,874	4,099	222,535	115,185
248,888	4,125	222,371	115,110
249,903	4,278	222,370	115,213
250,917	4,048	222,072	114,877
251,932	3,888	221,947	114,683
252,947	3,851	221,713	114,524
253,961	3,753	221,668	114,417
254,976	4,041	221,555	114,564
255,990	4,065	221,443	114,513
257,005	4,371	221,321	114,667
258,020	4,138	221,226	114,435
259,034	4,491	221,126	114,635
260,049	4,190	220,958	114,314
261,063	4,216	220,639	114,158
262,078	4,321	220,608	114,209
263,093	4,424	220,503	114,221
264,107	4,377	220,305	114,074
265,122	4,422	220,200	114,042
266,136	4,510	220,221	114,108
267,151	4,493	219,879	113,909
268,166	4,073	219,629	113,459
269,180	4,052	219,338	113,283
270,195	3,831	219,411	113,148
271,209	4,027	219,171	113,159
272,224	4,159	219,041	113,178
273,239	4,013	218,992	113,036
274,253	3,885	218,853	112,860
275,268	3,931	218,708	112,809
276,282	3,824	218,448	112,586
277,297	3,620	218,317	112,360
278,312	3,898	218,144	112,463
279,326	4,144	218,125	112,624
280,341	3,969	217,929	112,384
281,355	3,993	217,829	112,341
282,370	4,042	217,626	112,262
283,384	3,741	217,555	111,995
284,399	3,590	217,248	111,717
285,414	3,532	217,326	111,706
286,428	4,056	217,182	112,003
287,443	4,217	217,151	112,094
288,457	4,201	216,896	111,940
289,472	4,026	216,701	111,703
290,487	3,404	216,549	111,163
291,501	3,336	216,354	111,004
292,516	3,921	216,176	111,326
293,530	3,805	216,094	111,190
294,545	3,729	215,930	111,041
295,560	3,791	215,916	111,069
296,574	4,036	215,915	111,235
297,589	4,097	215,566	111,090
298,603	4,078	215,580	111,073
299,618	4,097	215,397	110,983
300,633	4,175	215,274	110,966
301,647	4,256	215,241	110,997
302,662	4,194	215,052	110,845
303,676	4,200	214,755	110,687
304,691	4,102	214,641	110,548
305,706	4,148	214,634	110,567
306,720	4,433	214,403	110,643
307,735	4,283	214,121	110,380
308,749	3,825	214,081	110,022
309,764	4,229	214,114	110,319
310,779	4,328	213,914	110,276
311,793	4,202	213,823	110,129
312,808	4,212	213,624	110,024
313,822	3,988	213,443	109,761
314,837	3,938	213,293	109,638
315,852	3,894	213,182	109,540
316,866	3,913	213,047	109,475
317,881	4,035	213,013	109,534
318,895	4,111	212,809	109,474
319,910	3,836	212,676	109,201
320,925	3,879	212,189	108,970
321,939	3,429	212,128	108,611
322,954	3,548	212,171	108,708
323,968	3,959	212,099	108,952
324,983	4,241	211,907	109,044
325,997	4,466	211,838	109,157
327,012	4,119	211,649	108,805
328,027	4,059	211,560	108,707
329,041	4,245	211,599	108,849
330,056	4,479	211,357	108,880
331,070	3,975	211,188	108,428
332,085	3,774	210,966	108,162
333,100	3,737	210,817	108,050
334,114	4,143	210,730	108,282
335,129	4,128	210,522	108,154
336,143	3,981	210,333	107,945
337,158	4,020	210,153	107,870
338,173	3,828	210,179	107,739
339,187	3,559	209,959	107,428
340,202	3,584	209,861	107,386
341,216	3,661	209,579	107,287
342,231	3,629	209,580	107,255
343,246	3,607	209,472	107,174
344,260	3,619	209,424	107,149
345,275	3,829	209,253	107,199
346,289	4,075	209,209	107,337
347,304	4,188	208,985	107,292
348,319	4,093	208,799	107,121
349,333	3,963	208,702	106,971
350,348	3,992	208,641	106,950
351,362	4,022	208,659	106,971
352,377	3,978	208,336	106,766
353,392	4,012	208,212	106,716
354,406	4,073	208,106	106,694
355,421	193,982	1347,479	1436,371
356,435	154,759	1486,409	1436,494
