DTS Sentinel unit serial number:	SN410029Multiplexer serial number:	ORYXHardware model number:	OX2-SRSoftware version number:	ORYX F/W v4,00 Oryx Data Collector v3.7.2.0data status	okinstallation	B6 Nyhavnadifferential loss correction	single-endedforward channel	channel 2reverse channel	N/Adate	2023/12/09time	12:05:08forward acquisition time	300,00reverse acquisition time	0,00gamma	499,1914k internal	0,3140k external	0,3140temperature offset calibration	1,0000default loss term (dB/km)	0,3820temperature slope calibration	1,0000multiplexer offset coefficient	1,0000multiplexer slope coefficient	1,0000fibre end	0,00T internal ref (°C)	19,16T ext. ref 1 (°C)	3,53T ext. ref 2 (°C)	3,52length (m)	temperature (°C)	Stokes	anti-Stokes-744,400	-200,000	0,007	-0,040
-743,385	-111,362	-0,260	0,039
-742,371	35,617	0,123	0,080
-741,356	32,006	-0,222	0,141
-740,342	27,861	0,026	0,016
-739,327	38,118	-0,282	0,186
-738,312	-147,406	0,038	0,002
-737,298	-85,993	-0,377	0,086
-736,283	800,000	0,034	-0,093
-735,269	77,166	-0,295	0,232
-734,254	-5,094	0,099	0,050
-733,239	-130,520	-0,363	0,036
-732,225	-145,612	0,250	-0,016
-731,210	-36,622	-0,082	0,032
-730,196	125,570	-0,083	0,078
-729,181	800,000	0,012	-0,026
-728,167	-102,819	-0,039	0,007
-727,152	63,953	-0,068	-0,051
-726,137	144,844	-0,043	-0,043
-725,123	-200,000	0,006	-0,109
-724,108	800,000	0,047	-0,112
-723,094	-200,000	0,007	-0,096
-722,079	283,506	-0,049	-0,065
-721,064	471,586	-0,065	0,110
-720,050	-3,524	0,089	0,046
-719,035	324,004	-0,078	0,110
-718,021	88,532	0,056	0,046
-717,006	354,182	-0,066	-0,098
-715,991	650,572	-0,059	-0,112
-714,977	-200,000	0,002	-0,066
-713,962	3,553	0,125	-0,068
-712,948	-1,758	0,101	0,052
-711,933	-200,000	0,006	-0,026
-710,918	-200,000	-0,009	0,101
-709,904	-63,003	-0,074	-0,023
-708,889	-97,406	-0,099	-0,019
-707,875	78,481	0,088	0,069
-706,860	-200,000	-0,017	0,092
-705,845	-200,000	-0,007	0,101
-704,831	-200,000	-0,006	-0,110
-703,816	262,593	-0,063	-0,081
-702,802	230,465	-0,075	-0,091
-701,787	-200,000	0,007	-0,097
-700,772	-200,000	-0,013	-0,132
-699,758	754,635	0,038	0,076
-698,743	377,899	-0,033	0,050
-697,729	-200,000	-0,001	0,130
-696,714	116,625	0,074	0,067
-695,699	408,413	-0,017	-0,027
-694,685	127,166	-0,035	0,033
-693,670	-88,161	0,030	0,007
-692,656	-200,000	-0,006	-0,047
-691,641	-182,551	-0,094	0,001
-690,627	-28,138	0,069	0,029
-689,612	45,554	-0,112	-0,077
-688,597	612,240	-0,034	-0,063
-687,583	800,000	-0,007	0,024
-686,568	-47,285	-0,171	-0,061
-685,554	-22,230	-0,083	-0,037
-684,539	112,592	0,067	-0,060
-683,524	-200,000	0,024	0,089
-682,510	56,505	0,066	0,047
-681,495	800,000	0,044	0,091
-680,481	131,421	-0,061	0,058
-679,466	214,167	-0,029	-0,034
-678,451	-84,586	0,077	-0,018
-677,437	165,508	-0,068	-0,072
-676,422	-76,349	0,089	0,023
-675,408	-120,204	-0,137	-0,017
-674,393	-200,000	0,018	0,066
-673,378	800,000	-0,013	0,037
-672,364	58,127	-0,079	-0,057
-671,349	336,905	-0,034	-0,049
-670,335	587,164	-0,038	0,070
-669,320	453,922	0,035	0,057
-668,305	-200,000	0,033	0,115
-667,291	-192,004	-0,226	0,002
-666,276	216,688	0,084	-0,099
-665,262	551,393	-0,039	0,070
-664,247	-80,666	-0,151	-0,037
-663,232	-53,462	-0,062	-0,021
-662,218	-139,820	0,020	-0,002
-661,203	800,000	-0,029	0,079
-660,189	-103,789	0,070	-0,012
-659,174	329,894	-0,028	0,040
-658,159	452,311	0,021	-0,034
-657,145	131,004	-0,052	-0,049
-656,130	800,000	0,032	-0,075
-655,116	272,536	-0,034	-0,044
-654,101	800,000	-0,056	0,140
-653,086	800,000	-0,013	0,029
-652,072	-65,566	0,055	0,016
-651,057	-101,743	-0,074	-0,013
-650,043	-163,328	0,125	-0,004
-649,028	91,727	-0,048	0,040
-648,014	330,849	0,036	0,052
-646,999	59,773	-0,067	0,048
-645,984	800,000	0,031	-0,093
-644,970	-200,000	-0,013	0,045
-643,955	-200,000	-0,030	0,114
-642,941	39,252	0,073	0,048
-641,926	-94,529	-0,085	0,017
-640,911	800,000	0,014	-0,037
-639,897	300,997	0,029	0,039
-638,882	522,767	-0,021	-0,036
-637,868	800,000	-0,024	0,061
-636,853	-61,983	0,111	-0,034
-635,838	-119,960	-0,103	0,013
-634,824	137,809	-0,108	0,104
-633,809	204,456	-0,108	-0,124
-632,795	800,000	0,018	-0,052
-631,780	-55,333	0,152	0,050
-630,765	-200,000	-0,001	0,147
-629,751	-139,926	-0,108	0,008
-628,736	294,329	-0,107	-0,145
-627,722	-200,000	0,026	-0,108
-626,707	-200,000	0,025	-0,100
-625,692	-200,000	-0,005	-0,087
-624,678	-70,113	-0,040	0,011
-623,663	-200,000	0,012	-0,134
-622,649	-200,000	-0,005	-0,020
-621,634	-20,946	-0,176	0,079
-620,619	193,128	-0,022	-0,024
-619,605	-116,410	0,016	0,002
-618,590	-200,000	-0,016	0,063
-617,576	323,164	0,062	0,087
-616,561	233,571	-0,030	0,036
-615,546	800,000	-0,027	0,061
-614,532	800,000	-0,123	-0,254
-613,517	-163,128	0,056	0,002
-612,503	-107,593	0,106	-0,017
-611,488	-200,000	-0,003	-0,015
-610,474	-200,000	-0,013	0,044
-609,459	-118,208	-0,117	-0,015
-608,444	-200,000	0,001	-0,080
-607,430	-110,600	0,113	-0,017
-606,415	800,000	0,052	-0,125
-605,401	-9,211	-0,096	-0,047
-604,386	-200,000	-0,021	-0,201
-603,371	-200,000	0,008	0,035
-602,357	-91,490	-0,148	0,031
-601,342	133,580	0,092	-0,088
-600,328	455,518	-0,043	-0,071
-599,313	-40,508	0,142	0,054
-598,298	50,637	-0,048	0,033
-597,284	291,656	-0,035	-0,048
-596,269	800,000	0,035	0,099
-595,255	-200,000	0,012	0,143
-594,240	427,125	0,017	0,027
-593,225	14,995	-0,050	-0,029
-592,211	97,853	0,074	0,063
-591,196	13,101	-0,084	0,048
-590,182	800,000	-0,053	-0,129
-589,167	-200,000	-0,009	-0,094
-588,152	167,459	-0,048	0,051
-587,138	-53,362	-0,142	-0,048
-586,123	-127,779	-0,068	-0,007
-585,109	-49,792	-0,084	0,029
-584,094	228,550	-0,076	-0,092
-583,079	-11,626	0,184	0,089
-582,065	252,611	-0,054	-0,068
-581,050	-200,000	-0,016	0,079
-580,036	128,561	0,022	0,020
-579,021	-163,246	-0,031	-0,001
-578,006	-156,971	-0,199	0,009
-576,992	800,000	0,033	0,085
-575,977	-30,178	0,151	-0,063
-574,963	179,147	-0,083	0,090
-573,948	424,464	-0,056	-0,089
-572,934	549,411	-0,045	-0,080
-571,919	228,639	0,015	-0,018
-570,904	-136,026	-0,133	0,011
-569,890	174,216	0,016	-0,017
-568,875	-61,019	-0,093	0,029
-567,861	105,660	-0,103	0,090
-566,846	48,267	-0,015	0,010
-565,831	800,000	0,037	-0,079
-564,817	166,032	-0,036	0,037
-563,802	-45,976	-0,032	0,012
-562,788	-200,000	-0,029	0,108
-561,773	364,641	0,045	0,067
-560,758	-61,129	0,172	0,053
-559,744	-200,000	-0,037	0,138
-558,729	85,660	0,009	0,007
-557,715	-1,637	-0,071	0,036
-556,700	100,172	0,041	0,035
-555,685	-200,000	0,001	0,028
-554,671	-109,625	0,082	0,013
-553,656	21,807	-0,046	-0,027
-552,642	697,246	0,071	-0,137
-551,627	207,899	0,075	0,086
-550,612	-126,534	0,050	0,005
-549,598	-10,706	-0,143	0,069
-548,583	128,030	0,066	-0,062
-547,569	26,205	0,104	-0,064
-546,554	-200,000	-0,012	0,140
-545,539	450,820	-0,058	-0,095
-544,525	-200,000	0,041	0,143
-543,510	124,236	0,058	0,054
-542,496	147,381	0,016	0,016
-541,481	27,247	0,003	-0,002
-540,466	-118,928	-0,064	0,008
-539,452	800,000	-0,014	-0,040
-538,437	-115,724	-0,151	0,021
-537,423	597,900	0,067	0,123
-536,408	42,559	0,087	-0,058
-535,393	-200,000	-0,007	0,089
-534,379	135,463	0,091	-0,087
-533,364	-68,360	0,105	0,030
-532,350	-163,869	0,115	0,004
-531,335	115,191	0,013	0,012
-530,321	-200,000	0,010	0,093
-529,306	-200,000	0,011	0,093
-528,291	800,000	0,042	0,117
-527,277	800,000	-0,057	0,127
-526,262	-200,000	-0,029	-0,114
-525,248	-200,000	0,006	-0,107
-524,233	800,000	0,029	0,060
-523,218	18,331	0,107	0,063
-522,204	-200,000	-0,017	-0,107
-521,189	-200,000	-0,007	-0,031
-520,175	-85,671	-0,106	-0,024
-519,160	-57,332	-0,101	0,033
-518,145	-137,149	0,144	-0,012
-517,131	88,081	0,089	-0,072
-516,116	185,553	-0,033	0,036
-515,102	-200,000	0,009	-0,099
-514,087	-60,135	0,061	-0,019
-513,072	7,539	-0,046	0,025
-512,058	722,445	-0,022	-0,044
-511,043	800,000	0,023	-0,058
-510,029	310,228	-0,030	-0,041
-509,014	-41,670	-0,117	0,044
-507,999	54,532	-0,030	-0,021
-506,985	-105,616	0,169	0,028
-505,970	800,000	-0,004	0,009
-504,956	-200,000	-0,011	0,068
-503,941	-21,325	-0,181	0,081
-502,926	-74,842	0,093	0,024
-501,912	800,000	0,041	0,088
-500,897	-88,951	-0,061	0,013
-499,883	487,191	-0,038	0,063
-498,868	-200,000	0,008	-0,092
-497,853	230,189	-0,084	-0,101
-496,839	-200,000	-0,001	0,172
-495,824	231,965	-0,016	-0,020
-494,810	386,121	-0,037	0,056
-493,795	-61,844	-0,030	-0,009
-492,781	194,345	-0,038	0,043
-491,766	52,765	-0,082	-0,058
-490,751	175,036	0,051	-0,055
-489,737	62,685	0,110	-0,081
-488,722	-183,408	0,083	0,001
-487,708	800,000	-0,033	-0,078
-486,693	-121,608	0,114	-0,014
-485,678	81,690	0,080	0,064
-484,664	142,640	-0,095	-0,093
-483,649	-200,000	-0,013	-0,233
-482,635	296,583	-0,082	-0,111
-481,620	246,635	0,068	-0,084
-480,605	-200,000	-0,032	0,130
-479,591	128,822	-0,124	0,116
-478,576	-200,000	0,003	-0,045
-477,562	387,896	-0,029	0,044
-476,547	508,138	-0,025	0,043
-475,532	-91,360	0,138	0,029
-474,518	20,344	0,085	-0,050
-473,503	-123,600	0,057	0,007
-472,489	-22,197	-0,102	-0,045
-471,474	403,935	0,053	-0,083
-470,459	-200,000	0,020	-0,080
-469,445	800,000	-0,045	-0,110
-468,430	14,864	-0,033	-0,019
-467,416	145,921	0,124	0,122
-466,401	422,977	0,028	0,044
-465,386	-200,000	-0,011	0,195
-464,372	-114,442	0,026	-0,004
-463,357	-193,802	-0,144	0,001
-462,343	34,493	-0,042	0,027
-461,328	92,119	0,063	-0,052
-460,313	60,674	-0,036	-0,026
-459,299	-200,000	-0,009	-0,067
-458,284	-75,621	-0,027	-0,007
-457,270	-125,563	0,066	-0,007
-456,255	-116,082	-0,092	-0,012
-455,241	800,000	-0,020	0,059
-454,226	-142,480	-0,046	-0,003
-453,211	-200,000	0,019	-0,143
-452,197	800,000	0,056	0,166
-451,182	385,714	0,079	-0,120
-450,168	460,224	0,037	0,060
-449,153	-162,736	-0,080	-0,003
-448,138	-200,000	-0,003	-0,102
-447,124	-200,000	-0,009	0,047
-446,109	40,181	0,017	0,011
-445,095	-111,917	0,016	0,002
-444,080	455,680	0,095	0,155
-443,065	72,275	-0,073	0,056
-442,051	384,637	-0,040	0,061
-441,036	246,973	0,048	-0,060
-440,022	190,274	0,088	-0,097
-439,007	-185,444	-0,089	0,001
-437,992	-200,000	0,017	0,156
-436,978	-200,000	0,001	0,138
-435,963	800,000	-0,037	0,080
-434,949	800,000	-0,038	-0,100
-433,934	800,000	0,006	-0,015
-432,919	-200,000	0,003	-0,111
-431,905	293,985	-0,109	0,146
-430,890	-200,000	0,037	0,136
-429,876	199,949	0,114	0,128
-428,861	108,296	-0,015	-0,013
-427,846	-145,357	0,109	0,007
-426,832	19,140	-0,082	-0,048
-425,817	-200,000	0,002	-0,036
-424,803	462,397	-0,030	0,049
-423,788	-44,133	0,162	0,059
-422,773	80,347	0,086	-0,067
-421,759	-200,000	-0,018	0,066
-420,744	23,127	-0,041	-0,025
-419,730	-75,684	-0,075	0,019
-418,715	800,000	0,050	-0,109
-417,701	-200,000	-0,004	-0,074
-416,686	-136,150	-0,078	-0,007
-415,671	154,613	0,100	0,101
-414,657	103,978	0,072	0,062
-413,642	800,000	-0,019	-0,039
-412,628	15,999	0,073	0,042
-411,613	156,121	-0,079	-0,080
-410,598	750,349	0,025	-0,049
-409,584	-108,037	-0,052	-0,008
-408,569	-97,153	-0,093	-0,018
-407,555	800,000	0,012	0,029
-406,540	-200,000	-0,027	-0,095
-405,525	252,343	0,039	-0,048
-404,511	17,956	0,098	-0,057
-403,496	272,233	-0,043	-0,056
-402,482	25,806	0,082	-0,050
-401,467	34,936	0,116	-0,074
-400,452	216,908	0,061	-0,072
-399,438	-135,569	0,082	-0,007
-398,423	281,178	-0,075	0,098
-397,409	11,543	-0,076	-0,043
-396,394	-200,000	0,031	-0,192
-395,379	-0,614	0,070	0,036
-394,365	-200,000	0,036	-0,135
-393,350	-200,000	0,005	-0,025
-392,336	-32,668	-0,114	-0,046
-391,321	-200,000	0,013	-0,110
-390,306	-200,000	-0,001	0,024
-389,292	-113,049	0,059	0,008
-388,277	702,248	-0,040	0,078
-387,263	800,000	-0,035	0,093
-386,248	146,504	0,070	0,069
-385,233	800,000	-0,006	0,015
-384,219	800,000	-0,038	-0,120
-383,204	63,809	-0,062	-0,045
-382,190	-96,919	-0,128	-0,024
-381,175	68,553	-0,118	0,088
-380,160	800,000	-0,059	0,140
-379,146	-10,799	0,089	0,043
-378,131	-59,489	0,166	0,052
-377,117	79,987	-0,066	0,051
-376,102	-102,225	-0,075	-0,013
-375,088	-200,000	-0,011	0,038
-374,073	-200,000	-0,019	-0,093
-373,058	-135,005	0,117	-0,010
-372,044	-137,624	0,126	0,010
-371,029	-105,950	0,122	-0,020
-370,015	-200,000	-0,009	0,051
-369,000	86,844	-0,033	0,027
-367,985	67,349	0,095	-0,071
-366,971	-200,000	-0,002	0,041
-365,956	119,590	-0,029	0,026
-364,942	109,431	-0,067	-0,059
-363,927	253,388	-0,028	0,035
-362,912	183,374	-0,045	-0,048
-361,898	-200,000	-0,001	0,037
-360,883	85,959	0,035	0,028
-359,869	-10,991	-0,111	-0,054
-358,854	-57,610	0,050	0,016
-357,839	-200,000	-0,003	0,030
-356,825	-200,000	-0,019	0,082
-355,810	-80,584	0,088	0,021
-354,796	232,357	0,037	-0,045
-353,781	-14,234	0,122	0,057
-352,766	800,000	-0,002	-0,004
-351,752	-200,000	-0,006	-0,118
-350,737	36,644	0,132	0,085
-349,723	-71,587	0,042	-0,011
-348,708	34,890	-0,086	-0,055
-347,693	784,709	-0,037	-0,075
-346,679	-200,000	-0,013	-0,110
-345,664	237,168	-0,077	-0,093
-344,650	271,731	-0,044	0,057
-343,635	-70,001	0,105	-0,029
-342,620	-200,000	-0,027	-0,092
-341,606	437,049	0,028	-0,045
-340,591	136,956	-0,032	-0,030
-339,577	172,480	0,037	0,039
-338,562	-103,268	-0,103	-0,018
-337,548	-200,000	0,025	-0,102
-336,533	389,776	-0,055	-0,084
-335,518	-111,476	0,071	0,010
-334,504	180,706	0,081	0,087
-333,489	520,871	0,037	0,064
-332,475	494,475	-0,075	0,127
-331,460	-166,166	-0,175	-0,005
-330,445	800,000	-0,037	-0,094
-329,431	-23,246	0,031	-0,014
-328,416	800,000	0,038	0,083
-327,402	-200,000	-0,019	0,130
-326,387	147,978	0,051	-0,051
-325,372	193,969	0,094	-0,104
-324,358	-200,000	0,029	-0,104
-323,343	800,000	0,069	0,178
-322,329	20,474	0,183	0,107
-321,314	-200,000	0,004	0,108
-320,299	76,180	-0,053	-0,041
-319,285	492,041	-0,038	-0,064
-318,270	-200,000	0,007	0,049
-317,256	-61,656	-0,006	-0,002
-316,241	91,510	-0,074	0,060
-315,226	-200,000	-0,004	0,194
-314,212	800,000	0,023	-0,057
-313,197	-0,213	-0,049	-0,025
-312,183	-2,949	0,075	0,038
-311,168	241,564	-0,082	-0,100
-310,153	-68,462	0,114	-0,032
-309,139	-200,000	-0,004	-0,079
-308,124	-200,000	0,003	-0,030
-307,110	-200,000	0,011	0,078
-306,095	-4,499	0,028	-0,014
-305,080	359,547	-0,016	-0,023
-304,066	53,563	-0,018	-0,013
-303,051	-200,000	0,029	-0,224
-302,037	-15,004	-0,142	-0,066
-301,022	13,495	0,029	0,017
-300,008	-200,000	-0,010	0,090
-298,993	-200,000	-0,009	0,118
-297,978	375,225	-0,043	-0,065
-296,964	800,000	0,057	-0,124
-295,949	164,355	0,006	-0,006
-294,935	-128,770	0,133	0,013
-293,920	-10,368	0,202	-0,097
-292,905	-29,822	0,091	-0,037
-291,891	105,649	0,049	0,042
-290,876	-200,000	0,007	0,040
-289,862	24,910	0,017	0,011
-288,847	95,861	0,115	0,095
-287,832	39,122	-0,106	-0,069
-286,818	84,491	-0,009	-0,007
-285,803	416,735	0,116	-0,181
-284,789	777,172	-0,032	0,064
-283,774	724,066	0,115	0,224
-282,759	-200,000	-0,020	-0,093
-281,745	76,118	-0,060	-0,046
-280,730	-200,000	0,030	-0,108
-279,716	317,240	-0,041	0,057
-278,701	800,000	0,049	0,151
-277,686	0,533	0,110	0,057
-276,672	-200,000	0,007	-0,125
-275,657	800,000	0,013	-0,029
-274,643	307,193	-0,048	0,065
-273,628	336,849	-0,078	-0,111
-272,613	-35,789	-0,074	-0,029
-271,599	800,000	0,024	-0,065
-270,584	800,000	-0,019	0,046
-269,570	800,000	0,026	0,073
-268,555	-20,051	-0,038	0,017
-267,540	103,998	0,085	-0,072
-266,526	-17,099	-0,137	0,063
-265,511	-88,416	0,093	0,020
-264,497	283,346	-0,052	-0,068
-263,482	50,672	-0,051	0,035
-262,467	-200,000	0,028	-0,104
-261,453	73,066	-0,075	0,057
-260,438	20,520	-0,122	0,072
-259,424	-101,286	-0,137	-0,024
-258,409	243,485	-0,050	0,061
-257,395	-200,000	0,020	0,080
-256,380	-121,230	-0,093	0,011
-255,365	122,751	-0,040	0,037
-254,351	800,000	-0,024	-0,062
-253,336	228,317	0,050	0,059
-252,322	133,157	-0,062	-0,059
-251,307	114,626	-0,017	0,015
-250,292	-80,290	-0,021	0,005
-249,278	-129,306	0,117	0,012
-248,263	800,000	-0,035	-0,093
-247,249	-113,817	-0,159	0,022
-246,234	365,840	0,041	-0,061
-245,219	-200,000	-0,024	-0,096
-244,205	-108,314	-0,076	0,012
-243,190	-50,748	-0,124	0,042
-242,176	-200,000	0,019	-0,133
-241,161	193,115	-0,022	-0,024
-240,146	-200,000	0,026	0,138
-239,132	19,115	0,079	0,046
-238,117	186,789	-0,090	-0,098
-237,103	62,528	0,059	-0,043
-236,088	285,626	-0,039	0,051
-235,073	350,959	0,046	0,067
-234,059	-200,000	0,020	0,126
-233,044	-168,470	-0,085	-0,002
-232,030	482,961	-0,105	0,174
-231,015	-101,848	0,016	-0,003
-230,000	506,812	0,036	-0,061
-228,986	32,632	-0,062	-0,039
-227,971	48,186	0,074	-0,050
-226,957	800,000	0,047	0,103
-225,942	-66,111	0,032	-0,009
-224,927	81,250	0,069	-0,054
-223,913	-200,000	-0,019	-0,078
-222,898	800,000	-0,008	-0,023
-221,884	239,191	0,002	0,002
-220,869	535,732	0,009	0,015
-219,855	800,000	-0,043	0,086
-218,840	357,026	-0,085	0,124
-217,825	-200,000	-0,004	0,032
-216,811	800,000	-0,018	0,043
-215,796	26,174	0,043	-0,026
-214,782	-200,000	0,004	-0,128
-213,767	729,433	-0,043	-0,083
-212,752	-110,498	-0,095	0,014
-211,738	-170,609	0,079	-0,002
-210,723	-14,147	-0,063	-0,030
-209,709	-74,005	-0,072	0,019
-208,694	321,907	-0,044	-0,060
-207,679	504,521	0,050	0,084
-206,665	335,864	0,045	0,063
-205,650	-200,000	0,023	-0,100
-204,636	-113,881	-0,097	-0,014
-203,621	-86,171	0,095	0,021
-202,606	-200,000	-0,001	-0,098
-201,592	185,100	-0,038	-0,041
-200,577	-117,912	0,084	0,011
-199,563	145,807	-0,023	0,022
-198,548	138,706	0,008	-0,008
-197,533	-200,000	-0,006	0,154
-196,519	-7,929	0,061	0,030
-195,504	-145,355	0,040	0,003
-194,490	342,763	-0,107	-0,152
-193,475	-7,928	0,064	0,031
-192,460	800,000	-0,050	-0,110
-191,446	34,330	0,088	-0,056
-190,431	276,447	0,082	0,106
-189,417	-200,000	-0,008	0,090
-188,402	0,764	-0,076	0,039
-187,387	22,539	-0,049	0,029
-186,373	350,844	0,007	0,010
-185,358	-200,000	-0,008	0,035
-184,344	229,125	0,008	-0,009
-183,329	-196,472	-0,045	-0,000
-182,315	-57,605	0,142	-0,045
-181,300	501,290	-0,025	-0,042
-180,285	396,904	-0,026	0,040
-179,271	800,000	0,036	-0,085
-178,256	343,271	0,071	-0,101
-177,242	-200,000	0,002	0,016
-176,227	-106,895	-0,028	0,004
-175,212	-200,000	0,004	0,103
-174,198	-22,230	0,089	-0,039
-173,183	-200,000	-0,013	0,072
-172,169	131,973	0,020	-0,019
-171,154	54,211	0,099	0,069
-170,139	-200,000	0,003	-0,014
-169,125	-53,840	0,102	0,034
-168,110	-200,000	0,015	0,170
-167,096	-47,256	0,036	0,013
-166,081	12,897	-0,090	-0,050
-165,066	-200,000	-0,016	-0,089
-164,052	-200,000	-0,018	-0,192
-163,037	189,296	0,019	0,021
-162,023	-66,101	0,113	-0,033
-161,008	-200,000	-0,027	0,144
-159,993	679,962	-0,044	0,083
-158,979	301,421	0,052	0,070
-157,964	-106,036	0,011	-0,002
-156,950	-200,000	-0,006	0,021
-155,935	398,942	-0,065	-0,099
-154,920	800,000	0,015	0,045
-153,906	-146,472	0,145	0,009
-152,891	44,541	-0,023	-0,015
-151,877	165,902	0,023	-0,023
-150,862	-200,000	0,003	-0,027
-149,847	34,661	0,055	0,035
-148,833	485,382	0,037	0,061
-147,818	-21,883	-0,107	-0,047
-146,804	-104,452	0,143	0,024
-145,789	-200,000	0,017	0,081
-144,775	-111,834	0,206	-0,030
-143,760	-88,446	-0,113	0,024
-142,745	238,238	0,037	0,044
-141,731	800,000	-0,033	-0,083
-140,716	57,500	0,041	0,029
-139,702	800,000	0,059	0,170
-138,687	800,000	-0,018	0,055
-137,672	-82,018	-0,079	0,019
-136,658	2,098	-0,087	-0,045
-135,643	138,970	0,129	-0,123
-134,629	-92,479	0,110	0,022
-133,614	800,000	-0,022	0,049
-132,599	438,403	0,108	0,172
-131,585	-200,000	-0,047	0,249
-130,570	-200,000	0,009	0,142
-129,556	557,862	-0,048	0,084
-128,541	-6,944	-0,160	0,078
-127,526	111,527	-0,045	-0,039
-126,512	55,221	-0,089	0,063
-125,497	36,036	-0,151	-0,096
-124,483	-146,066	0,046	0,003
-123,468	-200,000	-0,019	-0,081
-122,453	479,548	-0,020	-0,032
-121,439	-13,681	0,071	0,033
-120,424	170,036	-0,028	-0,029
-119,410	-200,000	-0,006	0,066
-118,395	-200,000	0,015	0,056
-117,380	351,273	0,100	0,144
-116,366	35,554	-0,076	0,048
-115,351	-200,000	-0,004	0,059
-114,337	-200,000	-0,015	0,000
-113,322	800,000	0,036	-0,077
-112,307	264,793	-0,081	0,102
-111,293	-110,090	0,190	0,028
-110,278	-197,218	-0,048	-0,000
-109,264	-83,933	-0,023	0,005
-108,249	-130,730	-0,079	-0,008
-107,234	-200,000	0,005	-0,108
-106,220	39,339	-0,136	-0,088
-105,205	-77,049	0,156	0,039
-104,191	197,290	-0,066	-0,073
-103,176	800,000	0,050	0,109
-102,162	-200,000	-0,006	-0,099
-101,147	35,413	0,056	-0,036
-100,132	441,240	-0,071	-0,112
-99,118	-0,629	0,073	-0,037
-98,103	-200,000	0,013	0,047
-97,089	-200,000	0,032	0,166
-96,074	-200,000	-0,007	-0,096
-95,059	299,609	0,043	0,057
-94,045	-150,185	0,041	0,002
-93,030	-17,225	-0,147	-0,067
-92,016	174,448	-0,073	-0,077
-91,001	-36,728	0,089	-0,034
-89,986	-141,985	-0,094	-0,007
-88,972	274,740	-0,048	0,062
-87,957	211,909	-0,100	0,114
-86,943	-200,000	0,043	0,252
-85,928	474,589	-0,036	-0,059
-84,913	149,151	-0,152	-0,149
-83,899	73,253	-0,070	-0,053
-82,884	-200,000	0,068	0,230
-81,870	-89,809	0,090	0,019
-80,855	20,043	-0,106	-0,061
-79,840	800,000	-0,029	-0,068
-78,826	-200,000	-0,031	-0,168
-77,811	-127,095	-0,051	0,005
-76,797	118,998	0,084	-0,075
-75,782	-200,000	-0,006	0,056
-74,767	244,124	0,080	0,097
-73,753	-3,838	0,047	-0,024
-72,738	-115,296	0,068	0,009
-71,724	-61,170	-0,096	0,029
-70,709	-200,000	0,025	0,157
-69,694	336,157	0,035	-0,050
-68,680	1,123	0,068	-0,035
-67,665	-200,000	0,002	-0,026
-66,651	45,116	-0,082	0,054
-65,636	-93,949	0,080	0,016
-64,622	90,656	0,029	0,023
-63,607	270,799	-0,060	0,077
-62,592	-26,695	-0,085	0,036
-61,578	-200,000	0,003	0,090
-60,563	-200,000	0,035	0,238
-59,549	399,909	-0,063	0,096
-58,534	-54,980	-1,699	-0,549
-57,519	800,000	-0,563	-1,187
-56,505	-200,000	-1,134	-4,665
-55,490	-120,729	0,654	-0,079
-54,476	800,000	5,199	12,086
-53,461	-200,000	15,417	269,526
-52,446	800,000	699,313	2215,102
-51,432	553,702	1617,635	2817,944
-50,417	119,416	1624,802	1451,364
-49,403	79,125	1283,890	991,567
-48,388	36,706	1026,397	652,895
-47,373	21,901	987,852	579,556
-46,359	20,964	976,527	569,809
-45,344	19,427	972,586	562,450
-44,330	19,408	971,174	561,547
-43,315	19,248	969,545	560,061
-42,300	19,232	968,383	559,313
-41,286	19,189	967,565	558,681
-40,271	19,229	966,456	558,149
-39,257	19,208	965,707	557,625
-38,242	19,270	964,738	557,245
-37,227	19,150	964,114	556,473
-36,213	19,228	963,290	556,229
-35,198	19,220	962,249	555,579
-34,184	19,165	961,641	555,027
-33,169	19,154	960,552	554,340
-32,154	19,235	959,619	554,044
-31,140	19,190	958,826	553,417
-30,125	19,223	957,980	553,014
-29,111	19,263	957,354	552,760
-28,096	19,210	956,597	552,128
-27,082	19,154	956,195	551,694
-26,067	19,261	955,117	551,396
-25,052	19,136	954,481	550,603
-24,038	19,151	953,980	550,341
-23,023	19,162	953,132	549,866
-22,009	19,256	952,489	549,773
-20,994	19,227	951,605	549,150
-19,979	19,207	951,263	548,865
-18,965	19,143	950,741	548,339
-17,950	19,201	949,925	548,033
-16,936	19,087	949,511	547,407
-15,921	19,143	948,512	546,988
-14,906	19,097	948,035	546,542
-13,892	19,112	947,237	546,109
-12,877	19,078	946,726	545,686
-11,863	19,054	945,904	545,113
-10,848	19,078	945,612	545,001
-9,833	19,180	945,170	545,049
-8,819	19,164	944,241	544,439
-7,804	19,101	943,724	543,920
-6,790	19,075	943,402	543,631
-5,775	19,095	942,710	543,273
-4,760	19,091	941,849	542,745
-3,746	19,133	941,285	542,529
-2,731	19,006	940,623	541,725
-1,717	18,964	939,782	541,087
-0,702	18,919	939,110	540,535
0,313	18,645	938,747	540,277
1,327	21,702	937,095	548,926
2,342	30,841	795,584	490,324
3,356	28,252	450,035	273,450
4,371	-0,880	295,614	150,438
5,386	-4,959	276,886	137,020
6,400	-6,279	271,444	133,084
7,415	-6,710	269,114	131,531
8,429	-6,494	267,582	130,969
9,444	-6,542	266,795	130,528
10,459	-6,732	266,282	130,092
11,473	-6,759	265,593	129,719
12,488	-6,961	265,193	129,328
13,502	-7,294	264,535	128,693
14,517	-7,352	264,010	128,374
15,531	-7,369	263,540	128,118
16,546	-7,228	263,116	128,028
17,561	-7,452	262,786	127,654
18,575	-7,414	262,518	127,547
19,590	-7,428	262,115	127,327
20,604	-7,440	261,845	127,174
21,619	-7,501	261,419	126,900
22,634	-7,334	260,931	126,802
23,648	-7,450	260,824	126,635
24,663	-7,467	260,542	126,472
25,677	-7,550	260,488	126,360
26,692	-7,461	260,158	126,268
27,707	-7,317	259,621	126,125
28,721	-7,448	259,421	125,899
29,736	-7,706	259,327	125,613
30,750	-7,553	258,976	125,567
31,765	-7,601	258,857	125,456
32,780	-7,579	258,502	125,293
33,794	-7,726	258,317	125,061
34,809	-7,695	258,040	124,944
35,823	-7,715	257,737	124,768
36,838	-7,676	257,520	124,686
37,853	-7,687	257,341	124,578
38,867	-7,744	257,134	124,417
39,882	-7,613	256,667	124,295
40,896	-7,462	256,564	124,368
41,911	-7,468	256,280	124,213
42,926	-7,740	256,191	123,920
43,940	-7,664	255,847	123,809
44,955	-7,657	255,575	123,673
45,969	-7,816	255,437	123,455
46,984	-7,768	255,029	123,289
47,999	-8,120	254,805	122,863
49,013	-8,253	254,736	122,702
50,028	-8,283	254,481	122,543
51,042	-8,585	254,206	122,136
52,057	-8,399	253,790	122,087
53,071	-8,227	253,613	122,141
54,086	-8,331	253,665	122,064
55,101	-8,152	253,405	122,084
56,115	-8,028	253,268	122,115
57,130	-7,378	253,185	122,627
58,144	-7,091	252,910	122,731
59,159	-7,188	252,884	122,624
60,174	-7,124	252,644	122,552
61,188	-7,355	252,290	122,170
62,203	-7,363	252,261	122,138
63,217	-7,378	252,049	122,011
64,232	-7,370	251,809	121,891
65,247	-7,322	251,686	121,862
66,261	-7,567	251,525	121,563
67,276	-7,685	251,084	121,237
68,290	-7,932	250,765	120,861
69,305	-7,942	250,698	120,809
70,320	-7,833	250,404	120,750
71,334	-7,815	250,424	120,764
72,349	-7,387	250,158	120,991
73,363	-7,056	249,814	121,097
74,378	-7,175	249,707	120,933
75,393	-7,257	249,443	120,724
76,407	-7,495	249,351	120,465
77,422	-7,593	249,235	120,315
78,436	-7,285	249,028	120,467
79,451	-7,341	248,669	120,235
80,466	-7,438	248,439	120,031
81,480	-7,675	248,335	119,769
82,495	-7,805	247,891	119,434
83,509	-7,731	247,931	119,505
84,524	-7,908	247,664	119,215
85,539	-7,844	247,382	119,124
86,553	-7,835	247,267	119,065
87,568	-7,834	247,130	118,989
88,582	-7,854	246,838	118,821
89,597	-7,741	246,726	118,852
90,611	-7,735	246,754	118,860
91,626	-7,470	246,344	118,875
92,641	-7,540	246,275	118,772
93,655	-7,714	246,052	118,508
94,670	-7,732	245,734	118,329
95,684	-7,746	245,677	118,279
96,699	-7,794	245,618	118,200
97,714	-7,786	245,390	118,087
98,728	-7,983	245,071	117,758
99,743	-8,031	244,887	117,619
100,757	-8,009	244,689	117,532
101,772	-7,827	244,308	117,490
102,787	-7,767	244,362	117,555
103,801	-7,693	244,092	117,476
104,816	-7,594	243,984	117,497
105,830	-7,332	243,986	117,705
106,845	-7,474	243,904	117,537
107,860	-7,404	243,481	117,380
108,874	-7,523	243,226	117,148
109,889	-7,377	243,008	117,153
110,903	-7,727	242,897	116,799
111,918	-7,692	242,758	116,752
112,933	-7,737	242,566	116,612
113,947	-7,553	242,465	116,705
114,962	-7,399	242,271	116,728
115,976	-7,470	242,074	116,564
116,991	-7,466	241,892	116,470
118,006	-7,559	241,595	116,240
119,020	-7,397	241,564	116,347
120,035	-7,231	241,493	116,440
121,049	-7,344	241,341	116,263
122,064	-7,426	241,209	116,121
123,079	-7,485	240,888	115,909
124,093	-7,463	240,552	115,755
125,108	-7,603	240,423	115,567
126,122	-8,217	240,289	114,991
127,137	-8,166	240,074	114,919
128,151	-8,087	240,016	114,946
129,166	-7,784	239,813	115,086
130,181	-7,705	239,559	115,017
131,195	-7,986	239,452	114,727
132,210	-7,676	239,090	114,796
133,224	-7,586	239,055	114,841
134,239	-7,567	238,998	114,820
135,254	-7,450	238,799	114,809
136,268	-7,285	238,443	114,761
137,283	-7,885	238,412	114,250
138,297	-7,879	237,978	114,036
139,312	-8,104	238,005	113,857
140,327	-7,692	237,751	114,059
141,341	-7,256	237,771	114,410
142,356	-7,294	237,852	114,408
143,370	-7,194	237,580	114,348
144,385	-7,104	237,273	114,262
145,400	-7,088	237,113	114,188
146,414	-7,013	236,996	114,181
147,429	-7,419	236,772	113,737
148,443	-7,222	236,678	113,840
149,458	-7,260	236,371	113,652
150,473	-7,231	236,316	113,638
151,487	-7,173	236,107	113,575
152,502	-7,138	235,967	113,525
153,516	-7,124	235,673	113,384
154,531	-7,011	235,524	113,393
155,546	-7,315	235,426	113,093
156,560	-7,271	235,241	113,029
157,575	-7,218	234,951	112,922
158,589	-7,334	234,959	112,823
159,604	-7,019	234,666	112,923
160,619	-6,994	234,579	112,892
161,633	-6,866	234,194	112,798
162,648	-7,046	234,214	112,654
163,662	-7,136	234,233	112,582
164,677	-7,144	233,989	112,448
165,692	-7,057	233,775	112,404
166,706	-7,015	233,651	112,368
167,721	-6,836	233,597	112,473
168,735	-6,849	233,392	112,354
169,750	-7,174	233,347	112,066
170,764	-7,327	233,243	111,885
171,779	-7,014	233,025	112,018
172,794	-7,031	232,831	111,901
173,808	-7,154	232,509	111,639
174,823	-7,596	232,201	111,134
175,837	-7,818	232,018	110,862
176,852	-7,126	232,119	111,444
177,867	-6,964	232,023	111,515
178,881	-6,838	231,917	111,553
179,896	-7,108	231,849	111,299
180,910	-7,101	231,664	111,206
181,925	-6,939	231,372	111,183
182,940	-6,913	231,263	111,140
183,954	-6,731	231,066	111,178
184,969	-6,853	231,036	111,059
185,983	-6,749	230,827	111,029
186,998	-6,880	230,663	110,838
188,013	-6,863	230,425	110,727
189,027	-7,035	230,428	110,585
190,042	-6,983	230,349	110,578
191,056	-6,853	229,999	110,501
192,071	-6,592	229,785	110,591
193,086	-6,727	229,734	110,452
194,100	-6,475	229,706	110,624
195,115	-6,367	229,428	110,564
196,129	-6,680	229,317	110,259
197,144	-2,788	230,739	113,964
198,159	2,058	231,886	118,305
199,173	3,520	232,334	119,664
200,188	3,737	232,136	119,721
201,202	3,806	232,120	119,756
202,217	4,068	231,914	119,843
203,232	4,146	231,916	119,894
204,246	4,216	231,790	119,873
205,261	4,187	231,638	119,761
206,275	4,542	231,442	119,924
207,290	4,623	231,384	119,947
208,304	4,485	231,181	119,724
209,319	4,367	231,065	119,561
210,334	4,342	230,832	119,411
211,348	4,115	230,588	119,098
212,363	3,734	230,323	118,657
213,377	3,623	230,142	118,467
214,392	3,472	230,088	118,312
215,407	3,741	229,888	118,406
216,421	3,509	229,814	118,179
217,436	3,757	229,503	118,199
218,450	3,337	229,287	117,754
219,465	3,279	229,193	117,651
220,480	3,497	228,997	117,708
221,494	3,315	228,901	117,508
222,509	3,442	228,967	117,629
223,523	3,576	228,728	117,598
224,538	3,662	228,361	117,465
225,553	3,388	228,443	117,287
226,567	3,876	228,161	117,504
227,582	3,797	228,118	117,412
228,596	3,828	228,104	117,417
229,611	3,772	227,830	117,223
230,626	3,417	227,596	116,822
231,640	3,427	227,465	116,751
232,655	3,768	227,351	116,942
233,669	4,338	227,307	117,343
234,684	4,177	227,220	117,165
235,699	4,202	226,823	116,969
236,713	3,787	226,815	116,640
237,728	3,567	226,562	116,332
238,742	3,539	226,285	116,159
239,757	3,591	226,310	116,201
240,772	3,692	226,027	116,121
241,786	3,415	226,046	115,911
242,801	3,738	225,974	116,108
243,815	4,079	225,757	116,244
244,830	4,223	225,622	116,273
245,844	3,755	225,462	115,827
246,859	3,782	225,246	115,726
247,874	3,877	225,168	115,747
248,888	3,922	225,079	115,724
249,903	3,670	225,009	115,489
250,917	3,628	224,806	115,342
251,932	3,784	224,544	115,315
252,947	3,668	224,367	115,127
253,961	3,509	224,270	114,948
254,976	3,751	224,076	115,019
255,990	3,878	223,987	115,058
257,005	3,804	223,950	114,973
258,020	4,023	223,810	115,055
259,034	4,172	223,622	115,060
260,049	4,150	223,428	114,933
261,063	3,734	223,320	114,557
262,078	4,073	223,230	114,754
263,093	3,847	223,034	114,474
264,107	3,865	223,001	114,460
265,122	3,860	222,820	114,354
266,136	3,992	222,755	114,408
267,151	4,094	222,545	114,366
268,166	3,697	222,247	113,908
269,180	3,234	222,023	113,440
270,195	3,677	221,819	113,654
271,209	3,503	221,796	113,503
272,224	3,563	221,731	113,504
273,239	3,710	221,669	113,570
274,253	3,442	221,488	113,270
275,268	3,465	221,255	113,157
276,282	3,724	220,906	113,160
277,297	3,319	220,839	112,817
278,312	3,574	220,710	112,929
279,326	3,666	220,671	112,967
280,341	3,573	220,631	112,867
281,355	3,913	220,344	112,960
282,370	3,506	220,111	112,532
283,384	3,417	219,889	112,343
284,399	3,210	219,895	112,185
285,414	3,513	219,645	112,269
286,428	3,544	219,685	112,302
287,443	3,896	219,693	112,554
288,457	3,770	219,448	112,326
289,472	3,581	219,243	112,073
290,487	3,162	219,044	111,655
291,501	3,092	218,942	111,543
292,516	3,334	218,818	111,646
293,530	3,476	218,654	111,656
294,545	3,204	218,527	111,383
295,560	3,437	218,385	111,470
296,574	3,552	218,182	111,440
297,589	3,801	217,992	111,514
298,603	3,542	218,077	111,359
299,618	3,655	217,927	111,355
300,633	3,624	217,905	111,311
301,647	4,008	217,673	111,461
302,662	3,808	217,472	111,203
303,676	3,734	217,395	111,100
304,691	3,825	217,434	111,176
305,706	3,875	217,177	111,071
306,720	3,745	217,003	110,878
307,735	3,659	216,744	110,674
308,749	3,484	216,552	110,440
309,764	3,576	216,515	110,478
310,779	3,926	216,531	110,728
311,793	3,678	216,363	110,454
312,808	4,001	216,050	110,516
313,822	3,908	216,017	110,422
314,837	3,768	215,811	110,207
315,852	3,254	215,704	109,774
316,866	3,599	215,660	109,989
317,881	3,696	215,533	109,984
318,895	3,811	215,258	109,916
319,910	3,684	215,066	109,718
320,925	3,374	214,877	109,390
321,939	3,137	214,666	109,104
322,954	3,403	214,614	109,257
323,968	3,604	214,586	109,377
324,983	3,731	214,620	109,475
325,997	3,902	214,361	109,455
327,012	3,957	214,144	109,373
328,027	4,010	213,967	109,310
329,041	4,150	213,866	109,349
330,056	4,166	213,858	109,346
331,070	3,731	213,767	108,981
332,085	3,478	213,386	108,598
333,100	3,576	213,261	108,594
334,114	3,623	213,060	108,515
335,129	3,782	212,950	108,562
336,143	3,490	212,762	108,250
337,158	3,426	212,732	108,180
338,173	3,649	212,696	108,310
339,187	3,548	212,371	108,063
340,202	3,322	212,227	107,821
341,216	3,146	212,064	107,605
342,231	3,627	211,997	107,900
343,246	3,411	211,837	107,657
344,260	3,459	211,787	107,655
345,275	3,607	211,622	107,666
346,289	3,673	211,657	107,721
347,304	3,750	211,434	107,652
348,319	3,856	211,233	107,614
349,333	3,593	211,143	107,375
350,348	3,776	211,014	107,427
351,362	3,890	210,927	107,453
352,377	3,885	210,874	107,413
353,392	3,841	210,567	107,216
354,406	3,662	210,661	107,129
355,421	196,375	1341,198	1429,661
356,435	156,872	1478,984	1429,713
