DTS Sentinel unit serial number:	SN410029Multiplexer serial number:	ORYXHardware model number:	OX2-SRSoftware version number:	ORYX F/W v4,00 Oryx Data Collector v3.7.2.0data status	okinstallation	B6 Nyhavnadifferential loss correction	single-endedforward channel	channel 2reverse channel	N/Adate	2023/12/09time	15:35:08forward acquisition time	300,00reverse acquisition time	0,00gamma	499,1914k internal	0,3133k external	0,3133temperature offset calibration	1,0000default loss term (dB/km)	0,3820temperature slope calibration	1,0000multiplexer offset coefficient	1,0000multiplexer slope coefficient	1,0000fibre end	0,00T internal ref (°C)	20,68T ext. ref 1 (°C)	4,62T ext. ref 2 (°C)	4,61length (m)	temperature (°C)	Stokes	anti-Stokes-744,400	33,489	-0,167	-0,107
-743,385	-71,722	-0,221	0,061
-742,371	96,548	0,101	0,086
-741,356	17,475	-0,236	0,139
-740,342	-41,433	-0,086	0,033
-739,327	-55,888	-0,284	0,094
-738,312	-59,227	0,118	-0,038
-737,298	-83,987	-0,328	0,077
-736,283	-200,000	-0,007	-0,073
-735,269	-109,312	-0,136	0,021
-734,254	276,022	-0,051	0,068
-733,239	-124,249	-0,396	-0,046
-732,225	31,956	0,083	0,053
-731,210	-200,000	-0,013	0,162
-730,196	-105,599	-0,077	-0,013
-729,181	800,000	-0,030	0,074
-728,167	191,502	-0,114	0,127
-727,152	123,673	0,062	-0,058
-726,137	122,513	0,020	-0,019
-725,123	483,701	0,010	-0,017
-724,108	-200,000	-0,016	-0,100
-723,094	800,000	-0,113	-0,273
-722,079	-48,971	-0,148	-0,052
-721,064	337,752	0,057	0,083
-720,050	693,242	-0,106	0,207
-719,035	-91,920	0,063	0,013
-718,021	-79,906	-0,046	-0,011
-717,006	212,331	-0,026	0,030
-715,991	-73,231	-0,141	0,038
-714,977	279,030	-0,089	-0,118
-713,962	110,195	0,138	-0,123
-712,948	-59,761	0,124	0,039
-711,933	-200,000	-0,020	0,109
-710,918	-200,000	-0,005	0,058
-709,904	-95,431	-0,132	0,026
-708,889	-200,000	0,008	-0,067
-707,875	-200,000	-0,006	-0,194
-706,860	757,616	-0,033	-0,067
-705,845	374,357	0,033	0,050
-704,831	99,121	0,034	0,029
-703,816	447,306	-0,077	0,126
-702,802	-200,000	0,006	-0,049
-701,787	800,000	-0,025	0,064
-700,772	102,569	-0,049	-0,042
-699,758	-46,252	-0,057	-0,021
-698,743	27,225	0,056	0,035
-697,729	-200,000	-0,003	0,128
-696,714	171,140	-0,027	0,029
-695,699	345,654	-0,045	-0,065
-694,685	437,534	0,044	-0,071
-693,670	202,510	-0,066	-0,076
-692,656	-83,845	-0,093	-0,022
-691,641	-200,000	0,010	0,055
-690,627	800,000	-0,022	0,066
-689,612	-148,717	0,065	0,004
-688,597	-73,012	-0,091	-0,025
-687,583	-200,000	-0,038	-0,129
-686,568	800,000	0,030	-0,061
-685,554	100,085	0,065	0,056
-684,539	-200,000	0,002	-0,050
-683,524	13,932	0,058	0,034
-682,510	-157,152	0,091	-0,004
-681,495	100,404	-0,061	-0,052
-680,481	-151,644	-0,131	-0,007
-679,466	101,441	0,033	-0,028
-678,451	800,000	0,021	0,064
-677,437	675,013	0,043	-0,084
-676,422	238,092	0,051	-0,063
-675,408	-30,434	-0,097	0,041
-674,393	289,679	0,107	-0,144
-673,378	800,000	-0,055	-0,121
-672,364	800,000	0,067	-0,147
-671,349	32,789	-0,075	-0,048
-670,335	-200,000	-0,012	-0,100
-669,320	-200,000	-0,022	0,075
-668,305	474,872	0,039	-0,065
-667,291	-94,613	-0,084	-0,017
-666,276	-177,780	-0,176	-0,003
-665,262	-48,079	-0,155	-0,055
-664,247	800,000	0,016	0,040
-663,232	179,135	-0,037	0,040
-662,218	-91,496	0,180	0,038
-661,203	-200,000	-0,002	0,093
-660,189	-71,312	0,067	-0,019
-659,174	-92,122	-0,074	0,015
-658,159	-85,967	-0,141	0,032
-657,145	86,260	-0,068	-0,055
-656,130	48,631	0,054	-0,038
-655,116	330,067	-0,064	0,092
-654,101	-200,000	-0,013	0,132
-653,086	179,751	-0,094	-0,102
-652,072	411,839	-0,061	0,096
-651,057	267,468	-0,050	0,065
-650,043	-13,315	0,063	-0,030
-649,028	120,055	-0,156	0,143
-648,014	56,158	0,020	-0,014
-646,999	-123,210	0,114	-0,013
-645,984	95,350	-0,128	-0,108
-644,970	506,240	0,010	-0,018
-643,955	192,674	-0,084	0,094
-642,941	-135,210	0,059	0,005
-641,926	-200,000	0,003	-0,024
-640,911	-200,000	-0,006	-0,022
-639,897	-133,710	-0,022	-0,002
-638,882	-200,000	-0,002	0,074
-637,868	-200,000	-0,006	0,074
-636,853	110,888	-0,123	-0,110
-635,838	479,972	0,014	-0,024
-634,824	800,000	-0,045	-0,106
-633,809	-121,557	-0,066	-0,008
-632,795	364,924	-0,083	0,124
-631,780	-200,000	-0,019	0,104
-630,765	-98,345	0,066	0,012
-629,751	-129,860	-0,138	0,014
-628,736	45,248	-0,205	-0,140
-627,722	-138,079	-0,142	-0,011
-626,707	-200,000	-0,034	-0,152
-625,692	-105,670	0,064	-0,011
-624,678	-91,124	-0,143	0,030
-623,663	-121,250	-0,126	-0,015
-622,649	17,454	-0,101	-0,059
-621,634	-93,157	0,041	-0,008
-620,619	77,633	-0,020	0,015
-619,605	-200,000	0,009	-0,036
-618,590	90,323	0,084	0,069
-617,576	-33,580	-0,012	-0,005
-616,561	512,797	0,052	0,090
-615,546	-160,001	-0,039	-0,002
-614,532	56,068	-0,044	-0,032
-613,517	-17,880	0,029	0,013
-612,503	99,126	0,066	0,057
-611,488	-50,147	0,076	0,026
-610,474	-200,000	-0,007	-0,059
-609,459	65,168	-0,069	-0,052
-608,444	-138,672	0,092	0,007
-607,430	-111,140	-0,194	-0,029
-606,415	-200,000	0,000	0,018
-605,401	785,236	0,045	0,092
-604,386	-200,000	-0,015	0,096
-603,371	151,443	-0,032	-0,032
-602,357	280,708	-0,082	-0,109
-601,342	-200,000	-0,000	0,126
-600,328	220,828	-0,042	-0,050
-599,313	119,052	-0,020	-0,018
-598,298	-58,919	0,161	-0,051
-597,284	-147,155	0,041	0,003
-596,269	-56,447	0,122	-0,040
-595,255	162,336	0,043	-0,045
-594,240	-101,046	0,049	0,009
-593,225	-200,000	0,034	-0,162
-592,211	-29,437	-0,107	-0,045
-591,196	800,000	0,024	-0,075
-590,182	-23,177	0,069	0,031
-589,167	-200,000	0,013	0,054
-588,152	61,501	-0,035	-0,026
-587,138	92,111	-0,081	0,067
-586,123	-6,040	-0,054	0,027
-585,109	-200,000	0,008	-0,041
-584,094	300,977	-0,044	-0,060
-583,079	800,000	0,033	-0,078
-582,065	145,660	-0,092	-0,091
-581,050	-200,000	-0,000	-0,012
-580,036	78,489	-0,055	-0,044
-579,021	-103,533	-0,091	0,016
-578,006	149,792	-0,022	0,022
-576,992	-134,856	0,076	-0,007
-575,977	148,824	0,045	0,045
-574,963	-0,860	0,146	-0,076
-573,948	-142,467	-0,136	-0,010
-572,934	-39,645	-0,121	-0,046
-571,919	-200,000	0,007	0,025
-570,904	308,548	-0,076	-0,105
-569,890	288,177	-0,026	0,035
-568,875	457,829	-0,012	0,020
-567,861	-86,768	0,144	0,032
-566,846	295,050	-0,062	-0,084
-565,831	-200,000	0,004	-0,092
-564,817	9,170	-0,055	-0,031
-563,802	-29,307	-0,105	-0,044
-562,788	-200,000	0,013	-0,098
-561,773	800,000	-0,050	-0,124
-560,758	-37,676	0,088	-0,034
-559,744	208,416	-0,052	-0,060
-558,729	271,494	0,104	-0,136
-557,715	-110,252	0,058	-0,009
-556,700	-200,000	-0,008	0,109
-555,685	-53,001	-0,177	-0,060
-554,671	-200,000	-0,003	0,120
-553,656	-200,000	-0,003	0,079
-552,642	-200,000	-0,011	0,042
-551,627	800,000	0,019	0,057
-550,612	671,473	-0,061	-0,117
-549,598	-12,910	-0,038	-0,018
-548,583	-200,000	-0,038	-0,162
-547,569	0,547	0,076	-0,040
-546,554	191,528	-0,010	0,011
-545,539	-200,000	0,019	0,092
-544,525	-200,000	0,017	0,103
-543,510	-72,810	-0,068	-0,018
-542,496	-200,000	0,012	-0,154
-541,481	-30,745	-0,077	-0,032
-540,466	800,000	-0,038	0,104
-539,452	574,152	0,049	-0,089
-538,437	632,908	0,036	0,068
-537,423	-67,980	0,024	-0,007
-536,408	0,691	-0,095	-0,050
-535,393	62,890	0,071	0,052
-534,379	341,302	-0,045	-0,065
-533,364	124,995	0,049	-0,046
-532,350	145,727	-0,073	-0,072
-531,335	52,122	0,041	-0,029
-530,321	-33,014	0,061	-0,025
-529,306	-76,285	0,084	0,022
-528,291	800,000	0,051	-0,110
-527,277	800,000	-0,038	-0,089
-526,262	-26,581	-0,072	0,031
-525,248	307,669	-0,048	0,066
-524,233	-200,000	-0,008	0,047
-523,218	-200,000	-0,002	0,097
-522,204	89,408	0,115	-0,094
-521,189	791,873	-0,017	0,035
-520,175	-102,161	0,018	-0,003
-519,160	235,096	-0,109	-0,132
-518,145	-200,000	0,015	-0,050
-517,131	-200,000	-0,036	0,148
-516,116	43,809	0,116	0,078
-515,102	7,781	0,042	0,023
-514,087	-7,720	0,060	0,030
-513,072	-118,906	0,069	-0,009
-512,058	188,431	-0,094	0,104
-511,043	-200,000	-0,020	-0,121
-510,029	-200,000	0,004	0,079
-509,014	41,239	0,136	0,090
-507,999	-200,000	0,002	0,085
-506,985	177,080	-0,045	-0,049
-505,970	800,000	-0,031	-0,065
-504,956	-143,434	-0,036	-0,002
-503,941	-200,000	-0,021	0,128
-502,926	1,057	0,082	0,043
-501,912	218,048	-0,042	0,050
-500,897	1,474	0,039	0,021
-499,883	63,811	0,105	0,078
-498,868	800,000	-0,079	0,187
-497,853	-200,000	0,008	-0,111
-496,839	-9,433	0,143	0,070
-495,824	770,181	-0,046	0,092
-494,810	79,600	-0,110	-0,087
-493,795	58,444	-0,019	-0,014
-492,781	-112,218	0,121	-0,018
-491,766	-79,858	-0,040	-0,010
-490,751	-69,525	-0,072	0,020
-489,737	295,224	-0,085	-0,114
-488,722	-12,725	0,096	0,046
-487,708	-200,000	0,010	0,162
-486,693	-49,110	0,106	-0,037
-485,678	-200,000	0,010	-0,130
-484,664	-127,400	-0,012	-0,001
-483,649	-85,089	-0,048	-0,011
-482,635	160,790	-0,029	-0,030
-481,620	-21,999	0,008	0,004
-480,605	33,240	0,152	0,097
-479,591	360,807	0,043	0,064
-478,576	-117,565	-0,102	-0,013
-477,562	0,211	-0,039	-0,020
-476,547	800,000	0,034	0,083
-475,532	800,000	-0,023	0,052
-474,518	-103,311	0,089	-0,015
-473,503	24,393	-0,115	0,070
-472,489	-200,000	0,013	0,050
-471,474	113,954	0,068	0,061
-470,459	-118,493	0,034	-0,004
-469,445	-200,000	0,000	-0,011
-468,430	-174,490	-0,090	-0,002
-467,416	800,000	0,043	-0,096
-466,401	41,089	0,090	-0,060
-465,386	62,905	-0,070	-0,051
-464,372	-7,096	0,060	-0,030
-463,357	-2,500	-0,073	0,037
-462,343	-54,375	-0,078	-0,026
-461,328	-200,000	0,045	0,176
-460,313	-200,000	-0,001	-0,047
-459,299	-200,000	0,001	-0,045
-458,284	-200,000	-0,012	0,110
-457,270	57,682	0,054	0,039
-456,255	113,973	-0,085	-0,076
-455,241	3,301	-0,011	0,006
-454,226	800,000	0,052	-0,147
-453,211	12,039	0,064	0,036
-452,197	188,653	-0,042	0,046
-451,182	-200,000	0,004	-0,088
-450,168	203,085	-0,099	0,113
-449,153	281,625	-0,082	0,109
-448,138	-103,774	0,020	0,003
-447,124	-21,950	-0,060	0,027
-446,109	255,418	-0,027	-0,035
-445,095	-98,124	0,045	0,008
-444,080	-144,409	-0,056	0,004
-443,065	800,000	0,053	0,164
-442,051	-94,345	-0,055	-0,011
-441,036	-60,357	-0,111	0,035
-440,022	-200,000	-0,004	-0,034
-439,007	40,455	0,060	-0,040
-437,992	800,000	0,037	-0,118
-436,978	-200,000	-0,015	0,131
-435,963	-60,700	0,015	0,005
-434,949	-142,756	-0,060	-0,004
-433,934	-122,916	-0,109	-0,013
-432,919	175,323	-0,025	0,027
-431,905	777,513	0,029	-0,059
-430,890	638,234	0,061	-0,114
-429,876	21,283	0,142	0,084
-428,861	-200,000	0,001	-0,055
-427,846	-91,795	0,126	0,026
-426,832	-200,000	0,002	-0,043
-425,817	-161,697	0,094	-0,003
-424,803	800,000	-0,020	0,065
-423,788	-200,000	0,004	-0,025
-422,773	-200,000	0,023	0,129
-421,759	494,377	-0,109	0,185
-420,744	-148,771	0,054	-0,003
-419,730	-124,586	0,014	-0,002
-418,715	-200,000	-0,007	-0,062
-417,701	421,792	-0,016	-0,025
-416,686	-114,680	-0,085	-0,012
-415,671	-82,585	0,079	-0,019
-414,657	-15,327	0,158	0,074
-413,642	800,000	0,015	-0,047
-412,628	242,461	-0,050	-0,062
-411,613	263,969	0,081	0,104
-410,598	-121,850	-0,064	0,008
-409,584	-200,000	-0,005	-0,050
-408,569	-200,000	0,002	0,190
-407,555	-47,544	-0,025	-0,009
-406,540	-200,000	0,006	-0,110
-405,525	-98,197	-0,067	-0,012
-404,511	800,000	0,025	0,056
-403,496	-1,088	-0,104	-0,054
-402,482	10,144	0,027	0,015
-401,467	-53,013	-0,033	-0,011
-400,452	-62,138	0,094	-0,028
-399,438	-82,887	0,091	0,021
-398,423	-95,604	-0,068	-0,013
-397,409	-200,000	-0,001	0,095
-396,394	160,453	-0,083	-0,084
-395,379	63,112	-0,074	0,054
-394,365	196,835	0,073	0,082
-393,350	-60,085	-0,133	-0,041
-392,336	-57,702	0,034	-0,011
-391,321	-78,294	-0,104	0,026
-390,306	800,000	0,040	-0,091
-389,292	-131,395	-0,142	-0,014
-388,277	112,500	0,091	0,081
-387,263	800,000	-0,027	0,082
-386,248	-200,000	-0,030	-0,139
-385,233	168,081	0,087	0,091
-384,219	-200,000	0,018	-0,108
-383,204	30,467	-0,060	-0,038
-382,190	-16,860	0,057	-0,026
-381,175	-200,000	-0,015	-0,165
-380,160	52,702	-0,124	-0,087
-379,146	-113,825	0,103	-0,015
-378,131	191,225	0,067	0,074
-377,117	-200,000	0,012	-0,056
-376,102	61,668	0,076	0,055
-375,088	29,299	-0,120	0,074
-374,073	800,000	0,010	0,030
-373,058	800,000	-0,013	-0,028
-372,044	-200,000	0,005	0,042
-371,029	-96,456	0,107	0,021
-370,015	112,024	-0,076	-0,067
-369,000	28,292	0,070	0,043
-367,985	-28,750	0,069	-0,029
-366,971	-19,466	-0,083	0,037
-365,956	-200,000	0,020	-0,145
-364,942	-169,675	0,195	0,005
-363,927	-200,000	0,003	0,015
-362,912	97,415	0,036	0,030
-361,898	-88,185	-0,057	0,012
-360,883	225,595	-0,073	-0,086
-359,869	-200,000	0,010	0,081
-358,854	311,649	-0,057	-0,078
-357,839	180,619	-0,046	0,049
-356,825	-58,890	0,084	0,026
-355,810	87,776	-0,089	0,072
-354,796	-200,000	-0,001	0,052
-353,781	-67,064	0,163	-0,047
-352,766	-200,000	-0,003	-0,027
-351,752	0,270	-0,049	-0,025
-350,737	-200,000	0,020	0,172
-349,723	205,551	0,056	0,064
-348,708	-200,000	0,002	-0,108
-347,693	-200,000	0,007	-0,043
-346,679	-66,255	-0,083	-0,024
-345,664	422,308	-0,072	0,113
-344,650	-200,000	0,011	0,048
-343,635	-1,523	0,070	0,036
-342,620	-95,770	-0,167	-0,032
-341,606	163,138	0,048	-0,049
-340,591	4,179	-0,050	-0,027
-339,577	27,126	0,057	-0,035
-338,562	-200,000	-0,006	-0,070
-337,548	-200,000	0,025	0,098
-336,533	800,000	0,013	-0,027
-335,518	-152,131	-0,074	0,004
-334,504	-84,451	-0,091	-0,021
-333,489	321,123	-0,052	0,073
-332,475	-112,380	-0,112	0,016
-331,460	-200,000	-0,007	0,043
-330,445	-200,000	0,015	0,065
-329,431	558,990	0,029	-0,052
-328,416	-89,478	0,132	-0,028
-327,402	-181,221	-0,096	0,001
-326,387	14,782	0,111	-0,064
-325,372	-117,630	-0,067	0,009
-324,358	-200,000	-0,020	-0,078
-323,343	186,621	0,147	-0,161
-322,329	444,127	0,093	0,149
-321,314	-75,266	0,063	-0,016
-320,299	-163,987	-0,042	0,001
-319,285	-137,854	-0,115	0,009
-318,270	-173,378	-0,064	0,001
-317,256	86,117	-0,071	-0,057
-316,241	-63,333	0,093	0,028
-315,226	246,666	0,030	-0,037
-314,212	60,286	0,089	-0,064
-313,197	344,188	-0,026	-0,037
-312,183	128,407	0,063	0,059
-311,168	-200,000	-0,009	-0,148
-310,153	-200,000	0,035	-0,150
-309,139	-200,000	0,021	-0,172
-308,124	800,000	0,011	-0,027
-307,110	800,000	-0,080	0,166
-306,095	800,000	-0,040	0,105
-305,080	261,988	0,059	0,075
-304,066	-124,537	0,122	0,014
-303,051	-200,000	-0,008	-0,095
-302,037	800,000	-0,035	-0,079
-301,022	-98,393	0,100	0,019
-300,008	-171,951	0,084	-0,002
-298,993	-77,394	-0,082	-0,021
-297,978	216,973	0,061	-0,072
-296,964	-200,000	-0,035	-0,121
-295,949	-114,534	-0,136	-0,019
-294,935	800,000	0,024	0,051
-293,920	-14,155	-0,075	0,035
-292,905	784,602	0,020	-0,041
-291,891	-200,000	-0,023	0,111
-290,876	-120,208	-0,030	-0,004
-289,862	-9,980	-0,039	0,019
-288,847	800,000	-0,025	-0,072
-287,832	117,898	-0,111	-0,100
-286,818	-75,901	-0,084	-0,022
-285,803	-200,000	-0,023	0,074
-284,789	-200,000	-0,016	0,089
-283,774	-200,000	0,001	0,135
-282,759	22,624	0,059	-0,035
-281,745	-200,000	0,008	-0,138
-280,730	-200,000	-0,013	-0,047
-279,716	-200,000	0,014	0,106
-278,701	-5,618	0,072	-0,036
-277,686	197,706	-0,053	0,059
-276,672	-124,821	0,147	0,016
-275,657	192,044	-0,085	0,094
-274,643	135,664	-0,063	-0,059
-273,628	189,502	-0,049	-0,054
-272,613	189,621	0,131	0,144
-271,599	44,172	0,148	0,099
-270,584	105,845	0,074	0,064
-269,570	29,170	0,047	0,029
-268,555	461,625	0,046	0,076
-267,540	800,000	0,061	-0,163
-266,526	692,307	-0,033	-0,063
-265,511	-79,293	-0,023	-0,006
-264,497	-1,041	0,145	-0,074
-263,482	-200,000	0,024	0,082
-262,467	198,872	0,060	0,067
-261,453	-200,000	-0,026	0,083
-260,438	800,000	-0,059	-0,150
-259,424	800,000	-0,039	-0,094
-258,409	-200,000	0,004	-0,097
-257,395	46,661	-0,043	-0,029
-256,380	-200,000	-0,003	0,111
-255,365	178,444	0,065	0,069
-254,351	-11,816	-0,081	0,039
-253,336	-110,346	-0,049	0,007
-252,322	-200,000	-0,037	0,120
-251,307	519,396	-0,057	-0,097
-250,292	37,112	0,128	0,083
-249,278	99,353	0,105	-0,089
-248,263	516,819	-0,044	0,075
-247,249	-93,598	0,056	0,011
-246,234	109,880	-0,030	-0,026
-245,219	155,326	-0,038	0,038
-244,205	-92,143	-0,110	-0,022
-243,190	72,034	0,047	0,035
-242,176	64,479	0,218	0,160
-241,161	-98,313	0,144	0,027
-240,146	532,431	0,025	0,044
-239,132	-200,000	-0,031	0,102
-238,117	-200,000	-0,008	-0,045
-237,103	-200,000	-0,037	-0,151
-236,088	800,000	0,048	-0,100
-235,073	-66,321	0,066	0,019
-234,059	347,766	0,086	0,123
-233,044	800,000	0,036	-0,073
-232,030	748,898	-0,070	-0,139
-231,015	-67,725	0,046	0,013
-230,000	606,615	0,031	0,057
-228,986	800,000	-0,047	-0,122
-227,971	-200,000	-0,011	0,116
-226,957	-103,577	0,039	0,007
-225,942	-85,640	0,041	-0,009
-224,927	-46,014	0,183	-0,065
-223,913	-200,000	0,003	-0,027
-222,898	-200,000	0,003	-0,149
-221,884	800,000	-0,040	-0,091
-220,869	-200,000	0,001	0,113
-219,855	-200,000	0,008	0,087
-218,840	-26,707	-0,061	-0,026
-217,825	82,721	-0,023	-0,018
-216,811	-35,170	-0,054	-0,021
-215,796	-200,000	-0,026	-0,193
-214,782	-77,918	-0,075	-0,019
-213,767	-59,495	-0,048	-0,015
-212,752	1,260	0,096	-0,050
-211,738	-129,455	0,137	0,014
-210,723	22,197	0,048	-0,028
-209,709	200,838	-0,065	-0,073
-208,694	-61,892	-0,032	-0,010
-207,679	216,322	-0,048	-0,055
-206,665	260,798	-0,046	0,058
-205,650	-71,564	0,135	0,037
-204,636	-200,000	0,017	0,114
-203,621	729,450	0,047	0,093
-202,606	-52,854	-0,083	-0,028
-201,592	116,353	-0,039	-0,035
-200,577	-93,207	-0,088	0,018
-199,563	800,000	0,017	0,052
-198,548	-22,086	0,140	0,061
-197,533	-200,000	0,003	0,032
-196,519	55,879	0,099	-0,070
-195,504	-200,000	0,016	0,122
-194,490	800,000	0,039	-0,106
-193,475	-200,000	-0,019	-0,198
-192,460	481,771	0,050	0,083
-191,446	800,000	0,022	0,052
-190,431	-35,875	-0,072	0,028
-189,417	-106,397	0,035	-0,006
-188,402	410,230	-0,051	0,079
-187,387	166,508	0,020	0,021
-186,373	243,617	0,033	0,041
-185,358	-200,000	0,064	0,216
-184,344	-58,440	-0,038	-0,012
-183,329	-63,959	0,101	-0,030
-182,315	144,646	0,093	-0,091
-181,300	94,670	0,083	-0,068
-180,285	-112,251	0,094	-0,014
-179,271	121,260	-0,026	0,023
-178,256	439,048	-0,015	0,023
-177,242	96,250	-0,031	0,026
-176,227	-153,007	-0,081	0,004
-175,212	-26,716	0,050	-0,021
-174,198	718,752	-0,022	0,043
-173,183	-108,217	-0,066	0,010
-172,169	-54,127	0,097	-0,032
-171,154	163,468	-0,077	0,079
-170,139	466,802	-0,017	0,028
-169,125	-162,128	0,095	-0,003
-168,110	182,394	0,101	0,108
-167,096	98,352	0,035	0,029
-166,081	13,816	-0,130	0,073
-165,066	-200,000	-0,057	-0,192
-164,052	-52,116	0,173	0,058
-163,037	59,229	0,093	0,066
-162,023	-35,735	-0,046	-0,018
-161,008	-200,000	-0,002	0,181
-159,993	236,292	0,038	0,046
-158,979	191,462	-0,120	-0,132
-157,964	142,202	-0,038	-0,036
-156,950	-200,000	-0,006	0,041
-155,935	-158,128	0,059	0,002
-154,920	-200,000	0,008	0,090
-153,906	674,760	-0,092	0,174
-152,891	183,056	-0,068	-0,073
-151,877	7,805	-0,174	-0,094
-150,862	6,797	0,044	0,023
-149,847	800,000	0,012	0,033
-148,833	-200,000	-0,004	0,078
-147,818	-54,224	0,086	-0,028
-146,804	221,569	0,089	-0,104
-145,789	-19,350	-0,125	0,056
-144,775	800,000	-0,050	-0,106
-143,760	546,040	0,046	-0,080
-142,745	72,829	0,100	-0,076
-141,731	800,000	-0,043	0,128
-140,716	800,000	0,056	0,143
-139,702	403,197	-0,085	0,129
-138,687	699,887	0,045	0,086
-137,672	-200,000	-0,019	0,063
-136,658	152,450	-0,076	-0,075
-135,643	309,266	-0,064	0,087
-134,629	800,000	0,028	-0,076
-133,614	140,446	0,016	-0,016
-132,599	-84,150	-0,163	0,037
-131,585	-35,226	0,166	-0,065
-130,570	-155,684	-0,079	0,004
-129,556	402,523	-0,015	-0,023
-128,541	30,464	-0,190	-0,117
-127,526	227,230	-0,066	-0,079
-126,512	85,227	0,038	0,030
-125,497	-200,000	-0,016	0,056
-124,483	8,483	-0,141	-0,077
-123,468	800,000	-0,031	0,086
-122,453	-107,896	-0,164	-0,026
-121,439	-200,000	-0,019	-0,081
-120,424	-88,183	0,072	-0,015
-119,410	-200,000	-0,009	0,193
-118,395	-105,259	0,117	-0,019
-117,380	-105,256	0,154	0,025
-116,366	-142,555	-0,041	0,003
-115,351	-71,278	0,040	-0,011
-114,337	-200,000	-0,005	0,025
-113,322	61,539	-0,039	0,028
-112,307	-200,000	-0,001	-0,066
-111,293	-200,000	0,023	0,074
-110,278	-114,461	0,177	-0,024
-109,264	-200,000	-0,031	-0,111
-108,249	-6,497	-0,066	-0,033
-107,234	-82,775	-0,161	0,037
-106,220	15,770	-0,035	-0,020
-105,205	-102,128	0,044	0,008
-104,191	137,191	0,144	0,136
-103,176	236,161	0,045	0,055
-102,162	726,875	0,026	0,050
-101,147	313,251	-0,069	0,094
-100,132	387,418	-0,073	-0,110
-99,118	-200,000	0,024	-0,087
-98,103	683,213	0,028	0,054
-97,089	400,949	0,027	-0,042
-96,074	217,044	0,065	0,075
-95,059	-200,000	0,008	0,029
-94,045	-111,173	-0,086	0,013
-93,030	128,276	-0,069	0,064
-92,016	289,317	-0,063	-0,084
-91,001	800,000	-0,023	0,051
-89,986	619,591	0,101	0,185
-88,972	113,279	0,071	0,062
-87,957	800,000	-0,028	-0,068
-86,943	800,000	-0,070	0,177
-85,928	93,911	-0,066	-0,054
-84,913	-7,088	-0,145	-0,071
-83,899	-64,496	0,084	-0,024
-82,884	-47,910	-0,068	-0,024
-81,870	-64,713	0,086	-0,025
-80,855	800,000	0,030	0,075
-79,840	305,982	0,040	0,054
-78,826	428,048	0,071	-0,111
-77,811	204,141	0,030	-0,033
-76,797	-11,920	-0,047	-0,022
-75,782	-10,557	0,065	-0,031
-74,767	-200,000	-0,004	0,130
-73,753	687,548	0,087	0,166
-72,738	42,711	0,082	-0,054
-71,724	159,687	0,071	-0,072
-70,709	800,000	0,034	0,089
-69,694	-200,000	-0,003	0,041
-68,680	181,726	0,090	0,096
-67,665	82,063	-0,057	0,045
-66,651	153,206	-0,068	0,067
-65,636	-200,000	-0,041	-0,133
-64,622	800,000	-0,009	0,021
-63,607	-44,569	-0,045	-0,016
-62,592	-200,000	-0,021	-0,120
-61,578	800,000	0,044	0,094
-60,563	-24,924	0,132	0,056
-59,549	139,424	-0,025	-0,024
-58,534	-82,431	-1,499	-0,349
-57,519	800,000	-0,650	-1,330
-56,505	-200,000	-1,017	-4,626
-55,490	-68,574	0,580	-0,162
-54,476	800,000	5,141	11,908
-53,461	-200,000	14,794	261,488
-52,446	-200,000	696,136	2237,716
-51,432	566,822	1621,044	2857,502
-50,417	118,810	1628,862	1455,628
-49,403	75,987	1283,270	980,903
-48,388	37,488	1022,089	654,369
-47,373	23,058	981,558	581,076
-46,359	22,081	971,064	571,643
-45,344	20,948	966,682	565,348
-44,330	20,896	965,439	564,428
-43,315	20,766	963,805	563,027
-42,300	20,801	962,769	562,513
-41,286	20,724	961,786	561,668
-40,271	20,764	960,741	561,164
-39,257	20,781	959,649	560,558
-38,242	20,698	958,957	559,864
-37,227	20,660	958,200	559,278
-36,213	20,673	957,195	558,710
-35,198	20,670	956,285	558,146
-34,184	20,705	955,486	557,773
-33,169	20,663	954,734	557,177
-32,154	20,738	953,645	556,759
-31,140	20,699	952,941	556,202
-30,125	20,729	952,316	555,909
-29,111	20,691	951,464	555,270
-28,096	20,753	950,677	554,986
-27,082	20,707	950,072	554,464
-26,067	20,710	949,107	553,889
-25,052	20,726	948,362	553,483
-24,038	20,677	947,873	553,020
-23,023	20,743	947,034	552,718
-22,009	20,765	946,437	552,417
-20,994	20,742	945,756	551,924
-19,979	20,710	945,327	551,549
-18,965	20,680	944,732	551,087
-17,950	20,710	944,121	550,804
-16,936	20,677	943,325	550,211
-15,921	20,698	942,573	549,819
-14,906	20,603	941,972	549,144
-13,892	20,555	941,599	548,752
-12,877	20,583	940,860	548,389
-11,863	20,573	940,094	547,887
-10,848	20,565	939,781	547,658
-9,833	20,697	939,203	547,717
-8,819	20,703	938,637	547,386
-7,804	20,638	937,961	546,764
-6,790	20,655	937,410	546,476
-5,775	20,631	936,892	546,075
-4,760	20,576	936,256	545,508
-3,746	20,596	935,397	545,050
-2,731	20,447	934,918	544,280
-1,717	20,456	934,012	543,759
-0,702	20,443	933,479	543,386
0,313	20,203	932,774	543,043
1,327	23,250	930,923	551,478
2,342	32,444	793,655	494,552
3,356	29,785	451,449	277,284
4,371	0,109	296,235	152,123
5,386	-4,318	277,467	138,250
6,400	-5,433	271,768	134,355
7,415	-5,871	269,399	132,766
8,429	-5,622	268,061	132,324
9,444	-5,617	267,237	131,910
10,459	-5,775	266,660	131,470
11,473	-5,763	266,036	131,161
12,488	-5,925	265,600	130,786
13,502	-5,963	264,923	130,406
14,517	-6,134	264,612	130,085
15,531	-5,998	264,145	129,968
16,546	-6,098	263,717	129,655
17,561	-6,190	263,424	129,417
18,575	-6,039	263,109	129,387
19,590	-6,298	262,745	128,962
20,604	-6,175	262,414	128,899
21,619	-6,297	262,150	128,648
22,634	-6,100	261,760	128,622
23,648	-6,128	261,400	128,409
24,663	-6,162	261,231	128,284
25,677	-6,180	260,908	128,097
26,692	-5,947	260,594	128,140
27,707	-6,309	260,437	127,728
28,721	-6,404	260,152	127,492
29,736	-6,200	259,914	127,547
30,750	-6,327	259,679	127,306
31,765	-6,192	259,500	127,327
32,780	-6,276	259,104	127,047
33,794	-6,299	258,959	126,944
34,809	-6,224	258,579	126,813
35,823	-6,241	258,326	126,663
36,838	-6,313	258,143	126,498
37,853	-6,247	257,819	126,387
38,867	-6,329	257,744	126,265
39,882	-6,490	257,477	125,981
40,896	-6,227	257,166	126,050
41,911	-6,412	257,108	125,847
42,926	-6,339	256,782	125,740
43,940	-6,461	256,560	125,514
44,955	-6,413	256,246	125,391
45,969	-6,377	256,071	125,325
46,984	-6,804	255,967	124,888
47,999	-6,915	255,617	124,609
49,013	-6,996	255,141	124,295
50,028	-6,970	254,943	124,210
51,042	-7,092	254,839	124,042
52,057	-7,123	254,535	123,856
53,071	-7,073	254,337	123,792
54,086	-6,951	254,167	123,804
55,101	-6,797	254,074	123,882
56,115	-6,667	253,864	123,882
57,130	-6,318	254,015	124,248
58,144	-5,793	253,640	124,511
59,159	-5,930	253,481	124,303
60,174	-6,019	253,324	124,137
61,188	-5,996	253,024	123,999
62,203	-5,991	252,851	123,908
63,217	-6,181	252,713	123,664
64,232	-6,097	252,487	123,615
65,247	-5,960	252,191	123,578
66,261	-6,052	251,914	123,352
67,276	-6,506	251,686	122,838
68,290	-6,580	251,515	122,680
69,305	-6,810	251,364	122,396
70,320	-6,562	250,990	122,417
71,334	-6,384	250,914	122,522
72,349	-6,021	250,791	122,763
73,363	-6,040	250,565	122,625
74,378	-5,993	250,474	122,610
75,393	-5,954	250,141	122,470
76,407	-6,072	249,886	122,232
77,422	-6,207	249,685	122,008
78,436	-6,185	249,577	121,963
79,451	-6,234	249,407	121,827
80,466	-6,292	249,217	121,673
81,480	-6,508	248,885	121,317
82,495	-6,464	248,623	121,216
83,509	-6,327	248,591	121,306
84,524	-6,462	248,329	121,053
85,539	-6,470	248,034	120,892
86,553	-6,520	247,892	120,769
87,568	-6,615	247,674	120,571
88,582	-6,533	247,497	120,544
89,597	-6,494	247,328	120,484
90,611	-6,346	247,117	120,496
91,626	-6,034	247,068	120,725
92,641	-6,177	246,821	120,472
93,655	-6,257	246,643	120,307
94,670	-6,283	246,605	120,256
95,684	-6,419	246,350	120,007
96,699	-6,292	246,004	119,934
97,714	-6,483	245,898	119,711
98,728	-6,534	245,695	119,559
99,743	-6,721	245,556	119,324
100,757	-6,751	245,222	119,125
101,772	-6,699	245,164	119,130
102,787	-6,585	244,993	119,132
103,801	-6,510	244,725	119,054
104,816	-6,230	244,574	119,203
105,830	-6,348	244,384	119,002
106,845	-6,118	244,304	119,144
107,860	-6,358	244,102	118,835
108,874	-6,462	244,007	118,692
109,889	-6,101	243,726	118,844
110,903	-6,336	243,622	118,588
111,918	-6,298	243,311	118,457
112,933	-6,152	242,935	118,385
113,947	-6,311	242,930	118,240
114,962	-6,263	242,940	118,274
115,976	-6,258	242,772	118,186
116,991	-6,292	242,416	117,974
118,006	-6,238	242,372	117,987
119,020	-6,239	242,220	117,901
120,035	-6,119	242,018	117,892
121,049	-6,180	241,947	117,796
122,064	-6,316	241,824	117,614
123,079	-6,398	241,572	117,413
124,093	-6,444	241,345	117,254
125,108	-6,474	241,050	117,076
126,122	-6,773	240,739	116,669
127,137	-6,761	240,539	116,572
128,151	-6,406	240,334	116,753
129,166	-6,498	240,383	116,691
130,181	-6,669	240,073	116,390
131,195	-6,465	239,818	116,423
132,210	-6,420	239,772	116,426
133,224	-6,377	239,695	116,414
134,239	-6,187	239,534	116,480
135,254	-6,074	239,322	116,459
136,268	-6,225	239,048	116,192
137,283	-6,634	238,990	115,821
138,297	-6,859	238,693	115,484
139,312	-6,854	238,426	115,348
140,327	-6,405	238,356	115,669
141,341	-5,791	238,358	116,158
142,356	-6,004	238,337	115,964
143,370	-5,983	238,075	115,844
144,385	-5,658	237,680	115,904
145,400	-5,919	237,780	115,731
146,414	-5,911	237,475	115,578
147,429	-5,977	237,387	115,472
148,443	-5,818	237,189	115,494
149,458	-5,931	237,011	115,305
150,473	-6,005	236,957	115,209
151,487	-6,064	236,740	115,046
152,502	-5,937	236,488	115,016
153,516	-5,751	236,264	115,046
154,531	-6,070	236,245	114,770
155,546	-5,969	235,961	114,703
156,560	-6,087	235,794	114,517
157,575	-6,188	235,647	114,355
158,589	-5,983	235,414	114,396
159,604	-5,825	235,410	114,509
160,619	-5,811	235,213	114,414
161,633	-5,770	235,072	114,369
162,648	-5,696	234,914	114,341
163,662	-5,766	234,653	114,147
164,677	-6,121	234,554	113,806
165,692	-5,974	234,367	113,823
166,706	-5,654	234,226	113,999
167,721	-5,730	234,083	113,858
168,735	-5,789	234,031	113,776
169,750	-5,820	233,845	113,651
170,764	-6,066	233,728	113,389
171,779	-5,889	233,570	113,442
172,794	-5,688	233,346	113,482
173,808	-5,746	233,043	113,279
174,823	-6,421	232,894	112,663
175,837	-6,523	232,569	112,415
176,852	-6,165	232,601	112,703
177,867	-5,753	232,430	112,935
178,881	-6,086	232,470	112,682
179,896	-5,930	232,287	112,706
180,910	-5,713	232,094	112,773
181,925	-5,659	231,846	112,685
182,940	-5,898	231,808	112,469
183,954	-5,596	231,596	112,593
184,969	-5,921	231,540	112,301
185,983	-5,764	231,404	112,348
186,998	-5,706	231,177	112,273
188,013	-5,505	230,986	112,328
189,027	-5,627	230,820	112,141
190,042	-5,555	230,585	112,073
191,056	-5,631	230,535	111,980
192,071	-5,526	230,416	111,994
193,086	-5,983	230,289	111,565
194,100	-5,804	230,169	111,637
195,115	-5,724	229,791	111,506
196,129	-5,749	229,718	111,442
197,144	-2,933	230,800	114,156
198,159	1,117	231,837	117,829
199,173	3,747	232,437	120,184
200,188	3,650	232,355	120,054
201,202	3,891	232,127	120,114
202,217	3,962	232,043	120,116
203,232	4,255	231,922	120,271
204,246	4,324	231,814	120,258
205,261	4,449	231,598	120,233
206,275	4,300	231,772	120,196
207,290	4,580	231,505	120,265
208,304	4,453	231,420	120,111
209,319	4,409	230,987	119,841
210,334	4,391	231,043	119,846
211,348	4,267	230,661	119,541
212,363	3,918	230,428	119,139
213,377	3,563	230,337	118,806
214,392	3,587	230,258	118,774
215,407	3,682	229,935	118,670
216,421	3,726	229,817	118,632
217,436	3,584	229,656	118,429
218,450	3,521	229,406	118,241
219,465	3,670	229,250	118,265
220,480	3,503	229,176	118,088
221,494	3,519	228,953	117,974
222,509	3,640	228,895	118,027
223,523	3,685	228,620	117,909
224,538	3,511	228,711	117,812
225,553	3,777	228,528	117,911
226,567	3,637	228,476	117,766
227,582	4,084	228,269	117,992
228,596	3,998	228,254	117,908
229,611	3,713	227,894	117,493
230,626	3,524	227,662	117,219
231,640	3,427	227,527	117,065
232,655	3,715	227,489	117,255
233,669	4,255	227,461	117,642
234,684	4,308	227,443	117,663
235,699	4,111	227,051	117,299
236,713	3,660	226,855	116,844
237,728	3,739	226,728	116,828
238,742	3,550	226,558	116,587
239,757	3,541	226,436	116,507
240,772	3,551	226,237	116,401
241,786	3,317	226,102	116,145
242,801	3,766	226,113	116,480
243,815	3,957	226,007	116,560
244,830	3,998	225,782	116,464
245,844	3,930	225,405	116,208
246,859	3,808	225,332	116,068
247,874	4,036	225,272	116,199
248,888	3,981	225,013	116,014
249,903	3,897	224,906	115,885
250,917	3,644	224,866	115,663
251,932	3,723	224,628	115,590
252,947	3,532	224,419	115,329
253,961	3,586	224,355	115,326
254,976	3,627	224,089	115,210
255,990	3,695	224,148	115,280
257,005	3,972	223,881	115,341
258,020	3,925	223,881	115,295
259,034	4,006	223,778	115,293
260,049	3,989	223,540	115,147
261,063	3,864	223,362	114,952
262,078	3,910	223,377	114,983
263,093	4,147	223,193	115,056
264,107	4,115	222,937	114,889
265,122	3,995	222,945	114,794
266,136	3,952	222,805	114,679
267,151	4,369	222,515	114,830
268,166	3,792	222,303	114,282
269,180	3,168	222,071	113,688
270,195	3,567	221,907	113,891
271,209	3,508	221,802	113,783
272,224	3,639	221,687	113,811
273,239	3,790	221,628	113,883
274,253	3,793	221,369	113,741
275,268	3,567	221,260	113,508
276,282	3,406	221,082	113,287
277,297	3,601	220,816	113,285
278,312	3,392	220,871	113,149
279,326	3,607	220,707	113,214
280,341	3,766	220,451	113,190
281,355	3,705	220,364	113,090
282,370	3,698	220,354	113,069
283,384	3,379	220,182	112,736
284,399	3,375	219,817	112,536
285,414	3,258	219,882	112,474
286,428	3,713	219,559	112,632
287,443	3,883	219,735	112,837
288,457	3,855	219,556	112,715
289,472	3,678	219,336	112,461
290,487	3,283	219,157	112,071
291,501	3,264	218,940	111,936
292,516	3,417	218,703	111,916
293,530	3,393	218,788	111,932
294,545	3,345	218,468	111,724
295,560	3,391	218,480	111,754
296,574	3,799	218,284	111,941
297,589	3,640	218,185	111,764
298,603	3,802	218,057	111,806
299,618	3,833	217,808	111,691
300,633	3,688	217,801	111,573
301,647	3,980	217,773	111,760
302,662	3,866	217,687	111,624
303,676	3,962	217,305	111,487
304,691	3,847	217,210	111,345
305,706	3,722	217,004	111,139
306,720	3,753	216,987	111,143
307,735	3,972	216,894	111,244
308,749	3,712	216,828	111,012
309,764	3,862	216,600	110,994
310,779	4,047	216,357	110,993
311,793	3,667	216,285	110,672
312,808	3,768	216,174	110,678
313,822	3,798	215,984	110,593
314,837	3,403	215,945	110,278
315,852	3,503	215,593	110,160
316,866	3,639	215,502	110,202
317,881	3,876	215,437	110,329
318,895	3,909	215,220	110,232
319,910	3,628	215,119	109,968
320,925	3,396	214,966	109,715
321,939	3,256	214,719	109,479
322,954	3,228	214,733	109,457
323,968	3,619	214,765	109,742
324,983	3,925	214,554	109,844
325,997	4,103	214,385	109,874
327,012	3,623	214,231	109,443
328,027	3,842	214,041	109,492
329,041	4,038	214,065	109,635
330,056	3,870	214,092	109,519
331,070	3,712	213,799	109,246
332,085	3,621	213,343	108,939
333,100	3,520	213,206	108,788
334,114	3,559	213,259	108,833
335,129	3,734	213,088	108,860
336,143	3,649	212,996	108,743
337,158	3,484	212,832	108,533
338,173	3,617	212,721	108,561
339,187	3,707	212,443	108,473
340,202	3,242	212,360	108,092
341,216	3,505	212,092	108,132
342,231	3,395	212,074	108,036
343,246	3,539	211,949	108,063
344,260	3,346	211,916	107,901
345,275	3,326	211,777	107,806
346,289	3,541	211,675	107,896
347,304	3,828	211,637	108,069
348,319	3,831	211,398	107,940
349,333	3,588	211,259	107,688
350,348	3,734	211,065	107,682
351,362	3,919	211,074	107,807
352,377	3,887	210,934	107,703
353,392	3,770	210,737	107,511
354,406	3,787	210,636	107,462
355,421	195,029	1344,177	1431,904
356,435	155,727	1482,355	1431,977
