DTS Sentinel unit serial number:	SN410029Multiplexer serial number:	ORYXHardware model number:	OX2-SRSoftware version number:	ORYX F/W v4,00 Oryx Data Collector v3.7.2.0data status	okinstallation	B6 Nyhavnadifferential loss correction	single-endedforward channel	channel 2reverse channel	N/Adate	2023/12/09time	12:50:08forward acquisition time	300,00reverse acquisition time	0,00gamma	499,1914k internal	0,3137k external	0,3137temperature offset calibration	1,0000default loss term (dB/km)	0,3820temperature slope calibration	1,0000multiplexer offset coefficient	1,0000multiplexer slope coefficient	1,0000fibre end	0,00T internal ref (°C)	19,62T ext. ref 1 (°C)	4,31T ext. ref 2 (°C)	4,29length (m)	temperature (°C)	Stokes	anti-Stokes-744,400	-57,657	0,115	-0,037
-743,385	-117,645	-0,270	-0,036
-742,371	90,807	0,118	0,098
-741,356	-66,984	-0,343	0,100
-740,342	-56,704	0,050	-0,016
-739,327	-130,363	-0,331	0,033
-738,312	158,833	-0,106	-0,109
-737,298	-98,387	-0,188	-0,035
-736,283	688,553	0,061	0,118
-735,269	-93,307	-0,159	0,032
-734,254	800,000	0,030	0,074
-733,239	-90,590	-0,419	-0,089
-732,225	167,008	0,041	0,043
-731,210	-176,080	0,100	-0,002
-730,196	242,053	0,051	-0,063
-729,181	-200,000	0,020	-0,067
-728,167	-200,000	0,001	0,063
-727,152	171,648	0,015	-0,016
-726,137	-9,906	-0,078	0,038
-725,123	-81,016	-0,110	-0,027
-724,108	-79,789	-0,060	-0,015
-723,094	335,369	-0,193	-0,278
-722,079	-181,282	-0,151	0,002
-721,064	788,018	-0,056	-0,116
-720,050	-200,000	0,002	-0,064
-719,035	-134,065	0,072	0,007
-718,021	-200,000	-0,012	-0,146
-717,006	-200,000	-0,020	-0,181
-715,991	420,892	-0,102	-0,162
-714,977	-200,000	-0,055	-0,245
-713,962	204,156	-0,091	-0,105
-712,948	59,363	0,126	-0,092
-711,933	-76,550	-0,165	-0,043
-710,918	800,000	-0,022	-0,059
-709,904	-104,853	-0,037	-0,006
-708,889	251,352	-0,098	-0,123
-707,875	-200,000	0,016	-0,120
-706,860	800,000	0,034	0,079
-705,845	345,584	0,029	-0,042
-704,831	-200,000	0,009	-0,033
-703,816	138,888	0,057	0,056
-702,802	-99,495	-0,114	-0,021
-701,787	297,296	-0,048	0,065
-700,772	9,336	0,122	0,068
-699,758	800,000	0,017	-0,035
-698,743	40,830	-0,111	-0,074
-697,729	-55,308	-0,086	0,028
-696,714	20,250	-0,072	0,043
-695,699	35,227	-0,107	-0,069
-694,685	-22,685	-0,097	-0,043
-693,670	291,009	0,107	-0,145
-692,656	69,219	-0,039	-0,030
-691,641	-129,544	0,097	0,010
-690,627	55,315	-0,110	-0,079
-689,612	-200,000	0,018	-0,067
-688,597	524,991	-0,084	-0,147
-687,583	800,000	-0,019	-0,061
-686,568	622,331	-0,052	-0,097
-685,554	-200,000	-0,010	0,065
-684,539	-200,000	0,011	0,065
-683,524	-55,964	0,125	0,041
-682,510	-200,000	0,026	0,140
-681,495	800,000	-0,029	-0,086
-680,481	-200,000	0,001	-0,038
-679,466	121,572	-0,114	-0,105
-678,451	-103,153	-0,041	0,007
-677,437	244,729	-0,113	-0,141
-676,422	-98,134	-0,125	-0,024
-675,408	800,000	-0,038	-0,105
-674,393	-108,596	-0,071	0,011
-673,378	29,973	-0,090	-0,056
-672,364	44,967	0,089	0,061
-671,349	-200,000	-0,034	-0,123
-670,335	471,551	-0,031	-0,051
-669,320	326,784	-0,027	-0,039
-668,305	163,632	0,020	-0,021
-667,291	-4,908	0,103	-0,052
-666,276	800,000	0,035	-0,093
-665,262	-118,233	0,031	0,004
-664,247	-100,831	-0,082	0,015
-663,232	-200,000	-0,009	0,063
-662,218	-200,000	0,003	-0,056
-661,203	37,023	-0,023	0,015
-660,189	135,514	0,029	-0,028
-659,174	216,262	0,064	-0,075
-658,159	60,045	-0,092	-0,067
-657,145	-200,000	-0,031	-0,110
-656,130	86,178	0,085	0,069
-655,116	252,113	-0,125	0,157
-654,101	-84,403	0,179	0,041
-653,086	135,957	-0,084	0,081
-652,072	-200,000	-0,017	-0,086
-651,057	-200,000	0,028	-0,112
-650,043	-16,304	0,026	0,012
-649,028	-200,000	0,017	-0,091
-648,014	-200,000	-0,007	0,034
-646,999	82,900	0,040	-0,032
-645,984	-32,075	0,095	-0,039
-644,970	190,400	-0,196	-0,218
-643,955	444,433	0,092	-0,149
-642,941	44,495	0,088	-0,060
-641,926	-200,000	-0,001	0,003
-640,911	312,085	-0,050	0,070
-639,897	113,640	0,057	0,051
-638,882	9,423	-0,071	0,040
-637,868	-200,000	-0,066	-0,219
-636,853	800,000	0,036	-0,075
-635,838	197,005	-0,078	-0,088
-634,824	-200,000	0,012	0,058
-633,809	800,000	-0,048	-0,149
-632,795	-49,437	-0,074	0,026
-631,780	-93,644	0,080	0,016
-630,765	101,230	-0,026	0,022
-629,751	-200,000	0,029	-0,165
-628,736	800,000	-0,075	-0,185
-627,722	275,434	0,060	-0,079
-626,707	-200,000	-0,004	0,040
-625,692	360,972	0,045	-0,067
-624,678	-72,466	0,080	0,022
-623,663	-200,000	-0,010	-0,173
-622,649	288,716	-0,041	-0,055
-621,634	-82,665	-0,114	-0,027
-620,619	81,674	-0,135	-0,108
-619,605	-66,269	0,066	-0,019
-618,590	800,000	-0,018	-0,038
-617,576	215,124	-0,022	0,026
-616,561	358,278	-0,078	0,116
-615,546	-79,863	-0,143	0,035
-614,532	19,510	0,048	0,028
-613,517	-200,000	-0,000	-0,143
-612,503	28,225	-0,070	0,043
-611,488	800,000	-0,058	0,127
-610,474	-38,288	-0,072	-0,028
-609,459	378,323	-0,041	0,062
-608,444	-76,849	0,079	-0,020
-607,430	-123,939	-0,083	-0,010
-606,415	800,000	-0,025	0,056
-605,401	390,249	-0,046	0,070
-604,386	-62,276	0,055	-0,017
-603,371	-200,000	0,032	-0,132
-602,357	-89,537	0,084	-0,018
-601,342	227,011	0,035	-0,042
-600,328	180,279	-0,044	-0,047
-599,313	56,442	-0,129	0,092
-598,298	-200,000	-0,004	-0,099
-597,284	-157,186	-0,083	-0,004
-596,269	765,998	-0,083	0,167
-595,255	71,023	-0,096	-0,073
-594,240	-200,000	-0,022	-0,108
-593,225	-110,917	-0,020	-0,003
-592,211	67,768	0,065	0,049
-591,196	170,655	0,091	0,096
-590,182	134,694	0,025	0,024
-589,167	-200,000	-0,003	-0,023
-588,152	-200,000	0,043	0,243
-587,138	-5,672	-0,050	-0,025
-586,123	372,395	0,034	0,051
-585,109	121,001	-0,050	-0,046
-584,094	-200,000	-0,004	0,021
-583,079	-23,329	-0,070	0,031
-582,065	-94,420	0,201	0,040
-581,050	151,438	-0,072	0,072
-580,036	-200,000	0,026	-0,098
-579,021	-80,346	-0,102	-0,025
-578,006	30,195	0,093	0,059
-576,992	800,000	-0,041	-0,117
-575,977	229,860	-0,117	-0,141
-574,963	-41,280	0,012	-0,004
-573,948	227,753	-0,066	0,080
-572,934	-7,368	-0,076	-0,038
-571,919	80,516	-0,092	0,073
-570,904	-179,728	-0,082	-0,001
-569,890	577,494	0,043	-0,078
-568,875	124,134	0,073	0,067
-567,861	-183,982	0,063	0,001
-566,846	-95,662	0,107	0,021
-565,831	-31,738	0,010	0,004
-564,817	-200,000	-0,001	0,041
-563,802	-171,217	0,089	0,002
-562,788	-200,000	0,031	-0,104
-561,773	76,150	-0,071	-0,055
-560,758	406,720	0,038	0,059
-559,744	-62,174	0,155	0,047
-558,729	-200,000	-0,000	0,131
-557,715	-116,058	-0,028	-0,004
-556,700	-200,000	0,026	0,155
-555,685	63,666	0,054	-0,040
-554,671	347,827	-0,062	-0,090
-553,656	7,294	0,121	-0,066
-552,642	-148,329	0,200	0,012
-551,627	87,501	-0,171	0,140
-550,612	-53,810	-0,071	-0,024
-549,598	-76,175	-0,077	0,020
-548,583	582,648	0,049	-0,089
-547,569	-104,248	-0,068	0,011
-546,554	-76,769	-0,051	-0,013
-545,539	609,449	-0,033	-0,060
-544,525	123,208	0,031	-0,028
-543,510	-81,548	-0,127	-0,030
-542,496	-2,762	-0,085	-0,043
-541,481	-94,224	-0,151	0,030
-540,466	99,322	0,079	0,068
-539,452	234,383	-0,046	0,056
-538,437	309,692	-0,066	0,091
-537,423	-200,000	-0,023	0,125
-536,408	800,000	0,043	-0,088
-535,393	-27,232	-0,015	-0,006
-534,379	258,550	0,063	-0,080
-533,364	55,002	0,037	-0,026
-532,350	800,000	0,020	0,059
-531,335	389,076	-0,021	-0,032
-530,321	53,453	0,059	-0,042
-529,306	-200,000	0,002	-0,075
-528,291	-157,691	-0,171	0,007
-527,277	-57,493	-0,056	-0,018
-526,262	194,445	-0,055	0,061
-525,248	-25,553	0,095	-0,041
-524,233	-200,000	0,017	-0,083
-523,218	608,514	-0,070	0,128
-522,204	94,191	0,062	-0,052
-521,189	-200,000	-0,016	-0,090
-520,175	800,000	0,024	-0,064
-519,160	-200,000	-0,022	-0,181
-518,145	190,640	-0,115	0,128
-517,131	-27,490	0,011	-0,005
-516,116	-7,786	-0,039	0,019
-515,102	596,737	-0,084	-0,153
-514,087	390,448	-0,039	0,060
-513,072	633,396	0,005	-0,010
-512,058	-200,000	-0,009	0,126
-511,043	91,707	-0,186	0,153
-510,029	171,084	0,029	-0,031
-509,014	-200,000	-0,008	-0,170
-507,999	219,979	-0,067	-0,078
-506,985	477,217	0,066	-0,110
-505,970	477,297	0,013	-0,022
-504,956	-126,710	0,018	-0,002
-503,941	-200,000	0,005	0,080
-502,926	32,097	-0,086	-0,054
-501,912	43,943	0,086	-0,058
-500,897	-100,360	-0,065	-0,012
-499,883	800,000	0,005	-0,013
-498,868	800,000	0,007	-0,018
-497,853	-92,742	-0,087	-0,018
-496,839	179,485	-0,082	0,089
-495,824	-27,588	-0,046	-0,019
-494,810	670,943	0,004	-0,008
-493,795	228,856	0,038	-0,046
-492,781	-200,000	0,003	-0,076
-491,766	-200,000	0,004	-0,072
-490,751	408,820	0,036	0,057
-489,737	-119,860	0,097	0,012
-488,722	-31,318	-0,111	0,046
-487,708	800,000	-0,016	0,039
-486,693	-152,957	0,106	0,005
-485,678	717,488	-0,033	-0,065
-484,664	-1,505	-0,012	0,006
-483,649	-48,300	-0,052	0,018
-482,635	-200,000	0,012	-0,138
-481,620	-99,742	0,062	-0,011
-480,605	172,093	-0,079	0,084
-479,591	100,302	-0,027	0,023
-478,576	800,000	-0,039	0,085
-477,562	-200,000	0,008	0,118
-476,547	234,592	0,022	-0,027
-475,532	98,959	-0,080	0,068
-474,518	-90,755	0,057	0,012
-473,503	-38,979	0,091	-0,035
-472,489	-200,000	0,050	0,178
-471,474	619,058	-0,060	-0,112
-470,459	267,431	-0,035	-0,045
-469,445	773,975	0,070	-0,141
-468,430	-200,000	0,003	-0,031
-467,416	-200,000	0,000	-0,047
-466,401	317,424	-0,063	-0,087
-465,386	-120,593	0,066	0,008
-464,372	-200,000	0,023	0,087
-463,357	-89,633	0,024	-0,005
-462,343	246,498	-0,020	0,024
-461,328	282,535	-0,049	0,065
-460,313	85,892	0,016	-0,013
-459,299	292,838	0,130	-0,174
-458,284	-200,000	-0,027	0,167
-457,270	800,000	0,009	0,028
-456,255	-200,000	-0,024	-0,098
-455,241	-200,000	-0,011	0,064
-454,226	203,204	0,123	0,140
-453,211	291,216	0,034	0,045
-452,197	-200,000	-0,010	0,065
-451,182	-123,705	-0,135	-0,016
-450,168	340,255	-0,084	0,121
-449,153	-192,048	0,107	-0,001
-448,138	-134,896	0,120	0,010
-447,124	85,935	-0,058	-0,047
-446,109	-200,000	0,022	-0,129
-445,095	-200,000	-0,018	0,152
-444,080	800,000	-0,018	0,040
-443,065	-200,000	0,015	0,092
-442,051	184,642	-0,054	-0,058
-441,036	-200,000	0,006	0,064
-440,022	236,914	0,031	0,038
-439,007	172,363	0,033	0,035
-437,992	-200,000	0,007	0,086
-436,978	-200,000	-0,000	0,016
-435,963	800,000	-0,018	-0,059
-434,949	-33,681	-0,117	0,047
-433,934	-30,323	-0,081	-0,033
-432,919	222,542	-0,095	-0,112
-431,905	163,247	0,119	0,122
-430,890	88,837	0,159	0,129
-429,876	168,705	0,045	0,048
-428,861	111,432	0,059	0,052
-427,846	127,338	-0,049	-0,045
-426,832	-66,394	0,104	-0,030
-425,817	631,842	-0,022	0,041
-424,803	197,893	0,021	-0,024
-423,788	-200,000	-0,006	0,056
-422,773	15,222	0,146	0,084
-421,759	-200,000	0,002	0,013
-420,744	90,442	0,066	0,054
-419,730	-200,000	0,014	-0,153
-418,715	30,509	-0,158	-0,099
-417,701	800,000	-0,019	-0,057
-416,686	-200,000	0,032	0,145
-415,671	144,328	0,069	0,067
-414,657	-200,000	0,020	-0,107
-413,642	104,046	-0,065	0,056
-412,628	-55,079	-0,036	0,012
-411,613	622,708	-0,030	-0,056
-410,598	-18,194	0,067	-0,031
-409,584	-103,235	-0,030	-0,005
-408,569	-200,000	-0,018	0,096
-407,555	140,235	0,213	0,205
-406,540	-200,000	0,009	-0,122
-405,525	-32,112	-0,064	0,026
-404,511	-200,000	-0,024	0,089
-403,496	579,135	-0,036	-0,066
-402,482	-89,658	0,091	0,019
-401,467	25,158	0,109	0,066
-400,452	-200,000	0,006	0,067
-399,438	-200,000	0,018	-0,140
-398,423	800,000	0,034	-0,090
-397,409	-200,000	0,007	-0,024
-396,394	40,166	-0,010	-0,007
-395,379	-200,000	-0,003	-0,072
-394,365	492,867	-0,086	0,144
-393,350	26,251	0,096	0,059
-392,336	282,884	0,024	-0,032
-391,321	-200,000	-0,004	0,039
-390,306	-4,164	-0,121	-0,061
-389,292	19,251	-0,097	-0,057
-388,277	-200,000	-0,005	0,146
-387,263	-75,804	0,101	0,026
-386,248	70,039	0,076	-0,057
-385,233	-7,532	-0,098	-0,049
-384,219	231,949	-0,065	0,078
-383,204	698,516	-0,022	-0,042
-382,190	-83,717	0,038	0,009
-381,175	464,264	-0,009	-0,015
-380,160	800,000	-0,029	-0,073
-379,146	-123,198	0,074	-0,009
-378,131	800,000	-0,071	0,145
-377,117	800,000	-0,033	0,078
-376,102	255,111	-0,002	0,002
-375,088	59,191	-0,053	0,038
-374,073	-200,000	0,000	-0,055
-373,058	-200,000	-0,020	0,198
-372,044	305,740	0,059	0,080
-371,029	800,000	0,016	-0,035
-370,015	71,365	-0,101	0,076
-369,000	-107,019	0,061	0,010
-367,985	-200,000	0,005	0,048
-366,971	-200,000	-0,010	0,042
-365,956	299,809	0,058	0,078
-364,942	122,800	0,040	0,037
-363,927	-111,820	0,170	0,025
-362,912	-102,681	0,136	-0,024
-361,898	-24,120	-0,111	0,048
-360,883	-200,000	-0,164	0,000
-359,869	-23,086	0,067	-0,029
-358,854	-200,000	-0,009	0,071
-357,839	220,229	0,060	-0,071
-356,825	-200,000	0,010	0,050
-355,810	76,019	0,096	-0,074
-354,796	-186,143	-0,031	0,000
-353,781	800,000	-0,014	-0,044
-352,766	408,285	0,033	-0,051
-351,752	160,389	-0,116	-0,118
-350,737	-16,368	0,124	-0,057
-349,723	-200,000	-0,005	0,086
-348,708	275,589	-0,025	0,033
-347,693	124,583	-0,134	0,123
-346,679	178,035	-0,054	-0,058
-345,664	-121,027	-0,063	-0,008
-344,650	152,541	-0,087	-0,087
-343,635	118,667	0,049	-0,044
-342,620	256,381	-0,082	0,102
-341,606	146,655	-0,078	0,076
-340,591	-200,000	-0,008	-0,041
-339,577	-200,000	-0,023	-0,208
-338,562	366,603	-0,021	0,032
-337,548	396,015	-0,019	-0,029
-336,533	261,654	0,067	-0,084
-335,518	35,765	-0,032	-0,020
-334,504	-46,006	0,041	0,015
-333,489	-70,105	-0,098	-0,027
-332,475	1,982	-0,114	0,060
-331,460	800,000	0,038	-0,099
-330,445	122,687	-0,098	0,089
-329,431	-54,033	0,075	0,025
-328,416	-50,855	0,165	0,056
-327,402	-30,808	-0,148	0,061
-326,387	36,254	-0,130	0,083
-325,372	59,522	0,041	-0,030
-324,358	-178,882	0,054	-0,001
-323,343	194,292	0,083	-0,092
-322,329	-200,000	-0,034	0,124
-321,314	800,000	0,096	0,199
-320,299	-200,000	0,017	0,065
-319,285	-200,000	-0,033	0,112
-318,270	800,000	0,061	-0,128
-317,256	48,358	-0,035	-0,024
-316,241	-145,868	0,064	-0,004
-315,226	89,871	0,018	0,015
-314,212	-52,311	0,136	-0,046
-313,197	580,090	0,005	-0,009
-312,183	-200,000	0,003	0,062
-311,168	750,731	-0,035	0,069
-310,153	323,083	-0,046	-0,064
-309,139	-4,932	-0,030	-0,015
-308,124	334,909	-0,009	0,013
-307,110	48,172	0,041	-0,028
-306,095	741,425	0,051	-0,100
-305,080	-53,987	-0,028	0,009
-304,066	800,000	-0,040	-0,086
-303,051	-37,669	0,051	0,020
-302,037	219,844	-0,041	-0,048
-301,022	800,000	0,056	-0,172
-300,008	-35,181	0,061	0,024
-298,993	382,089	-0,055	0,083
-297,978	-56,060	-0,088	0,028
-296,964	419,985	-0,049	0,077
-295,949	66,954	0,074	0,055
-294,935	800,000	-0,047	0,112
-293,920	800,000	0,031	-0,076
-292,905	20,763	0,037	-0,022
-291,891	184,542	0,033	-0,036
-290,876	42,696	0,164	0,109
-289,862	482,603	-0,039	-0,064
-288,847	197,911	-0,087	-0,097
-287,832	-65,068	0,053	-0,016
-286,818	406,397	-0,094	0,145
-285,803	-200,000	-0,023	-0,099
-284,789	800,000	-0,016	0,051
-283,774	-107,940	-0,052	0,008
-282,759	91,046	-0,034	0,027
-281,745	-200,000	0,004	-0,015
-280,730	26,619	-0,090	-0,055
-279,716	495,458	0,089	0,149
-278,701	800,000	0,028	-0,087
-277,686	775,637	0,044	-0,087
-276,672	52,661	0,058	0,040
-275,657	-42,585	0,070	0,026
-274,643	-17,313	0,144	0,066
-273,628	-200,000	0,015	-0,103
-272,613	-50,200	-0,116	-0,040
-271,599	-19,332	0,106	-0,048
-270,584	-200,000	-0,014	0,113
-269,570	121,640	0,076	0,069
-268,555	184,681	-0,059	0,064
-267,540	-14,625	-0,246	-0,115
-266,526	170,912	-0,115	-0,120
-265,511	30,712	-0,006	0,004
-264,497	291,927	0,037	-0,049
-263,482	471,533	0,075	-0,124
-262,467	230,599	0,096	0,114
-261,453	367,966	-0,080	0,118
-260,438	-200,000	0,003	0,025
-259,424	800,000	-0,033	-0,075
-258,409	401,671	-0,054	-0,083
-257,395	71,300	0,115	0,087
-256,380	-30,643	0,061	0,025
-255,365	76,803	0,035	-0,027
-254,351	146,568	-0,065	0,063
-253,336	-100,031	-0,079	-0,014
-252,322	241,996	-0,031	-0,038
-251,307	-200,000	0,013	-0,077
-250,292	33,436	-0,045	0,028
-249,278	-200,000	0,012	0,059
-248,263	216,230	-0,123	0,143
-247,249	-90,502	0,102	-0,021
-246,234	800,000	-0,023	-0,068
-245,219	800,000	-0,037	0,092
-244,205	800,000	0,024	-0,061
-243,190	-109,344	-0,036	0,006
-242,176	-200,000	-0,038	-0,149
-241,161	165,346	0,064	0,066
-240,146	-193,242	0,125	0,001
-239,132	224,307	-0,066	-0,078
-238,117	-63,091	-0,094	-0,028
-237,103	41,147	-0,022	0,015
-236,088	800,000	-0,028	0,058
-235,073	104,846	0,069	0,059
-234,059	23,933	0,117	0,070
-233,044	-88,325	0,034	-0,007
-232,030	-51,837	-0,069	-0,023
-231,015	-200,000	-0,021	-0,077
-230,000	9,492	0,086	0,047
-228,986	-66,378	0,067	0,019
-227,971	-81,882	0,089	-0,021
-226,957	-200,000	0,014	-0,112
-225,942	-200,000	0,007	-0,057
-224,927	-200,000	-0,009	-0,086
-223,913	-200,000	-0,002	-0,041
-222,898	-200,000	0,004	0,031
-221,884	-200,000	0,029	0,138
-220,869	-69,779	0,234	-0,065
-219,855	-62,023	0,107	0,032
-218,840	800,000	-0,022	0,049
-217,825	574,309	-0,059	0,104
-216,811	-200,000	0,013	0,143
-215,796	800,000	-0,025	-0,073
-214,782	-139,916	0,027	0,002
-213,767	800,000	0,009	0,024
-212,752	-200,000	-0,016	0,116
-211,738	-145,179	0,106	-0,007
-210,723	250,565	0,033	0,041
-209,709	-4,390	0,180	-0,090
-208,694	634,455	0,097	-0,179
-207,679	115,352	-0,079	0,070
-206,665	800,000	0,026	0,054
-205,650	-200,000	-0,034	0,142
-204,636	-200,000	-0,015	0,091
-203,621	-1,704	0,123	-0,063
-202,606	15,999	0,090	0,051
-201,592	65,234	0,046	0,034
-200,577	409,800	-0,026	-0,040
-199,563	-169,454	0,158	0,004
-198,548	-95,316	0,122	-0,024
-197,533	-34,874	0,113	0,045
-196,519	40,125	0,090	0,059
-195,504	-70,728	-0,024	0,007
-194,490	-91,343	-0,124	0,025
-193,475	376,746	0,032	0,047
-192,460	-200,000	-0,006	-0,067
-191,446	-116,144	0,118	0,016
-190,431	108,677	0,102	0,088
-189,417	-200,000	-0,005	0,159
-188,402	800,000	0,023	0,059
-187,387	3,491	-0,060	-0,032
-186,373	-200,000	0,040	-0,175
-185,358	800,000	0,038	-0,089
-184,344	496,336	0,078	-0,131
-183,329	-20,873	0,016	0,007
-182,315	3,686	0,089	0,047
-181,300	325,669	-0,045	0,063
-180,285	252,492	-0,131	-0,163
-179,271	40,480	-0,141	-0,092
-178,256	-200,000	0,003	-0,130
-177,242	215,376	0,025	-0,029
-176,227	800,000	-0,016	0,043
-175,212	-200,000	0,002	0,065
-174,198	800,000	-0,018	0,045
-173,183	426,419	0,081	-0,128
-172,169	-35,505	-0,122	-0,048
-171,154	-200,000	-0,002	-0,032
-170,139	-125,719	-0,148	-0,016
-169,125	226,118	0,098	-0,115
-168,110	-136,531	-0,070	-0,006
-167,096	-200,000	0,026	0,093
-166,081	192,783	0,031	-0,034
-165,066	-72,453	-0,066	-0,018
-164,052	-1,481	-0,058	-0,030
-163,037	800,000	0,018	0,037
-162,023	800,000	0,025	0,061
-161,008	-200,000	-0,025	-0,090
-159,993	-200,000	0,041	0,140
-158,979	800,000	-0,059	-0,126
-157,964	-200,000	0,015	0,088
-156,950	-93,768	0,146	-0,029
-155,935	800,000	0,031	0,095
-154,920	-116,201	-0,056	0,007
-153,906	800,000	-0,030	0,064
-152,891	-87,670	-0,056	-0,012
-151,877	393,242	-0,017	-0,026
-150,862	-200,000	0,006	-0,109
-149,847	-200,000	-0,047	0,000
-148,833	-149,157	0,095	0,005
-147,818	-46,302	-0,127	-0,045
-146,804	82,874	0,134	0,105
-145,789	-115,344	-0,105	0,014
-144,775	-200,000	0,006	-0,051
-143,760	-200,000	-0,013	-0,119
-142,745	-59,785	-0,082	-0,025
-141,731	449,889	-0,072	0,116
-140,716	-3,818	0,101	-0,051
-139,702	800,000	-0,050	0,138
-138,687	-200,000	-0,017	0,146
-137,672	-200,000	0,021	0,128
-136,658	221,324	-0,021	-0,024
-135,643	172,386	-0,032	0,033
-134,629	62,390	0,116	-0,084
-133,614	137,962	0,036	0,034
-132,599	58,731	0,112	-0,080
-131,585	73,325	0,039	0,030
-130,570	800,000	-0,043	0,130
-129,556	22,440	-0,037	-0,022
-128,541	4,810	0,089	-0,047
-127,526	160,125	0,085	-0,085
-126,512	305,669	-0,035	0,047
-125,497	-200,000	-0,007	0,109
-124,483	224,753	0,034	0,040
-123,468	235,665	-0,124	-0,149
-122,453	743,633	0,066	-0,128
-121,439	-71,973	-0,124	0,033
-120,424	-104,562	0,089	0,015
-119,410	183,938	-0,086	-0,092
-118,395	23,170	-0,105	-0,062
-117,380	-200,000	-0,003	0,105
-116,366	726,021	-0,036	0,070
-115,351	-108,973	0,104	0,016
-114,337	-33,099	-0,109	-0,043
-113,322	-160,865	0,035	0,001
-112,307	-3,915	-0,032	0,016
-111,293	-37,280	0,098	0,038
-110,278	-200,000	0,009	-0,042
-109,264	-200,000	-0,013	-0,058
-108,249	-200,000	0,007	-0,124
-107,234	194,098	-0,058	0,064
-106,220	-190,275	0,003	0,000
-105,205	125,003	-0,149	-0,136
-104,191	291,356	0,103	0,136
-103,176	-65,087	0,097	-0,028
-102,162	800,000	-0,052	-0,133
-101,147	372,457	-0,070	-0,103
-100,132	800,000	0,039	-0,104
-99,118	103,921	0,072	0,061
-98,103	-46,343	-0,063	0,022
-97,089	139,252	-0,043	-0,041
-96,074	-70,496	0,084	-0,023
-95,059	-153,638	0,099	0,005
-94,045	492,012	-0,092	-0,153
-93,030	212,478	-0,069	-0,078
-92,016	-200,000	-0,031	-0,135
-91,001	800,000	0,044	-0,094
-89,986	180,175	-0,109	-0,116
-88,972	-119,097	0,088	0,011
-87,957	744,755	-0,054	-0,106
-86,943	-200,000	0,004	-0,035
-85,928	124,166	0,036	-0,032
-84,913	-200,000	-0,000	-0,123
-83,899	318,241	0,022	-0,030
-82,884	-109,176	0,058	-0,009
-81,870	-131,328	0,087	-0,008
-80,855	-200,000	-0,011	-0,071
-79,840	-200,000	-0,003	0,024
-78,826	-200,000	-0,022	-0,108
-77,811	-187,374	-0,020	-0,000
-76,797	-109,362	0,048	0,007
-75,782	-69,579	0,077	0,021
-74,767	459,373	-0,037	0,059
-73,753	254,574	0,032	0,040
-72,738	-93,524	0,057	0,011
-71,724	6,095	-0,127	0,068
-70,709	321,236	-0,039	-0,053
-69,694	243,344	-0,080	-0,097
-68,680	120,299	0,054	0,049
-67,665	50,053	0,024	-0,016
-66,651	-200,000	0,006	-0,095
-65,636	-200,000	-0,026	0,117
-64,622	432,923	-0,019	-0,030
-63,607	-200,000	-0,002	-0,031
-62,592	-200,000	-0,010	0,037
-61,578	-97,664	0,116	-0,022
-60,563	168,995	0,042	0,043
-59,549	23,886	-0,105	0,062
-58,534	-54,579	-1,611	-0,523
-57,519	521,020	-0,687	-1,169
-56,505	-200,000	-1,051	-4,539
-55,490	-123,991	0,616	-0,069
-54,476	800,000	5,248	12,223
-53,461	-200,000	15,322	261,836
-52,446	800,000	698,884	2195,120
-51,432	546,134	1620,590	2809,885
-50,417	119,339	1628,110	1455,245
-49,403	79,313	1284,304	993,518
-48,388	37,286	1024,430	654,186
-47,373	22,185	985,168	579,436
-46,359	21,229	974,242	569,849
-45,344	19,889	970,041	562,986
-44,330	19,970	968,709	562,456
-43,315	19,727	967,081	560,698
-42,300	19,679	966,158	559,983
-41,286	19,645	965,259	559,330
-40,271	19,693	964,020	558,746
-39,257	19,676	963,301	558,249
-38,242	19,662	962,555	557,749
-37,227	19,676	961,562	557,198
-36,213	19,631	960,795	556,586
-35,198	19,613	959,682	555,861
-34,184	19,708	959,006	555,756
-33,169	19,642	958,045	554,962
-32,154	19,641	957,153	554,419
-31,140	19,725	956,352	554,204
-30,125	19,655	955,639	553,544
-29,111	19,672	954,773	553,075
-28,096	19,649	954,192	552,643
-27,082	19,680	953,247	552,173
-26,067	19,651	952,692	551,736
-25,052	19,657	951,991	551,329
-24,038	19,647	951,244	550,841
-23,023	19,661	950,483	550,425
-22,009	19,672	949,886	550,092
-20,994	19,707	949,019	549,680
-19,979	19,643	948,761	549,304
-18,965	19,711	947,966	549,040
-17,950	19,617	947,565	548,485
-16,936	19,571	946,727	547,832
-15,921	19,563	946,094	547,417
-14,906	19,608	945,301	547,082
-13,892	19,529	944,809	546,524
-12,877	19,543	944,003	546,080
-11,863	19,467	943,396	545,466
-10,848	19,513	943,104	545,422
-9,833	19,655	942,646	545,584
-8,819	19,585	942,095	545,022
-7,804	19,553	941,365	544,478
-6,790	19,548	940,831	544,131
-5,775	19,572	940,234	543,841
-4,760	19,531	939,566	543,301
-3,746	19,520	938,902	542,860
-2,731	19,388	938,131	541,975
-1,717	19,334	937,331	541,323
-0,702	19,358	936,792	541,066
0,313	19,160	936,026	540,815
1,327	22,342	934,322	549,800
2,342	31,956	794,159	492,829
3,356	29,497	449,777	275,405
4,371	-0,406	294,658	150,563
5,386	-4,450	275,748	137,060
6,400	-5,625	270,036	133,118
7,415	-6,144	267,716	131,485
8,429	-5,928	266,393	131,022
9,444	-6,020	265,548	130,510
10,459	-6,061	264,914	130,150
11,473	-6,293	264,411	129,680
12,488	-6,468	263,743	129,183
13,502	-6,676	263,236	128,734
14,517	-6,706	262,716	128,441
15,531	-6,903	262,489	128,141
16,546	-6,744	261,891	127,982
17,561	-6,781	261,659	127,823
18,575	-6,691	261,300	127,717
19,590	-7,024	260,996	127,258
20,604	-6,691	260,548	127,326
21,619	-6,847	260,321	127,064
22,634	-6,931	259,875	126,761
23,648	-6,971	259,613	126,587
24,663	-6,895	259,375	126,527
25,677	-6,808	259,088	126,453
26,692	-6,957	258,902	126,218
27,707	-6,931	258,558	126,063
28,721	-6,933	258,256	125,902
29,736	-6,941	257,991	125,755
30,750	-6,971	257,735	125,592
31,765	-7,134	257,678	125,409
32,780	-7,040	257,381	125,336
33,794	-6,955	256,986	125,207
34,809	-7,006	256,976	125,146
35,823	-6,925	256,541	124,995
36,838	-7,033	256,281	124,762
37,853	-7,143	256,050	124,542
38,867	-7,212	255,848	124,372
39,882	-7,117	255,626	124,336
40,896	-7,051	255,331	124,240
41,911	-7,262	255,322	124,039
42,926	-7,210	254,913	123,875
43,940	-7,216	254,819	123,812
44,955	-7,226	254,518	123,647
45,969	-7,328	254,378	123,479
46,984	-7,406	254,007	123,219
47,999	-7,599	253,675	122,880
49,013	-7,673	253,343	122,644
50,028	-7,695	253,202	122,545
51,042	-8,086	252,986	122,091
52,057	-7,800	252,654	122,168
53,071	-7,987	252,715	122,024
54,086	-7,792	252,362	122,011
55,101	-7,667	252,294	122,076
56,115	-7,488	252,138	122,144
57,130	-6,962	252,119	122,579
58,144	-6,631	251,950	122,771
59,159	-6,777	251,790	122,556
60,174	-6,624	251,429	122,501
61,188	-6,828	251,169	122,188
62,203	-6,888	251,124	122,104
63,217	-6,981	250,888	121,898
64,232	-6,792	250,568	121,894
65,247	-6,759	250,389	121,824
66,261	-6,617	250,110	121,799
67,276	-6,969	249,830	121,351
68,290	-7,233	249,555	120,981
69,305	-7,616	249,576	120,654
70,320	-7,366	249,242	120,694
71,334	-7,043	249,141	120,910
72,349	-6,714	249,044	121,132
73,363	-6,565	248,771	121,116
74,378	-6,843	248,753	120,860
75,393	-6,819	248,389	120,692
76,407	-6,887	248,213	120,538
77,422	-6,950	248,070	120,405
78,436	-6,511	247,646	120,560
79,451	-6,750	247,465	120,259
80,466	-7,118	247,288	119,851
81,480	-7,120	246,963	119,681
82,495	-7,103	246,859	119,634
83,509	-7,285	246,827	119,455
84,524	-7,285	246,424	119,250
85,539	-7,347	246,270	119,112
86,553	-7,315	246,082	119,037
87,568	-7,338	245,971	118,953
88,582	-7,390	245,752	118,793
89,597	-7,375	245,625	118,734
90,611	-7,250	245,535	118,784
91,626	-7,174	245,377	118,761
92,641	-6,980	245,090	118,774
93,655	-6,898	244,874	118,728
94,670	-7,045	244,641	118,481
95,684	-7,249	244,601	118,281
96,699	-7,057	244,380	118,323
97,714	-7,054	244,024	118,143
98,728	-7,148	243,865	117,977
99,743	-7,466	243,690	117,618
100,757	-7,429	243,557	117,574
101,772	-7,248	243,389	117,633
102,787	-7,124	243,118	117,594
103,801	-7,150	242,933	117,473
104,816	-7,217	242,947	117,413
105,830	-6,978	242,628	117,446
106,845	-6,797	242,631	117,587
107,860	-6,925	242,492	117,403
108,874	-7,072	242,291	117,175
109,889	-7,098	241,974	116,989
110,903	-7,074	241,715	116,873
111,918	-7,089	241,611	116,800
112,933	-7,267	241,604	116,640
113,947	-6,986	241,354	116,740
114,962	-6,943	241,191	116,686
115,976	-7,077	240,897	116,423
116,991	-6,976	240,750	116,425
118,006	-7,146	240,495	116,151
119,020	-6,962	240,466	116,278
120,035	-6,858	240,363	116,303
121,049	-6,836	240,248	116,255
122,064	-7,006	239,960	115,966
123,079	-6,926	239,750	115,920
124,093	-6,950	239,573	115,804
125,108	-7,003	239,303	115,620
126,122	-7,352	239,150	115,252
127,137	-7,617	238,687	114,803
128,151	-7,449	238,893	115,028
129,166	-7,237	238,561	115,031
130,181	-7,281	238,201	114,811
131,195	-7,305	238,088	114,727
132,210	-7,324	238,017	114,667
133,224	-7,031	237,980	114,876
134,239	-6,856	237,825	114,933
135,254	-6,946	237,702	114,790
136,268	-7,022	237,346	114,547
137,283	-7,519	237,103	114,019
138,297	-7,349	236,851	114,024
139,312	-7,491	236,808	113,879
140,327	-7,046	236,687	114,169
141,341	-6,571	236,709	114,551
142,356	-6,646	236,609	114,432
143,370	-6,522	236,311	114,378
144,385	-6,480	236,197	114,346
145,400	-6,411	235,978	114,285
146,414	-6,340	235,774	114,233
147,429	-6,598	235,631	113,947
148,443	-6,705	235,480	113,779
149,458	-6,545	235,247	113,783
150,473	-6,489	235,188	113,789
151,487	-6,568	234,962	113,607
152,502	-6,603	234,697	113,441
153,516	-6,724	234,769	113,369
154,531	-6,701	234,413	113,205
155,546	-6,565	234,360	113,278
156,560	-6,640	234,085	113,075
157,575	-6,598	233,934	113,025
158,589	-6,676	233,747	112,863
159,604	-6,555	233,609	112,883
160,619	-6,358	233,505	112,979
161,633	-6,490	233,408	112,817
162,648	-6,371	233,204	112,802
163,662	-6,505	233,019	112,597
164,677	-6,575	232,920	112,483
165,692	-6,467	232,775	112,489
166,706	-6,466	232,471	112,333
167,721	-6,578	232,628	112,310
168,735	-6,398	232,322	112,295
169,750	-6,366	232,100	112,202
170,764	-6,509	231,922	111,994
171,779	-6,592	231,872	111,894
172,794	-6,413	231,842	112,010
173,808	-6,657	231,417	111,604
174,823	-7,248	231,138	110,996
175,837	-7,134	230,977	110,998
176,852	-6,747	230,854	111,232
177,867	-6,351	230,896	111,552
178,881	-6,404	230,734	111,423
179,896	-6,430	230,638	111,346
180,910	-6,610	230,472	111,116
181,925	-6,391	230,215	111,152
182,940	-6,125	230,131	111,309
183,954	-6,457	230,074	111,013
184,969	-6,254	229,836	111,046
185,983	-6,295	229,633	110,906
186,998	-6,334	229,557	110,829
188,013	-6,205	229,429	110,858
189,027	-6,050	229,220	110,867
190,042	-6,204	228,997	110,630
191,056	-6,293	228,870	110,490
192,071	-6,236	228,844	110,512
193,086	-6,275	228,582	110,346
194,100	-5,928	228,597	110,611
195,115	-6,048	228,453	110,439
196,129	-5,734	228,397	110,644
197,144	-2,137	229,490	113,953
198,159	1,684	230,588	117,457
199,173	3,564	230,917	119,075
200,188	3,722	230,993	119,226
201,202	3,785	230,735	119,131
202,217	3,986	230,593	119,202
203,232	4,125	230,543	119,274
204,246	4,284	230,328	119,275
205,261	4,141	230,229	119,102
206,275	4,319	230,255	119,243
207,290	4,471	229,973	119,203
208,304	4,678	229,876	119,303
209,319	4,224	229,791	118,898
210,334	4,394	229,588	118,913
211,348	4,092	229,272	118,507
212,363	3,755	229,109	118,152
213,377	3,531	228,892	117,857
214,392	3,535	228,667	117,734
215,407	3,778	228,531	117,840
216,421	3,793	228,433	117,790
217,436	3,662	228,239	117,580
218,450	3,502	228,050	117,350
219,465	3,231	227,892	117,050
220,480	3,338	227,836	117,093
221,494	3,244	227,726	116,954
222,509	3,496	227,581	117,062
223,523	3,609	227,372	117,030
224,538	3,393	227,189	116,761
225,553	3,407	227,107	116,719
226,567	3,583	226,960	116,767
227,582	3,901	226,718	116,874
228,596	3,978	226,720	116,922
229,611	3,958	226,414	116,739
230,626	3,637	226,249	116,400
231,640	3,367	226,156	116,138
232,655	3,792	226,040	116,390
233,669	4,308	226,078	116,790
234,684	4,485	225,875	116,808
235,699	4,122	225,679	116,422
236,713	3,702	225,561	116,033
237,728	3,720	225,348	115,927
238,742	3,529	225,131	115,661
239,757	3,605	224,895	115,587
240,772	3,472	224,827	115,442
241,786	3,206	224,739	115,186
242,801	3,818	224,576	115,552
243,815	4,027	224,479	115,649
244,830	3,855	224,500	115,521
245,844	3,638	224,244	115,215
246,859	3,825	224,064	115,253
247,874	3,906	223,995	115,268
248,888	3,875	223,748	115,108
249,903	3,781	223,558	114,929
250,917	3,812	223,380	114,851
251,932	3,637	223,250	114,643
252,947	3,528	223,041	114,443
253,961	3,749	222,868	114,509
254,976	3,324	222,929	114,214
255,990	3,815	222,742	114,473
257,005	3,985	222,695	114,565
258,020	3,704	222,529	114,261
259,034	4,107	222,334	114,450
260,049	3,943	222,234	114,267
261,063	3,737	222,114	114,042
262,078	4,155	221,981	114,274
263,093	4,209	221,773	114,196
264,107	3,869	221,680	113,886
265,122	3,896	221,474	113,790
266,136	4,216	221,451	114,005
267,151	4,013	221,287	113,760
268,166	3,810	220,904	113,404
269,180	3,514	220,778	113,111
270,195	3,441	220,636	112,974
271,209	3,525	220,448	112,929
272,224	3,589	220,291	112,886
273,239	3,554	220,240	112,824
274,253	3,396	220,047	112,599
275,268	3,419	219,841	112,501
276,282	3,230	219,732	112,296
277,297	3,427	219,583	112,354
278,312	3,372	219,493	112,258
279,326	3,614	219,386	112,371
280,341	3,766	219,099	112,325
281,355	3,982	219,058	112,451
282,370	3,669	219,040	112,203
283,384	3,309	218,764	111,789
284,399	3,215	218,676	111,666
285,414	3,279	218,372	111,547
286,428	3,479	218,312	111,652
287,443	3,562	218,393	111,744
288,457	3,815	218,176	111,807
289,472	3,454	218,055	111,472
290,487	3,131	217,799	111,097
291,501	3,256	217,517	111,034
292,516	3,434	217,468	111,128
293,530	3,271	217,407	110,969
294,545	3,348	217,281	110,950
295,560	3,403	217,092	110,884
296,574	3,723	216,951	111,034
297,589	3,485	216,898	110,824
298,603	3,637	216,860	110,905
299,618	3,677	216,723	110,854
300,633	3,597	216,486	110,665
301,647	4,059	216,463	110,976
302,662	3,883	216,321	110,767
303,676	3,831	216,156	110,635
304,691	3,774	215,895	110,451
305,706	3,901	215,964	110,567
306,720	3,735	215,720	110,314
307,735	3,550	215,421	110,018
308,749	3,412	215,310	109,853
309,764	3,746	215,321	110,088
310,779	4,028	215,216	110,227
311,793	3,850	215,026	109,992
312,808	3,761	214,967	109,888
313,822	3,806	214,715	109,782
314,837	3,524	214,563	109,493
315,852	3,483	214,347	109,344
316,866	3,429	214,306	109,274
317,881	3,719	214,204	109,420
318,895	3,802	214,070	109,401
319,910	3,785	213,845	109,264
320,925	3,235	213,771	108,825
321,939	2,947	213,491	108,468
322,954	3,172	213,324	108,533
323,968	3,832	213,271	108,965
324,983	3,861	213,285	108,983
325,997	3,855	212,988	108,817
327,012	3,766	212,831	108,664
328,027	3,790	212,827	108,669
329,041	4,041	212,719	108,782
330,056	4,212	212,534	108,798
331,070	3,523	212,296	108,181
332,085	3,378	212,249	108,045
333,100	3,628	211,946	108,057
334,114	3,360	211,971	107,871
335,129	3,557	211,818	107,922
336,143	3,349	211,662	107,687
337,158	3,688	211,535	107,851
338,173	3,484	211,506	107,683
339,187	3,333	211,229	107,427
340,202	3,315	211,132	107,356
341,216	3,343	210,896	107,245
342,231	3,545	210,843	107,350
343,246	3,515	210,718	107,256
344,260	3,505	210,526	107,142
345,275	3,373	210,533	107,043
346,289	3,703	210,348	107,170
347,304	3,893	210,178	107,207
348,319	3,994	209,950	107,151
349,333	3,533	209,858	106,774
350,348	3,502	209,798	106,712
351,362	3,782	209,812	106,905
352,377	3,973	209,613	106,927
353,392	3,471	209,413	106,467
354,406	3,474	209,486	106,496
355,421	195,854	1340,709	1428,721
356,435	156,404	1478,585	1428,788
