DTS Sentinel unit serial number:	SN410029Multiplexer serial number:	ORYXHardware model number:	OX2-SRSoftware version number:	ORYX F/W v4,00 Oryx Data Collector v3.7.2.0data status	okinstallation	B6 Nyhavnadifferential loss correction	single-endedforward channel	channel 2reverse channel	N/Adate	2023/12/08time	18:10:08forward acquisition time	300,00reverse acquisition time	0,00gamma	499,1914k internal	0,3159k external	0,3159temperature offset calibration	1,0000default loss term (dB/km)	0,3820temperature slope calibration	1,0000multiplexer offset coefficient	1,0000multiplexer slope coefficient	1,0000fibre end	0,00T internal ref (°C)	15,25T ext. ref 1 (°C)	-1,26T ext. ref 2 (°C)	-1,27length (m)	temperature (°C)	Stokes	anti-Stokes-744,400	331,472	0,049	-0,069
-743,385	-143,376	-0,302	-0,021
-742,371	-90,775	0,121	0,026
-741,356	-195,400	-0,355	0,002
-740,342	-153,296	0,118	-0,006
-739,327	-128,803	-0,360	-0,037
-738,312	-36,974	0,202	0,079
-737,298	-158,973	-0,375	-0,015
-736,283	-57,761	0,240	0,077
-735,269	-115,070	-0,375	-0,052
-734,254	-108,344	0,210	0,033
-733,239	-76,543	-0,476	-0,122
-732,225	-88,127	0,157	0,034
-731,210	133,336	-0,064	0,061
-730,196	299,675	-0,042	-0,057
-729,181	-200,000	-0,026	-0,138
-728,167	217,818	-0,014	0,017
-727,152	378,038	-0,102	-0,154
-726,137	-91,831	-0,054	0,011
-725,123	-76,846	-0,076	0,019
-724,108	800,000	-0,057	-0,144
-723,094	-43,567	-0,187	-0,069
-722,079	-200,000	-0,027	-0,228
-721,064	-200,000	-0,007	-0,031
-720,050	-92,146	0,034	-0,007
-719,035	800,000	0,032	-0,066
-718,021	109,362	-0,075	-0,066
-717,006	290,487	0,099	-0,133
-715,991	-51,527	-0,245	-0,084
-714,977	-63,447	0,052	-0,016
-713,962	-10,683	-0,082	-0,040
-712,948	-200,000	-0,013	0,072
-711,933	-118,875	-0,142	-0,018
-710,918	-14,474	-0,055	0,026
-709,904	599,312	0,006	-0,012
-708,889	800,000	-0,028	0,075
-707,875	287,525	-0,047	-0,063
-706,860	102,575	0,043	0,037
-705,845	-200,000	0,015	-0,080
-704,831	-81,294	-0,054	-0,013
-703,816	-38,055	0,006	0,002
-702,802	-200,000	0,010	0,049
-701,787	-200,000	-0,015	-0,152
-700,772	-200,000	0,036	-0,211
-699,758	-200,000	0,032	-0,146
-698,743	-52,942	-0,057	-0,019
-697,729	437,705	-0,018	-0,029
-696,714	93,487	-0,017	-0,014
-695,699	103,297	-0,064	-0,055
-694,685	-200,000	-0,001	0,073
-693,670	243,172	-0,079	-0,098
-692,656	-111,968	0,069	0,010
-691,641	627,162	-0,040	0,075
-690,627	-200,000	-0,008	0,215
-689,612	-200,000	-0,015	0,078
-688,597	-200,000	0,022	-0,089
-687,583	97,399	-0,099	-0,083
-686,568	-200,000	0,001	0,060
-685,554	800,000	-0,056	-0,119
-684,539	304,953	-0,045	-0,062
-683,524	128,366	-0,072	0,068
-682,510	-84,433	0,109	-0,025
-681,495	-32,604	-0,133	-0,054
-680,481	-200,000	0,054	-0,191
-679,466	-109,529	0,075	-0,011
-678,451	-200,000	0,000	-0,065
-677,437	-36,223	-0,069	-0,027
-676,422	800,000	-0,030	-0,061
-675,408	-111,393	0,057	0,009
-674,393	553,051	0,058	0,103
-673,378	258,830	-0,088	-0,112
-672,364	432,744	-0,074	0,119
-671,349	29,636	-0,033	-0,021
-670,335	300,957	-0,033	-0,045
-669,320	514,264	0,080	-0,138
-668,305	48,384	0,113	-0,078
-667,291	8,645	-0,082	-0,045
-666,276	-158,129	0,027	-0,001
-665,262	-7,895	-0,013	-0,006
-664,247	130,593	-0,086	0,081
-663,232	800,000	-0,021	-0,053
-662,218	108,125	0,031	-0,027
-661,203	-137,940	-0,083	-0,007
-660,189	-115,229	-0,117	0,016
-659,174	79,785	-0,055	0,043
-658,159	346,530	-0,016	0,023
-657,145	262,975	-0,069	-0,089
-656,130	-200,000	0,004	0,017
-655,116	17,958	0,114	-0,067
-654,101	1,289	0,115	0,060
-653,086	35,324	0,055	0,035
-652,072	118,957	0,107	-0,097
-651,057	-200,000	-0,025	-0,090
-650,043	491,463	-0,044	0,074
-649,028	-19,463	0,006	0,003
-648,014	130,425	0,050	0,047
-646,999	-56,365	0,085	0,028
-645,984	749,796	0,016	-0,031
-644,970	-162,283	-0,187	-0,007
-643,955	-200,000	0,001	-0,051
-642,941	161,434	-0,006	-0,006
-641,926	14,145	-0,016	0,009
-640,911	-200,000	0,009	-0,083
-639,897	-120,332	0,032	0,004
-638,882	340,039	-0,108	0,155
-637,868	-200,000	0,019	-0,151
-636,853	-200,000	-0,010	-0,145
-635,838	-19,120	-0,101	0,046
-634,824	108,625	-0,079	0,069
-633,809	-200,000	0,023	-0,102
-632,795	562,908	-0,016	-0,029
-631,780	410,112	-0,060	0,094
-630,765	-200,000	-0,004	0,116
-629,751	-200,000	-0,002	-0,048
-628,736	-144,503	-0,123	0,008
-627,722	-35,890	-0,067	-0,026
-626,707	-200,000	0,024	0,093
-625,692	154,145	0,044	0,044
-624,678	31,750	0,075	-0,047
-623,663	-200,000	0,006	-0,095
-622,649	800,000	-0,035	-0,095
-621,634	94,915	-0,084	0,070
-620,619	82,331	0,034	-0,027
-619,605	49,012	0,145	-0,100
-618,590	-200,000	-0,011	-0,060
-617,576	-64,498	-0,171	-0,051
-616,561	-178,539	-0,058	0,001
-615,546	417,082	-0,066	0,103
-614,532	-84,992	-0,161	0,037
-613,517	-200,000	-0,049	-0,175
-612,503	35,074	-0,063	-0,040
-611,488	461,927	-0,051	-0,084
-610,474	-200,000	0,010	-0,049
-609,459	433,480	0,025	0,039
-608,444	189,871	-0,043	-0,048
-607,430	-84,717	-0,089	0,020
-606,415	-200,000	-0,009	0,061
-605,401	-159,247	-0,135	0,005
-604,386	-200,000	0,018	-0,129
-603,371	800,000	0,028	0,058
-602,357	-200,000	0,008	0,075
-601,342	-200,000	-0,036	0,167
-600,328	93,715	-0,065	0,054
-599,313	-13,889	-0,127	-0,060
-598,298	-155,356	-0,055	0,003
-597,284	800,000	0,031	-0,075
-596,269	296,608	0,046	0,063
-595,255	-65,780	0,116	0,034
-594,240	-200,000	0,008	0,171
-593,225	227,795	-0,080	0,095
-592,211	800,000	0,047	-0,102
-591,196	-200,000	-0,008	0,054
-590,182	-200,000	-0,001	0,090
-589,167	-200,000	0,035	0,130
-588,152	55,427	-0,144	0,102
-587,138	-116,081	0,036	0,005
-586,123	249,510	-0,100	-0,125
-585,109	-200,000	-0,018	-0,106
-584,094	800,000	0,047	-0,125
-583,079	-22,949	-0,068	0,030
-582,065	161,893	-0,035	-0,036
-581,050	-26,580	0,073	-0,031
-580,036	496,793	0,039	0,067
-579,021	-66,565	0,109	-0,031
-578,006	-200,000	-0,013	-0,119
-576,992	800,000	-0,012	0,025
-575,977	593,774	-0,033	0,059
-574,963	18,153	0,156	0,091
-573,948	-200,000	0,004	0,083
-572,934	-134,321	-0,076	0,007
-571,919	-200,000	-0,014	-0,175
-570,904	800,000	-0,015	-0,038
-569,890	-153,610	0,037	-0,002
-568,875	-200,000	0,009	-0,028
-567,861	-60,879	-0,040	0,012
-566,846	62,247	0,095	-0,070
-565,831	-51,843	-0,098	-0,033
-564,817	643,852	0,030	-0,056
-563,802	-200,000	0,014	-0,061
-562,788	82,350	-0,113	0,090
-561,773	561,527	0,035	0,062
-560,758	-200,000	-0,014	0,054
-559,744	3,363	-0,104	0,055
-558,729	-200,000	0,008	0,136
-557,715	-200,000	0,005	0,037
-556,700	800,000	-0,065	-0,135
-555,685	-108,024	0,042	-0,007
-554,671	302,541	-0,024	0,033
-553,656	189,974	-0,146	-0,161
-552,642	-12,810	0,067	-0,032
-551,627	190,531	0,040	0,044
-550,612	156,071	-0,104	-0,105
-549,598	-77,305	-0,051	-0,013
-548,583	-200,000	-0,001	-0,124
-547,569	117,146	-0,049	0,044
-546,554	800,000	0,029	-0,063
-545,539	-63,313	0,130	-0,039
-544,525	-86,509	0,052	0,012
-543,510	800,000	-0,020	-0,050
-542,496	-137,087	-0,159	-0,013
-541,481	-200,000	-0,013	-0,196
-540,466	-159,611	-0,083	0,003
-539,452	-95,791	-0,031	-0,006
-538,437	-23,713	-0,064	0,028
-537,423	-200,000	0,032	0,229
-536,408	-200,000	-0,056	0,000
-535,393	800,000	-0,056	-0,127
-534,379	49,689	-0,130	-0,089
-533,364	375,546	0,039	0,058
-532,350	-178,125	-0,036	-0,001
-531,335	447,621	-0,040	-0,064
-530,321	93,271	0,104	0,086
-529,306	103,073	-0,113	-0,097
-528,291	205,760	-0,168	-0,192
-527,277	797,480	0,049	-0,100
-526,262	-200,000	0,031	-0,115
-525,248	-200,000	-0,028	-0,127
-524,233	-200,000	-0,001	0,041
-523,218	2,916	0,113	-0,060
-522,204	-70,393	-0,050	-0,014
-521,189	-191,233	0,134	-0,001
-520,175	389,510	-0,082	-0,125
-519,160	-155,028	-0,078	-0,004
-518,145	-26,830	0,145	0,062
-517,131	-200,000	-0,026	0,141
-516,116	-134,655	-0,044	0,004
-515,102	-200,000	-0,005	0,019
-514,087	-200,000	0,042	0,140
-513,072	9,242	-0,155	-0,086
-512,058	59,031	-0,115	-0,083
-511,043	165,691	0,056	-0,058
-510,029	-24,761	-0,109	-0,047
-509,014	800,000	-0,032	0,092
-507,999	-200,000	-0,008	-0,057
-506,985	173,158	-0,041	0,043
-505,970	-5,197	-0,089	-0,044
-504,956	167,474	0,044	-0,045
-503,941	88,377	0,043	0,035
-502,926	118,342	-0,095	0,086
-501,912	277,991	0,107	0,140
-500,897	26,134	-0,051	0,031
-499,883	800,000	0,032	0,086
-498,868	606,609	-0,030	-0,055
-497,853	-200,000	-0,000	-0,073
-496,839	217,698	0,036	-0,042
-495,824	200,030	0,036	0,041
-494,810	129,018	0,113	0,105
-493,795	800,000	-0,018	-0,042
-492,781	363,547	-0,060	0,088
-491,766	-156,941	0,008	0,000
-490,751	-160,312	-0,148	-0,006
-489,737	800,000	-0,058	-0,143
-488,722	150,383	0,069	0,069
-487,708	800,000	-0,047	0,124
-486,693	585,208	-0,059	0,107
-485,678	6,631	-0,052	0,028
-484,664	675,598	-0,044	0,083
-483,649	-137,032	-0,100	0,008
-482,635	-200,000	-0,001	-0,038
-481,620	166,198	-0,066	0,068
-480,605	111,602	0,128	0,113
-479,591	-200,000	-0,005	-0,026
-478,576	9,326	-0,082	-0,045
-477,562	181,186	-0,044	0,047
-476,547	-200,000	0,000	-0,052
-475,532	-69,148	-0,159	-0,044
-474,518	116,591	0,037	0,033
-473,503	14,180	0,040	0,023
-472,489	324,193	0,092	0,128
-471,474	-76,003	0,132	0,034
-470,459	-52,739	-0,091	-0,031
-469,445	-183,035	-0,056	-0,001
-468,430	-110,614	0,142	-0,021
-467,416	-140,802	0,043	-0,003
-466,401	-38,475	-0,150	0,057
-465,386	-200,000	0,017	-0,064
-464,372	-3,708	-0,038	0,019
-463,357	-113,241	-0,005	-0,001
-462,343	-134,900	0,030	-0,003
-461,328	-200,000	0,002	-0,133
-460,313	-32,003	-0,072	-0,029
-459,299	114,346	0,088	0,078
-458,284	107,516	0,122	0,105
-457,270	-200,000	-0,017	-0,064
-456,255	800,000	-0,030	-0,084
-455,241	-149,654	0,039	-0,002
-454,226	-43,870	0,068	-0,025
-453,211	278,474	-0,067	-0,088
-452,197	117,037	0,101	0,091
-451,182	-200,000	-0,010	0,234
-450,168	587,533	0,059	0,107
-449,153	-22,761	-0,043	-0,019
-448,138	101,251	0,091	0,077
-447,124	103,853	-0,093	0,080
-446,109	-108,906	0,025	0,004
-445,095	800,000	-0,013	0,029
-444,080	-125,727	0,164	0,018
-443,065	800,000	0,058	0,160
-442,051	-50,154	-0,055	-0,019
-441,036	-200,000	-0,046	-0,180
-440,022	-129,909	0,076	-0,007
-439,007	-83,701	-0,078	0,018
-437,992	-200,000	-0,025	0,084
-436,978	-15,593	0,115	0,053
-435,963	702,359	-0,017	0,032
-434,949	108,521	-0,023	-0,020
-433,934	42,894	0,130	-0,086
-432,919	173,230	-0,006	0,007
-431,905	415,129	-0,044	-0,069
-430,890	334,548	0,057	0,080
-429,876	14,478	0,024	0,013
-428,861	800,000	0,033	0,078
-427,846	64,027	-0,053	0,039
-426,832	-200,000	-0,062	-0,217
-425,817	-117,919	0,058	-0,007
-424,803	508,621	-0,051	-0,087
-423,788	160,089	0,060	0,061
-422,773	-200,000	0,053	0,192
-421,759	-123,993	-0,119	-0,014
-420,744	-200,000	0,004	0,117
-419,730	800,000	0,034	0,084
-418,715	38,996	-0,110	-0,071
-417,701	-108,571	0,098	-0,015
-416,686	7,399	0,026	0,014
-415,671	725,912	-0,066	-0,129
-414,657	-138,007	0,110	0,009
-413,642	-200,000	-0,016	0,095
-412,628	163,700	-0,066	-0,068
-411,613	80,119	-0,105	-0,082
-410,598	186,103	-0,027	-0,030
-409,584	-51,464	-0,190	0,064
-408,569	-73,452	0,198	-0,052
-407,555	107,496	0,099	0,086
-406,540	-96,117	-0,100	0,019
-405,525	439,553	0,040	0,064
-404,511	800,000	0,026	-0,077
-403,496	-136,087	0,112	0,009
-402,482	-200,000	-0,027	0,101
-401,467	-46,815	0,110	0,039
-400,452	-41,032	0,087	-0,033
-399,438	304,604	0,028	-0,037
-398,423	127,384	-0,039	-0,036
-397,409	-121,230	0,085	-0,010
-396,394	-200,000	0,000	-0,093
-395,379	322,775	-0,059	-0,082
-394,365	25,871	0,109	-0,066
-393,350	12,629	0,101	0,056
-392,336	-200,000	0,028	0,127
-391,321	800,000	-0,016	0,043
-390,306	-51,999	-0,047	-0,016
-389,292	593,621	0,050	-0,090
-388,277	-107,673	0,108	-0,017
-387,263	307,034	0,021	-0,029
-386,248	-118,799	0,045	0,006
-385,233	-27,032	0,011	0,005
-384,219	-200,000	0,038	0,144
-383,204	30,997	-0,097	-0,061
-382,190	234,201	0,096	-0,116
-381,175	-119,133	0,161	0,020
-380,160	91,369	-0,107	0,088
-379,146	299,209	0,124	0,166
-378,131	19,248	0,088	-0,051
-377,117	800,000	0,021	-0,059
-376,102	-200,000	0,017	-0,190
-375,088	97,183	-0,126	-0,105
-374,073	23,291	-0,021	0,013
-373,058	-200,000	-0,007	-0,044
-372,044	-200,000	-0,009	0,042
-371,029	-22,995	-0,107	-0,047
-370,015	-97,427	-0,148	-0,028
-369,000	-200,000	-0,001	-0,110
-367,985	-84,414	-0,029	-0,007
-366,971	1,912	-0,163	0,085
-365,956	0,061	0,035	0,018
-364,942	14,157	0,090	0,051
-363,927	-85,475	0,130	0,029
-362,912	6,256	0,103	-0,055
-361,898	-145,903	-0,110	0,007
-360,883	800,000	0,076	-0,179
-359,869	98,602	0,062	0,052
-358,854	-19,769	0,092	-0,041
-357,839	510,773	0,088	0,148
-356,825	-148,516	0,096	0,006
-355,810	800,000	-0,023	-0,058
-354,796	-60,296	0,038	0,012
-353,781	-79,266	-0,018	0,004
-352,766	-200,000	-0,011	-0,081
-351,752	31,661	-0,047	-0,029
-350,737	-200,000	-0,003	-0,042
-349,723	-141,010	0,161	0,012
-348,708	-200,000	-0,017	0,151
-347,693	-200,000	-0,011	0,053
-346,679	92,862	-0,045	-0,037
-345,664	275,929	-0,036	-0,046
-344,650	-200,000	-0,019	0,082
-343,635	-200,000	0,016	-0,068
-342,620	48,614	-0,073	-0,050
-341,606	339,142	-0,044	0,062
-340,591	800,000	-0,064	-0,130
-339,577	197,022	0,107	-0,119
-338,562	-200,000	-0,021	0,070
-337,548	258,117	-0,015	-0,019
-336,533	62,045	0,072	-0,052
-335,518	-172,649	-0,079	0,002
-334,504	330,944	-0,039	0,055
-333,489	156,552	0,052	-0,053
-332,475	-120,085	0,073	-0,009
-331,460	270,475	0,014	0,018
-330,445	-200,000	0,008	0,036
-329,431	411,728	-0,012	0,019
-328,416	-81,904	0,063	-0,015
-327,402	12,907	0,020	0,011
-326,387	53,511	-0,074	-0,051
-325,372	-200,000	0,019	-0,201
-324,358	-200,000	-0,024	-0,136
-323,343	524,743	-0,030	-0,052
-322,329	-200,000	-0,008	-0,100
-321,314	175,172	0,061	0,064
-320,299	-23,538	-0,059	-0,025
-319,285	-6,308	-0,086	-0,043
-318,270	-168,803	-0,085	-0,002
-317,256	124,072	0,041	0,038
-316,241	17,828	0,062	0,036
-315,226	800,000	-0,004	0,009
-314,212	-41,159	0,205	-0,076
-313,197	-46,810	-0,036	-0,013
-312,183	-200,000	-0,007	-0,136
-311,168	-106,923	0,147	-0,023
-310,153	800,000	0,018	0,052
-309,139	800,000	0,048	-0,106
-308,124	-67,061	0,096	-0,027
-307,110	-200,000	0,020	0,086
-306,095	-200,000	0,013	0,072
-305,080	-200,000	-0,008	0,061
-304,066	-65,597	-0,137	0,040
-303,051	81,895	0,090	0,070
-302,037	371,169	-0,103	-0,151
-301,022	71,057	0,031	0,023
-300,008	800,000	0,023	0,064
-298,993	69,422	-0,031	0,023
-297,978	-200,000	0,005	-0,081
-296,964	-200,000	0,015	0,074
-295,949	111,266	0,053	-0,046
-294,935	173,632	-0,075	0,078
-293,920	133,398	0,074	0,069
-292,905	41,822	-0,060	0,039
-291,891	626,433	-0,045	0,082
-290,876	-200,000	-0,005	0,034
-289,862	-200,000	0,061	0,295
-288,847	1,629	0,125	-0,065
-287,832	-200,000	-0,042	-0,147
-286,818	-44,942	-0,015	-0,005
-285,803	-144,130	0,079	0,005
-284,789	-92,060	0,047	-0,009
-283,774	-42,778	0,003	-0,001
-282,759	-200,000	0,039	0,165
-281,745	-138,049	0,034	-0,003
-280,730	168,093	-0,028	-0,029
-279,716	370,999	-0,052	0,077
-278,701	177,242	0,069	0,072
-277,686	57,613	0,027	0,019
-276,672	104,006	0,137	0,116
-275,657	800,000	0,033	0,092
-274,643	-73,076	-0,133	-0,035
-273,628	103,458	-0,130	-0,110
-272,613	97,370	-0,064	0,053
-271,599	128,440	0,030	-0,027
-270,584	325,846	0,123	0,171
-269,570	663,160	-0,079	0,148
-268,555	-46,193	0,074	0,026
-267,540	157,354	-0,031	-0,031
-266,526	92,693	-0,104	-0,085
-265,511	-18,426	-0,020	0,009
-264,497	-89,909	0,110	-0,023
-263,482	-61,026	0,166	-0,050
-262,467	133,491	-0,094	0,088
-261,453	800,000	-0,028	0,085
-260,438	204,300	-0,030	-0,034
-259,424	-65,442	-0,049	0,014
-258,409	-155,207	0,073	0,003
-257,395	-200,000	0,018	-0,067
-256,380	-200,000	-0,101	0,000
-255,365	-43,874	-0,037	-0,014
-254,351	-103,755	0,134	-0,022
-253,336	217,486	-0,088	0,101
-252,322	84,960	0,130	-0,103
-251,307	83,070	0,022	0,017
-250,292	-200,000	-0,015	0,052
-249,278	344,420	-0,049	0,070
-248,263	109,291	0,030	0,026
-247,249	-97,006	0,050	0,009
-246,234	-146,753	0,047	-0,003
-245,219	800,000	0,017	-0,036
-244,205	163,276	-0,020	-0,020
-243,190	-23,155	0,086	0,037
-242,176	137,067	-0,035	-0,033
-241,161	-145,130	0,100	0,006
-240,146	-55,585	0,030	-0,010
-239,132	626,128	-0,032	0,059
-238,117	800,000	0,037	-0,111
-237,103	13,246	-0,056	0,031
-236,088	-200,000	0,002	-0,052
-235,073	-200,000	-0,003	-0,070
-234,059	-200,000	-0,008	0,182
-233,044	-200,000	0,022	0,076
-232,030	288,685	-0,062	-0,082
-231,015	-174,031	0,167	-0,003
-230,000	87,998	-0,136	-0,109
-228,986	-75,182	0,051	-0,013
-227,971	194,081	0,072	-0,079
-226,957	124,650	-0,055	0,050
-225,942	-80,724	0,207	-0,049
-224,927	144,837	-0,049	-0,048
-223,913	-76,791	-0,091	0,023
-222,898	-167,827	0,050	0,001
-221,884	-84,019	-0,103	0,023
-220,869	39,256	0,145	0,094
-219,855	-152,772	0,072	0,004
-218,840	800,000	0,027	0,077
-217,825	-66,793	0,077	-0,022
-216,811	-200,000	-0,010	0,042
-215,796	150,911	0,097	-0,096
-214,782	-24,872	-0,029	-0,012
-213,767	382,002	0,028	-0,042
-212,752	562,232	0,042	0,074
-211,738	224,065	0,115	0,134
-210,723	-103,208	-0,030	-0,005
-209,709	43,933	-0,071	0,047
-208,694	83,233	-0,132	0,103
-207,679	-34,668	0,082	-0,032
-206,665	-22,745	-0,086	-0,037
-205,650	58,322	0,128	-0,091
-204,636	274,785	0,057	0,074
-203,621	-200,000	-0,006	0,032
-202,606	204,538	0,069	-0,077
-201,592	208,979	0,049	-0,056
-200,577	32,698	-0,116	-0,072
-199,563	6,639	-0,104	0,056
-198,548	61,652	0,073	-0,053
-197,533	-51,229	0,037	0,012
-196,519	111,416	0,069	0,060
-195,504	-160,151	-0,102	0,004
-194,490	51,753	-0,085	-0,058
-193,475	452,764	0,049	-0,079
-192,460	29,761	0,151	0,093
-191,446	-114,002	-0,077	0,011
-190,431	-130,335	0,038	-0,004
-189,417	-200,000	-0,006	0,065
-188,402	-200,000	-0,001	0,066
-187,387	88,104	0,177	0,141
-186,373	-35,477	0,032	0,013
-185,358	-56,556	-0,119	-0,038
-184,344	-200,000	0,004	-0,067
-183,329	-31,537	-0,124	0,050
-182,315	-155,441	-0,056	0,003
-181,300	800,000	0,029	0,086
-180,285	-200,000	0,020	-0,072
-179,271	-200,000	-0,009	0,042
-178,256	634,635	-0,004	0,007
-177,242	-136,010	0,263	-0,022
-176,227	52,887	-0,023	0,016
-175,212	-200,000	-0,017	0,079
-174,198	172,792	0,057	-0,059
-173,183	-107,321	0,044	-0,007
-172,169	-200,000	-0,019	-0,105
-171,154	69,399	0,064	-0,047
-170,139	-35,603	0,102	-0,040
-169,125	800,000	0,013	0,032
-168,110	-200,000	0,019	-0,105
-167,096	-200,000	-0,007	-0,130
-166,081	-200,000	-0,012	-0,115
-165,066	800,000	-0,017	0,039
-164,052	-64,504	-0,053	-0,015
-163,037	7,917	0,041	0,022
-162,023	-61,840	-0,096	-0,029
-161,008	-172,934	-0,067	-0,001
-159,993	-200,000	-0,009	0,117
-158,979	-86,872	-0,173	0,038
-157,964	222,476	-0,063	-0,073
-156,950	800,000	-0,015	0,043
-155,935	-25,633	-0,137	-0,058
-154,920	-58,555	-0,028	-0,009
-153,906	-57,442	0,179	0,056
-152,891	800,000	-0,037	0,102
-151,877	19,241	-0,159	-0,092
-150,862	62,035	0,161	-0,115
-149,847	-18,127	-0,093	-0,042
-148,833	-200,000	0,008	-0,057
-147,818	112,764	0,106	-0,092
-146,804	336,147	-0,028	-0,039
-145,789	220,610	-0,038	0,044
-144,775	-82,014	0,063	0,015
-143,760	17,067	0,058	-0,033
-142,745	35,786	-0,136	-0,086
-141,731	-167,802	0,046	0,001
-140,716	800,000	-0,027	0,075
-139,702	-72,863	0,070	0,018
-138,687	78,957	0,035	0,027
-137,672	-149,825	0,049	-0,003
-136,658	-200,000	0,029	-0,178
-135,643	800,000	-0,006	-0,019
-134,629	114,669	0,077	0,068
-133,614	-113,833	-0,080	0,011
-132,599	800,000	0,035	0,088
-131,585	-165,296	-0,069	0,002
-130,570	89,264	-0,047	-0,038
-129,556	200,040	-0,082	0,090
-128,541	-87,594	-0,099	-0,021
-127,526	493,811	0,019	-0,032
-126,512	-97,019	0,132	0,025
-125,497	-107,294	0,126	-0,020
-124,483	169,597	0,079	0,081
-123,468	-10,835	-0,116	-0,055
-122,453	-111,961	0,030	0,004
-121,439	-36,759	-0,129	0,050
-120,424	310,548	0,047	0,063
-119,410	448,151	-0,072	0,114
-118,395	-87,397	0,070	-0,015
-117,380	-164,579	0,101	-0,003
-116,366	29,368	-0,096	-0,059
-115,351	55,017	-0,021	0,015
-114,337	-200,000	0,007	-0,074
-113,322	36,041	0,064	0,040
-112,307	-97,566	0,024	-0,004
-111,293	-200,000	-0,001	0,074
-110,278	4,512	0,034	0,018
-109,264	65,988	0,102	0,075
-108,249	420,983	-0,041	0,064
-107,234	-106,479	0,059	0,009
-106,220	-3,681	-0,117	0,058
-105,205	-200,000	0,005	0,055
-104,191	-38,800	-0,065	-0,025
-103,176	-200,000	0,011	0,193
-102,162	38,528	0,076	0,049
-101,147	-87,528	-0,061	-0,013
-100,132	-200,000	-0,012	0,057
-99,118	147,244	0,085	-0,083
-98,103	-200,000	0,014	-0,105
-97,089	170,361	0,093	-0,096
-96,074	-200,000	0,000	0,072
-95,059	554,098	0,004	0,008
-94,045	33,216	-0,077	0,048
-93,030	221,907	-0,079	-0,091
-92,016	800,000	-0,050	-0,105
-91,001	-200,000	-0,016	0,087
-89,986	-44,393	0,060	0,021
-88,972	0,628	0,104	-0,053
-87,957	-47,567	0,067	-0,023
-86,943	747,630	-0,024	0,046
-85,928	-200,000	0,041	-0,131
-84,913	330,606	0,061	0,084
-83,899	-200,000	-0,054	-0,173
-82,884	-55,106	0,107	0,034
-81,870	800,000	-0,036	0,072
-80,855	192,376	0,038	-0,041
-79,840	145,645	0,043	-0,042
-78,826	-200,000	-0,025	-0,130
-77,811	-31,010	-0,062	-0,025
-76,797	-71,415	0,046	-0,012
-75,782	-200,000	0,025	-0,087
-74,767	126,368	0,095	0,087
-73,753	623,255	-0,042	0,075
-72,738	-200,000	-0,009	-0,084
-71,724	800,000	-0,048	-0,126
-70,709	92,483	-0,061	-0,049
-69,694	204,910	0,116	0,129
-68,680	800,000	-0,041	0,121
-67,665	-112,382	0,052	0,007
-66,651	323,884	0,042	-0,058
-65,636	-48,350	-0,096	-0,033
-64,622	-85,103	-0,026	-0,006
-63,607	55,842	-0,097	-0,067
-62,592	456,099	-0,057	-0,091
-61,578	-200,000	0,015	-0,086
-60,563	-200,000	0,006	0,076
-59,549	437,334	-0,032	0,051
-58,534	30,280	-2,048	-1,252
-57,519	-200,000	-0,175	-0,872
-56,505	-200,000	-1,342	-4,916
-55,490	54,128	0,893	0,616
-54,476	800,000	5,225	11,663
-53,461	-200,000	17,876	290,588
-52,446	800,000	726,591	2231,400
-51,432	536,823	1639,364	2803,590
-50,417	109,723	1629,177	1400,922
-49,403	73,235	1283,330	961,876
-48,388	31,566	1026,134	631,511
-47,373	19,972	988,166	569,964
-46,359	18,279	976,284	557,544
-45,344	15,539	972,416	546,360
-44,330	15,734	971,097	546,233
-43,315	15,331	968,892	543,659
-42,300	15,292	967,992	543,005
-41,286	15,221	967,040	542,217
-40,271	15,264	965,920	541,707
-39,257	15,311	965,087	541,373
-38,242	15,258	964,192	540,677
-37,227	15,274	963,470	540,301
-36,213	15,227	962,582	539,632
-35,198	15,220	961,700	539,091
-34,184	15,270	960,962	538,819
-33,169	15,263	959,808	538,128
-32,154	15,296	959,008	537,765
-31,140	15,289	958,221	537,280
-30,125	15,333	957,373	536,923
-29,111	15,237	956,909	536,334
-28,096	15,308	955,989	536,024
-27,082	15,308	955,324	535,631
-26,067	15,366	954,405	535,282
-25,052	15,238	953,853	534,539
-24,038	15,281	953,041	534,200
-23,023	15,252	952,427	533,743
-22,009	15,278	951,901	533,511
-20,994	15,267	951,212	533,066
-19,979	15,294	950,567	532,770
-18,965	15,310	949,854	532,401
-17,950	15,303	949,418	532,112
-16,936	15,234	948,879	531,570
-15,921	15,253	947,914	531,069
-14,906	15,206	947,264	530,534
-13,892	15,163	946,554	529,976
-12,877	15,134	946,188	529,661
-11,863	15,119	945,469	529,189
-10,848	15,180	944,900	529,043
-9,833	15,254	944,415	528,984
-8,819	15,206	943,919	528,534
-7,804	15,207	943,143	528,083
-6,790	15,186	942,547	527,662
-5,775	15,228	941,980	527,457
-4,760	15,188	941,356	526,959
-3,746	15,182	940,739	526,574
-2,731	15,037	940,148	525,764
-1,717	15,058	939,377	525,377
-0,702	14,962	938,899	524,788
0,313	14,805	938,101	524,639
1,327	18,225	935,999	534,175
2,342	27,379	789,775	474,828
3,356	24,035	444,362	262,189
4,371	-5,480	295,049	144,642
5,386	-9,367	276,969	132,085
6,400	-10,679	271,168	128,090
7,415	-11,011	268,853	126,680
8,429	-10,992	267,435	126,018
9,444	-10,934	266,609	125,670
10,459	-10,951	265,987	125,351
11,473	-11,100	265,431	124,942
12,488	-11,198	264,715	124,505
13,502	-11,228	264,041	124,150
14,517	-11,120	263,783	124,115
15,531	-11,188	263,491	123,905
16,546	-11,182	263,138	123,734
17,561	-11,083	262,719	123,614
18,575	-10,894	262,236	123,546
19,590	-11,252	262,008	123,107
20,604	-11,009	261,703	123,170
21,619	-11,047	261,458	123,010
22,634	-11,256	261,154	122,669
23,648	-11,091	260,627	122,557
24,663	-11,138	260,581	122,483
25,677	-11,253	260,216	122,199
26,692	-11,215	260,088	122,161
27,707	-11,292	259,865	121,976
28,721	-11,312	259,343	121,703
29,736	-11,399	259,109	121,506
30,750	-11,174	258,698	121,501
31,765	-11,233	258,685	121,431
32,780	-11,197	258,407	121,322
33,794	-11,305	258,111	121,078
34,809	-11,306	257,892	120,963
35,823	-11,277	257,541	120,813
36,838	-11,324	257,403	120,696
37,853	-11,528	257,150	120,388
38,867	-11,355	256,940	120,430
39,882	-11,425	256,756	120,272
40,896	-11,255	256,577	120,326
41,911	-11,410	256,323	120,060
42,926	-11,398	256,039	119,928
43,940	-11,356	255,670	119,781
44,955	-11,299	255,653	119,812
45,969	-11,649	255,261	119,312
46,984	-11,644	254,983	119,177
47,999	-11,925	254,868	118,868
49,013	-12,146	254,534	118,510
50,028	-11,977	254,132	118,459
51,042	-12,306	254,054	118,127
52,057	-12,289	253,767	117,997
53,071	-12,215	253,711	118,024
54,086	-12,097	253,402	117,972
55,101	-12,175	253,330	117,860
56,115	-11,646	253,143	118,219
57,130	-11,398	253,187	118,444
58,144	-11,139	252,994	118,566
59,159	-11,084	252,847	118,534
60,174	-11,215	252,392	118,198
61,188	-11,225	252,299	118,135
62,203	-11,312	252,137	117,974
63,217	-11,397	251,942	117,799
64,232	-11,188	251,651	117,832
65,247	-11,160	251,572	117,808
66,261	-11,152	251,121	117,594
67,276	-11,517	250,965	117,198
68,290	-11,912	250,776	116,762
69,305	-11,848	250,465	116,661
70,320	-11,719	250,244	116,658
71,334	-11,617	250,248	116,736
72,349	-11,125	250,118	117,084
73,363	-11,064	249,816	116,984
74,378	-11,256	249,674	116,743
75,393	-11,109	249,346	116,706
76,407	-11,146	249,063	116,530
77,422	-11,230	248,969	116,405
78,436	-11,281	248,614	116,185
79,451	-11,192	248,631	116,259
80,466	-11,611	248,232	115,708
81,480	-11,565	248,157	115,701
82,495	-11,582	247,916	115,564
83,509	-11,561	247,742	115,490
84,524	-11,701	247,534	115,266
85,539	-11,654	247,246	115,160
86,553	-11,794	247,103	114,966
87,568	-11,598	246,927	115,039
88,582	-11,604	246,663	114,901
89,597	-11,602	246,477	114,805
90,611	-11,268	246,302	114,993
91,626	-11,279	246,288	114,967
92,641	-11,286	246,031	114,831
93,655	-11,478	245,664	114,489
94,670	-11,437	245,594	114,480
95,684	-11,381	245,345	114,401
96,699	-11,354	245,254	114,370
97,714	-11,285	244,900	114,253
98,728	-11,683	244,875	113,900
99,743	-11,704	244,536	113,715
100,757	-11,693	244,264	113,587
101,772	-11,627	244,141	113,575
102,787	-11,431	244,013	113,667
103,801	-11,609	243,959	113,485
104,816	-11,465	243,781	113,511
105,830	-11,335	243,554	113,503
106,845	-11,147	243,423	113,587
107,860	-11,380	243,229	113,294
108,874	-11,376	242,955	113,159
109,889	-11,496	242,768	112,963
110,903	-11,473	242,520	112,857
111,918	-11,570	242,407	112,714
112,933	-11,381	242,152	112,741
113,947	-11,459	242,100	112,642
114,962	-11,237	241,991	112,764
115,976	-11,548	241,830	112,424
116,991	-11,428	241,624	112,416
118,006	-11,416	241,533	112,374
119,020	-11,479	241,187	112,152
120,035	-11,308	241,179	112,278
121,049	-11,412	241,029	112,112
122,064	-11,248	240,762	112,112
123,079	-11,268	240,588	112,005
124,093	-11,639	240,328	111,571
125,108	-11,828	240,154	111,327
126,122	-11,898	239,904	111,144
127,137	-12,014	239,698	110,945
128,151	-11,579	239,428	111,162
129,166	-11,681	239,364	111,040
130,181	-11,852	239,173	110,804
131,195	-11,736	238,942	110,781
132,210	-11,555	238,896	110,896
133,224	-11,503	238,731	110,852
134,239	-11,479	238,453	110,732
135,254	-11,237	238,347	110,868
136,268	-11,320	238,121	110,685
137,283	-11,670	238,055	110,363
138,297	-11,853	237,642	110,015
139,312	-11,988	237,498	109,830
140,327	-11,727	237,426	109,996
141,341	-11,082	237,425	110,505
142,356	-10,811	237,203	110,608
143,370	-10,974	237,058	110,401
144,385	-10,987	237,050	110,377
145,400	-10,936	236,766	110,275
146,414	-10,869	236,368	110,134
147,429	-11,225	236,340	109,826
148,443	-11,090	236,081	109,803
149,458	-11,272	236,133	109,673
150,473	-10,893	235,774	109,798
151,487	-11,148	235,578	109,495
152,502	-11,011	235,610	109,609
153,516	-11,011	235,364	109,484
154,531	-11,151	235,314	109,340
155,546	-10,967	234,871	109,270
156,560	-11,078	234,744	109,114
157,575	-11,326	234,531	108,808
158,589	-11,134	234,445	108,911
159,604	-10,949	234,320	108,989
160,619	-10,972	234,242	108,925
161,633	-10,766	233,975	108,954
162,648	-10,629	233,824	108,982
163,662	-11,111	233,700	108,535
164,677	-11,242	233,584	108,368
165,692	-11,083	233,325	108,363
166,706	-10,895	233,266	108,474
167,721	-10,939	233,137	108,369
168,735	-10,736	233,088	108,497
169,750	-11,015	232,909	108,184
170,764	-10,777	232,660	108,246
171,779	-11,096	232,597	107,957
172,794	-10,771	232,232	108,033
173,808	-11,004	232,199	107,825
174,823	-11,724	231,871	107,100
175,837	-11,682	231,647	107,020
176,852	-11,269	231,567	107,296
177,867	-11,214	231,617	107,352
178,881	-10,939	231,478	107,493
179,896	-10,991	231,275	107,349
180,910	-10,968	231,055	107,254
181,925	-10,927	230,894	107,202
182,940	-10,799	230,787	107,243
183,954	-10,814	230,432	107,057
184,969	-10,906	230,454	106,985
185,983	-10,767	230,410	107,064
186,998	-10,836	230,149	106,879
188,013	-10,685	230,000	106,918
189,027	-10,644	229,805	106,849
190,042	-10,763	229,637	106,670
191,056	-10,718	229,576	106,666
192,071	-10,810	229,485	106,544
193,086	-10,820	229,264	106,424
194,100	-10,814	229,153	106,368
195,115	-11,138	228,668	105,883
196,129	-11,038	228,722	105,976
197,144	-5,845	230,570	110,849
198,159	-0,067	232,112	116,078
199,173	2,994	232,935	118,862
200,188	3,422	232,984	119,210
201,202	3,265	232,900	119,035
202,217	3,574	232,654	119,138
203,232	3,453	232,617	119,015
204,246	3,697	232,358	119,061
205,261	3,848	232,328	119,152
206,275	3,907	232,231	119,137
207,290	3,962	232,190	119,148
208,304	3,985	231,893	119,003
209,319	3,787	231,732	118,757
210,334	3,634	231,514	118,516
211,348	3,535	231,366	118,354
212,363	3,276	230,943	117,927
213,377	3,053	230,826	117,685
214,392	3,071	230,638	117,593
215,407	3,160	230,537	117,599
216,421	2,995	230,538	117,462
217,436	3,144	230,255	117,422
218,450	2,970	229,878	117,086
219,465	2,970	229,891	117,082
220,480	2,881	229,667	116,889
221,494	2,846	229,741	116,889
222,509	3,122	229,514	116,975
223,523	3,237	229,378	116,983
224,538	3,144	229,145	116,782
225,553	3,154	228,981	116,696
226,567	3,094	228,717	116,506
227,582	3,346	228,860	116,761
228,596	3,711	228,678	116,935
229,611	3,236	228,434	116,439
230,626	3,019	228,170	116,129
231,640	2,907	228,122	116,008
232,655	3,096	228,050	116,105
233,669	3,834	227,845	116,550
234,684	3,672	227,761	116,374
235,699	3,311	227,671	116,045
236,713	3,455	227,372	115,991
237,728	3,272	227,139	115,723
238,742	3,029	227,177	115,549
239,757	2,960	227,098	115,446
240,772	3,026	226,766	115,317
241,786	2,928	226,638	115,167
242,801	3,300	226,495	115,364
243,815	3,449	226,522	115,480
244,830	3,382	226,368	115,341
245,844	3,297	226,084	115,122
246,859	3,113	225,969	114,915
247,874	3,296	225,855	114,984
248,888	3,460	225,764	115,051
249,903	3,333	225,560	114,841
250,917	3,268	225,208	114,603
251,932	3,133	225,208	114,492
252,947	2,997	224,972	114,260
253,961	2,772	224,972	114,082
254,976	2,893	224,878	114,114
255,990	3,405	224,732	114,413
257,005	3,283	224,579	114,233
258,020	3,124	224,615	114,122
259,034	3,624	224,177	114,262
260,049	3,541	224,051	114,126
261,063	3,336	223,888	113,880
262,078	3,715	223,736	114,075
263,093	3,507	223,816	113,951
264,107	3,354	223,643	113,739
265,122	3,269	223,479	113,583
266,136	3,664	223,252	113,749
267,151	3,737	223,162	113,748
268,166	3,301	222,897	113,280
269,180	3,143	222,536	112,969
270,195	3,157	222,517	112,960
271,209	3,316	222,372	112,994
272,224	2,915	222,454	112,729
273,239	3,273	222,157	112,833
274,253	3,197	221,967	112,670
275,268	2,935	221,929	112,448
276,282	2,910	221,690	112,298
277,297	3,124	221,462	112,330
278,312	2,976	221,433	112,197
279,326	3,066	221,384	112,228
280,341	3,146	221,303	112,236
281,355	3,156	220,995	112,076
282,370	3,176	220,867	112,017
283,384	2,916	220,662	111,712
284,399	2,858	220,422	111,538
285,414	2,872	220,285	111,469
286,428	3,176	220,291	111,684
287,443	3,439	220,182	111,811
288,457	3,251	220,027	111,585
289,472	2,937	219,834	111,249
290,487	2,571	219,534	110,820
291,501	2,648	219,441	110,820
292,516	2,690	219,385	110,813
293,530	2,969	219,203	110,913
294,545	2,934	219,251	110,902
295,560	3,211	219,069	111,001
296,574	3,194	218,880	110,883
297,589	3,228	218,712	110,813
298,603	3,148	218,677	110,727
299,618	3,111	218,467	110,584
300,633	3,120	218,495	110,595
301,647	3,156	218,392	110,559
302,662	3,472	218,209	110,684
303,676	3,612	217,996	110,667
304,691	3,585	217,785	110,532
305,706	3,488	217,611	110,364
306,720	3,262	217,487	110,128
307,735	2,960	217,416	109,865
308,749	3,009	217,118	109,740
309,764	3,333	217,139	109,974
310,779	3,294	217,116	109,924
311,793	3,188	216,782	109,669
312,808	3,464	216,650	109,790
313,822	3,526	216,353	109,674
314,837	3,169	216,385	109,425
315,852	2,955	216,235	109,186
316,866	3,232	216,089	109,301
317,881	3,274	216,068	109,311
318,895	3,227	215,790	109,127
319,910	2,954	215,639	108,846
320,925	2,992	215,397	108,741
321,939	2,830	215,345	108,590
322,954	2,888	215,271	108,584
323,968	3,080	215,346	108,749
324,983	3,408	215,098	108,847
325,997	3,453	214,958	108,798
327,012	3,365	214,680	108,586
328,027	3,198	214,599	108,417
329,041	3,278	214,607	108,468
330,056	2,896	214,517	108,142
331,070	3,288	214,050	108,174
332,085	3,069	213,929	107,948
333,100	3,263	213,931	108,077
334,114	3,351	213,822	108,074
335,129	3,568	213,585	108,098
336,143	3,285	213,464	107,828
337,158	3,105	213,478	107,699
338,173	3,178	213,457	107,730
339,187	2,849	213,235	107,376
340,202	2,755	212,994	107,180
341,216	2,935	212,844	107,221
342,231	3,096	212,793	107,299
343,246	2,892	212,677	107,088
344,260	2,863	212,533	106,985
345,275	3,162	212,356	107,096
346,289	3,380	212,345	107,233
347,304	3,396	212,131	107,127
348,319	3,226	212,012	106,938
349,333	3,007	211,886	106,713
350,348	3,214	211,693	106,750
351,362	3,563	211,464	106,868
352,377	3,277	211,375	106,615
353,392	3,157	211,235	106,451
354,406	3,373	211,140	106,543
355,421	196,223	1340,284	1419,837
356,435	156,759	1477,830	1419,803
