DTS Sentinel unit serial number:	SN410029Multiplexer serial number:	ORYXHardware model number:	OX2-SRSoftware version number:	ORYX F/W v4,00 Oryx Data Collector v3.7.2.0data status	okinstallation	B6 Nyhavnadifferential loss correction	single-endedforward channel	channel 2reverse channel	N/Adate	2023/12/09time	19:40:08forward acquisition time	300,00reverse acquisition time	0,00gamma	499,1914k internal	0,3130k external	0,3130temperature offset calibration	1,0000default loss term (dB/km)	0,3820temperature slope calibration	1,0000multiplexer offset coefficient	1,0000multiplexer slope coefficient	1,0000fibre end	0,00T internal ref (°C)	21,12T ext. ref 1 (°C)	5,10T ext. ref 2 (°C)	5,08length (m)	temperature (°C)	Stokes	anti-Stokes-744,400	305,348	0,053	-0,073
-743,385	-9,351	-0,241	0,119
-742,371	-200,000	0,024	-0,123
-741,356	-153,668	-0,313	0,016
-740,342	800,000	0,064	0,170
-739,327	-145,997	-0,365	-0,024
-738,312	-200,000	0,059	-0,216
-737,298	-146,813	-0,217	-0,014
-736,283	-174,282	-0,012	-0,000
-735,269	-73,023	-0,307	0,083
-734,254	-200,000	-0,004	-0,045
-733,239	-60,492	-0,357	-0,112
-732,225	670,618	0,073	-0,142
-731,210	-59,407	0,022	-0,007
-730,196	28,081	0,061	-0,038
-729,181	800,000	0,041	-0,091
-728,167	-23,947	-0,092	0,041
-727,152	129,668	-0,041	-0,039
-726,137	-200,000	-0,001	-0,089
-725,123	-200,000	-0,010	-0,052
-724,108	-200,000	0,005	-0,165
-723,094	413,069	0,043	-0,068
-722,079	-27,765	-0,071	0,030
-721,064	-200,000	-0,006	0,062
-720,050	-200,000	-0,016	0,055
-719,035	-35,973	-0,133	0,053
-718,021	58,320	-0,138	-0,100
-717,006	-26,801	0,052	0,023
-715,991	-200,000	0,008	-0,144
-714,977	115,366	-0,093	0,084
-713,962	800,000	0,032	-0,067
-712,948	54,046	-0,019	-0,014
-711,933	27,309	0,102	0,064
-710,918	239,798	-0,100	0,124
-709,904	800,000	0,005	0,014
-708,889	-200,000	-0,005	-0,118
-707,875	610,061	0,008	-0,016
-706,860	-154,633	0,033	-0,002
-705,845	-200,000	-0,005	-0,024
-704,831	518,352	-0,099	0,172
-703,816	237,774	-0,114	0,141
-702,802	-200,000	0,006	0,035
-701,787	68,391	-0,040	0,031
-700,772	800,000	-0,032	0,085
-699,758	-200,000	-0,002	0,064
-698,743	-128,780	-0,060	0,006
-697,729	20,820	-0,034	0,020
-696,714	-54,587	0,042	0,014
-695,699	-0,486	0,068	0,036
-694,685	73,500	-0,102	-0,079
-693,670	-67,479	-0,114	-0,033
-692,656	-1,568	0,107	0,056
-691,641	-14,750	-0,069	0,033
-690,627	75,868	0,092	-0,072
-689,612	-32,415	-0,114	-0,047
-688,597	29,940	-0,060	-0,038
-687,583	-69,990	-0,115	-0,032
-686,568	35,971	-0,129	-0,084
-685,554	584,326	-0,076	-0,138
-684,539	800,000	-0,023	-0,062
-683,524	-97,898	-0,182	0,035
-682,510	-11,165	-0,093	-0,045
-681,495	100,948	0,109	-0,094
-680,481	-124,001	-0,213	0,025
-679,466	30,383	-0,036	-0,023
-678,451	-128,352	-0,091	-0,009
-677,437	-200,000	0,015	0,189
-676,422	600,701	0,020	-0,037
-675,408	800,000	0,017	0,044
-674,393	-68,400	-0,074	-0,021
-673,378	-200,000	-0,027	-0,250
-672,364	145,088	-0,098	-0,098
-671,349	-200,000	-0,034	0,138
-670,335	-98,542	-0,067	0,013
-669,320	-134,507	-0,091	0,008
-668,305	-22,808	0,059	-0,026
-667,291	25,987	-0,101	0,062
-666,276	107,462	-0,110	-0,097
-665,262	32,889	-0,139	-0,089
-664,247	139,523	0,006	0,006
-663,232	35,840	0,081	0,053
-662,218	3,520	0,087	0,047
-661,203	-48,491	0,021	-0,007
-660,189	206,171	-0,078	0,090
-659,174	-57,097	0,107	-0,035
-658,159	325,343	-0,049	-0,070
-657,145	599,129	0,011	-0,020
-656,130	-131,280	0,115	0,011
-655,116	582,563	0,057	0,104
-654,101	-200,000	0,047	-0,173
-653,086	-200,000	-0,005	0,171
-652,072	800,000	0,043	0,136
-651,057	-200,000	0,001	-0,085
-650,043	351,853	0,007	-0,010
-649,028	259,794	0,059	0,075
-648,014	631,215	-0,014	-0,027
-646,999	148,228	-0,035	0,035
-645,984	-179,762	-0,041	-0,001
-644,970	800,000	0,017	-0,047
-643,955	-200,000	-0,020	-0,078
-642,941	246,639	-0,050	-0,063
-641,926	-98,223	-0,056	-0,011
-640,911	-200,000	0,001	-0,063
-639,897	800,000	-0,017	-0,038
-638,882	800,000	0,028	0,059
-637,868	-8,073	-0,183	-0,091
-636,853	-126,427	-0,158	0,017
-635,838	800,000	0,004	-0,012
-634,824	153,579	-0,077	-0,078
-633,809	-200,000	0,015	0,133
-632,795	-200,000	0,048	0,158
-631,780	800,000	-0,056	0,118
-630,765	-147,624	-0,086	0,005
-629,751	150,593	-0,121	-0,122
-628,736	5,001	0,021	-0,012
-627,722	1,221	0,021	0,011
-626,707	553,643	-0,054	0,097
-625,692	-63,783	-0,078	0,023
-624,678	-24,995	0,103	0,045
-623,663	-200,000	-0,003	0,082
-622,649	118,360	-0,032	0,029
-621,634	800,000	-0,021	-0,053
-620,619	-20,389	0,175	-0,079
-619,605	179,242	0,096	-0,104
-618,590	-51,266	-0,069	0,024
-617,576	-67,890	-0,168	0,048
-616,561	-200,000	0,018	0,066
-615,546	-200,000	-0,016	-0,102
-614,532	800,000	-0,058	-0,139
-613,517	761,022	-0,032	-0,065
-612,503	236,160	0,029	-0,035
-611,488	78,127	-0,073	0,058
-610,474	212,183	0,044	-0,051
-609,459	800,000	0,018	-0,056
-608,444	-112,628	-0,057	-0,008
-607,430	33,827	-0,085	0,054
-606,415	-177,118	-0,086	-0,002
-605,401	56,365	0,038	-0,028
-604,386	-125,011	0,046	0,005
-603,371	800,000	0,037	0,103
-602,357	153,381	0,123	0,125
-601,342	17,135	-0,054	0,031
-600,328	-49,798	-0,120	-0,042
-599,313	289,881	-0,074	0,099
-598,298	800,000	0,053	0,132
-597,284	-200,000	0,070	0,259
-596,269	-200,000	0,008	0,070
-595,255	739,869	0,038	0,075
-594,240	57,019	0,046	-0,033
-593,225	-194,148	0,054	-0,000
-592,211	-200,000	0,004	0,028
-591,196	-42,938	0,088	-0,033
-590,182	78,720	0,066	-0,053
-589,167	252,764	0,026	0,033
-588,152	-188,702	-0,114	-0,001
-587,138	-200,000	-0,002	-0,008
-586,123	24,944	-0,129	-0,079
-585,109	134,611	0,071	-0,068
-584,094	-200,000	-0,008	0,091
-583,079	390,107	-0,023	-0,036
-582,065	-139,800	0,114	-0,009
-581,050	-63,980	-0,234	0,070
-580,036	153,063	-0,045	-0,046
-579,021	800,000	0,053	-0,116
-578,006	-85,732	0,101	-0,023
-576,992	800,000	0,062	-0,149
-575,977	59,732	-0,027	0,020
-574,963	-5,847	0,072	-0,036
-573,948	-115,348	0,068	0,009
-572,934	-200,000	-0,003	-0,162
-571,919	-13,408	-0,079	0,038
-570,904	-32,287	-0,111	0,045
-569,890	-15,493	0,081	0,038
-568,875	-40,499	0,164	-0,063
-567,861	-200,000	-0,031	-0,132
-566,846	-66,787	0,025	0,007
-565,831	91,710	-0,038	-0,032
-564,817	225,918	-0,035	0,043
-563,802	-12,103	-0,112	-0,054
-562,788	800,000	-0,026	-0,065
-561,773	675,766	0,025	-0,048
-560,758	26,023	0,028	-0,017
-559,744	-200,000	0,018	0,000
-558,729	-200,000	-0,019	-0,080
-557,715	-200,000	-0,007	-0,024
-556,700	-21,467	-0,056	0,025
-555,685	-200,000	-0,000	-0,013
-554,671	71,849	-0,066	0,051
-553,656	112,391	-0,031	-0,028
-552,642	-200,000	0,004	-0,115
-551,627	220,430	0,040	0,047
-550,612	490,398	-0,050	0,085
-549,598	-200,000	0,028	-0,101
-548,583	-60,486	-0,061	-0,019
-547,569	-14,902	-0,086	0,040
-546,554	39,734	-0,046	-0,030
-545,539	-121,298	-0,033	-0,004
-544,525	21,162	0,122	-0,073
-543,510	800,000	0,024	0,056
-542,496	-200,000	0,005	0,129
-541,481	-134,117	-0,106	-0,010
-540,466	-78,600	0,056	0,014
-539,452	-56,276	0,061	0,020
-538,437	600,232	-0,063	0,115
-537,423	-200,000	0,006	-0,034
-536,408	-133,755	0,037	0,003
-535,393	-82,551	-0,120	-0,029
-534,379	85,249	-0,104	-0,084
-533,364	-200,000	0,018	-0,132
-532,350	-200,000	0,011	-0,037
-531,335	302,295	0,055	0,076
-530,321	-200,000	0,022	0,145
-529,306	-200,000	-0,037	0,128
-528,291	-134,195	-0,046	0,004
-527,277	-110,634	-0,150	0,023
-526,262	11,038	0,097	-0,054
-525,248	800,000	0,039	0,094
-524,233	185,818	-0,089	0,098
-523,218	800,000	0,028	0,058
-522,204	627,841	-0,012	-0,022
-521,189	-200,000	0,008	-0,028
-520,175	-91,305	-0,050	-0,010
-519,160	85,105	-0,130	-0,105
-518,145	-200,000	0,003	0,077
-517,131	328,112	0,083	0,117
-516,116	281,544	0,047	-0,063
-515,102	82,518	0,059	0,047
-514,087	-114,707	0,039	-0,005
-513,072	-18,275	-0,186	-0,085
-512,058	-11,651	0,088	-0,042
-511,043	417,845	0,080	-0,127
-510,029	403,659	0,047	0,073
-509,014	-17,356	-0,106	-0,049
-507,999	-200,000	0,002	-0,165
-506,985	34,466	-0,054	-0,035
-505,970	5,737	-0,027	-0,014
-504,956	59,179	0,040	-0,029
-503,941	-200,000	0,038	-0,130
-502,926	42,940	0,010	0,007
-501,912	-183,545	0,018	0,000
-500,897	128,914	-0,079	0,074
-499,883	-166,248	0,042	-0,001
-498,868	800,000	-0,052	-0,111
-497,853	-52,177	0,060	0,021
-496,839	123,056	-0,074	-0,068
-495,824	110,273	-0,093	-0,082
-494,810	-200,000	0,011	0,070
-493,795	207,657	0,030	-0,035
-492,781	118,090	-0,100	-0,091
-491,766	-200,000	-0,023	-0,201
-490,751	357,002	-0,055	-0,081
-489,737	-200,000	0,003	0,055
-488,722	-200,000	0,002	-0,017
-487,708	-137,127	-0,023	-0,002
-486,693	-200,000	-0,007	0,200
-485,678	-112,924	0,103	0,015
-484,664	-11,211	-0,056	0,027
-483,649	-200,000	-0,008	-0,078
-482,635	-200,000	0,028	-0,102
-481,620	-200,000	0,010	0,091
-480,605	800,000	-0,071	0,204
-479,591	309,759	0,061	0,085
-478,576	-200,000	-0,015	0,081
-477,562	513,739	0,026	-0,044
-476,547	-200,000	0,013	-0,056
-475,532	-69,746	-0,037	-0,010
-474,518	-12,387	0,090	-0,043
-473,503	800,000	0,040	0,089
-472,489	-63,997	0,088	-0,026
-471,474	-200,000	-0,007	-0,025
-470,459	-83,246	-0,090	0,021
-469,445	800,000	-0,060	-0,181
-468,430	-200,000	-0,025	0,099
-467,416	800,000	-0,040	0,098
-466,401	256,519	0,130	0,164
-465,386	-116,336	0,083	0,011
-464,372	-200,000	0,009	0,118
-463,357	-28,457	-0,052	0,022
-462,343	-200,000	0,021	0,125
-461,328	-42,092	0,087	0,032
-460,313	-200,000	-0,052	0,184
-459,299	-200,000	0,009	0,073
-458,284	-200,000	-0,002	-0,175
-457,270	494,927	-0,038	-0,064
-456,255	192,399	-0,101	-0,112
-455,241	436,331	-0,020	-0,033
-454,226	7,863	0,137	-0,076
-453,211	-200,000	-0,010	0,076
-452,197	504,431	0,012	0,020
-451,182	-200,000	-0,012	0,096
-450,168	-200,000	-0,010	-0,058
-449,153	666,626	-0,035	0,068
-448,138	-200,000	-0,005	0,043
-447,124	134,762	0,044	0,042
-446,109	-200,000	-0,019	0,123
-445,095	82,482	0,044	-0,035
-444,080	274,440	-0,044	-0,057
-443,065	242,066	0,031	0,038
-442,051	67,928	0,058	0,044
-441,036	-89,387	-0,129	0,028
-440,022	-200,000	-0,016	0,058
-439,007	28,552	0,023	-0,014
-437,992	800,000	0,019	0,041
-436,978	-54,843	-0,093	0,031
-435,963	-83,517	-0,097	0,023
-434,949	-181,572	0,046	-0,001
-433,934	644,392	0,013	0,025
-432,919	136,268	-0,046	-0,044
-431,905	-200,000	0,022	-0,136
-430,890	322,711	0,108	0,151
-429,876	48,644	-0,072	-0,049
-428,861	263,232	0,144	0,184
-427,846	800,000	0,007	0,016
-426,832	-181,595	-0,094	0,001
-425,817	800,000	-0,090	-0,201
-424,803	-128,934	0,073	0,007
-423,788	-104,365	0,193	-0,033
-422,773	-133,564	0,164	0,015
-421,759	665,718	0,059	0,112
-420,744	82,336	-0,061	-0,048
-419,730	620,300	0,130	-0,242
-418,715	800,000	-0,022	0,053
-417,701	-152,235	-0,103	0,005
-416,686	-200,000	0,010	0,080
-415,671	-83,832	0,189	-0,044
-414,657	-112,022	0,232	-0,034
-413,642	-200,000	-0,008	0,079
-412,628	-200,000	0,001	-0,049
-411,613	593,649	0,044	-0,081
-410,598	370,668	0,041	-0,062
-409,584	439,885	0,074	-0,119
-408,569	283,712	0,068	0,091
-407,555	-107,044	0,063	-0,010
-406,540	-3,140	0,083	0,042
-405,525	800,000	-0,062	0,146
-404,511	800,000	-0,054	-0,134
-403,496	119,234	-0,072	-0,065
-402,482	95,944	-0,088	0,073
-401,467	266,079	-0,057	0,073
-400,452	480,071	0,030	0,051
-399,438	49,911	0,145	0,100
-398,423	-200,000	-0,026	-0,130
-397,409	800,000	-0,063	-0,182
-396,394	127,263	-0,072	-0,067
-395,379	-116,245	0,058	-0,008
-394,365	800,000	0,033	0,105
-393,350	39,144	-0,095	0,062
-392,336	-108,555	0,144	-0,022
-391,321	-200,000	0,013	-0,113
-390,306	-4,535	-0,057	-0,029
-389,292	8,689	-0,121	-0,067
-388,277	16,663	0,041	-0,024
-387,263	450,620	-0,072	0,117
-386,248	-200,000	0,032	-0,105
-385,233	-200,000	0,009	-0,048
-384,219	-41,639	-0,103	0,039
-383,204	-104,998	-0,090	-0,015
-382,190	331,297	0,047	-0,066
-381,175	26,900	-0,102	0,062
-380,160	213,584	0,109	-0,127
-379,146	-200,000	-0,028	-0,232
-378,131	-125,733	0,061	-0,007
-377,117	12,923	0,067	0,038
-376,102	213,803	-0,054	-0,063
-375,088	800,000	0,023	-0,053
-374,073	252,623	-0,064	-0,081
-373,058	232,313	-0,041	-0,049
-372,044	800,000	-0,056	0,115
-371,029	342,121	-0,073	0,105
-370,015	-200,000	0,071	-0,000
-369,000	27,124	-0,095	0,058
-367,985	240,289	-0,004	0,004
-366,971	-200,000	0,006	0,034
-365,956	204,337	-0,080	0,092
-364,942	-200,000	-0,005	0,039
-363,927	16,663	0,039	0,023
-362,912	73,421	0,071	-0,054
-361,898	800,000	-0,043	-0,098
-360,883	504,597	-0,046	0,077
-359,869	30,947	0,097	-0,061
-358,854	596,817	-0,027	0,049
-357,839	-200,000	-0,029	0,105
-356,825	-103,620	0,084	0,014
-355,810	610,071	-0,052	-0,096
-354,796	-200,000	0,011	-0,079
-353,781	-22,495	-0,122	-0,054
-352,766	333,128	-0,036	0,052
-351,752	800,000	-0,045	0,098
-350,737	-200,000	-0,008	0,109
-349,723	-200,000	0,074	0,000
-348,708	800,000	0,048	-0,100
-347,693	-11,870	-0,009	-0,004
-346,679	-200,000	0,032	-0,103
-345,664	-200,000	0,001	-0,041
-344,650	-21,421	-0,036	-0,016
-343,635	-148,828	-0,107	-0,006
-342,620	-64,820	0,158	0,046
-341,606	322,743	-0,099	0,139
-340,591	-72,925	-0,066	-0,018
-339,577	672,578	-0,029	0,055
-338,562	-200,000	-0,002	0,024
-337,548	800,000	-0,022	0,047
-336,533	-200,000	0,047	0,194
-335,518	-74,269	0,107	-0,028
-334,504	-105,029	0,139	-0,023
-333,489	4,915	-0,132	0,071
-332,475	166,483	-0,037	0,039
-331,460	-33,050	-0,104	-0,042
-330,445	69,076	0,088	-0,066
-329,431	800,000	0,007	-0,021
-328,416	-200,000	0,039	-0,174
-327,402	-200,000	0,001	-0,046
-326,387	-72,407	-0,030	-0,008
-325,372	6,467	0,132	0,072
-324,358	-200,000	0,004	-0,047
-323,343	800,000	0,025	0,063
-322,329	-169,829	0,102	-0,003
-321,314	-89,857	0,154	0,033
-320,299	-200,000	-0,056	0,000
-319,285	-200,000	-0,000	0,073
-318,270	172,039	-0,061	-0,065
-317,256	499,442	0,037	-0,062
-316,241	800,000	0,018	0,053
-315,226	-200,000	-0,022	-0,093
-314,212	-103,727	0,162	0,027
-313,197	494,054	0,017	-0,029
-312,183	800,000	0,022	-0,066
-311,168	-200,000	-0,008	-0,095
-310,153	74,850	-0,091	-0,070
-309,139	42,124	-0,036	0,024
-308,124	231,147	-0,049	0,059
-307,110	93,657	0,141	0,117
-306,095	586,476	-0,090	0,163
-305,080	-200,000	0,000	-0,012
-304,066	387,259	0,085	0,128
-303,051	-200,000	0,015	-0,174
-302,037	312,025	-0,038	-0,053
-301,022	47,126	-0,083	-0,056
-300,008	298,413	-0,045	-0,061
-298,993	228,843	0,021	-0,026
-297,978	227,190	-0,027	0,032
-296,964	128,240	-0,072	0,067
-295,949	-53,389	-0,046	-0,015
-294,935	-160,163	-0,111	-0,004
-293,920	97,669	0,015	-0,013
-292,905	107,754	0,071	-0,062
-291,891	-93,168	0,088	0,018
-290,876	-79,023	-0,081	0,020
-289,862	-64,268	-0,161	0,048
-288,847	-200,000	0,011	-0,060
-287,832	50,061	-0,058	-0,040
-286,818	62,115	-0,038	-0,027
-285,803	23,631	0,054	0,032
-284,789	3,355	-0,104	0,055
-283,774	-89,640	-0,050	-0,011
-282,759	-75,690	-0,013	0,003
-281,745	626,096	-0,043	-0,079
-280,730	800,000	-0,027	0,068
-279,716	-43,917	0,118	-0,043
-278,701	800,000	0,072	0,159
-277,686	-74,965	0,136	0,035
-276,672	-200,000	0,010	-0,088
-275,657	-200,000	0,014	-0,079
-274,643	-86,825	-0,070	-0,016
-273,628	-200,000	-0,021	-0,083
-272,613	110,188	0,082	0,072
-271,599	332,262	0,021	0,029
-270,584	17,791	0,105	0,061
-269,570	-200,000	-0,003	0,074
-268,555	279,461	-0,082	0,108
-267,540	53,485	-0,072	0,050
-266,526	783,803	0,034	0,069
-265,511	220,977	0,048	0,056
-264,497	471,102	-0,095	-0,156
-263,482	-25,371	0,045	-0,019
-262,467	114,725	0,117	0,104
-261,453	87,537	-0,073	0,059
-260,438	73,108	0,007	-0,006
-259,424	-200,000	0,012	-0,056
-258,409	-17,165	-0,032	-0,015
-257,395	-47,784	0,144	0,051
-256,380	800,000	0,004	-0,011
-255,365	-137,755	0,071	-0,006
-254,351	256,212	0,046	0,057
-253,336	-105,163	0,189	0,031
-252,322	-200,000	-0,018	-0,113
-251,307	736,429	-0,031	0,062
-250,292	261,014	0,130	-0,165
-249,278	-136,500	0,126	0,011
-248,263	-107,393	0,053	0,008
-247,249	704,595	0,029	-0,055
-246,234	-200,000	-0,021	0,103
-245,219	-200,000	-0,052	-0,174
-244,205	800,000	0,050	-0,118
-243,190	800,000	0,020	-0,044
-242,176	800,000	-0,026	0,058
-241,161	93,363	0,087	0,072
-240,146	287,862	0,069	0,091
-239,132	-200,000	-0,010	0,052
-238,117	-200,000	-0,027	-0,097
-237,103	-200,000	-0,021	-0,082
-236,088	19,275	0,117	0,069
-235,073	-200,000	-0,041	-0,139
-234,059	800,000	-0,018	0,042
-233,044	800,000	0,066	0,150
-232,030	800,000	-0,044	-0,138
-231,015	-200,000	0,025	-0,138
-230,000	-1,929	-0,086	-0,044
-228,986	281,163	0,019	-0,024
-227,971	800,000	0,041	-0,106
-226,957	130,889	0,073	0,069
-225,942	401,864	0,025	-0,038
-224,927	800,000	-0,006	-0,017
-223,913	156,865	-0,115	-0,116
-222,898	-200,000	-0,009	-0,118
-221,884	59,200	0,140	0,100
-220,869	-200,000	0,005	-0,104
-219,855	-100,820	0,092	-0,016
-218,840	-113,101	-0,134	0,019
-217,825	110,344	-0,125	0,109
-216,811	-46,997	-0,173	0,061
-215,796	-200,000	-0,035	-0,120
-214,782	-126,345	-0,002	-0,000
-213,767	179,341	0,044	-0,047
-212,752	-41,512	0,079	0,029
-211,738	-27,454	-0,070	0,029
-210,723	80,828	0,015	-0,012
-209,709	-10,262	-0,099	-0,047
-208,694	-159,932	0,085	0,003
-207,679	69,633	-0,062	-0,046
-206,665	184,849	0,040	0,043
-205,650	800,000	0,089	0,180
-204,636	-43,470	0,081	0,030
-203,621	-17,791	-0,107	-0,049
-202,606	-38,958	-0,174	-0,067
-201,592	-200,000	-0,004	-0,028
-200,577	-200,000	0,003	0,028
-199,563	-150,033	0,050	0,003
-198,548	800,000	0,035	0,098
-197,533	-140,278	0,145	-0,011
-196,519	-200,000	-0,023	0,082
-195,504	533,102	-0,053	-0,092
-194,490	-29,327	0,130	-0,054
-193,475	82,541	0,050	0,040
-192,460	80,052	0,044	0,034
-191,446	132,080	0,068	0,064
-190,431	214,221	0,042	0,048
-189,417	-120,515	0,069	0,008
-188,402	548,041	-0,061	0,107
-187,387	-18,899	-0,159	0,072
-186,373	-115,561	-0,146	0,020
-185,358	800,000	0,029	0,082
-184,344	800,000	0,085	-0,182
-183,329	101,052	0,045	0,038
-182,315	-95,299	-0,018	0,004
-181,300	-200,000	-0,013	0,078
-180,285	-200,000	-0,021	-0,116
-179,271	-67,476	-0,063	-0,018
-178,256	259,212	0,029	0,036
-177,242	313,729	0,030	-0,041
-176,227	-106,307	0,077	0,012
-175,212	13,991	-0,117	0,066
-174,198	-24,144	-0,051	0,022
-173,183	800,000	-0,029	0,091
-172,169	30,840	0,052	0,032
-171,154	800,000	0,075	-0,199
-170,139	-78,030	-0,104	-0,026
-169,125	-200,000	-0,013	0,075
-168,110	22,614	0,073	0,043
-167,096	-200,000	-0,019	0,067
-166,081	440,504	-0,024	0,039
-165,066	-107,385	-0,111	0,017
-164,052	800,000	0,010	0,024
-163,037	800,000	0,061	-0,153
-162,023	501,075	-0,043	-0,072
-161,008	-73,970	-0,125	0,033
-159,993	73,857	0,094	0,071
-158,979	800,000	0,013	0,029
-157,964	-136,308	0,040	-0,003
-156,950	-75,498	0,138	0,036
-155,935	321,387	0,076	0,105
-154,920	175,706	0,079	0,084
-153,906	-59,932	-0,064	0,020
-152,891	302,761	0,038	0,052
-151,877	-200,000	0,053	0,179
-150,862	158,271	0,055	-0,055
-149,847	-200,000	0,008	-0,105
-148,833	294,230	-0,022	-0,029
-147,818	-200,000	-0,010	-0,098
-146,804	354,899	-0,011	-0,017
-145,789	-200,000	0,018	0,197
-144,775	-76,335	0,043	-0,011
-143,760	-9,285	-0,110	0,053
-142,745	-200,000	-0,001	-0,040
-141,731	-200,000	0,023	-0,169
-140,716	-48,926	0,102	-0,035
-139,702	388,988	0,064	0,097
-138,687	486,414	-0,070	0,116
-137,672	-200,000	0,007	0,062
-136,658	467,780	0,032	-0,053
-135,643	800,000	-0,030	0,083
-134,629	-30,404	-0,071	0,029
-133,614	-200,000	-0,013	0,096
-132,599	24,059	-0,039	-0,024
-131,585	-49,587	-0,119	0,041
-130,570	107,645	-0,024	-0,021
-129,556	-200,000	-0,005	-0,109
-128,541	541,587	-0,055	-0,096
-127,526	-47,745	0,143	0,050
-126,512	-16,462	-0,042	0,019
-125,497	230,170	0,048	0,057
-124,483	492,172	-0,055	0,092
-123,468	129,160	0,087	0,080
-122,453	-200,000	-0,032	0,107
-121,439	800,000	-0,056	-0,123
-120,424	44,392	-0,121	-0,081
-119,410	84,148	0,094	-0,075
-118,395	300,242	0,061	0,082
-117,380	622,396	-0,004	-0,008
-116,366	95,133	0,085	0,071
-115,351	-18,730	0,060	-0,027
-114,337	-44,305	0,052	0,019
-113,322	-105,890	0,088	-0,014
-112,307	-200,000	-0,022	0,139
-111,293	800,000	-0,028	-0,083
-110,278	-200,000	0,026	0,098
-109,264	69,715	-0,087	0,065
-108,249	-120,402	-0,143	-0,017
-107,234	137,626	-0,100	-0,095
-106,220	-200,000	-0,011	-0,138
-105,205	800,000	0,020	-0,062
-104,191	800,000	0,047	-0,101
-103,176	800,000	-0,032	0,096
-102,162	-200,000	-0,003	-0,034
-101,147	104,806	-0,146	-0,125
-100,132	-132,130	-0,064	0,006
-99,118	453,986	-0,021	-0,034
-98,103	434,095	0,011	0,017
-97,089	602,917	0,103	0,186
-96,074	-200,000	-0,024	-0,129
-95,059	-200,000	0,047	0,159
-94,045	132,499	-0,084	0,079
-93,030	542,943	0,067	-0,117
-92,016	-200,000	-0,009	-0,196
-91,001	-163,751	0,083	0,003
-89,986	55,960	0,039	0,027
-88,972	23,913	-0,058	-0,035
-87,957	26,245	-0,149	0,090
-86,943	172,420	-0,061	-0,064
-85,928	-46,631	-0,029	-0,010
-84,913	95,117	-0,137	-0,113
-83,899	800,000	-0,044	-0,124
-82,884	137,179	-0,054	0,051
-81,870	691,429	0,095	-0,182
-80,855	-59,642	-0,073	0,022
-79,840	-98,539	-0,099	0,018
-78,826	-142,287	0,028	-0,002
-77,811	-200,000	-0,017	-0,103
-76,797	-130,389	0,087	0,008
-75,782	265,658	0,026	0,033
-74,767	25,393	0,133	-0,080
-73,753	235,049	-0,113	0,136
-72,738	-200,000	0,003	0,019
-71,724	572,731	0,076	-0,135
-70,709	800,000	-0,092	-0,190
-69,694	136,756	0,076	-0,071
-68,680	-140,049	0,098	-0,007
-67,665	290,201	0,033	0,044
-66,651	783,914	0,045	0,089
-65,636	80,687	-0,079	0,062
-64,622	5,661	-0,133	-0,071
-63,607	-83,580	-0,052	-0,012
-62,592	800,000	-0,050	-0,129
-61,578	-116,903	0,068	-0,009
-60,563	711,353	-0,047	0,090
-59,549	-200,000	-0,009	0,032
-58,534	-125,245	-1,456	-0,159
-57,519	800,000	-0,634	-1,463
-56,505	-200,000	-0,939	-4,549
-55,490	-86,642	0,671	-0,148
-54,476	800,000	4,957	11,819
-53,461	-200,000	14,484	257,514
-52,446	-200,000	696,201	2233,235
-51,432	565,889	1622,905	2861,194
-50,417	117,459	1630,648	1451,986
-49,403	74,292	1284,651	975,919
-48,388	37,384	1022,664	654,911
-47,373	23,312	981,570	582,392
-46,359	22,536	970,995	573,552
-45,344	21,368	966,696	567,183
-44,330	21,360	965,126	566,212
-43,315	21,232	963,722	564,951
-42,300	21,175	962,670	564,125
-41,286	21,199	961,700	563,613
-40,271	21,149	960,769	562,882
-39,257	21,142	959,779	562,256
-38,242	21,201	958,663	561,770
-37,227	21,153	957,996	561,202
-36,213	21,097	957,131	560,493
-35,198	21,127	956,192	560,017
-34,184	21,150	955,497	559,664
-33,169	21,070	954,664	558,896
-32,154	21,215	953,709	558,782
-31,140	21,246	952,809	558,332
-30,125	21,129	952,249	557,605
-29,111	21,198	951,246	557,215
-28,096	21,184	950,660	556,807
-27,082	21,142	950,024	556,278
-26,067	21,140	949,203	555,768
-25,052	21,138	948,419	555,279
-24,038	21,165	947,865	555,020
-23,023	21,156	947,193	554,577
-22,009	21,218	946,336	554,249
-20,994	21,168	945,943	553,839
-19,979	21,185	945,233	553,453
-18,965	21,216	944,724	553,233
-17,950	21,108	944,397	552,676
-16,936	21,121	943,374	552,095
-15,921	21,109	942,804	551,703
-14,906	21,070	941,952	551,061
-13,892	21,069	941,343	550,677
-12,877	21,046	940,625	550,163
-11,863	21,040	940,054	549,788
-10,848	21,002	939,810	549,502
-9,833	21,152	939,275	549,645
-8,819	21,088	938,666	549,064
-7,804	21,057	937,962	548,532
-6,790	21,054	937,467	548,212
-5,775	21,061	936,810	547,827
-4,760	21,093	936,058	547,466
-3,746	21,009	935,386	546,788
-2,731	20,897	934,820	546,080
-1,717	20,896	933,844	545,486
-0,702	20,874	933,470	545,177
0,313	20,706	932,795	545,075
1,327	23,652	930,828	553,126
2,342	32,899	794,015	496,381
3,356	30,529	450,772	278,213
4,371	0,435	294,830	151,854
5,386	-4,093	275,968	137,827
6,400	-5,262	270,191	133,843
7,415	-5,478	267,689	132,392
8,429	-5,290	266,484	131,956
9,444	-5,404	265,774	131,489
10,459	-5,494	265,167	131,095
11,473	-5,456	264,406	130,741
12,488	-5,559	263,959	130,415
13,502	-5,566	263,491	130,166
14,517	-5,623	263,053	129,887
15,531	-5,628	262,690	129,691
16,546	-5,642	262,324	129,486
17,561	-5,568	261,700	129,234
18,575	-5,582	261,520	129,120
19,590	-5,578	261,087	128,898
20,604	-5,611	260,904	128,767
21,619	-5,729	260,594	128,498
22,634	-5,492	260,238	128,522
23,648	-5,699	260,050	128,233
24,663	-5,686	259,886	128,152
25,677	-5,459	259,331	128,070
26,692	-5,510	259,159	127,928
27,707	-5,634	258,883	127,669
28,721	-5,677	258,554	127,457
29,736	-5,768	258,348	127,264
30,750	-5,789	258,176	127,149
31,765	-5,663	257,779	127,053
32,780	-5,694	257,644	126,948
33,794	-5,665	257,394	126,840
34,809	-5,706	257,160	126,678
35,823	-5,613	256,959	126,649
36,838	-5,759	256,695	126,378
37,853	-5,762	256,480	126,259
38,867	-5,738	256,216	126,139
39,882	-5,822	256,110	126,002
40,896	-5,906	255,869	125,798
41,911	-5,800	255,651	125,772
42,926	-5,855	255,392	125,586
43,940	-5,807	255,049	125,447
44,955	-5,820	254,781	125,293
45,969	-5,875	254,730	125,208
46,984	-5,989	254,444	124,958
47,999	-6,152	254,151	124,660
49,013	-6,362	253,999	124,392
50,028	-6,398	253,618	124,162
51,042	-6,321	253,352	124,088
52,057	-6,475	253,190	123,864
53,071	-6,441	253,031	123,804
54,086	-6,353	252,694	123,705
55,101	-6,293	252,627	123,713
56,115	-5,905	252,528	123,989
57,130	-5,735	252,372	124,049
58,144	-5,483	252,248	124,196
59,159	-5,657	252,117	123,970
60,174	-5,430	251,748	123,973
61,188	-5,629	251,658	123,746
62,203	-5,631	251,316	123,565
63,217	-5,566	251,189	123,547
64,232	-5,595	250,969	123,403
65,247	-5,491	250,796	123,396
66,261	-5,584	250,467	123,144
67,276	-5,613	250,288	123,019
68,290	-5,995	249,966	122,523
69,305	-5,893	249,711	122,475
70,320	-6,006	249,541	122,284
71,334	-5,724	249,418	122,454
72,349	-5,634	249,357	122,489
73,363	-5,549	249,107	122,429
74,378	-5,675	248,904	122,210
75,393	-5,679	248,792	122,141
76,407	-5,552	248,456	122,073
77,422	-5,658	248,185	121,839
78,436	-5,691	248,144	121,781
79,451	-5,698	247,911	121,649
80,466	-5,872	247,738	121,406
81,480	-6,122	247,520	121,076
82,495	-5,980	247,166	121,012
83,509	-5,724	247,050	121,161
84,524	-6,033	246,904	120,818
85,539	-6,028	246,550	120,638
86,553	-6,040	246,495	120,591
87,568	-6,010	246,300	120,509
88,582	-5,759	246,080	120,602
89,597	-5,848	245,919	120,438
90,611	-5,816	245,796	120,394
91,626	-5,555	245,442	120,429
92,641	-5,816	245,478	120,217
93,655	-5,831	245,434	120,172
94,670	-5,802	244,951	119,948
95,684	-5,731	244,790	119,919
96,699	-5,783	244,716	119,828
97,714	-6,028	244,552	119,532
98,728	-5,992	244,292	119,425
99,743	-6,230	244,089	119,116
100,757	-5,884	243,829	119,267
101,772	-6,075	243,690	119,030
102,787	-6,132	243,493	118,875
103,801	-5,736	243,295	119,097
104,816	-5,751	243,211	119,033
105,830	-5,782	243,046	118,916
106,845	-5,631	242,884	118,951
107,860	-5,536	242,713	118,936
108,874	-5,942	242,626	118,545
109,889	-5,803	242,264	118,474
110,903	-5,705	241,995	118,412
111,918	-5,816	241,816	118,223
112,933	-5,871	241,803	118,160
113,947	-5,819	241,723	118,153
114,962	-5,649	241,579	118,212
115,976	-5,717	241,238	117,979
116,991	-5,656	240,986	117,896
118,006	-5,656	240,963	117,874
119,020	-5,780	240,781	117,672
120,035	-5,556	240,663	117,789
121,049	-5,514	240,469	117,717
122,064	-5,818	240,287	117,368
123,079	-5,689	240,118	117,382
124,093	-5,949	239,983	117,092
125,108	-5,934	239,692	116,952
126,122	-5,905	239,418	116,831
127,137	-6,248	239,349	116,507
128,151	-6,066	239,201	116,573
129,166	-5,977	239,007	116,541
130,181	-5,949	238,755	116,430
131,195	-5,975	238,530	116,289
132,210	-5,911	238,379	116,257
133,224	-5,817	238,496	116,380
134,239	-5,746	238,203	116,284
135,254	-5,751	238,103	116,221
136,268	-5,803	237,815	116,028
137,283	-5,848	237,462	115,809
138,297	-5,893	237,304	115,685
139,312	-6,127	237,219	115,444
140,327	-5,778	237,102	115,659
141,341	-5,433	237,196	115,974
142,356	-5,449	236,883	115,797
143,370	-5,549	236,748	115,640
144,385	-5,382	236,654	115,719
145,400	-5,382	236,348	115,558
146,414	-5,348	236,173	115,490
147,429	-5,497	235,990	115,270
148,443	-5,590	235,830	115,107
149,458	-5,539	235,763	115,106
150,473	-5,417	235,540	115,084
151,487	-5,323	235,258	115,011
152,502	-5,555	235,173	114,774
153,516	-5,356	235,075	114,875
154,531	-5,488	234,880	114,664
155,546	-5,573	234,662	114,479
156,560	-5,481	234,483	114,455
157,575	-5,627	234,371	114,274
158,589	-5,478	234,150	114,274
159,604	-5,450	234,020	114,223
160,619	-5,469	233,865	114,122
161,633	-5,162	233,557	114,206
162,648	-5,412	233,531	113,985
163,662	-5,393	233,405	113,928
164,677	-5,566	233,297	113,728
165,692	-5,366	233,022	113,742
166,706	-5,238	232,865	113,757
167,721	-5,233	232,825	113,731
168,735	-5,341	232,689	113,568
169,750	-5,394	232,499	113,424
170,764	-5,456	232,416	113,324
171,779	-5,548	232,252	113,162
172,794	-5,479	232,128	113,145
173,808	-5,399	231,790	113,034
174,823	-5,801	231,539	112,585
175,837	-6,088	231,415	112,290
176,852	-5,658	231,290	112,557
177,867	-5,325	231,173	112,751
178,881	-5,473	231,053	112,566
179,896	-5,169	230,954	112,747
180,910	-5,602	230,789	112,317
181,925	-5,269	230,531	112,441
182,940	-5,335	230,297	112,266
183,954	-5,281	230,427	112,361
184,969	-5,317	230,201	112,213
185,983	-5,136	230,023	112,257
186,998	-5,261	229,831	112,056
188,013	-5,309	229,667	111,929
189,027	-5,040	229,448	112,021
190,042	-5,269	229,404	111,812
191,056	-4,974	229,155	111,910
192,071	-5,192	229,058	111,683
193,086	-5,261	228,881	111,533
194,100	-5,177	228,689	111,495
195,115	-5,312	228,453	111,265
196,129	-6,050	228,382	110,649
197,144	-2,981	229,255	113,446
198,159	1,432	230,512	117,496
199,173	3,770	230,894	119,500
200,188	3,922	230,919	119,620
201,202	4,058	230,645	119,573
202,217	4,093	230,647	119,591
203,232	4,235	230,570	119,650
204,246	4,375	230,254	119,584
205,261	4,345	230,207	119,526
206,275	4,533	230,196	119,655
207,290	4,585	229,999	119,583
208,304	4,534	229,885	119,473
209,319	4,423	229,522	119,188
210,334	4,341	229,447	119,075
211,348	4,468	229,198	119,033
212,363	3,972	228,917	118,495
213,377	3,795	228,599	118,183
214,392	3,512	228,601	117,956
215,407	3,615	228,492	117,968
216,421	3,773	228,358	118,010
217,436	3,749	228,150	117,874
218,450	3,514	228,017	117,614
219,465	3,370	227,839	117,402
220,480	3,469	227,737	117,414
221,494	3,335	227,551	117,205
222,509	3,628	227,400	117,342
223,523	3,569	227,231	117,198
224,538	3,367	227,106	116,969
225,553	3,656	226,879	117,062
226,567	3,966	226,829	117,262
227,582	4,038	226,767	117,276
228,596	4,083	226,670	117,249
229,611	3,769	226,286	116,801
230,626	3,428	226,177	116,475
231,640	3,542	225,921	116,420
232,655	3,994	225,860	116,721
233,669	4,177	225,928	116,884
234,684	4,175	225,908	116,862
235,699	4,104	225,668	116,674
236,713	3,668	225,483	116,237
237,728	3,560	225,258	116,030
238,742	3,528	225,066	115,896
239,757	3,730	224,770	115,885
240,772	3,825	224,571	115,844
241,786	3,575	224,570	115,645
242,801	3,956	224,488	115,879
243,815	3,952	224,628	115,938
244,830	3,955	224,455	115,841
245,844	3,809	224,016	115,494
246,859	3,632	223,887	115,284
247,874	3,761	223,867	115,361
248,888	4,027	223,508	115,365
249,903	3,770	223,396	115,105
250,917	3,707	223,348	115,022
251,932	3,774	223,128	114,949
252,947	3,716	222,970	114,813
253,961	3,421	222,819	114,506
254,976	3,625	222,751	114,613
255,990	3,776	222,609	114,642
257,005	3,666	222,420	114,452
258,020	3,860	222,369	114,560
259,034	4,174	222,258	114,727
260,049	4,069	222,093	114,553
261,063	3,854	221,804	114,234
262,078	4,158	221,754	114,424
263,093	4,071	221,683	114,313
264,107	4,051	221,616	114,253
265,122	4,101	221,408	114,173
266,136	4,340	221,214	114,239
267,151	4,095	221,079	113,978
268,166	3,695	220,862	113,560
269,180	3,633	220,542	113,341
270,195	3,643	220,592	113,363
271,209	3,668	220,228	113,185
272,224	3,540	220,210	113,071
273,239	3,592	220,224	113,106
274,253	3,736	219,966	113,069
275,268	3,384	219,757	112,694
276,282	3,340	219,681	112,611
277,297	3,328	219,549	112,525
278,312	3,573	219,291	112,563
279,326	3,664	219,268	112,608
280,341	3,733	219,084	112,553
281,355	3,720	219,082	112,533
282,370	3,664	218,817	112,346
283,384	3,290	218,604	111,953
284,399	3,019	218,485	111,684
285,414	3,457	218,338	111,919
286,428	3,456	218,346	111,913
287,443	3,817	218,099	112,039
288,457	3,661	218,086	111,909
289,472	3,696	217,934	111,846
290,487	3,213	217,590	111,309
291,501	3,035	217,605	111,177
292,516	3,192	217,460	111,207
293,530	3,355	217,296	111,231
294,545	3,267	217,160	111,088
295,560	3,404	217,102	111,147
296,574	3,539	216,941	111,153
297,589	3,702	216,762	111,170
298,603	3,537	216,635	110,975
299,618	3,500	216,570	110,905
300,633	3,417	216,381	110,738
301,647	3,914	216,207	110,999
302,662	3,916	216,262	111,018
303,676	3,864	216,077	110,875
304,691	4,167	215,936	111,012
305,706	4,122	215,665	110,830
306,720	4,105	215,591	110,770
307,735	3,788	215,362	110,414
308,749	3,736	215,156	110,262
309,764	3,686	215,150	110,213
310,779	4,142	215,044	110,476
311,793	4,026	214,855	110,286
312,808	3,707	214,725	109,981
313,822	3,675	214,565	109,867
314,837	3,894	214,369	109,913
315,852	3,612	214,187	109,608
316,866	3,738	214,101	109,645
317,881	3,839	214,053	109,682
318,895	4,036	213,959	109,764
319,910	3,584	213,784	109,343
320,925	3,236	213,441	108,910
321,939	2,973	213,327	108,655
322,954	3,297	213,212	108,818
323,968	3,809	213,262	109,197
324,983	3,706	213,161	109,062
325,997	3,860	213,017	109,089
327,012	3,928	212,869	109,051
328,027	3,686	212,654	108,760
329,041	3,844	212,682	108,877
330,056	3,900	212,549	108,839
331,070	3,544	212,375	108,487
332,085	3,359	212,180	108,248
333,100	3,678	211,895	108,318
334,114	3,773	211,877	108,365
335,129	3,727	211,697	108,232
336,143	3,476	211,556	107,973
337,158	3,698	211,376	108,028
338,173	3,457	211,397	107,859
339,187	3,356	211,264	107,710
340,202	3,183	210,983	107,437
341,216	3,430	210,826	107,520
342,231	3,624	210,785	107,626
343,246	3,328	210,655	107,342
344,260	3,460	210,516	107,355
345,275	3,554	210,347	107,324
346,289	3,604	210,212	107,281
347,304	3,873	210,142	107,424
348,319	3,540	209,908	107,061
349,333	3,720	209,924	107,186
350,348	3,858	209,719	107,168
351,362	3,651	209,688	106,999
352,377	3,821	209,551	107,038
353,392	3,721	209,419	106,891
354,406	3,716	209,128	106,730
355,421	194,421	1343,841	1430,713
356,435	155,174	1482,172	1430,802
