DTS Sentinel unit serial number:	SN410029Multiplexer serial number:	ORYXHardware model number:	OX2-SRSoftware version number:	ORYX F/W v4,00 Oryx Data Collector v3.7.2.0data status	okinstallation	B6 Nyhavnadifferential loss correction	single-endedforward channel	channel 2reverse channel	N/Adate	2023/12/09time	13:25:08forward acquisition time	300,00reverse acquisition time	0,00gamma	499,1914k internal	0,3136k external	0,3136temperature offset calibration	1,0000default loss term (dB/km)	0,3820temperature slope calibration	1,0000multiplexer offset coefficient	1,0000multiplexer slope coefficient	1,0000fibre end	0,00T internal ref (°C)	20,13T ext. ref 1 (°C)	4,67T ext. ref 2 (°C)	4,67length (m)	temperature (°C)	Stokes	anti-Stokes-744,400	-91,876	0,105	-0,022
-743,385	-53,621	-0,148	0,050
-742,371	228,350	0,123	0,149
-741,356	118,955	-0,216	0,198
-740,342	-180,868	0,159	0,002
-739,327	-152,412	-0,239	0,013
-738,312	467,697	0,017	0,028
-737,298	-44,849	-0,054	-0,020
-736,283	107,888	0,079	0,070
-735,269	31,243	-0,182	0,116
-734,254	-47,489	0,118	0,042
-733,239	-153,552	-0,355	0,018
-732,225	-20,742	0,182	-0,083
-731,210	-139,374	0,037	-0,003
-730,196	125,214	-0,034	-0,032
-729,181	-200,000	0,007	-0,030
-728,167	-25,182	-0,106	0,046
-727,152	-200,000	0,015	0,081
-726,137	-200,000	0,036	0,120
-725,123	-94,433	-0,304	-0,061
-724,108	214,456	0,041	-0,048
-723,094	4,589	-0,111	-0,060
-722,079	42,597	-0,033	-0,022
-721,064	-200,000	-0,006	0,068
-720,050	-29,136	-0,090	0,038
-719,035	-20,161	-0,050	-0,023
-718,021	-200,000	0,032	-0,118
-717,006	-146,883	-0,134	-0,008
-715,991	800,000	-0,044	-0,130
-714,977	800,000	-0,019	0,040
-713,962	-200,000	0,001	0,036
-712,948	109,958	-0,102	-0,091
-711,933	224,681	0,125	-0,150
-710,918	800,000	0,034	0,076
-709,904	137,640	-0,075	0,073
-708,889	-114,842	-0,085	0,012
-707,875	-200,000	0,012	-0,063
-706,860	124,110	0,093	-0,087
-705,845	23,473	0,114	-0,069
-704,831	-136,145	-0,025	-0,002
-703,816	-200,000	-0,018	-0,068
-702,802	298,928	0,052	0,071
-701,787	-200,000	-0,005	-0,055
-700,772	326,563	-0,088	-0,125
-699,758	-200,000	-0,001	-0,036
-698,743	800,000	-0,013	0,036
-697,729	800,000	0,060	0,167
-696,714	800,000	0,028	0,074
-695,699	-67,136	-0,166	-0,048
-694,685	670,473	0,078	-0,150
-693,670	663,330	-0,044	-0,085
-692,656	785,962	-0,048	0,098
-691,641	-49,982	0,036	-0,012
-690,627	192,848	0,029	-0,033
-689,612	239,573	-0,019	0,023
-688,597	139,843	-0,022	-0,021
-687,583	102,570	-0,095	-0,082
-686,568	323,542	-0,038	0,054
-685,554	-200,000	0,011	-0,043
-684,539	-200,000	-0,006	-0,214
-683,524	127,309	0,083	-0,078
-682,510	-13,860	-0,046	0,022
-681,495	47,035	0,025	0,017
-680,481	-34,483	0,056	-0,022
-679,466	-200,000	-0,030	-0,161
-678,451	310,866	0,036	0,050
-677,437	-200,000	0,015	0,082
-676,422	-200,000	-0,013	0,138
-675,408	-200,000	-0,000	0,077
-674,393	25,090	0,027	0,017
-673,378	17,575	0,048	-0,028
-672,364	-62,232	-0,049	-0,015
-671,349	-170,442	-0,101	0,003
-670,335	331,191	0,050	-0,071
-669,320	-98,707	0,083	-0,015
-668,305	-200,000	0,007	0,037
-667,291	-200,000	0,006	0,046
-666,276	-112,362	0,109	-0,016
-665,262	-131,499	0,067	-0,006
-664,247	-200,000	0,002	0,173
-663,232	-1,230	0,088	-0,046
-662,218	774,151	0,014	-0,028
-661,203	-38,691	-0,073	-0,028
-660,189	160,522	0,106	-0,110
-659,174	307,736	0,063	-0,087
-658,159	306,092	0,030	-0,042
-657,145	-142,290	-0,110	-0,008
-656,130	331,849	-0,048	-0,069
-655,116	358,790	-0,049	0,073
-654,101	67,666	-0,042	-0,032
-653,086	44,819	-0,142	-0,096
-652,072	-200,000	0,000	-0,020
-651,057	800,000	0,026	-0,055
-650,043	-146,295	-0,130	-0,008
-649,028	800,000	-0,036	0,085
-648,014	37,881	-0,022	0,015
-646,999	387,503	0,062	0,095
-645,984	-200,000	0,015	-0,059
-644,970	-200,000	0,014	-0,111
-643,955	37,996	0,060	0,040
-642,941	-200,000	-0,010	0,065
-641,926	438,098	-0,064	-0,104
-640,911	-200,000	0,006	0,131
-639,897	800,000	0,025	-0,055
-638,882	-64,140	0,080	-0,024
-637,868	670,307	0,047	-0,090
-636,853	64,826	-0,083	-0,062
-635,838	-63,145	-0,086	0,026
-634,824	-200,000	0,016	0,107
-633,809	228,934	-0,093	0,113
-632,795	800,000	-0,036	0,114
-631,780	-9,984	0,126	0,062
-630,765	28,562	-0,148	-0,092
-629,751	266,133	-0,072	-0,094
-628,736	366,326	-0,087	-0,131
-627,722	353,443	-0,075	0,110
-626,707	125,200	0,024	-0,022
-625,692	-97,032	0,120	0,023
-624,678	15,628	-0,045	-0,026
-623,663	286,194	0,038	-0,051
-622,649	48,123	-0,126	-0,087
-621,634	429,381	-0,022	-0,035
-620,619	-77,845	-0,100	-0,025
-619,605	800,000	-0,024	0,051
-618,590	-37,901	0,089	0,035
-617,576	-200,000	0,009	0,192
-616,561	400,800	0,046	0,071
-615,546	-139,114	-0,152	-0,012
-614,532	-133,075	-0,134	-0,012
-613,517	-187,520	-0,067	0,001
-612,503	800,000	0,039	0,090
-611,488	27,399	0,101	-0,062
-610,474	90,341	0,186	0,153
-609,459	-34,181	0,062	-0,025
-608,444	8,781	-0,093	-0,052
-607,430	-64,325	-0,117	0,035
-606,415	-200,000	-0,027	0,133
-605,401	493,788	0,058	0,098
-604,386	314,202	-0,052	0,073
-603,371	-79,811	0,210	-0,052
-602,357	-67,198	-0,026	0,007
-601,342	-200,000	-0,006	-0,035
-600,328	647,077	0,034	-0,064
-599,313	-148,386	-0,167	0,010
-598,298	13,350	-0,049	0,028
-597,284	800,000	-0,023	-0,061
-596,269	-168,715	-0,065	-0,002
-595,255	153,827	0,025	-0,025
-594,240	-67,319	-0,117	0,034
-593,225	226,114	-0,083	-0,100
-592,211	-200,000	-0,038	-0,164
-591,196	60,576	0,106	-0,077
-590,182	101,371	0,062	-0,053
-589,167	287,240	0,054	0,072
-588,152	-40,464	0,104	-0,040
-587,138	-200,000	0,021	-0,091
-586,123	9,734	-0,050	-0,028
-585,109	-68,899	-0,066	0,019
-584,094	-89,276	-0,105	-0,023
-583,079	-5,318	0,040	0,020
-582,065	106,685	0,058	-0,051
-581,050	-53,032	-0,068	-0,023
-580,036	-75,648	0,240	0,062
-579,021	800,000	-0,041	-0,127
-578,006	800,000	-0,046	-0,145
-576,992	-46,313	-0,041	-0,015
-575,977	27,255	0,084	-0,052
-574,963	-127,088	0,003	-0,000
-573,948	82,719	0,205	0,164
-572,934	-200,000	0,026	0,102
-571,919	-182,913	-0,139	0,002
-570,904	545,341	0,028	-0,049
-569,890	279,376	-0,027	-0,036
-568,875	358,953	0,043	-0,063
-567,861	-49,315	-0,016	-0,006
-566,846	362,764	-0,026	-0,038
-565,831	-200,000	0,015	-0,075
-564,817	297,703	-0,034	-0,046
-563,802	-200,000	-0,041	-0,197
-562,788	-200,000	-0,008	-0,067
-561,773	-138,570	0,070	-0,006
-560,758	800,000	-0,062	0,154
-559,744	137,219	0,087	-0,084
-558,729	33,026	0,095	-0,060
-557,715	184,083	-0,081	0,088
-556,700	192,949	-0,058	0,064
-555,685	-200,000	-0,005	0,036
-554,671	-188,172	-0,177	-0,002
-553,656	-200,000	0,042	0,150
-552,642	435,176	0,048	-0,078
-551,627	66,352	-0,031	0,023
-550,612	800,000	-0,055	-0,120
-549,598	-162,383	0,167	-0,006
-548,583	109,170	0,033	-0,029
-547,569	-200,000	0,016	-0,074
-546,554	800,000	0,023	0,066
-545,539	-71,169	0,087	-0,024
-544,525	459,273	-0,084	0,139
-543,510	-154,528	-0,089	0,004
-542,496	-200,000	0,013	0,073
-541,481	224,079	0,012	-0,014
-540,466	-167,688	-0,079	0,002
-539,452	118,038	0,122	0,111
-538,437	467,226	-0,043	-0,071
-537,423	162,965	0,031	-0,032
-536,408	24,949	-0,051	-0,031
-535,393	-4,555	0,043	-0,022
-534,379	-200,000	0,031	-0,130
-533,364	382,533	-0,093	-0,142
-532,350	-117,668	0,086	0,011
-531,335	75,894	0,077	-0,060
-530,321	86,123	-0,049	0,040
-529,306	-200,000	0,009	0,086
-528,291	-128,015	0,128	0,013
-527,277	-61,501	0,149	-0,046
-526,262	193,782	0,029	-0,032
-525,248	-200,000	-0,008	0,132
-524,233	800,000	-0,020	0,058
-523,218	143,719	0,091	-0,089
-522,204	-68,162	-0,073	-0,021
-521,189	-200,000	-0,006	0,119
-520,175	284,571	-0,081	0,107
-519,160	-94,002	0,047	-0,009
-518,145	-200,000	-0,045	-0,151
-517,131	-182,974	-0,056	0,001
-516,116	-119,155	0,120	-0,015
-515,102	125,802	0,084	-0,078
-514,087	-200,000	-0,021	0,068
-513,072	78,893	-0,127	-0,100
-512,058	800,000	0,022	-0,065
-511,043	800,000	-0,053	-0,162
-510,029	111,504	0,103	0,092
-509,014	-200,000	0,018	0,120
-507,999	-101,623	-0,007	0,001
-506,985	-159,400	-0,031	0,001
-505,970	-75,287	-0,119	-0,031
-504,956	-200,000	-0,006	-0,123
-503,941	-77,501	0,186	0,047
-502,926	256,517	0,070	0,089
-501,912	-121,215	0,105	0,013
-500,897	-200,000	-0,025	-0,101
-499,883	800,000	0,026	-0,079
-498,868	127,424	0,107	-0,100
-497,853	442,746	-0,051	-0,083
-496,839	179,945	-0,118	0,127
-495,824	-63,886	0,138	0,041
-494,810	-200,000	-0,021	-0,092
-493,795	-200,000	-0,003	-0,050
-492,781	-31,990	0,050	-0,021
-491,766	-200,000	-0,002	-0,122
-490,751	247,373	0,020	0,025
-489,737	207,047	-0,059	-0,068
-488,722	-200,000	0,023	0,170
-487,708	-30,763	0,043	-0,018
-486,693	-158,802	-0,116	-0,005
-485,678	-200,000	0,007	0,042
-484,664	73,208	0,033	0,026
-483,649	-41,397	-0,094	-0,035
-482,635	800,000	0,017	0,056
-481,620	800,000	0,029	0,065
-480,605	1,706	0,088	0,046
-479,591	-60,172	0,023	0,007
-478,576	-200,000	-0,000	0,013
-477,562	45,343	-0,042	-0,028
-476,547	65,808	0,096	-0,071
-475,532	-200,000	-0,001	-0,082
-474,518	28,499	-0,080	0,049
-473,503	-14,166	0,118	0,055
-472,489	-42,042	-0,032	-0,012
-471,474	30,569	0,029	0,018
-470,459	800,000	0,010	-0,033
-469,445	-200,000	-0,019	0,072
-468,430	800,000	0,034	0,073
-467,416	800,000	0,044	-0,104
-466,401	647,931	0,016	0,030
-465,386	-120,009	0,114	0,014
-464,372	517,392	0,063	0,108
-463,357	-135,934	0,176	-0,015
-462,343	-200,000	-0,005	-0,041
-461,328	-200,000	0,004	-0,030
-460,313	767,558	-0,049	-0,097
-459,299	-158,678	0,110	-0,005
-458,284	-200,000	0,026	0,179
-457,270	-67,704	0,016	-0,005
-456,255	30,887	-0,126	-0,079
-455,241	-200,000	0,006	0,033
-454,226	-28,522	-0,138	0,058
-453,211	252,161	-0,057	0,072
-452,197	-44,915	0,045	0,016
-451,182	-81,621	0,038	0,009
-450,168	-45,732	0,004	-0,001
-449,153	-16,412	-0,068	-0,031
-448,138	25,980	-0,196	0,119
-447,124	-17,667	0,103	-0,047
-446,109	-200,000	-0,006	-0,065
-445,095	-182,815	0,084	-0,001
-444,080	-200,000	-0,002	0,075
-443,065	-150,809	-0,126	0,007
-442,051	-200,000	0,028	0,125
-441,036	149,317	-0,047	-0,047
-440,022	174,231	0,013	-0,013
-439,007	800,000	0,026	-0,061
-437,992	-4,550	0,177	0,089
-436,978	-48,388	-0,050	-0,018
-435,963	481,782	0,021	-0,035
-434,949	150,695	-0,030	-0,030
-433,934	306,407	0,048	-0,066
-432,919	331,709	0,106	-0,150
-431,905	-200,000	-0,033	0,135
-430,890	-200,000	0,019	0,094
-429,876	96,663	-0,113	0,095
-428,861	210,872	0,094	-0,109
-427,846	-200,000	-0,012	0,051
-426,832	-58,101	-0,105	-0,033
-425,817	183,183	-0,024	0,026
-424,803	-200,000	-0,014	-0,087
-423,788	-10,236	0,166	0,081
-422,773	341,225	-0,027	0,038
-421,759	800,000	0,007	-0,022
-420,744	800,000	0,036	0,093
-419,730	-39,519	-0,113	0,043
-418,715	16,449	-0,065	0,038
-417,701	585,712	0,031	-0,056
-416,686	29,519	-0,090	0,056
-415,671	800,000	-0,045	0,096
-414,657	-200,000	0,001	0,077
-413,642	-200,000	0,012	0,042
-412,628	26,644	-0,064	-0,039
-411,613	-200,000	0,016	-0,097
-410,598	800,000	0,042	-0,132
-409,584	-3,918	0,078	-0,040
-408,569	69,837	0,094	0,071
-407,555	50,308	0,049	0,034
-406,540	455,068	-0,031	0,051
-405,525	342,928	-0,036	0,052
-404,511	285,705	0,075	-0,100
-403,496	349,148	-0,098	-0,142
-402,482	-1,362	-0,043	-0,022
-401,467	93,266	0,045	-0,037
-400,452	0,704	0,014	0,007
-399,438	76,508	0,053	-0,041
-398,423	-200,000	-0,037	0,146
-397,409	-200,000	-0,010	-0,122
-396,394	554,613	-0,109	0,192
-395,379	-11,228	0,136	-0,065
-394,365	26,158	-0,080	0,049
-393,350	-49,230	0,042	-0,015
-392,336	-110,429	0,049	-0,007
-391,321	103,629	-0,049	-0,042
-390,306	-200,000	-0,024	-0,134
-389,292	-153,071	-0,031	-0,002
-388,277	283,587	-0,022	-0,029
-387,263	-200,000	0,032	0,105
-386,248	-82,953	0,124	0,029
-385,233	-61,420	0,025	0,008
-384,219	107,721	0,054	-0,047
-383,204	800,000	0,008	-0,020
-382,190	124,973	0,136	0,126
-381,175	-88,791	-0,254	0,055
-380,160	33,638	0,036	-0,023
-379,146	571,589	0,049	0,087
-378,131	266,205	-0,062	0,079
-377,117	-48,009	0,044	0,016
-376,102	579,443	0,017	-0,031
-375,088	800,000	-0,023	-0,062
-374,073	-200,000	-0,006	-0,062
-373,058	429,640	0,039	-0,062
-372,044	-200,000	0,037	0,179
-371,029	-200,000	0,010	-0,120
-370,015	-149,240	-0,090	0,005
-369,000	-104,897	-0,103	-0,017
-367,985	-186,920	0,066	-0,001
-366,971	247,955	-0,109	0,135
-365,956	-200,000	-0,028	0,100
-364,942	-58,802	0,096	0,030
-363,927	355,502	-0,038	0,055
-362,912	-173,637	0,062	-0,001
-361,898	88,326	0,059	-0,048
-360,883	23,396	-0,084	0,050
-359,869	-110,349	-0,098	-0,015
-358,854	-200,000	-0,005	-0,063
-357,839	451,392	-0,014	0,023
-356,825	-200,000	0,012	0,044
-355,810	66,331	-0,094	-0,070
-354,796	-102,792	0,059	0,010
-353,781	140,339	-0,095	0,092
-352,766	82,029	0,072	-0,057
-351,752	-139,414	0,151	0,012
-350,737	800,000	0,008	-0,018
-349,723	-38,753	0,051	-0,019
-348,708	800,000	-0,037	0,076
-347,693	800,000	-0,037	0,083
-346,679	-20,011	0,183	-0,082
-345,664	105,951	-0,019	-0,016
-344,650	-35,689	-0,134	-0,053
-343,635	-200,000	-0,005	0,044
-342,620	203,690	0,080	0,091
-341,606	-200,000	0,012	-0,074
-340,591	143,549	-0,084	-0,081
-339,577	310,294	-0,068	-0,094
-338,562	23,002	-0,147	-0,088
-337,548	260,251	-0,021	0,027
-336,533	-15,234	-0,130	0,060
-335,518	59,269	0,059	-0,042
-334,504	-200,000	-0,003	0,038
-333,489	82,872	-0,044	-0,035
-332,475	800,000	0,049	-0,143
-331,460	-144,735	-0,181	0,012
-330,445	-200,000	-0,018	-0,144
-329,431	-39,139	0,064	0,025
-328,416	34,047	-0,015	0,010
-327,402	99,575	0,116	0,098
-326,387	411,093	-0,004	-0,007
-325,372	-200,000	0,010	-0,098
-324,358	800,000	0,056	-0,139
-323,343	-121,928	0,055	-0,006
-322,329	-200,000	0,013	0,077
-321,314	-200,000	0,017	-0,074
-320,299	300,310	0,102	0,138
-319,285	-74,144	0,006	-0,002
-318,270	-169,286	-0,104	-0,003
-317,256	514,867	-0,083	-0,141
-316,241	-97,253	0,122	0,023
-315,226	231,158	0,070	0,084
-314,212	134,352	0,054	0,051
-313,197	-41,361	-0,031	-0,012
-312,183	-200,000	0,020	-0,125
-311,168	800,000	-0,008	-0,020
-310,153	-10,979	0,080	-0,038
-309,139	-95,529	0,061	0,012
-308,124	53,339	0,029	0,020
-307,110	-73,773	0,154	0,040
-306,095	800,000	-0,009	-0,022
-305,080	-150,401	0,100	-0,006
-304,066	687,812	0,078	-0,149
-303,051	-35,103	-0,142	-0,056
-302,037	4,594	-0,154	-0,082
-301,022	800,000	-0,055	0,159
-300,008	53,277	0,044	0,031
-298,993	-200,000	-0,011	0,090
-297,978	596,417	0,023	0,042
-296,964	-30,630	0,123	0,051
-295,949	142,624	0,016	0,016
-294,935	-57,495	0,026	-0,008
-293,920	-200,000	0,014	-0,064
-292,905	-57,114	0,055	-0,017
-291,891	199,681	-0,155	0,174
-290,876	4,617	0,070	0,037
-289,862	-63,308	-0,127	0,038
-288,847	75,102	-0,078	0,060
-287,832	-200,000	0,000	-0,030
-286,818	-127,123	-0,087	0,009
-285,803	800,000	-0,009	-0,020
-284,789	800,000	0,059	0,121
-283,774	-118,595	-0,081	-0,010
-282,759	-200,000	-0,011	-0,038
-281,745	384,540	0,103	-0,156
-280,730	62,561	0,013	-0,009
-279,716	172,422	0,051	0,053
-278,701	-186,452	-0,043	-0,000
-277,686	697,781	0,064	0,123
-276,672	540,838	0,104	0,181
-275,657	429,704	-0,059	0,093
-274,643	-200,000	-0,001	0,124
-273,628	-171,090	0,034	0,001
-272,613	-200,000	-0,002	0,043
-271,599	175,494	-0,046	-0,049
-270,584	628,931	-0,035	0,065
-269,570	269,791	0,041	0,053
-268,555	-21,224	-0,013	-0,006
-267,540	-200,000	-0,006	-0,057
-266,526	-200,000	0,008	0,055
-265,511	-96,654	0,069	-0,013
-264,497	-150,241	-0,039	0,002
-263,482	16,123	0,068	0,039
-262,467	800,000	0,059	-0,184
-261,453	-200,000	-0,015	0,101
-260,438	87,426	-0,149	-0,120
-259,424	-32,894	-0,115	-0,046
-258,409	-132,668	0,076	-0,007
-257,395	433,542	-0,100	0,159
-256,380	304,753	-0,110	0,149
-255,365	-200,000	0,001	-0,031
-254,351	375,238	0,091	0,135
-253,336	-193,912	0,061	-0,000
-252,322	670,953	-0,043	-0,081
-251,307	26,636	-0,161	-0,098
-250,292	800,000	0,020	-0,049
-249,278	-200,000	-0,001	0,051
-248,263	-200,000	-0,006	0,074
-247,249	-147,464	0,127	-0,008
-246,234	-200,000	-0,035	0,129
-245,219	-200,000	-0,005	0,069
-244,205	800,000	-0,018	-0,044
-243,190	-200,000	0,007	0,028
-242,176	-200,000	0,023	0,086
-241,161	359,296	0,058	0,085
-240,146	-200,000	-0,012	0,056
-239,132	-15,440	-0,047	-0,022
-238,117	-69,662	-0,127	0,035
-237,103	164,200	-0,077	-0,079
-236,088	366,391	0,063	0,093
-235,073	51,266	0,046	0,032
-234,059	-200,000	0,025	-0,103
-233,044	160,023	0,134	0,136
-232,030	246,701	0,036	0,044
-231,015	152,583	-0,086	-0,085
-230,000	-200,000	-0,004	-0,029
-228,986	170,311	-0,048	-0,050
-227,971	-58,555	0,151	0,047
-226,957	-68,000	0,143	0,040
-225,942	-200,000	-0,054	0,238
-224,927	103,507	0,127	-0,108
-223,913	128,263	0,044	-0,041
-222,898	-200,000	-0,012	-0,038
-221,884	139,795	0,129	-0,123
-220,869	800,000	0,052	-0,110
-219,855	139,469	-0,066	-0,063
-218,840	371,517	-0,090	0,133
-217,825	-38,054	0,115	0,044
-216,811	-200,000	0,016	-0,246
-215,796	49,410	-0,146	-0,100
-214,782	155,092	0,063	0,063
-213,767	800,000	0,045	0,117
-212,752	800,000	-0,038	0,097
-211,738	-123,665	0,088	-0,010
-210,723	-195,659	0,098	0,001
-209,709	-125,543	-0,152	0,017
-208,694	182,255	-0,166	-0,178
-207,679	10,010	0,044	0,024
-206,665	50,411	0,040	0,027
-205,650	-50,370	0,053	-0,018
-204,636	75,236	-0,074	0,057
-203,621	-53,963	-0,074	-0,024
-202,606	800,000	0,017	-0,034
-201,592	-200,000	-0,076	-0,307
-200,577	141,387	-0,050	-0,048
-199,563	-200,000	-0,024	0,106
-198,548	-16,287	-0,017	0,008
-197,533	-26,083	0,028	0,012
-196,519	-200,000	0,001	0,050
-195,504	-200,000	-0,024	-0,112
-194,490	800,000	-0,028	-0,066
-193,475	450,987	0,044	-0,071
-192,460	800,000	0,011	0,029
-191,446	-68,529	-0,063	0,018
-190,431	800,000	-0,041	0,127
-189,417	800,000	-0,036	0,082
-188,402	116,669	-0,078	0,070
-187,387	283,982	-0,034	0,045
-186,373	-99,660	0,056	-0,010
-185,358	163,252	-0,121	0,124
-184,344	-17,805	0,050	0,023
-183,329	-46,120	-0,081	0,029
-182,315	-38,281	-0,092	0,035
-181,300	474,388	-0,091	-0,150
-180,285	800,000	0,022	-0,060
-179,271	703,997	0,043	-0,082
-178,256	-153,920	-0,074	-0,004
-177,242	-112,248	0,009	0,001
-176,227	-200,000	-0,034	0,115
-175,212	800,000	-0,052	0,112
-174,198	-20,811	-0,178	-0,079
-173,183	89,547	0,075	-0,061
-172,169	126,103	-0,070	-0,064
-171,154	735,664	-0,011	-0,021
-170,139	-56,581	0,125	0,040
-169,125	69,679	0,062	-0,046
-168,110	800,000	0,042	0,116
-167,096	-22,977	-0,138	0,060
-166,081	323,600	-0,064	-0,089
-165,066	-200,000	0,002	-0,007
-164,052	-22,756	0,247	-0,108
-163,037	-200,000	-0,001	0,073
-162,023	441,311	0,022	-0,035
-161,008	699,842	-0,039	-0,075
-159,993	800,000	-0,031	0,070
-158,979	-200,000	-0,020	-0,098
-157,964	37,304	-0,103	-0,066
-156,950	-189,265	0,052	0,000
-155,935	-200,000	0,004	-0,032
-154,920	-200,000	0,017	-0,071
-153,906	188,692	-0,058	-0,063
-152,891	94,550	-0,115	-0,094
-151,877	-139,810	-0,047	0,004
-150,862	293,678	-0,067	-0,089
-149,847	800,000	0,041	0,126
-148,833	-200,000	0,038	0,147
-147,818	-88,936	0,215	0,046
-146,804	-200,000	-0,013	0,056
-145,789	-104,327	0,082	-0,014
-144,775	68,827	-0,040	-0,030
-143,760	800,000	0,070	-0,145
-142,745	513,587	0,086	-0,146
-141,731	-200,000	-0,023	-0,167
-140,716	240,734	-0,107	0,130
-139,702	142,875	0,156	-0,151
-138,687	-121,799	-0,106	0,013
-137,672	466,286	-0,040	0,066
-136,658	-200,000	-0,021	-0,244
-135,643	-200,000	-0,026	-0,143
-134,629	87,976	-0,059	0,047
-133,614	33,993	0,147	0,092
-132,599	-115,862	-0,070	-0,009
-131,585	-200,000	-0,021	0,077
-130,570	-95,745	0,065	0,012
-129,556	-83,884	-0,195	0,045
-128,541	-118,664	0,134	-0,017
-127,526	348,789	0,015	0,022
-126,512	800,000	-0,024	0,061
-125,497	-200,000	-0,001	0,119
-124,483	-5,544	-0,113	0,056
-123,468	138,780	0,049	0,046
-122,453	-200,000	-0,022	-0,088
-121,439	144,958	-0,081	0,079
-120,424	-32,274	-0,077	0,031
-119,410	-158,169	0,092	-0,004
-118,395	800,000	-0,022	0,069
-117,380	0,935	0,133	0,069
-116,366	-145,748	-0,051	0,003
-115,351	-41,550	-0,070	-0,026
-114,337	-200,000	0,002	-0,012
-113,322	107,650	-0,073	-0,063
-112,307	-200,000	-0,011	0,082
-111,293	145,988	-0,040	-0,039
-110,278	-26,240	0,109	-0,046
-109,264	-200,000	0,004	0,102
-108,249	183,665	-0,051	0,055
-107,234	66,072	0,067	0,049
-106,220	-5,836	0,136	-0,067
-105,205	800,000	-0,020	0,045
-104,191	800,000	-0,047	-0,133
-103,176	-28,134	0,154	0,064
-102,162	11,024	0,067	0,037
-101,147	0,221	-0,094	0,048
-100,132	125,113	-0,064	-0,058
-99,118	800,000	-0,047	-0,107
-98,103	-96,193	0,201	0,038
-97,089	-62,213	0,097	-0,029
-96,074	237,372	-0,038	-0,046
-95,059	-42,938	0,067	0,024
-94,045	-200,000	-0,012	-0,049
-93,030	-200,000	0,003	-0,084
-92,016	595,403	0,049	0,089
-91,001	800,000	-0,040	0,114
-89,986	-200,000	0,044	-0,156
-88,972	-72,087	0,084	-0,022
-87,957	529,581	-0,059	0,102
-86,943	-200,000	-0,023	0,094
-85,928	-22,586	-0,071	0,031
-84,913	-200,000	-0,010	-0,040
-83,899	-0,858	0,050	-0,025
-82,884	35,128	0,043	-0,027
-81,870	-200,000	0,015	0,117
-80,855	-62,833	-0,029	-0,009
-79,840	800,000	0,014	-0,029
-78,826	19,833	-0,090	-0,052
-77,811	134,262	0,136	-0,127
-76,797	-200,000	0,008	0,043
-75,782	170,947	0,091	0,095
-74,767	-200,000	0,011	0,087
-73,753	-200,000	-0,006	-0,027
-72,738	141,138	0,054	0,052
-71,724	48,963	-0,034	0,023
-70,709	387,914	-0,007	0,011
-69,694	463,299	-0,057	0,093
-68,680	-66,743	0,096	0,027
-67,665	-200,000	-0,001	-0,033
-66,651	90,389	-0,046	0,037
-65,636	-96,516	-0,101	0,019
-64,622	364,547	0,064	0,093
-63,607	-90,251	-0,094	0,020
-62,592	800,000	-0,018	0,055
-61,578	800,000	0,051	0,151
-60,563	-91,188	0,152	-0,031
-59,549	144,883	0,033	0,032
-58,534	-81,542	-1,715	-0,404
-57,519	756,905	-0,640	-1,258
-56,505	-200,000	-1,203	-4,608
-55,490	-60,846	0,600	-0,182
-54,476	800,000	5,288	12,138
-53,461	-200,000	15,101	264,462
-52,446	800,000	700,764	2229,819
-51,432	560,473	1623,272	2845,069
-50,417	119,694	1628,907	1458,082
-49,403	77,646	1283,591	986,613
-48,388	37,349	1022,895	653,624
-47,373	22,597	983,137	579,783
-46,359	21,706	972,180	570,383
-45,344	20,354	967,994	563,492
-44,330	20,458	966,414	562,890
-43,315	20,248	965,087	561,410
-42,300	20,191	964,086	560,620
-41,286	20,172	963,145	559,990
-40,271	20,176	962,054	559,347
-39,257	20,164	961,252	558,818
-38,242	20,158	960,404	558,283
-37,227	20,163	959,601	557,811
-36,213	20,143	958,729	557,218
-35,198	20,182	957,615	556,673
-34,184	20,173	957,084	556,314
-33,169	20,165	956,109	555,698
-32,154	20,174	955,177	555,165
-31,140	20,167	954,398	554,666
-30,125	20,235	953,489	554,335
-29,111	20,113	952,947	553,606
-28,096	20,189	951,973	553,261
-27,082	20,150	951,354	552,755
-26,067	20,202	950,504	552,405
-25,052	20,201	949,731	551,932
-24,038	20,082	949,258	551,254
-23,023	20,136	948,431	550,926
-22,009	20,227	947,839	550,850
-20,994	20,249	947,125	550,482
-19,979	20,160	946,703	549,932
-18,965	20,157	946,100	549,549
-17,950	20,156	945,435	549,141
-16,936	20,083	944,936	548,594
-15,921	20,121	944,283	548,315
-14,906	20,075	943,340	547,598
-13,892	20,100	942,732	547,303
-12,877	20,075	942,073	546,820
-11,863	20,000	941,611	546,292
-10,848	20,015	941,129	546,038
-9,833	20,123	940,601	546,053
-8,819	20,111	940,093	545,698
-7,804	20,027	939,379	544,996
-6,790	20,100	938,679	544,799
-5,775	20,053	938,206	544,356
-4,760	20,025	937,622	543,907
-3,746	20,040	936,982	543,562
-2,731	19,957	935,983	542,697
-1,717	19,846	935,538	542,068
-0,702	19,854	934,829	541,662
0,313	19,715	934,261	541,714
1,327	22,837	932,407	550,395
2,342	32,142	794,061	493,411
3,356	29,678	450,670	276,310
4,371	-0,070	295,810	151,539
5,386	-4,443	276,952	137,707
6,400	-5,339	271,218	134,009
7,415	-5,969	268,997	132,317
8,429	-5,772	267,553	131,776
9,444	-5,882	266,828	131,307
10,459	-5,903	266,110	130,922
11,473	-6,253	265,774	130,426
12,488	-5,980	264,891	130,230
13,502	-6,148	264,327	129,787
14,517	-6,413	263,947	129,349
15,531	-6,299	263,408	129,177
16,546	-6,276	263,288	129,127
17,561	-6,399	262,770	128,751
18,575	-6,275	262,522	128,729
19,590	-6,484	262,214	128,378
20,604	-6,361	261,889	128,319
21,619	-6,391	261,567	128,122
22,634	-6,333	261,312	128,038
23,648	-6,493	260,842	127,653
24,663	-6,509	260,752	127,583
25,677	-6,475	260,398	127,429
26,692	-6,280	260,105	127,449
27,707	-6,597	259,922	127,065
28,721	-6,414	259,590	127,054
29,736	-6,538	259,131	126,708
30,750	-6,592	259,097	126,632
31,765	-6,504	259,008	126,655
32,780	-6,575	258,504	126,335
33,794	-6,484	258,353	126,330
34,809	-6,506	258,064	126,159
35,823	-6,477	257,738	126,013
36,838	-6,577	257,576	125,834
37,853	-6,712	257,368	125,603
38,867	-6,626	257,018	125,496
39,882	-6,559	256,818	125,446
40,896	-6,575	256,680	125,353
41,911	-6,647	256,455	125,169
42,926	-6,712	256,257	125,004
43,940	-6,717	255,920	124,825
44,955	-6,532	255,653	124,846
45,969	-6,791	255,638	124,600
46,984	-7,160	255,274	124,088
47,999	-7,241	255,027	123,886
49,013	-7,319	254,604	123,602
50,028	-7,343	254,376	123,459
51,042	-7,483	254,195	123,237
52,057	-7,579	253,967	123,032
53,071	-7,639	253,692	122,836
54,086	-7,333	253,586	123,040
55,101	-7,312	253,543	123,026
56,115	-6,988	253,412	123,234
57,130	-6,699	253,429	123,482
58,144	-6,244	253,034	123,673
59,159	-6,167	252,898	123,662
60,174	-6,325	252,824	123,478
61,188	-6,269	252,535	123,375
62,203	-6,409	252,331	123,142
63,217	-6,396	251,964	122,964
64,232	-6,372	251,884	122,934
65,247	-6,262	251,737	122,946
66,261	-6,368	251,541	122,748
67,276	-6,360	251,012	122,487
68,290	-6,767	250,862	122,053
69,305	-6,903	250,661	121,827
70,320	-7,124	250,482	121,540
71,334	-6,736	250,496	121,869
72,349	-6,386	250,218	122,022
73,363	-6,347	250,162	122,018
74,378	-6,396	249,838	121,807
75,393	-6,476	249,613	121,618
76,407	-6,589	249,401	121,407
77,422	-6,358	249,130	121,461
78,436	-6,490	249,111	121,329
79,451	-6,249	248,732	121,338
80,466	-6,499	248,561	121,031
81,480	-6,750	248,264	120,663
82,495	-6,726	248,001	120,545
83,509	-6,781	247,873	120,425
84,524	-6,813	247,681	120,294
85,539	-7,113	247,477	119,931
86,553	-7,167	247,314	119,795
87,568	-6,992	247,139	119,847
88,582	-6,960	247,057	119,825
89,597	-6,754	246,644	119,787
90,611	-6,748	246,686	119,801
91,626	-6,534	246,647	119,952
92,641	-6,392	246,282	119,883
93,655	-6,569	245,981	119,577
94,670	-6,466	245,666	119,500
95,684	-6,682	245,724	119,336
96,699	-6,649	245,690	119,337
97,714	-6,863	245,317	118,966
98,728	-6,805	245,088	118,893
99,743	-6,804	244,856	118,770
100,757	-7,005	244,737	118,534
101,772	-6,870	244,448	118,496
102,787	-6,922	244,388	118,414
103,801	-6,764	244,256	118,471
104,816	-6,668	244,050	118,440
105,830	-6,448	244,011	118,594
106,845	-6,515	243,864	118,456
107,860	-6,508	243,569	118,308
108,874	-6,606	243,397	118,132
109,889	-6,737	243,167	117,902
110,903	-6,554	242,862	117,895
111,918	-6,824	242,777	117,619
112,933	-6,772	242,683	117,606
113,947	-6,563	242,600	117,729
114,962	-6,611	242,364	117,564
115,976	-6,600	242,061	117,415
116,991	-6,500	241,816	117,368
118,006	-6,550	241,660	117,241
119,020	-6,470	241,499	117,219
120,035	-6,522	241,473	117,152
121,049	-6,383	241,339	117,191
122,064	-6,526	241,056	116,926
123,079	-6,433	240,893	116,913
124,093	-6,560	240,582	116,647
125,108	-6,731	240,449	116,433
126,122	-6,845	240,053	116,138
127,137	-7,072	240,045	115,937
128,151	-6,996	239,866	115,903
129,166	-6,690	239,730	116,076
130,181	-6,953	239,565	115,771
131,195	-6,997	239,375	115,634
132,210	-6,769	239,249	115,749
133,224	-6,451	239,066	115,908
134,239	-6,507	238,868	115,756
135,254	-6,288	238,654	115,820
136,268	-6,594	238,495	115,484
137,283	-7,065	238,327	115,011
138,297	-7,238	238,055	114,729
139,312	-7,029	237,831	114,780
140,327	-6,807	237,896	114,981
141,341	-6,234	237,794	115,385
142,356	-6,326	237,739	115,273
143,370	-6,232	237,698	115,319
144,385	-6,230	237,398	115,165
145,400	-6,101	237,179	115,153
146,414	-6,008	236,926	115,095
147,429	-6,177	236,728	114,852
148,443	-6,244	236,679	114,764
149,458	-6,110	236,523	114,786
150,473	-6,130	236,280	114,641
151,487	-6,080	235,973	114,522
152,502	-6,079	235,915	114,485
153,516	-6,050	235,772	114,429
154,531	-6,065	235,681	114,362
155,546	-6,282	235,473	114,077
156,560	-6,362	235,374	113,955
157,575	-6,444	235,013	113,705
158,589	-6,370	234,847	113,674
159,604	-6,000	234,883	113,976
160,619	-6,021	234,697	113,859
161,633	-6,098	234,507	113,695
162,648	-6,009	234,356	113,682
163,662	-6,293	234,232	113,386
164,677	-6,168	233,862	113,296
165,692	-6,214	233,843	113,240
166,706	-6,210	233,630	113,131
167,721	-6,007	233,440	113,189
168,735	-5,817	233,457	113,338
169,750	-5,770	233,217	113,248
170,764	-6,299	233,325	112,872
171,779	-6,043	232,958	112,887
172,794	-6,060	232,770	112,772
173,808	-6,107	232,592	112,639
174,823	-6,710	232,264	111,995
175,837	-7,001	232,130	111,692
176,852	-6,442	232,075	112,095
177,867	-6,272	231,964	112,165
178,881	-6,034	231,909	112,315
179,896	-6,047	231,790	112,237
180,910	-6,022	231,389	112,053
181,925	-5,800	231,279	112,163
182,940	-5,757	231,062	112,081
183,954	-6,020	231,164	111,916
184,969	-6,002	231,062	111,870
185,983	-5,843	230,900	111,906
186,998	-6,086	230,771	111,644
188,013	-6,110	230,511	111,489
189,027	-5,881	230,328	111,570
190,042	-5,863	230,155	111,489
191,056	-5,847	230,105	111,468
192,071	-5,698	229,888	111,469
193,086	-5,773	229,734	111,326
194,100	-5,567	229,552	111,388
195,115	-5,773	229,251	111,071
196,129	-6,630	229,157	110,352
197,144	-3,041	230,123	113,600
198,159	1,230	231,434	117,570
199,173	3,358	232,029	119,525
200,188	3,595	231,973	119,669
201,202	4,004	231,619	119,795
202,217	3,819	231,640	119,651
203,232	4,165	231,487	119,830
204,246	4,342	231,436	119,931
205,261	4,346	231,319	119,863
206,275	4,449	231,200	119,871
207,290	4,696	230,920	119,905
208,304	4,504	230,792	119,680
209,319	4,583	230,665	119,665
210,334	4,614	230,406	119,543
211,348	4,177	230,171	119,073
212,363	3,855	230,009	118,730
213,377	3,819	229,744	118,555
214,392	3,679	229,697	118,412
215,407	3,608	229,515	118,253
216,421	3,936	229,307	118,388
217,436	3,798	229,190	118,211
218,450	3,502	228,941	117,844
219,465	3,311	228,815	117,623
220,480	3,577	228,754	117,784
221,494	3,560	228,535	117,649
222,509	3,580	228,443	117,606
223,523	3,677	228,277	117,584
224,538	3,541	228,120	117,389
225,553	3,534	227,967	117,294
226,567	3,769	227,725	117,338
227,582	3,688	227,888	117,351
228,596	4,028	227,715	117,511
229,611	3,734	227,552	117,191
230,626	3,460	227,192	116,787
231,640	3,300	227,127	116,621
232,655	3,737	227,000	116,878
233,669	4,026	227,011	117,093
234,684	4,201	226,905	117,161
235,699	4,139	226,480	116,885
236,713	3,807	226,427	116,595
237,728	3,831	226,281	116,528
238,742	3,741	226,122	116,367
239,757	3,612	225,872	116,131
240,772	3,546	225,674	115,968
241,786	3,471	225,553	115,839
242,801	3,878	225,459	116,088
243,815	3,873	225,584	116,138
244,830	4,170	225,213	116,161
245,844	3,552	225,019	115,585
246,859	3,722	224,924	115,654
247,874	3,920	224,926	115,794
248,888	4,002	224,781	115,770
249,903	3,774	224,550	115,469
250,917	3,765	224,308	115,328
251,932	3,499	224,177	115,051
252,947	3,733	224,027	115,139
253,961	3,700	223,860	115,018
254,976	3,489	223,783	114,810
255,990	3,654	223,717	114,890
257,005	3,841	223,535	114,925
258,020	3,819	223,493	114,877
259,034	4,002	223,356	114,934
260,049	4,152	222,970	114,837
261,063	3,734	222,990	114,525
262,078	4,001	222,889	114,662
263,093	4,124	222,880	114,738
264,107	3,980	222,466	114,409
265,122	3,922	222,489	114,367
266,136	4,092	222,265	114,367
267,151	4,149	222,179	114,355
268,166	3,689	221,883	113,851
269,180	3,388	221,735	113,543
270,195	3,607	221,471	113,559
271,209	3,491	221,465	113,460
272,224	3,677	221,287	113,496
273,239	3,638	221,270	113,449
274,253	3,686	221,019	113,345
275,268	3,472	220,939	113,137
276,282	3,585	220,541	113,006
277,297	3,518	220,537	112,944
278,312	3,484	220,413	112,846
279,326	3,637	220,355	112,919
280,341	3,596	220,152	112,775
281,355	3,517	220,274	112,768
282,370	3,661	219,895	112,670
283,384	3,538	219,581	112,409
284,399	3,448	219,410	112,246
285,414	3,377	219,411	112,184
286,428	3,594	219,327	112,291
287,443	3,728	219,296	112,362
288,457	3,798	219,013	112,258
289,472	3,770	218,815	112,127
290,487	3,300	218,528	111,627
291,501	3,141	218,548	111,511
292,516	3,394	218,386	111,602
293,530	3,334	218,390	111,551
294,545	3,205	218,184	111,342
295,560	3,556	218,050	111,519
296,574	3,650	217,830	111,465
297,589	3,413	217,803	111,269
298,603	3,675	217,548	111,319
299,618	3,687	217,537	111,312
300,633	3,617	217,362	111,162
301,647	4,232	217,331	111,582
302,662	4,026	217,179	111,344
303,676	3,733	217,032	111,047
304,691	4,068	216,810	111,166
305,706	3,736	216,793	110,907
306,720	3,740	216,731	110,868
307,735	3,662	216,272	110,568
308,749	3,727	216,226	110,581
309,764	3,952	216,250	110,746
310,779	3,982	216,011	110,635
311,793	3,996	215,829	110,542
312,808	3,932	215,714	110,428
313,822	3,697	215,599	110,190
314,837	3,629	215,439	110,049
315,852	3,536	215,133	109,817
316,866	3,466	215,254	109,818
317,881	3,713	215,116	109,915
318,895	3,758	215,012	109,885
319,910	3,741	214,633	109,668
320,925	3,541	214,416	109,405
321,939	3,111	214,358	109,060
322,954	3,100	214,418	109,072
323,968	3,722	214,199	109,394
324,983	3,811	214,133	109,414
325,997	4,007	213,951	109,450
327,012	3,750	213,851	109,208
328,027	3,806	213,635	109,127
329,041	4,035	213,701	109,313
330,056	4,007	213,460	109,161
331,070	3,883	213,254	108,958
332,085	3,376	213,135	108,528
333,100	3,350	213,028	108,446
334,114	3,759	212,855	108,637
335,129	3,634	212,536	108,376
336,143	3,701	212,505	108,398
337,158	3,678	212,466	108,352
338,173	3,660	212,268	108,229
339,187	3,258	212,244	107,924
340,202	3,303	211,931	107,787
341,216	3,362	211,794	107,749
342,231	3,370	211,695	107,694
343,246	3,281	211,655	107,602
344,260	3,497	211,523	107,677
345,275	3,447	211,264	107,500
346,289	3,707	211,171	107,626
347,304	3,789	210,959	107,566
348,319	3,661	210,927	107,450
349,333	3,849	210,821	107,518
350,348	3,586	210,745	107,286
351,362	3,972	210,589	107,466
352,377	4,057	210,432	107,436
353,392	3,459	210,403	106,994
354,406	4,068	210,138	107,274
355,421	194,571	1342,989	1427,419
356,435	155,337	1481,075	1427,500
