DTS Sentinel unit serial number:	SN410029Multiplexer serial number:	ORYXHardware model number:	OX2-SRSoftware version number:	ORYX F/W v4,00 Oryx Data Collector v3.7.2.0data status	okinstallation	B6 Nyhavnadifferential loss correction	single-endedforward channel	channel 2reverse channel	N/Adate	2023/12/09time	15:30:08forward acquisition time	300,00reverse acquisition time	0,00gamma	499,1914k internal	0,3133k external	0,3133temperature offset calibration	1,0000default loss term (dB/km)	0,3820temperature slope calibration	1,0000multiplexer offset coefficient	1,0000multiplexer slope coefficient	1,0000fibre end	0,00T internal ref (°C)	20,66T ext. ref 1 (°C)	4,59T ext. ref 2 (°C)	4,58length (m)	temperature (°C)	Stokes	anti-Stokes-744,400	-200,000	-0,004	0,101
-743,385	-32,728	-0,360	0,148
-742,371	-109,560	0,070	0,011
-741,356	-31,899	-0,266	0,110
-740,342	365,693	0,041	-0,062
-739,327	-73,580	-0,256	0,069
-738,312	-200,000	0,007	-0,106
-737,298	-137,338	-0,203	0,017
-736,283	339,069	-0,018	0,026
-735,269	-84,183	-0,237	0,055
-734,254	-200,000	-0,027	-0,134
-733,239	-101,930	-0,364	-0,065
-732,225	-31,827	-0,071	0,029
-731,210	800,000	-0,015	-0,046
-730,196	-200,000	0,008	0,030
-729,181	47,596	-0,062	0,043
-728,167	800,000	0,057	0,156
-727,152	800,000	-0,040	0,104
-726,137	147,098	-0,099	-0,099
-725,123	88,403	-0,135	-0,111
-724,108	10,072	-0,217	0,122
-723,094	181,931	0,113	0,124
-722,079	15,923	-0,084	-0,049
-721,064	-200,000	0,011	0,090
-720,050	111,569	-0,109	0,097
-719,035	-200,000	0,009	0,035
-718,021	786,652	-0,043	0,089
-717,006	-200,000	-0,040	-0,135
-715,991	-46,382	-0,218	-0,079
-714,977	800,000	-0,024	-0,050
-713,962	315,730	-0,108	-0,151
-712,948	800,000	0,094	-0,218
-711,933	-59,803	-0,058	-0,018
-710,918	33,060	-0,062	-0,040
-709,904	6,748	-0,155	-0,085
-708,889	-79,131	-0,077	-0,019
-707,875	81,240	0,044	-0,036
-706,860	-200,000	0,026	0,144
-705,845	-36,958	-0,107	0,042
-704,831	-110,605	0,063	-0,010
-703,816	-79,233	-0,137	0,034
-702,802	73,514	0,010	0,007
-701,787	-141,174	0,048	-0,004
-700,772	-200,000	-0,015	-0,082
-699,758	-200,000	-0,013	-0,098
-698,743	-200,000	0,019	0,092
-697,729	-63,705	-0,109	-0,033
-696,714	213,238	0,130	-0,153
-695,699	800,000	-0,085	-0,222
-694,685	-73,271	-0,034	0,009
-693,670	124,528	-0,111	-0,103
-692,656	-121,303	0,065	0,008
-691,641	-119,219	-0,065	0,008
-690,627	478,383	-0,012	0,020
-689,612	87,040	-0,023	0,019
-688,597	290,498	0,117	-0,157
-687,583	503,883	0,050	-0,087
-686,568	-200,000	0,002	-0,064
-685,554	10,415	-0,073	0,041
-684,539	800,000	0,015	0,045
-683,524	800,000	0,032	-0,077
-682,510	-200,000	-0,016	0,085
-681,495	348,276	-0,066	-0,097
-680,481	-142,089	-0,053	0,004
-679,466	399,723	-0,021	0,033
-678,451	292,676	0,075	-0,102
-677,437	138,150	0,034	0,033
-676,422	97,494	-0,023	-0,019
-675,408	-122,622	0,054	-0,006
-674,393	-78,761	0,044	-0,011
-673,378	-200,000	-0,018	-0,147
-672,364	124,079	-0,090	-0,084
-671,349	800,000	-0,024	-0,062
-670,335	800,000	-0,036	0,081
-669,320	800,000	0,043	0,098
-668,305	-200,000	0,009	0,066
-667,291	-105,461	-0,079	-0,013
-666,276	94,785	-0,069	-0,058
-665,262	-200,000	-0,023	-0,107
-664,247	688,846	-0,044	-0,087
-663,232	345,728	-0,060	0,087
-662,218	-1,968	0,042	0,022
-661,203	-133,832	0,081	-0,007
-660,189	164,473	0,106	0,110
-659,174	207,512	-0,068	-0,078
-658,159	-136,458	-0,095	0,008
-657,145	109,208	-0,166	-0,147
-656,130	800,000	-0,019	-0,061
-655,116	800,000	-0,026	-0,057
-654,101	-132,913	0,040	0,004
-653,086	727,802	0,043	-0,085
-652,072	-200,000	0,029	0,114
-651,057	578,474	-0,103	-0,187
-650,043	-29,632	0,040	0,017
-649,028	-145,610	0,126	-0,008
-648,014	99,468	-0,081	-0,069
-646,999	-200,000	-0,004	0,080
-645,984	704,668	-0,051	-0,099
-644,970	-200,000	0,024	0,078
-643,955	69,729	-0,197	-0,150
-642,941	800,000	-0,041	0,083
-641,926	627,308	-0,073	-0,137
-640,911	-82,649	0,067	-0,016
-639,897	-54,129	0,155	-0,052
-638,882	130,659	-0,070	0,067
-637,868	69,775	-0,133	-0,101
-636,853	-200,000	-0,020	-0,136
-635,838	-200,000	0,018	-0,116
-634,824	-93,535	-0,077	-0,016
-633,809	-58,366	0,111	-0,035
-632,795	111,289	0,093	-0,083
-631,780	800,000	0,067	-0,138
-630,765	18,615	0,035	0,021
-629,751	-178,024	-0,059	-0,001
-628,736	800,000	0,030	-0,073
-627,722	17,922	-0,060	-0,035
-626,707	-52,146	0,048	0,016
-625,692	442,034	-0,039	0,063
-624,678	131,106	-0,089	-0,085
-623,663	72,071	-0,063	-0,049
-622,649	757,565	-0,013	-0,027
-621,634	46,462	0,067	0,046
-620,619	-200,000	0,018	-0,083
-619,605	4,031	0,064	0,035
-618,590	-200,000	0,043	-0,184
-617,576	-45,877	-0,116	0,042
-616,561	-8,755	-0,139	0,069
-615,546	-200,000	0,014	-0,073
-614,532	38,021	0,067	0,044
-613,517	90,459	-0,033	0,027
-612,503	-200,000	-0,011	-0,059
-611,488	18,747	0,124	-0,073
-610,474	-5,160	0,104	-0,053
-609,459	-200,000	0,019	0,083
-608,444	-200,000	0,017	0,065
-607,430	128,354	0,011	0,010
-606,415	215,599	-0,060	0,070
-605,401	800,000	0,046	0,123
-604,386	221,106	0,057	0,068
-603,371	-40,176	0,031	0,012
-602,357	-129,055	-0,067	0,007
-601,342	-14,122	-0,118	0,056
-600,328	800,000	-0,032	0,066
-599,313	-200,000	-0,021	-0,086
-598,298	-48,033	0,047	-0,017
-597,284	800,000	0,061	0,133
-596,269	800,000	0,010	0,020
-595,255	-61,633	-0,145	0,045
-594,240	-200,000	0,000	0,035
-593,225	-76,301	-0,089	0,023
-592,211	-200,000	0,012	-0,053
-591,196	84,891	0,061	0,050
-590,182	800,000	-0,031	0,089
-589,167	389,442	0,069	0,106
-588,152	-200,000	-0,005	0,113
-587,138	104,833	-0,046	-0,040
-586,123	583,189	0,054	0,099
-585,109	153,466	0,056	-0,056
-584,094	-190,502	-0,127	0,001
-583,079	-200,000	-0,013	-0,061
-582,065	156,026	-0,027	-0,027
-581,050	-172,572	0,055	0,001
-580,036	530,222	0,058	0,101
-579,021	195,835	-0,015	-0,016
-578,006	-163,481	-0,214	0,007
-576,992	800,000	-0,031	-0,087
-575,977	465,031	0,022	0,037
-574,963	302,625	0,075	-0,103
-573,948	-200,000	0,019	-0,087
-572,934	800,000	-0,015	0,030
-571,919	290,811	-0,055	0,074
-570,904	-200,000	-0,007	0,046
-569,890	-92,213	-0,071	-0,015
-568,875	-200,000	-0,014	-0,069
-567,861	-48,268	-0,095	-0,034
-566,846	-27,649	-0,074	-0,032
-565,831	-76,126	-0,104	0,027
-564,817	218,823	0,059	-0,070
-563,802	-200,000	-0,007	-0,061
-562,788	800,000	-0,025	-0,069
-561,773	282,367	0,051	0,067
-560,758	-81,313	0,224	0,054
-559,744	314,121	-0,086	0,120
-558,729	755,756	0,019	0,038
-557,715	-200,000	-0,013	0,096
-556,700	214,278	-0,053	-0,062
-555,685	-200,000	-0,010	0,069
-554,671	211,934	0,012	0,014
-553,656	-142,886	-0,118	0,008
-552,642	-51,010	-0,026	0,009
-551,627	761,742	-0,047	-0,094
-550,612	111,024	-0,023	0,021
-549,598	-74,016	0,050	0,013
-548,583	34,691	-0,019	-0,012
-547,569	225,241	-0,035	0,041
-546,554	-200,000	0,022	0,110
-545,539	284,621	-0,102	0,136
-544,525	-200,000	-0,030	0,103
-543,510	-200,000	-0,013	-0,138
-542,496	-6,368	-0,152	-0,076
-541,481	800,000	0,045	-0,120
-540,466	-45,846	-0,124	-0,045
-539,452	17,848	0,177	0,104
-538,437	659,139	-0,012	0,024
-537,423	644,172	-0,057	-0,107
-536,408	-19,219	-0,118	-0,054
-535,393	-52,359	-0,021	-0,007
-534,379	137,908	-0,036	0,034
-533,364	296,779	0,010	0,014
-532,350	-103,945	0,134	0,023
-531,335	101,975	0,050	0,043
-530,321	302,433	0,055	0,075
-529,306	-200,000	-0,024	-0,129
-528,291	49,290	-0,090	0,063
-527,277	-141,099	0,051	-0,004
-526,262	31,002	-0,127	0,080
-525,248	-200,000	0,019	-0,078
-524,233	-200,000	0,020	0,065
-523,218	800,000	0,051	0,128
-522,204	267,172	-0,017	-0,021
-521,189	-130,044	-0,034	0,003
-520,175	-200,000	0,051	-0,232
-519,160	-200,000	-0,009	-0,084
-518,145	-200,000	0,011	-0,058
-517,131	-27,606	-0,044	0,019
-516,116	17,721	0,107	0,062
-515,102	282,322	0,086	-0,113
-514,087	-84,344	0,025	0,006
-513,072	299,320	-0,040	-0,054
-512,058	-147,887	-0,044	-0,003
-511,043	800,000	-0,024	-0,075
-510,029	-5,671	-0,022	-0,011
-509,014	-200,000	0,000	-0,098
-507,999	800,000	0,015	0,031
-506,985	210,482	-0,033	0,038
-505,970	-181,141	-0,034	-0,000
-504,956	174,295	0,073	-0,078
-503,941	397,546	0,049	0,076
-502,926	-74,499	-0,091	-0,024
-501,912	-146,265	0,057	-0,004
-500,897	-200,000	0,007	-0,037
-499,883	-57,676	0,100	-0,032
-498,868	-21,403	0,072	-0,032
-497,853	-200,000	-0,022	-0,103
-496,839	-200,000	-0,017	-0,082
-495,824	74,438	0,085	-0,066
-494,810	9,471	-0,051	-0,028
-493,795	51,091	0,053	-0,037
-492,781	634,900	0,044	-0,082
-491,766	-200,000	0,007	-0,113
-490,751	158,515	-0,072	-0,073
-489,737	-200,000	-0,014	-0,062
-488,722	-200,000	0,005	-0,034
-487,708	800,000	0,021	-0,048
-486,693	541,977	0,063	0,111
-485,678	-20,654	-0,028	-0,012
-484,664	-200,000	-0,003	-0,120
-483,649	-200,000	0,003	0,104
-482,635	-140,532	0,006	0,000
-481,620	-162,433	0,059	0,002
-480,605	130,085	0,052	-0,049
-479,591	6,925	0,089	0,049
-478,576	454,122	-0,023	-0,037
-477,562	101,673	0,066	-0,056
-476,547	800,000	0,008	0,023
-475,532	-200,000	0,011	-0,085
-474,518	800,000	0,047	-0,115
-473,503	800,000	-0,022	0,061
-472,489	-67,479	-0,126	0,036
-471,474	-200,000	0,016	0,195
-470,459	-84,316	-0,095	-0,022
-469,445	581,325	-0,055	-0,100
-468,430	92,361	0,102	0,084
-467,416	-98,701	-0,116	-0,022
-466,401	-51,348	-0,056	-0,019
-465,386	-200,000	0,030	0,147
-464,372	138,997	-0,053	-0,051
-463,357	-51,560	-0,041	0,014
-462,343	-93,465	0,096	-0,019
-461,328	-106,444	0,030	0,005
-460,313	-200,000	0,020	0,082
-459,299	-200,000	0,006	0,066
-458,284	800,000	0,017	0,044
-457,270	-200,000	-0,049	0,197
-456,255	800,000	0,021	0,066
-455,241	60,047	-0,031	-0,022
-454,226	-200,000	-0,047	-0,162
-453,211	-3,288	-0,082	0,042
-452,197	641,246	-0,009	-0,018
-451,182	-16,733	-0,080	0,037
-450,168	134,440	-0,099	0,095
-449,153	35,239	0,069	-0,045
-448,138	800,000	0,021	0,053
-447,124	-200,000	-0,013	-0,171
-446,109	800,000	-0,029	-0,063
-445,095	800,000	-0,006	-0,013
-444,080	-68,010	0,058	-0,016
-443,065	800,000	-0,012	0,035
-442,051	-200,000	0,010	-0,066
-441,036	800,000	-0,014	0,029
-440,022	510,021	-0,050	0,085
-439,007	-200,000	-0,003	0,015
-437,992	188,212	0,058	0,064
-436,978	559,748	-0,040	0,072
-435,963	-37,946	-0,049	-0,019
-434,949	795,518	0,050	-0,102
-433,934	259,715	0,035	0,045
-432,919	800,000	0,023	-0,056
-431,905	467,222	-0,030	0,050
-430,890	153,195	0,090	0,090
-429,876	-67,300	-0,085	-0,024
-428,861	-200,000	-0,001	-0,046
-427,846	-200,000	0,018	0,085
-426,832	-200,000	-0,015	-0,051
-425,817	-142,469	-0,157	0,011
-424,803	-200,000	0,009	-0,081
-423,788	62,858	0,072	0,052
-422,773	-49,273	0,093	-0,032
-421,759	-200,000	0,022	0,126
-420,744	-104,557	0,184	0,031
-419,730	660,474	0,038	0,071
-418,715	-200,000	-0,012	-0,112
-417,701	-200,000	-0,003	0,029
-416,686	87,811	-0,044	-0,036
-415,671	-9,713	-0,010	-0,005
-414,657	47,760	0,085	0,058
-413,642	-131,793	0,070	-0,007
-412,628	-200,000	-0,011	-0,043
-411,613	-31,462	-0,102	-0,042
-410,598	-24,011	-0,088	-0,038
-409,584	-134,367	0,084	0,007
-408,569	-39,568	0,022	0,008
-407,555	-200,000	-0,004	0,168
-406,540	40,895	-0,018	-0,012
-405,525	610,860	0,006	-0,011
-404,511	143,407	-0,076	-0,074
-403,496	-90,892	-0,057	0,012
-402,482	739,209	-0,066	0,130
-401,467	-200,000	-0,004	-0,085
-400,452	-75,929	0,160	0,041
-399,438	-189,151	-0,037	-0,000
-398,423	-195,050	-0,130	0,001
-397,409	518,271	-0,060	-0,104
-396,394	-117,449	-0,070	-0,009
-395,379	716,594	0,063	0,123
-394,365	-152,253	0,011	0,001
-393,350	-200,000	-0,010	0,112
-392,336	-107,600	0,057	-0,009
-391,321	263,830	-0,018	0,023
-390,306	545,018	-0,033	-0,059
-389,292	800,000	-0,015	-0,042
-388,277	538,526	0,055	-0,097
-387,263	-144,593	0,097	-0,006
-386,248	150,646	-0,063	0,062
-385,233	370,809	-0,057	0,086
-384,219	-139,147	-0,064	0,005
-383,204	52,518	0,077	0,053
-382,190	800,000	-0,035	0,109
-381,175	-111,715	0,077	0,011
-380,160	-3,897	0,088	0,045
-379,146	47,475	0,155	-0,105
-378,131	295,183	0,025	-0,033
-377,117	-20,076	-0,094	-0,042
-376,102	61,070	0,075	0,054
-375,088	-159,383	0,091	-0,004
-374,073	17,946	-0,117	-0,068
-373,058	-200,000	0,002	-0,031
-372,044	257,823	-0,049	0,062
-371,029	-200,000	0,017	-0,062
-370,015	-111,252	0,169	0,025
-369,000	-200,000	0,010	-0,071
-367,985	325,753	-0,086	-0,121
-366,971	800,000	0,027	-0,064
-365,956	-200,000	0,001	-0,054
-364,942	147,731	-0,054	-0,053
-363,927	-37,445	-0,028	0,011
-362,912	245,756	0,067	0,082
-361,898	263,748	0,036	-0,046
-360,883	3,581	-0,081	-0,043
-359,869	-200,000	0,002	-0,046
-358,854	-80,068	0,018	-0,004
-357,839	137,996	0,088	0,084
-356,825	-100,745	-0,096	0,017
-355,810	-33,854	-0,073	0,029
-354,796	800,000	-0,026	-0,082
-353,781	-200,000	0,004	-0,173
-352,766	800,000	-0,019	-0,053
-351,752	84,979	0,078	-0,063
-350,737	677,372	0,062	-0,118
-349,723	-200,000	-0,025	-0,081
-348,708	56,484	0,033	-0,023
-347,693	681,943	-0,078	0,149
-346,679	239,424	0,066	-0,080
-345,664	29,011	-0,193	0,119
-344,650	-157,496	-0,030	0,001
-343,635	-200,000	0,026	0,115
-342,620	-200,000	-0,019	0,089
-341,606	229,977	0,089	0,106
-340,591	-200,000	0,004	-0,046
-339,577	479,255	-0,023	-0,039
-338,562	-200,000	0,007	-0,047
-337,548	209,945	-0,051	-0,059
-336,533	-200,000	0,017	0,118
-335,518	-200,000	0,006	-0,069
-334,504	410,034	-0,043	-0,067
-333,489	800,000	0,010	0,028
-332,475	-127,857	0,057	-0,006
-331,460	-135,763	-0,140	0,012
-330,445	800,000	0,054	-0,113
-329,431	178,440	0,054	-0,057
-328,416	41,548	0,166	0,110
-327,402	137,588	-0,067	-0,064
-326,387	186,805	0,041	0,045
-325,372	-22,215	0,117	0,051
-324,358	-30,365	0,038	-0,016
-323,343	-152,028	0,156	-0,008
-322,329	265,531	-0,051	0,066
-321,314	213,916	0,050	0,058
-320,299	62,154	0,084	0,061
-319,285	160,937	-0,034	0,035
-318,270	777,941	0,082	-0,166
-317,256	24,702	0,030	-0,018
-316,241	53,404	-0,048	-0,034
-315,226	-105,167	0,160	-0,026
-314,212	-200,000	0,013	0,049
-313,197	456,137	-0,008	0,013
-312,183	514,477	-0,050	-0,086
-311,168	-200,000	-0,008	0,121
-310,153	800,000	-0,036	0,082
-309,139	-37,270	0,020	-0,008
-308,124	-200,000	0,009	-0,041
-307,110	-200,000	-0,070	0,000
-306,095	223,883	-0,054	0,064
-305,080	152,687	0,066	0,066
-304,066	208,833	0,029	-0,033
-303,051	-69,168	-0,108	0,030
-302,037	800,000	0,028	0,056
-301,022	-101,054	0,174	0,031
-300,008	88,271	0,056	0,045
-298,993	-195,746	-0,033	0,000
-297,978	155,879	0,125	0,125
-296,964	226,774	0,085	-0,100
-295,949	-200,000	-0,004	-0,076
-294,935	-103,075	-0,039	-0,007
-293,920	-16,252	0,017	-0,008
-292,905	185,529	0,167	0,181
-291,891	676,023	0,061	0,116
-290,876	14,551	0,105	0,059
-289,862	-184,761	0,065	-0,001
-288,847	-200,000	-0,024	0,110
-287,832	800,000	-0,020	-0,051
-286,818	5,084	-0,083	-0,045
-285,803	167,952	0,050	-0,052
-284,789	800,000	0,052	0,109
-283,774	48,846	0,077	0,053
-282,759	-133,857	-0,185	0,017
-281,745	53,637	-0,147	-0,103
-280,730	-3,370	0,147	-0,075
-279,716	-200,000	0,005	0,058
-278,701	21,548	-0,114	0,068
-277,686	220,523	0,097	0,114
-276,672	-158,555	0,150	0,006
-275,657	800,000	-0,030	-0,069
-274,643	569,355	0,066	0,117
-273,628	58,120	-0,071	0,051
-272,613	-200,000	-0,024	0,104
-271,599	-200,000	-0,011	0,091
-270,584	319,632	0,103	0,143
-269,570	-53,159	0,140	-0,047
-268,555	294,688	0,079	-0,105
-267,540	112,463	-0,078	-0,069
-266,526	641,037	0,047	-0,088
-265,511	-200,000	-0,001	-0,105
-264,497	-108,385	0,188	-0,029
-263,482	800,000	0,048	0,117
-262,467	181,422	0,072	0,077
-261,453	41,949	-0,062	-0,041
-260,438	800,000	-0,017	0,054
-259,424	330,086	0,097	-0,136
-258,409	649,880	-0,062	0,116
-257,395	197,417	0,066	0,074
-256,380	800,000	-0,016	-0,042
-255,365	252,398	0,047	-0,058
-254,351	-136,605	-0,068	0,006
-253,336	800,000	-0,021	-0,058
-252,322	81,141	0,072	0,056
-251,307	-109,771	0,149	-0,023
-250,292	800,000	-0,055	0,134
-249,278	-168,192	0,036	0,001
-248,263	380,832	0,016	-0,023
-247,249	-87,958	0,090	0,020
-246,234	146,610	-0,054	-0,053
-245,219	486,031	-0,026	0,043
-244,205	-12,385	-0,048	0,023
-243,190	800,000	0,011	0,023
-242,176	-51,717	0,053	0,018
-241,161	468,719	0,072	0,119
-240,146	-28,292	-0,054	-0,023
-239,132	232,460	-0,133	-0,159
-238,117	114,738	-0,077	-0,068
-237,103	132,703	0,059	-0,056
-236,088	-91,586	-0,038	0,008
-235,073	117,110	-0,084	0,076
-234,059	-160,206	0,127	0,005
-233,044	-45,099	0,144	-0,052
-232,030	522,031	-0,029	0,050
-231,015	800,000	-0,019	-0,051
-230,000	60,990	-0,156	-0,112
-228,986	437,306	-0,062	-0,099
-227,971	526,006	0,023	0,039
-226,957	89,059	0,046	-0,037
-225,942	800,000	-0,046	0,110
-224,927	-50,698	0,088	0,030
-223,913	591,468	0,069	-0,125
-222,898	800,000	-0,046	-0,117
-221,884	-200,000	0,009	0,051
-220,869	18,448	-0,098	-0,057
-219,855	-43,097	0,022	-0,008
-218,840	515,820	-0,063	0,108
-217,825	-200,000	-0,025	-0,088
-216,811	267,438	-0,064	0,081
-215,796	-128,875	-0,137	-0,014
-214,782	119,544	-0,021	-0,019
-213,767	549,829	-0,078	0,136
-212,752	-200,000	-0,023	0,097
-211,738	-20,639	0,038	-0,017
-210,723	-56,835	-0,105	0,034
-209,709	-24,335	0,049	-0,021
-208,694	800,000	0,041	-0,101
-207,679	93,765	-0,050	0,041
-206,665	800,000	-0,087	0,182
-205,650	112,099	-0,047	-0,041
-204,636	-200,000	-0,005	-0,034
-203,621	-88,717	0,149	-0,032
-202,606	128,719	-0,042	-0,039
-201,592	-200,000	-0,009	0,073
-200,577	-110,455	-0,121	-0,018
-199,563	-154,896	0,065	0,003
-198,548	-200,000	0,003	0,108
-197,533	-200,000	0,029	0,100
-196,519	800,000	0,029	-0,070
-195,504	-200,000	0,005	-0,025
-194,490	-200,000	0,008	0,082
-193,475	-200,000	0,021	-0,101
-192,460	99,962	-0,067	-0,056
-191,446	239,536	-0,116	0,141
-190,431	392,142	0,043	0,065
-189,417	4,710	-0,135	-0,072
-188,402	800,000	0,056	0,148
-187,387	-107,562	0,091	-0,014
-186,373	800,000	0,065	-0,145
-185,358	148,786	-0,040	-0,040
-184,344	552,127	0,060	0,105
-183,329	100,569	0,030	0,025
-182,315	-104,030	-0,069	-0,012
-181,300	800,000	-0,056	-0,133
-180,285	-200,000	0,011	-0,199
-179,271	-200,000	0,013	-0,144
-178,256	339,378	-0,101	0,143
-177,242	159,294	0,048	0,049
-176,227	21,762	0,061	0,036
-175,212	76,143	-0,087	0,067
-174,198	-200,000	-0,005	0,042
-173,183	658,060	-0,039	-0,073
-172,169	-200,000	0,007	-0,079
-171,154	-105,068	0,062	0,010
-170,139	320,759	-0,085	0,118
-169,125	-101,188	-0,122	0,022
-168,110	-51,165	0,026	-0,009
-167,096	800,000	-0,020	0,060
-166,081	-115,033	-0,047	0,006
-165,066	0,266	-0,110	-0,057
-164,052	-150,704	-0,159	-0,009
-163,037	139,697	-0,033	0,032
-162,023	-200,000	-0,011	0,190
-161,008	224,860	0,053	-0,063
-159,993	-120,824	0,091	-0,011
-158,979	-57,428	0,004	-0,001
-157,964	49,555	-0,081	-0,055
-156,950	800,000	-0,032	0,077
-155,935	-119,763	0,064	0,008
-154,920	332,951	0,038	0,054
-153,906	-200,000	-0,005	0,069
-152,891	-200,000	-0,007	-0,108
-151,877	-147,970	-0,144	0,009
-150,862	800,000	-0,026	0,064
-149,847	604,033	-0,105	-0,190
-148,833	800,000	-0,047	0,117
-147,818	-200,000	0,068	0,233
-146,804	-31,484	0,068	-0,028
-145,789	-98,078	0,070	0,013
-144,775	-200,000	-0,016	0,066
-143,760	443,577	-0,038	0,060
-142,745	800,000	-0,057	-0,144
-141,731	-115,431	-0,035	0,005
-140,716	-200,000	0,008	-0,171
-139,702	6,304	0,041	-0,022
-138,687	410,215	0,045	0,069
-137,672	-200,000	0,018	-0,096
-136,658	-9,874	-0,059	0,028
-135,643	21,532	-0,066	0,039
-134,629	-88,576	0,084	-0,018
-133,614	-56,869	0,064	-0,020
-132,599	800,000	0,032	0,104
-131,585	800,000	0,036	0,077
-130,570	-200,000	0,014	0,063
-129,556	-50,344	-0,130	0,044
-128,541	90,582	-0,057	-0,046
-127,526	15,765	-0,070	-0,040
-126,512	49,456	0,075	0,051
-125,497	-60,258	-0,092	-0,028
-124,483	-200,000	-0,009	0,091
-123,468	174,636	-0,053	0,056
-122,453	-200,000	-0,014	0,100
-121,439	-137,217	0,094	-0,008
-120,424	266,594	-0,092	-0,116
-119,410	375,268	0,096	-0,142
-118,395	286,618	-0,071	-0,094
-117,380	-16,138	0,040	0,018
-116,366	-81,114	-0,051	-0,012
-115,351	20,973	0,040	-0,023
-114,337	187,719	-0,156	-0,169
-113,322	-200,000	0,012	-0,060
-112,307	527,985	-0,032	-0,056
-111,293	-200,000	-0,024	0,099
-110,278	-200,000	0,029	0,152
-109,264	43,057	0,095	0,062
-108,249	-200,000	-0,025	-0,186
-107,234	-200,000	-0,008	0,046
-106,220	115,416	-0,100	-0,089
-105,205	609,339	0,095	0,173
-104,191	-200,000	-0,001	0,059
-103,176	116,751	-0,058	0,051
-102,162	800,000	-0,018	0,043
-101,147	-131,188	-0,084	-0,008
-100,132	-97,258	-0,212	0,040
-99,118	192,092	-0,033	0,036
-98,103	-200,000	-0,013	0,097
-97,089	0,547	-0,169	0,087
-96,074	-22,001	0,144	0,063
-95,059	-5,415	0,058	0,029
-94,045	-90,467	0,099	-0,021
-93,030	800,000	-0,022	-0,056
-92,016	-144,720	0,063	-0,004
-91,001	188,844	-0,027	-0,030
-89,986	128,981	-0,033	-0,031
-88,972	800,000	0,073	0,213
-87,957	-24,203	0,049	-0,021
-86,943	-128,669	-0,092	-0,009
-85,928	-3,552	-0,251	-0,126
-84,913	-98,982	-0,066	-0,012
-83,899	800,000	-0,063	0,163
-82,884	325,360	-0,032	0,044
-81,870	-200,000	0,014	0,054
-80,855	-92,965	0,137	-0,028
-79,840	800,000	-0,030	0,084
-78,826	102,750	-0,052	0,044
-77,811	712,667	-0,078	0,150
-76,797	163,202	0,066	-0,067
-75,782	245,947	-0,118	-0,144
-74,767	800,000	0,024	-0,060
-73,753	800,000	-0,025	-0,070
-72,738	20,397	0,040	0,024
-71,724	60,580	0,061	0,044
-70,709	225,178	0,026	0,031
-69,694	-200,000	0,017	-0,162
-68,680	-175,307	-0,060	-0,001
-67,665	7,218	-0,065	-0,035
-66,651	109,571	0,101	0,088
-65,636	295,413	-0,048	0,064
-64,622	-104,367	-0,101	-0,017
-63,607	800,000	-0,065	-0,163
-62,592	647,111	-0,058	0,109
-61,578	-48,817	-0,131	0,045
-60,563	-2,785	0,084	0,043
-59,549	800,000	0,077	0,164
-58,534	-56,427	-1,479	-0,472
-57,519	672,693	-0,751	-1,415
-56,505	-200,000	-0,919	-4,659
-55,490	-99,018	0,608	-0,111
-54,476	800,000	5,011	11,842
-53,461	-200,000	14,787	262,203
-52,446	-200,000	696,450	2238,836
-51,432	566,633	1621,544	2857,739
-50,417	118,845	1629,119	1455,886
-49,403	76,110	1283,187	981,242
-48,388	37,472	1022,097	654,258
-47,373	22,993	981,604	580,833
-46,359	22,137	971,108	571,801
-45,344	20,903	966,766	565,199
-44,330	20,923	965,326	564,399
-43,315	20,687	964,040	562,855
-42,300	20,753	962,826	562,338
-41,286	20,689	961,989	561,621
-40,271	20,699	960,742	560,902
-39,257	20,709	960,016	560,488
-38,242	20,720	959,065	559,947
-37,227	20,652	958,381	559,305
-36,213	20,620	957,522	558,679
-35,198	20,683	956,267	558,126
-34,184	20,678	955,751	557,787
-33,169	20,678	954,674	557,138
-32,154	20,720	953,788	556,734
-31,140	20,716	953,071	556,279
-30,125	20,688	952,345	555,743
-29,111	20,707	951,491	555,286
-28,096	20,681	950,900	554,836
-27,082	20,672	950,088	554,310
-26,067	20,728	949,296	554,003
-25,052	20,661	948,503	553,307
-24,038	20,636	948,073	552,953
-23,023	20,737	947,165	552,723
-22,009	20,690	946,592	552,218
-20,994	20,779	945,895	552,073
-19,979	20,661	945,602	551,503
-18,965	20,724	944,807	551,219
-17,950	20,746	944,060	550,831
-16,936	20,685	943,471	550,270
-15,921	20,594	942,881	549,618
-14,906	20,531	942,171	548,980
-13,892	20,640	941,316	548,808
-12,877	20,605	940,774	548,358
-11,863	20,583	940,205	547,934
-10,848	20,520	939,873	547,519
-9,833	20,632	939,361	547,554
-8,819	20,671	938,713	547,279
-7,804	20,614	938,085	546,712
-6,790	20,555	937,585	546,212
-5,775	20,662	936,726	546,027
-4,760	20,589	936,269	545,509
-3,746	20,543	935,800	545,070
-2,731	20,414	934,978	544,161
-1,717	20,429	934,165	543,715
-0,702	20,467	933,397	543,366
0,313	20,291	932,920	543,353
1,327	23,206	931,044	551,360
2,342	32,255	793,653	494,006
3,356	29,710	451,289	277,046
4,371	0,067	296,392	152,146
5,386	-4,369	277,496	138,203
6,400	-5,312	271,874	134,509
7,415	-5,880	269,484	132,788
8,429	-5,484	268,232	132,524
9,444	-5,947	267,364	131,658
10,459	-5,797	266,782	131,497
11,473	-5,750	266,086	131,185
12,488	-5,855	265,540	130,808
13,502	-6,114	265,045	130,317
14,517	-6,209	264,548	129,974
15,531	-6,137	264,256	129,884
16,546	-6,018	263,771	129,743
17,561	-6,050	263,424	129,531
18,575	-6,184	263,068	129,224
19,590	-6,193	262,737	129,041
20,604	-6,036	262,568	129,089
21,619	-6,102	262,215	128,844
22,634	-6,061	261,760	128,646
23,648	-6,320	261,566	128,306
24,663	-6,277	261,296	128,201
25,677	-6,177	261,006	128,136
26,692	-6,055	260,668	128,069
27,707	-6,106	260,578	127,968
28,721	-6,168	260,148	127,689
29,736	-6,153	259,787	127,514
30,750	-6,320	259,662	127,292
31,765	-6,314	259,570	127,242
32,780	-6,093	259,218	127,254
33,794	-6,082	258,945	127,119
34,809	-6,429	258,683	126,670
35,823	-6,170	258,401	126,751
36,838	-6,318	258,242	126,530
37,853	-6,392	258,015	126,342
38,867	-6,389	257,797	126,226
39,882	-6,378	257,578	126,118
40,896	-6,337	257,253	125,985
41,911	-6,300	257,147	125,953
42,926	-6,443	256,788	125,641
43,940	-6,447	256,662	125,564
44,955	-6,361	256,457	125,529
45,969	-6,684	256,186	125,100
46,984	-6,819	256,070	124,914
47,999	-7,019	255,653	124,524
49,013	-7,008	255,477	124,436
50,028	-6,992	255,022	124,218
51,042	-7,189	254,892	123,971
52,057	-7,113	254,562	123,866
53,071	-7,112	254,493	123,822
54,086	-6,997	254,369	123,851
55,101	-7,091	254,212	123,681
56,115	-6,706	254,058	123,931
57,130	-6,200	253,996	124,331
58,144	-5,977	253,674	124,356
59,159	-5,933	253,504	124,300
60,174	-6,023	253,422	124,170
61,188	-6,217	253,243	123,903
62,203	-6,157	252,992	123,822
63,217	-6,139	252,713	123,689
64,232	-6,093	252,560	123,643
65,247	-5,857	252,283	123,701
66,261	-6,077	252,202	123,460
67,276	-6,359	251,747	122,983
68,290	-6,504	251,473	122,713
69,305	-6,701	251,292	122,445
70,320	-6,763	251,280	122,374
71,334	-6,480	250,998	122,469
72,349	-6,137	250,902	122,706
73,363	-5,828	250,692	122,858
74,378	-6,122	250,552	122,526
75,393	-6,177	250,299	122,344
76,407	-5,993	249,909	122,300
77,422	-6,273	249,924	122,057
78,436	-6,159	249,723	122,045
79,451	-6,195	249,301	121,798
80,466	-6,405	249,251	121,584
81,480	-6,546	249,000	121,330
82,495	-6,641	248,768	121,125
83,509	-6,522	248,704	121,184
84,524	-6,586	248,445	120,993
85,539	-6,817	248,110	120,623
86,553	-6,648	247,932	120,669
87,568	-6,605	247,700	120,582
88,582	-6,383	247,499	120,660
89,597	-6,406	247,389	120,577
90,611	-6,367	247,289	120,550
91,626	-6,270	247,222	120,589
92,641	-6,297	246,919	120,408
93,655	-6,260	246,716	120,330
94,670	-6,380	246,617	120,169
95,684	-6,493	246,288	119,903
96,699	-6,512	246,243	119,854
97,714	-6,605	245,893	119,595
98,728	-6,856	245,924	119,388
99,743	-6,500	245,496	119,468
100,757	-6,516	245,263	119,332
101,772	-6,511	245,260	119,324
102,787	-6,425	245,011	119,264
103,801	-6,391	244,842	119,199
104,816	-6,506	244,681	119,014
105,830	-6,246	244,639	119,200
106,845	-6,163	244,571	119,225
107,860	-6,206	244,171	118,985
108,874	-6,281	243,951	118,804
109,889	-6,391	243,716	118,588
110,903	-6,340	243,559	118,543
111,918	-6,529	243,527	118,359
112,933	-6,483	243,254	118,254
113,947	-6,441	243,187	118,247
114,962	-6,262	242,904	118,247
115,976	-6,282	242,792	118,165
116,991	-6,148	242,502	118,124
118,006	-6,137	242,439	118,092
119,020	-6,204	242,328	117,972
120,035	-6,156	242,065	117,873
121,049	-6,174	241,891	117,763
122,064	-6,062	241,774	117,788
123,079	-6,279	241,643	117,535
124,093	-6,359	241,383	117,332
125,108	-6,370	241,144	117,196
126,122	-6,784	240,929	116,741
127,137	-6,818	240,739	116,611
128,151	-6,685	240,431	116,560
129,166	-6,596	240,470	116,642
130,181	-6,520	240,049	116,489
131,195	-6,645	239,912	116,310
132,210	-6,532	239,869	116,372
133,224	-6,453	239,831	116,407
134,239	-6,206	239,552	116,463
135,254	-6,326	239,435	116,298
136,268	-6,324	239,159	116,155
137,283	-6,703	238,966	115,742
138,297	-6,876	238,823	115,522
139,312	-6,723	238,429	115,445
140,327	-6,605	238,522	115,576
141,341	-6,179	238,571	115,935
142,356	-6,004	238,272	115,922
143,370	-6,097	238,159	115,781
144,385	-5,880	237,969	115,854
145,400	-5,968	237,789	115,685
146,414	-5,888	237,627	115,661
147,429	-5,879	237,345	115,520
148,443	-6,008	237,270	115,369
149,458	-5,981	237,202	115,348
150,473	-6,015	236,958	115,191
151,487	-5,878	236,756	115,193
152,502	-5,980	236,453	114,953
153,516	-6,057	236,414	114,862
154,531	-5,865	236,230	114,917
155,546	-5,874	236,064	114,819
156,560	-5,898	235,808	114,665
157,575	-6,117	235,668	114,411
158,589	-6,133	235,578	114,344
159,604	-6,088	235,403	114,285
160,619	-5,854	235,285	114,405
161,633	-5,792	235,017	114,313
162,648	-5,862	234,954	114,217
163,662	-5,945	234,804	114,067
164,677	-6,036	234,528	113,851
165,692	-5,980	234,497	113,870
166,706	-5,722	234,396	114,017
167,721	-5,733	234,188	113,896
168,735	-5,829	234,053	113,744
169,750	-5,942	233,809	113,526
170,764	-5,827	233,803	113,604
171,779	-5,886	233,762	113,527
172,794	-5,682	233,349	113,478
173,808	-6,018	233,260	113,159
174,823	-6,392	232,687	112,576
175,837	-6,765	232,747	112,299
176,852	-6,157	232,536	112,668
177,867	-5,887	232,556	112,880
178,881	-5,975	232,476	112,762
179,896	-5,824	232,312	112,792
180,910	-5,888	232,085	112,621
181,925	-5,793	231,974	112,632
182,940	-5,577	231,735	112,676
183,954	-5,904	231,811	112,445
184,969	-5,874	231,565	112,340
185,983	-5,797	231,478	112,347
186,998	-5,871	231,317	112,202
188,013	-5,718	231,087	112,200
189,027	-5,808	231,020	112,087
190,042	-5,704	230,855	112,078
191,056	-5,982	230,717	111,784
192,071	-5,615	230,482	111,947
193,086	-5,555	230,277	111,884
194,100	-5,714	230,210	111,717
195,115	-5,763	230,007	111,571
196,129	-6,312	229,706	110,987
197,144	-3,257	230,620	113,803
198,159	0,933	231,942	117,728
199,173	3,558	232,478	120,046
200,188	3,851	232,468	120,260
201,202	3,982	232,333	120,281
202,217	4,114	232,127	120,266
203,232	4,268	232,126	120,376
204,246	4,513	231,878	120,427
205,261	4,217	231,900	120,197
206,275	4,637	231,820	120,472
207,290	4,606	231,585	120,316
208,304	4,481	231,441	120,133
209,319	4,330	231,250	119,906
210,334	4,276	231,162	119,807
211,348	4,239	230,861	119,612
212,363	4,023	230,450	119,221
213,377	3,441	230,354	118,710
214,392	3,564	230,293	118,763
215,407	3,747	229,971	118,728
216,421	3,946	229,879	118,823
217,436	3,811	229,738	118,636
218,450	3,482	229,544	118,271
219,465	3,668	229,282	118,269
220,480	3,611	229,331	118,240
221,494	3,545	229,095	118,056
222,509	3,515	229,009	117,979
223,523	3,649	228,878	118,004
224,538	3,276	228,679	117,604
225,553	3,537	228,603	117,755
226,567	3,621	228,511	117,762
227,582	3,831	228,346	117,827
228,596	3,844	228,368	117,838
229,611	3,829	228,026	117,640
230,626	3,504	227,691	117,208
231,640	3,626	227,579	117,233
232,655	3,859	227,534	117,377
233,669	4,043	227,577	117,529
234,684	4,271	227,355	117,578
235,699	4,115	227,117	117,325
236,713	3,885	227,113	117,138
237,728	3,674	226,781	116,796
238,742	3,496	226,566	116,539
239,757	3,430	226,471	116,430
240,772	3,730	226,182	116,499
241,786	3,487	226,039	116,231
242,801	3,710	226,110	116,426
243,815	4,114	225,938	116,633
244,830	3,923	225,858	116,436
245,844	3,679	225,585	116,101
246,859	3,610	225,551	116,021
247,874	3,858	225,310	116,074
248,888	4,056	225,248	116,181
249,903	3,746	225,140	115,881
250,917	3,666	224,866	115,669
251,932	3,675	224,773	115,618
252,947	3,536	224,577	115,402
253,961	3,317	224,357	115,114
254,976	3,615	224,327	115,312
255,990	3,630	224,380	115,341
257,005	3,853	224,082	115,345
258,020	4,014	223,877	115,350
259,034	3,974	223,870	115,305
260,049	4,121	223,626	115,279
261,063	3,658	223,639	114,930
262,078	4,080	223,415	115,120
263,093	4,110	223,248	115,046
264,107	4,012	223,205	114,940
265,122	3,942	222,940	114,741
266,136	4,098	222,899	114,826
267,151	4,010	222,722	114,659
268,166	3,671	222,449	114,256
269,180	3,405	222,248	113,945
270,195	3,313	222,184	113,833
271,209	3,379	222,111	113,836
272,224	3,634	221,841	113,875
273,239	3,808	221,740	113,943
274,253	3,755	221,452	113,745
275,268	3,606	221,295	113,544
276,282	3,591	221,138	113,442
277,297	3,433	221,092	113,292
278,312	3,433	220,845	113,155
279,326	3,497	220,834	113,187
280,341	3,779	220,763	113,349
281,355	3,722	220,574	113,199
282,370	3,740	220,354	113,089
283,384	3,742	220,122	112,962
284,399	3,389	220,046	112,653
285,414	3,515	219,895	112,658
286,428	3,807	219,772	112,800
287,443	4,008	219,732	112,917
288,457	3,613	219,767	112,635
289,472	3,627	219,476	112,486
290,487	3,182	219,214	112,016
291,501	3,189	218,966	111,884
292,516	3,262	218,920	111,904
293,530	3,522	218,750	111,997
294,545	3,377	218,615	111,812
295,560	3,471	218,744	111,937
296,574	3,541	218,401	111,802
297,589	3,604	218,279	111,775
298,603	3,756	218,182	111,827
299,618	3,591	218,071	111,640
300,633	3,689	217,833	111,580
301,647	3,938	217,852	111,760
302,662	3,852	217,723	111,621
303,676	3,830	217,586	111,525
304,691	3,734	217,322	111,310
305,706	3,590	217,245	111,157
306,720	3,599	216,985	111,020
307,735	3,734	216,950	111,090
308,749	3,817	216,794	111,060
309,764	3,975	216,658	111,095
310,779	3,616	216,710	110,852
311,793	3,870	216,373	110,853
312,808	3,750	216,136	110,636
313,822	3,719	216,100	110,585
314,837	3,590	215,966	110,414
315,852	3,484	215,843	110,265
316,866	3,654	215,769	110,339
317,881	3,769	215,717	110,386
318,895	4,227	215,448	110,566
319,910	3,767	215,199	110,099
320,925	3,504	214,963	109,780
321,939	3,103	214,881	109,442
322,954	3,074	214,830	109,386
323,968	3,759	214,676	109,787
324,983	3,737	214,572	109,708
325,997	3,738	214,574	109,700
327,012	3,677	214,293	109,503
328,027	3,787	214,074	109,459
329,041	4,073	214,153	109,694
330,056	4,154	214,037	109,683
331,070	3,764	213,929	109,340
332,085	3,444	213,547	108,908
333,100	3,377	213,412	108,781
334,114	3,547	213,398	108,886
335,129	3,912	213,260	109,064
336,143	3,654	213,154	108,817
337,158	3,522	213,049	108,661
338,173	3,566	212,859	108,585
339,187	3,282	212,673	108,279
340,202	3,360	212,442	108,207
341,216	3,253	212,314	108,057
342,231	3,474	212,228	108,160
343,246	3,424	212,083	108,040
344,260	3,378	211,998	107,956
345,275	3,578	211,850	108,012
346,289	3,632	211,813	108,021
347,304	3,932	211,462	108,042
348,319	3,589	211,515	107,819
349,333	3,486	211,322	107,639
350,348	3,542	211,197	107,605
351,362	3,729	211,238	107,747
352,377	3,881	211,039	107,743
353,392	3,637	210,804	107,443
354,406	3,624	210,758	107,400
355,421	195,845	1343,583	1433,796
356,435	156,417	1481,683	1433,873
