DTS Sentinel unit serial number:	SN410029Multiplexer serial number:	ORYXHardware model number:	OX2-SRSoftware version number:	ORYX F/W v4,00 Oryx Data Collector v3.7.2.0data status	okinstallation	B6 Nyhavnadifferential loss correction	single-endedforward channel	channel 2reverse channel	N/Adate	2023/12/10time	13:35:08forward acquisition time	300,00reverse acquisition time	0,00gamma	499,1914k internal	0,3122k external	0,3122temperature offset calibration	1,0000default loss term (dB/km)	0,3820temperature slope calibration	1,0000multiplexer offset coefficient	1,0000multiplexer slope coefficient	1,0000fibre end	0,00T internal ref (°C)	22,75T ext. ref 1 (°C)	6,33T ext. ref 2 (°C)	6,35length (m)	temperature (°C)	Stokes	anti-Stokes-744,400	800,000	0,048	-0,137
-743,385	-95,127	-0,238	0,047
-742,371	-36,989	0,128	-0,051
-741,356	-74,255	-0,188	0,050
-740,342	-118,359	0,076	0,010
-739,327	-34,429	-0,249	0,101
-738,312	-200,000	0,016	-0,102
-737,298	-22,924	-0,238	0,106
-736,283	41,900	0,075	-0,051
-735,269	33,993	-0,208	0,135
-734,254	-146,413	0,080	0,005
-733,239	-79,012	-0,323	-0,081
-732,225	206,395	0,088	-0,102
-731,210	800,000	-0,015	-0,048
-730,196	185,110	-0,051	-0,056
-729,181	175,946	-0,032	-0,034
-728,167	-200,000	-0,010	-0,098
-727,152	-80,264	0,079	0,020
-726,137	-200,000	0,010	-0,104
-725,123	-113,955	-0,112	-0,016
-724,108	-122,026	-0,060	-0,007
-723,094	133,871	0,034	-0,033
-722,079	-93,819	0,052	-0,011
-721,064	-73,064	-0,068	0,018
-720,050	-123,136	0,027	0,003
-719,035	178,093	-0,032	-0,035
-718,021	47,404	-0,149	0,103
-717,006	800,000	-0,076	-0,165
-715,991	23,418	-0,140	-0,086
-714,977	23,892	-0,065	-0,040
-713,962	52,869	0,056	-0,040
-712,948	-200,000	-0,030	0,126
-711,933	196,629	-0,037	0,042
-710,918	-35,220	-0,035	0,014
-709,904	800,000	-0,034	-0,099
-708,889	-200,000	-0,006	-0,089
-707,875	800,000	-0,038	0,091
-706,860	4,006	-0,116	0,063
-705,845	190,876	-0,042	-0,047
-704,831	-200,000	0,000	0,081
-703,816	-200,000	-0,017	-0,085
-702,802	800,000	-0,042	-0,102
-701,787	371,272	-0,036	0,054
-700,772	-51,531	0,083	-0,029
-699,758	152,794	-0,020	-0,020
-698,743	81,785	0,032	-0,026
-697,729	-200,000	0,011	-0,056
-696,714	800,000	0,068	0,157
-695,699	486,992	0,064	0,108
-694,685	388,579	0,026	-0,040
-693,670	-17,687	-0,207	0,096
-692,656	158,099	0,098	0,101
-691,641	800,000	-0,045	0,111
-690,627	314,453	-0,039	-0,054
-689,612	800,000	0,057	-0,123
-688,597	19,632	0,030	-0,018
-687,583	138,584	-0,026	0,026
-686,568	-200,000	-0,006	-0,057
-685,554	-200,000	-0,004	-0,178
-684,539	-200,000	0,006	0,047
-683,524	431,890	-0,015	0,024
-682,510	380,636	-0,040	-0,061
-681,495	800,000	-0,081	-0,183
-680,481	-200,000	-0,010	-0,118
-679,466	800,000	-0,035	-0,076
-678,451	151,092	-0,095	0,096
-677,437	-8,318	0,085	-0,043
-676,422	653,195	-0,078	-0,149
-675,408	800,000	-0,042	0,133
-674,393	-200,000	0,015	-0,059
-673,378	-43,622	-0,173	0,064
-672,364	59,505	-0,048	-0,035
-671,349	310,821	-0,074	-0,104
-670,335	555,571	-0,068	-0,122
-669,320	-61,480	0,063	0,020
-668,305	702,797	-0,016	0,032
-667,291	-156,752	0,102	-0,005
-666,276	-123,634	-0,163	0,019
-665,262	-96,424	-0,091	-0,018
-664,247	-200,000	-0,004	-0,040
-663,232	554,303	0,039	-0,070
-662,218	-70,247	-0,048	0,013
-661,203	800,000	0,043	-0,135
-660,189	42,397	0,014	0,010
-659,174	345,386	-0,056	0,082
-658,159	-200,000	-0,003	-0,040
-657,145	50,180	-0,032	-0,022
-656,130	-58,729	-0,030	-0,010
-655,116	-139,113	0,037	-0,003
-654,101	-200,000	-0,002	-0,025
-653,086	-168,789	-0,038	0,001
-652,072	800,000	-0,064	-0,142
-651,057	66,162	0,069	0,052
-650,043	68,978	-0,024	0,018
-649,028	-98,334	-0,105	-0,020
-648,014	-20,294	-0,104	-0,047
-646,999	61,121	-0,065	0,048
-645,984	-116,072	0,035	0,005
-644,970	194,412	-0,066	-0,075
-643,955	589,133	-0,054	-0,099
-642,941	-99,520	-0,025	-0,005
-641,926	63,351	-0,084	-0,063
-640,911	167,777	-0,012	0,013
-639,897	-200,000	0,003	-0,021
-638,882	800,000	0,042	0,120
-637,868	-73,643	-0,119	0,032
-636,853	55,973	-0,042	-0,030
-635,838	479,871	0,071	-0,120
-634,824	800,000	0,060	-0,149
-633,809	-97,670	0,067	0,013
-632,795	276,698	-0,143	-0,189
-631,780	-36,968	0,085	-0,034
-630,765	-43,851	-0,017	-0,006
-629,751	-200,000	0,038	-0,147
-628,736	514,887	-0,063	-0,110
-627,722	-200,000	-0,004	-0,147
-626,707	-43,514	0,040	-0,015
-625,692	18,962	0,032	-0,019
-624,678	-200,000	0,018	-0,095
-623,663	800,000	0,025	-0,074
-622,649	211,035	-0,017	0,020
-621,634	374,484	0,024	0,036
-620,619	570,799	0,031	0,057
-619,605	-135,621	0,066	0,006
-618,590	-70,587	0,080	0,022
-617,576	-109,101	0,099	0,015
-616,561	28,320	-0,086	0,054
-615,546	102,623	-0,072	-0,063
-614,532	68,916	-0,041	0,031
-613,517	198,793	0,103	-0,117
-612,503	22,370	-0,034	0,021
-611,488	-200,000	-0,021	-0,071
-610,474	-200,000	0,010	0,044
-609,459	-200,000	0,017	-0,064
-608,444	112,512	-0,009	-0,008
-607,430	800,000	0,030	-0,062
-606,415	-23,791	0,070	-0,031
-605,401	-60,871	-0,178	-0,056
-604,386	47,267	0,085	0,059
-603,371	158,255	0,084	-0,086
-602,357	800,000	-0,027	-0,066
-601,342	-33,509	-0,093	0,038
-600,328	800,000	-0,054	0,130
-599,313	-38,765	-0,104	0,041
-598,298	800,000	0,002	0,006
-597,284	-15,055	-0,087	0,041
-596,269	621,585	-0,018	0,035
-595,255	414,349	-0,090	0,143
-594,240	183,257	-0,061	0,067
-593,225	74,048	-0,102	-0,079
-592,211	18,042	-0,138	-0,081
-591,196	270,048	0,047	-0,062
-590,182	446,779	0,016	0,026
-589,167	-200,000	-0,007	-0,132
-588,152	131,619	-0,074	-0,070
-587,138	341,891	0,013	-0,019
-586,123	401,748	-0,054	-0,084
-585,109	150,634	0,113	-0,114
-584,094	-200,000	0,012	0,087
-583,079	330,871	0,123	0,177
-582,065	-157,542	-0,068	-0,003
-581,050	-200,000	-0,046	-0,162
-580,036	38,976	-0,065	0,043
-579,021	157,205	-0,069	-0,071
-578,006	2,178	-0,026	0,014
-576,992	59,940	-0,147	0,107
-575,977	800,000	0,003	0,008
-574,963	71,850	-0,085	0,066
-573,948	-155,504	-0,143	-0,007
-572,934	-84,651	-0,078	0,018
-571,919	-3,040	-0,087	-0,045
-570,904	-200,000	0,019	0,095
-569,890	-50,127	0,024	-0,008
-568,875	-146,302	0,094	0,006
-567,861	172,094	-0,081	-0,086
-566,846	-109,631	0,078	-0,012
-565,831	32,848	0,034	-0,022
-564,817	16,176	-0,055	-0,032
-563,802	-200,000	0,007	-0,103
-562,788	187,039	0,119	-0,132
-561,773	800,000	-0,038	0,081
-560,758	2,398	-0,013	0,007
-559,744	89,410	-0,103	0,085
-558,729	-200,000	-0,025	-0,106
-557,715	-36,201	-0,029	-0,012
-556,700	-200,000	-0,009	-0,076
-555,685	-46,017	0,085	0,031
-554,671	394,126	0,039	-0,060
-553,656	60,400	0,135	-0,099
-552,642	-200,000	0,002	-0,019
-551,627	1,837	-0,106	-0,056
-550,612	800,000	-0,050	-0,113
-549,598	121,700	-0,155	-0,143
-548,583	-5,453	-0,056	-0,028
-547,569	-60,110	0,139	-0,044
-546,554	292,471	0,043	0,058
-545,539	590,761	0,077	0,140
-544,525	715,217	-0,006	-0,011
-543,510	214,778	0,137	-0,161
-542,496	-121,684	-0,151	-0,018
-541,481	-200,000	0,005	-0,045
-540,466	155,472	-0,030	-0,030
-539,452	-200,000	0,021	-0,228
-538,437	-138,815	0,081	0,006
-537,423	800,000	0,014	0,046
-536,408	-56,444	-0,027	0,009
-535,393	-200,000	-0,014	0,063
-534,379	-21,160	-0,126	-0,057
-533,364	-200,000	0,023	-0,078
-532,350	-41,492	-0,082	0,031
-531,335	265,799	-0,090	-0,116
-530,321	-48,456	0,100	0,035
-529,306	220,419	0,112	-0,133
-528,291	-200,000	-0,005	-0,081
-527,277	59,160	-0,092	-0,067
-526,262	480,284	-0,056	-0,094
-525,248	-200,000	0,010	0,046
-524,233	18,169	0,041	0,024
-523,218	-107,528	-0,066	0,011
-522,204	-200,000	0,005	-0,034
-521,189	-117,696	-0,074	0,010
-520,175	-200,000	-0,013	-0,082
-519,160	360,429	-0,043	-0,064
-518,145	800,000	0,059	0,159
-517,131	800,000	-0,027	0,076
-516,116	800,000	0,045	0,105
-515,102	-76,035	0,103	0,027
-514,087	116,662	-0,137	0,124
-513,072	800,000	-0,041	-0,110
-512,058	224,408	-0,079	-0,095
-511,043	-200,000	-0,016	0,089
-510,029	-90,637	0,091	-0,019
-509,014	372,729	-0,034	0,051
-507,999	221,380	-0,024	-0,028
-506,985	298,712	-0,052	0,071
-505,970	-85,394	-0,045	-0,010
-504,956	800,000	0,086	-0,186
-503,941	-200,000	-0,012	0,107
-502,926	-200,000	0,020	0,080
-501,912	-200,000	-0,023	0,144
-500,897	-200,000	-0,017	0,065
-499,883	-27,133	-0,163	0,070
-498,868	20,000	0,065	-0,038
-497,853	-200,000	-0,017	0,156
-496,839	120,427	0,067	-0,062
-495,824	-200,000	-0,034	0,145
-494,810	43,803	0,030	0,020
-493,795	-200,000	0,002	0,056
-492,781	800,000	0,044	-0,119
-491,766	95,748	-0,109	-0,092
-490,751	-161,824	0,074	-0,003
-489,737	-82,997	-0,049	0,012
-488,722	504,406	0,031	0,054
-487,708	-65,257	0,079	0,023
-486,693	-165,059	-0,046	0,001
-485,678	-6,488	-0,137	-0,069
-484,664	-41,677	-0,097	0,036
-483,649	-28,091	-0,024	0,010
-482,635	-197,175	0,180	0,001
-481,620	-200,000	-0,007	0,097
-480,605	54,817	0,124	0,088
-479,591	-49,564	0,099	-0,034
-478,576	10,356	-0,021	0,012
-477,562	229,634	-0,090	0,108
-476,547	-200,000	0,015	0,050
-475,532	-167,689	-0,076	-0,002
-474,518	225,316	0,051	-0,061
-473,503	89,047	0,107	-0,088
-472,489	-200,000	-0,025	-0,087
-471,474	-200,000	0,010	-0,120
-470,459	37,373	0,079	-0,052
-469,445	-111,495	-0,126	-0,019
-468,430	-24,151	0,109	-0,048
-467,416	-107,922	0,060	-0,010
-466,401	-200,000	-0,004	0,029
-465,386	1,025	0,046	0,024
-464,372	-200,000	-0,001	0,054
-463,357	-47,769	-0,100	0,036
-462,343	-22,676	0,041	0,018
-461,328	-200,000	-0,001	-0,088
-460,313	800,000	-0,062	0,129
-459,299	-134,230	0,070	-0,006
-458,284	-22,772	-0,057	0,025
-457,270	45,539	0,118	-0,080
-456,255	11,494	-0,025	-0,014
-455,241	-33,639	-0,151	-0,061
-454,226	-200,000	-0,005	0,087
-453,211	71,231	0,121	0,093
-452,197	29,525	0,055	-0,034
-451,182	-200,000	0,014	0,173
-450,168	800,000	0,036	0,077
-449,153	800,000	-0,019	0,040
-448,138	-200,000	0,005	-0,033
-447,124	53,097	-0,032	0,023
-446,109	352,955	0,040	-0,059
-445,095	-58,824	-0,073	0,023
-444,080	800,000	-0,029	0,060
-443,065	-87,302	0,098	0,022
-442,051	-200,000	0,018	-0,084
-441,036	169,862	0,045	0,047
-440,022	-200,000	-0,026	0,176
-439,007	-200,000	-0,031	-0,174
-437,992	800,000	0,021	0,059
-436,978	-200,000	-0,001	0,015
-435,963	-84,409	0,072	0,017
-434,949	-200,000	0,013	-0,051
-433,934	-85,928	-0,097	-0,022
-432,919	-163,421	0,144	0,005
-431,905	800,000	0,012	-0,025
-430,890	148,880	0,043	0,042
-429,876	-200,000	0,033	0,172
-428,861	-200,000	0,017	-0,179
-427,846	-3,765	-0,061	0,031
-426,832	-200,000	-0,005	-0,074
-425,817	-101,952	-0,033	0,006
-424,803	672,430	-0,048	-0,092
-423,788	495,692	-0,015	-0,026
-422,773	6,112	0,108	-0,059
-421,759	-116,909	0,138	0,018
-420,744	800,000	-0,009	0,024
-419,730	800,000	0,080	-0,197
-418,715	-200,000	-0,017	0,077
-417,701	401,112	-0,019	-0,029
-416,686	-200,000	-0,008	-0,093
-415,671	800,000	0,042	-0,088
-414,657	17,036	-0,091	0,053
-413,642	-200,000	-0,028	0,124
-412,628	-72,137	0,102	0,028
-411,613	800,000	-0,027	0,074
-410,598	26,341	0,141	-0,087
-409,584	-200,000	-0,009	-0,070
-408,569	385,294	0,048	0,073
-407,555	800,000	-0,025	0,063
-406,540	18,180	-0,073	-0,043
-405,525	800,000	0,038	-0,118
-404,511	-200,000	0,005	-0,041
-403,496	800,000	-0,032	-0,072
-402,482	123,193	0,066	0,060
-401,467	426,140	-0,048	0,076
-400,452	103,257	-0,018	-0,015
-399,438	12,442	0,033	0,019
-398,423	-176,126	0,075	-0,001
-397,409	-47,631	-0,124	-0,044
-396,394	-88,411	0,073	0,016
-395,379	-85,403	-0,053	0,012
-394,365	6,466	0,123	0,067
-393,350	91,087	0,104	0,086
-392,336	23,388	0,092	0,055
-391,321	356,311	0,033	0,048
-390,306	182,425	0,053	-0,057
-389,292	-145,229	-0,147	-0,010
-388,277	-92,006	0,112	0,023
-387,263	800,000	0,041	-0,129
-386,248	-22,200	0,049	0,022
-385,233	-200,000	0,016	0,059
-384,219	800,000	-0,042	0,117
-383,204	-153,831	-0,134	0,007
-382,190	5,423	-0,082	0,044
-381,175	30,428	-0,030	0,019
-380,160	-38,759	0,115	0,044
-379,146	521,003	-0,049	0,085
-378,131	-23,811	-0,139	0,061
-377,117	800,000	-0,028	0,068
-376,102	51,369	-0,084	-0,059
-375,088	800,000	0,055	-0,142
-374,073	79,910	-0,059	-0,047
-373,058	-126,282	0,100	-0,011
-372,044	163,152	0,063	0,065
-371,029	27,838	0,039	-0,024
-370,015	800,000	-0,035	-0,090
-369,000	133,969	-0,064	0,061
-367,985	-2,865	-0,112	-0,058
-366,971	800,000	-0,010	-0,033
-365,956	-63,094	0,147	0,044
-364,942	672,631	-0,011	-0,021
-363,927	800,000	0,040	0,104
-362,912	800,000	-0,044	0,098
-361,898	171,963	-0,054	-0,057
-360,883	42,233	-0,114	0,076
-359,869	-200,000	0,011	0,120
-358,854	-86,015	0,154	0,035
-357,839	-200,000	0,019	0,141
-356,825	-28,485	-0,042	0,018
-355,810	240,944	0,023	-0,028
-354,796	-200,000	-0,015	-0,060
-353,781	-95,402	-0,201	0,039
-352,766	800,000	0,015	-0,046
-351,752	-21,333	0,076	0,034
-350,737	-200,000	0,007	0,120
-349,723	675,819	0,015	0,028
-348,708	-125,368	0,156	0,017
-347,693	-200,000	0,004	-0,071
-346,679	204,312	-0,068	0,077
-345,664	-123,430	0,054	-0,006
-344,650	59,714	0,010	-0,007
-343,635	186,997	0,014	-0,015
-342,620	112,723	0,036	-0,032
-341,606	-1,323	0,128	0,066
-340,591	-105,838	0,131	0,022
-339,577	107,511	0,105	0,092
-338,562	-200,000	-0,013	-0,071
-337,548	758,012	-0,054	-0,109
-336,533	-200,000	-0,018	-0,065
-335,518	55,515	0,123	-0,088
-334,504	95,391	0,013	0,011
-333,489	-155,240	-0,167	0,008
-332,475	-200,000	-0,010	-0,044
-331,460	654,491	0,031	-0,059
-330,445	138,913	0,041	-0,040
-329,431	-200,000	-0,002	-0,015
-328,416	97,773	0,100	-0,085
-327,402	-95,319	-0,069	-0,014
-326,387	172,131	0,129	0,136
-325,372	-200,000	-0,032	-0,204
-324,358	443,306	-0,005	-0,008
-323,343	17,693	-0,058	-0,033
-322,329	-134,629	0,024	-0,002
-321,314	95,376	0,098	0,081
-320,299	31,100	0,080	0,050
-319,285	800,000	-0,059	0,158
-318,270	-31,245	-0,090	0,037
-317,256	297,406	0,043	-0,057
-316,241	41,727	0,022	0,014
-315,226	297,727	0,010	0,014
-314,212	-74,027	0,028	-0,007
-313,197	-6,589	-0,094	0,047
-312,183	397,507	-0,017	0,026
-311,168	-200,000	0,022	0,089
-310,153	-51,435	-0,049	-0,017
-309,139	-15,440	-0,111	-0,052
-308,124	349,943	0,105	0,152
-307,110	-200,000	0,037	0,148
-306,095	13,896	-0,056	0,032
-305,080	-200,000	0,010	0,138
-304,066	-200,000	-0,030	0,108
-303,051	116,170	-0,043	0,039
-302,037	-200,000	0,001	-0,005
-301,022	37,733	0,105	0,068
-300,008	206,145	0,121	-0,138
-298,993	800,000	-0,014	0,035
-297,978	260,627	-0,082	0,104
-296,964	24,698	-0,079	0,048
-295,949	-200,000	-0,020	-0,093
-294,935	628,296	-0,016	-0,029
-293,920	-200,000	0,010	-0,111
-292,905	-188,173	0,093	0,001
-291,891	-55,506	-0,064	0,021
-290,876	-10,442	-0,067	0,032
-289,862	406,997	0,075	0,117
-288,847	-25,401	-0,186	0,080
-287,832	122,060	0,093	-0,085
-286,818	-136,075	0,060	-0,005
-285,803	-200,000	0,036	0,117
-284,789	-200,000	0,005	0,068
-283,774	794,229	-0,048	0,096
-282,759	-200,000	-0,006	-0,059
-281,745	22,183	-0,083	-0,049
-280,730	-200,000	0,024	-0,109
-279,716	156,896	-0,055	0,056
-278,701	-200,000	-0,020	0,070
-277,686	-19,385	0,140	0,063
-276,672	-200,000	0,007	0,060
-275,657	-42,323	0,071	-0,026
-274,643	545,709	-0,071	0,124
-273,628	-28,261	0,075	-0,032
-272,613	42,920	-0,097	-0,065
-271,599	167,837	0,056	0,058
-270,584	634,062	-0,020	-0,038
-269,570	600,340	0,042	0,077
-268,555	-200,000	-0,001	0,039
-267,540	89,032	-0,040	0,032
-266,526	102,527	-0,065	0,056
-265,511	36,394	-0,060	0,039
-264,497	-200,000	0,026	-0,108
-263,482	-90,743	0,225	0,047
-262,467	-112,296	0,068	0,010
-261,453	-41,100	-0,039	0,015
-260,438	-200,000	-0,014	-0,127
-259,424	-12,884	-0,071	-0,034
-258,409	20,719	-0,029	0,017
-257,395	146,684	-0,050	0,049
-256,380	-71,822	0,058	0,016
-255,365	-200,000	0,017	0,064
-254,351	800,000	0,037	0,076
-253,336	298,202	-0,059	0,080
-252,322	-59,592	-0,100	-0,031
-251,307	800,000	-0,034	-0,094
-250,292	74,910	0,019	-0,015
-249,278	-99,477	0,106	-0,019
-248,263	85,485	-0,111	-0,089
-247,249	-200,000	0,035	0,188
-246,234	-8,841	0,093	-0,046
-245,219	-93,613	-0,077	-0,015
-244,205	-31,008	0,028	-0,012
-243,190	-200,000	0,085	0,000
-242,176	557,837	0,046	0,081
-241,161	-200,000	-0,022	0,071
-240,146	-200,000	-0,008	0,125
-239,132	214,268	-0,030	-0,035
-238,117	59,354	-0,119	-0,085
-237,103	800,000	-0,049	-0,119
-236,088	-37,975	0,041	-0,016
-235,073	800,000	0,049	0,109
-234,059	-200,000	-0,001	0,140
-233,044	-118,774	-0,043	-0,005
-232,030	412,318	0,039	0,061
-231,015	320,660	-0,047	0,065
-230,000	800,000	0,026	0,077
-228,986	7,484	-0,118	-0,064
-227,971	-41,089	-0,081	-0,030
-226,957	47,550	0,068	0,046
-225,942	-200,000	0,013	0,116
-224,927	19,932	0,117	-0,069
-223,913	800,000	-0,028	0,062
-222,898	-200,000	-0,021	-0,126
-221,884	-108,624	0,131	0,020
-220,869	-100,389	-0,064	-0,011
-219,855	-200,000	-0,003	0,011
-218,840	-200,000	-0,005	0,084
-217,825	772,090	-0,035	0,070
-216,811	-65,649	0,074	-0,021
-215,796	-200,000	0,027	0,095
-214,782	143,178	-0,065	-0,063
-213,767	-86,978	-0,042	0,009
-212,752	596,515	0,054	0,097
-211,738	691,629	0,045	-0,086
-210,723	20,063	0,027	0,016
-209,709	225,306	-0,033	0,039
-208,694	230,774	-0,063	-0,076
-207,679	-200,000	-0,014	-0,079
-206,665	-85,990	-0,265	0,059
-205,650	-200,000	-0,002	-0,045
-204,636	-131,793	0,044	-0,004
-203,621	-157,650	-0,079	-0,003
-202,606	723,961	-0,058	-0,114
-201,592	111,628	-0,065	0,057
-200,577	-200,000	0,002	-0,036
-199,563	-82,352	0,102	-0,024
-198,548	24,160	0,140	0,084
-197,533	-64,319	0,027	0,008
-196,519	-116,291	0,118	-0,016
-195,504	-56,847	0,045	-0,014
-194,490	-200,000	0,027	-0,088
-193,475	-101,813	0,025	-0,004
-192,460	800,000	0,045	-0,101
-191,446	41,079	-0,038	0,025
-190,431	787,086	0,016	0,032
-189,417	368,138	0,091	0,135
-188,402	250,375	-0,097	-0,120
-187,387	-162,265	-0,088	-0,003
-186,373	-200,000	-0,014	0,070
-185,358	-5,421	0,102	0,051
-184,344	-141,400	0,024	-0,002
-183,329	-73,029	0,174	0,046
-182,315	169,816	0,046	-0,048
-181,300	800,000	0,054	-0,171
-180,285	-189,861	-0,153	-0,001
-179,271	544,572	-0,070	0,123
-178,256	59,981	-0,043	-0,031
-177,242	800,000	-0,009	0,023
-176,227	80,749	0,056	-0,044
-175,212	131,734	0,112	-0,105
-174,198	-200,000	0,009	-0,092
-173,183	800,000	-0,034	-0,104
-172,169	-6,217	-0,055	0,027
-171,154	391,232	-0,030	0,045
-170,139	169,697	0,037	0,039
-169,125	298,382	0,043	0,057
-168,110	-200,000	-0,023	0,077
-167,096	-148,075	0,032	0,002
-166,081	-37,792	0,098	0,038
-165,066	-200,000	-0,056	-0,182
-164,052	-200,000	0,022	-0,075
-163,037	111,651	0,111	0,097
-162,023	-160,933	0,076	0,003
-161,008	-127,352	-0,064	0,007
-159,993	285,095	-0,097	0,127
-158,979	27,347	0,078	-0,048
-157,964	800,000	-0,030	-0,091
-156,950	205,133	0,085	-0,096
-155,935	800,000	0,011	0,035
-154,920	780,158	-0,043	0,086
-153,906	-79,242	-0,054	0,013
-152,891	-60,650	0,122	0,037
-151,877	-27,463	-0,070	0,030
-150,862	800,000	0,023	-0,068
-149,847	535,131	0,028	-0,048
-148,833	207,771	-0,037	-0,042
-147,818	800,000	-0,051	-0,108
-146,804	391,423	0,075	-0,115
-145,789	-200,000	-0,022	-0,087
-144,775	800,000	-0,036	0,101
-143,760	-200,000	0,003	-0,032
-142,745	-200,000	0,010	0,036
-141,731	-112,584	0,123	-0,018
-140,716	-57,912	-0,094	-0,030
-139,702	389,807	0,043	0,065
-138,687	-78,860	0,064	0,016
-137,672	297,570	0,041	-0,055
-136,658	-128,054	0,061	-0,006
-135,643	-78,741	-0,101	0,025
-134,629	-3,069	-0,072	-0,036
-133,614	-131,802	0,174	0,016
-132,599	800,000	0,007	0,016
-131,585	239,568	-0,013	0,016
-130,570	92,461	-0,061	-0,050
-129,556	800,000	-0,015	0,045
-128,541	1,557	-0,244	-0,127
-127,526	48,033	-0,130	0,088
-126,512	-118,478	0,125	-0,016
-125,497	1,249	0,093	0,048
-124,483	-148,739	0,080	0,005
-123,468	55,465	0,036	-0,025
-122,453	67,786	-0,075	-0,056
-121,439	102,804	0,048	-0,041
-120,424	40,845	0,054	0,035
-119,410	800,000	0,039	-0,086
-118,395	379,061	0,023	-0,034
-117,380	-53,776	0,145	0,048
-116,366	114,349	-0,109	0,096
-115,351	800,000	-0,033	0,071
-114,337	424,728	0,005	0,007
-113,322	140,500	0,020	0,019
-112,307	-200,000	-0,010	0,065
-111,293	800,000	0,057	0,135
-110,278	106,142	0,021	0,018
-109,264	166,772	-0,061	0,063
-108,249	-29,990	0,042	0,017
-107,234	125,077	-0,050	0,046
-106,220	162,451	-0,105	-0,107
-105,205	-172,765	0,104	-0,002
-104,191	160,706	-0,034	0,034
-103,176	573,746	0,011	0,020
-102,162	216,882	0,119	0,138
-101,147	-39,421	-0,129	-0,049
-100,132	800,000	-0,028	-0,087
-99,118	-200,000	0,012	-0,060
-98,103	-116,479	0,193	0,026
-97,089	-81,017	0,055	0,013
-96,074	43,113	0,089	0,059
-95,059	81,511	0,058	0,046
-94,045	37,740	0,126	0,081
-93,030	41,044	0,043	-0,028
-92,016	461,768	0,056	-0,092
-91,001	-200,000	-0,016	-0,082
-89,986	595,804	0,058	0,105
-88,972	-200,000	-0,019	0,079
-87,957	79,460	-0,124	0,096
-86,943	-200,000	-0,011	0,044
-85,928	-41,793	0,084	-0,031
-84,913	-0,054	0,095	-0,049
-83,899	-7,431	0,038	-0,019
-82,884	338,042	0,067	0,094
-81,870	-200,000	-0,021	0,082
-80,855	158,687	-0,028	0,028
-79,840	35,076	-0,018	0,012
-78,826	-200,000	-0,009	0,030
-77,811	-110,145	0,152	-0,023
-76,797	149,000	-0,119	0,117
-75,782	159,418	0,034	0,035
-74,767	432,578	-0,068	0,108
-73,753	-146,781	-0,058	-0,004
-72,738	65,042	0,056	0,041
-71,724	144,189	0,019	0,018
-70,709	-200,000	0,018	-0,120
-69,694	800,000	0,047	0,099
-68,680	159,383	0,103	0,104
-67,665	-200,000	0,003	0,055
-66,651	-200,000	-0,069	0,228
-65,636	800,000	0,047	0,101
-64,622	-200,000	-0,001	-0,098
-63,607	800,000	0,069	-0,145
-62,592	-200,000	-0,025	-0,119
-61,578	-97,936	-0,074	0,014
-60,563	-200,000	0,016	-0,129
-59,549	-200,000	-0,012	0,119
-58,534	-162,793	-1,401	-0,049
-57,519	511,477	-0,881	-1,495
-56,505	-200,000	-1,010	-4,368
-55,490	-2,377	0,592	-0,300
-54,476	800,000	4,958	11,787
-53,461	-200,000	13,284	252,958
-52,446	-200,000	687,957	2274,180
-51,432	599,987	1622,921	2936,138
-50,417	121,339	1637,192	1480,117
-49,403	73,506	1291,582	980,550
-48,388	38,569	1025,979	662,791
-47,373	24,631	983,349	589,353
-46,359	23,909	973,036	580,777
-45,344	23,034	968,742	575,328
-44,330	22,899	967,428	574,084
-43,315	22,772	966,032	572,817
-42,300	22,819	964,867	572,256
-41,286	22,783	963,998	571,603
-40,271	22,816	963,032	571,114
-39,257	22,776	962,245	570,496
-38,242	22,773	961,077	569,770
-37,227	22,678	960,413	569,043
-36,213	22,755	959,430	568,689
-35,198	22,730	958,637	568,117
-34,184	22,809	957,949	567,942
-33,169	22,767	957,036	567,240
-32,154	22,833	955,989	566,811
-31,140	22,779	955,210	566,153
-30,125	22,799	954,552	565,805
-29,111	22,764	953,714	565,173
-28,096	22,757	952,911	564,653
-27,082	22,844	952,184	564,477
-26,067	22,814	951,566	563,994
-25,052	22,750	950,868	563,353
-24,038	22,749	950,228	562,946
-23,023	22,816	949,319	562,602
-22,009	22,812	948,935	562,337
-20,994	22,850	948,336	562,082
-19,979	22,793	947,702	561,504
-18,965	22,782	947,298	561,207
-17,950	22,781	946,427	560,665
-16,936	22,712	945,878	560,095
-15,921	22,738	944,994	559,635
-14,906	22,667	944,361	559,011
-13,892	22,626	943,793	558,521
-12,877	22,709	942,908	558,240
-11,863	22,675	942,324	557,763
-10,848	22,652	941,939	557,441
-9,833	22,803	941,254	557,491
-8,819	22,682	940,873	556,859
-7,804	22,751	940,038	556,564
-6,790	22,693	939,572	556,081
-5,775	22,752	938,937	555,869
-4,760	22,687	938,491	555,380
-3,746	22,673	937,772	554,887
-2,731	22,542	937,112	554,059
-1,717	22,444	936,452	553,336
-0,702	22,481	935,553	552,903
0,313	22,324	934,975	552,898
1,327	25,509	932,679	561,518
2,342	35,270	797,568	506,212
3,356	33,359	452,342	284,192
4,371	2,110	293,582	153,299
5,386	-2,556	274,492	138,905
6,400	-4,080	268,513	134,455
7,415	-4,417	265,997	132,874
8,429	-4,346	264,927	132,392
9,444	-4,352	264,124	131,974
10,459	-4,363	263,530	131,655
11,473	-4,300	262,810	131,341
12,488	-4,436	262,396	131,000
13,502	-4,592	261,833	130,566
14,517	-4,525	261,418	130,408
15,531	-4,301	261,024	130,401
16,546	-4,165	260,592	130,296
17,561	-4,327	260,363	130,024
18,575	-4,183	259,974	129,948
19,590	-4,366	259,708	129,639
20,604	-4,188	259,382	129,625
21,619	-4,407	259,053	129,252
22,634	-4,402	258,806	129,122
23,648	-4,365	258,402	128,942
24,663	-4,277	258,112	128,864
25,677	-4,385	257,970	128,686
26,692	-4,357	257,656	128,543
27,707	-4,512	257,420	128,276
28,721	-4,442	257,143	128,188
29,736	-4,427	256,910	128,074
30,750	-4,364	256,522	127,925
31,765	-4,484	256,454	127,774
32,780	-4,354	256,136	127,718
33,794	-4,545	256,119	127,530
34,809	-4,409	255,724	127,442
35,823	-4,521	255,465	127,203
36,838	-4,530	255,325	127,114
37,853	-4,342	254,975	127,093
38,867	-4,355	254,825	126,996
39,882	-4,436	254,596	126,799
40,896	-4,327	254,299	126,736
41,911	-4,523	254,106	126,457
42,926	-4,514	254,012	126,406
43,940	-4,595	253,652	126,145
44,955	-4,666	253,420	125,957
45,969	-4,505	253,195	125,974
46,984	-4,624	252,950	125,737
47,999	-4,857	252,655	125,377
49,013	-4,994	252,347	125,094
50,028	-5,137	252,209	124,890
51,042	-5,131	251,932	124,747
52,057	-5,192	251,746	124,592
53,071	-5,105	251,562	124,564
54,086	-4,875	251,287	124,616
55,101	-4,852	251,151	124,556
56,115	-4,810	250,984	124,499
57,130	-4,541	251,088	124,772
58,144	-4,063	250,838	125,049
59,159	-4,090	250,729	124,960
60,174	-4,146	250,343	124,708
61,188	-4,139	250,098	124,582
62,203	-4,115	249,923	124,504
63,217	-4,229	249,765	124,316
64,232	-4,440	249,660	124,072
65,247	-3,981	249,308	124,279
66,261	-4,401	249,143	123,826
67,276	-4,491	249,004	123,669
68,290	-4,664	248,741	123,379
69,305	-4,953	248,400	122,952
70,320	-4,757	248,253	123,036
71,334	-4,670	248,137	123,042
72,349	-4,493	248,043	123,135
73,363	-4,148	247,824	123,309
74,378	-4,087	247,569	123,223
75,393	-4,537	247,482	122,786
76,407	-4,337	247,210	122,810
77,422	-4,347	246,924	122,649
78,436	-4,296	246,760	122,600
79,451	-4,267	246,577	122,522
80,466	-4,213	246,281	122,410
81,480	-4,603	246,037	121,948
82,495	-4,531	245,854	121,908
83,509	-4,449	245,701	121,890
84,524	-4,507	245,551	121,756
85,539	-4,822	245,286	121,348
86,553	-4,895	245,203	121,235
87,568	-4,767	245,026	121,245
88,582	-4,713	244,743	121,139
89,597	-4,517	244,569	121,206
90,611	-4,517	244,587	121,205
91,626	-4,520	244,494	121,145
92,641	-4,441	244,325	121,116
93,655	-4,470	243,994	120,917
94,670	-4,523	243,740	120,736
95,684	-4,395	243,643	120,784
96,699	-4,590	243,471	120,526
97,714	-4,592	243,021	120,291
98,728	-4,759	243,022	120,142
99,743	-4,626	242,681	120,072
100,757	-4,926	242,630	119,787
101,772	-4,811	242,339	119,729
102,787	-4,643	242,280	119,828
103,801	-4,506	242,120	119,852
104,816	-4,520	242,026	119,783
105,830	-4,494	241,833	119,698
106,845	-4,227	241,594	119,790
107,860	-4,332	241,442	119,618
108,874	-4,497	241,280	119,391
109,889	-4,592	240,965	119,146
110,903	-4,574	240,992	119,163
111,918	-4,643	240,754	118,978
112,933	-4,645	240,480	118,830
113,947	-4,453	240,268	118,872
114,962	-4,169	240,218	119,070
115,976	-4,253	239,895	118,831
116,991	-4,418	239,768	118,622
118,006	-4,458	239,700	118,545
119,020	-4,332	239,624	118,600
120,035	-4,471	239,358	118,345
121,049	-4,442	239,308	118,333
122,064	-4,333	238,939	118,229
123,079	-4,208	238,759	118,231
124,093	-4,380	238,565	117,984
125,108	-4,470	238,342	117,790
126,122	-4,876	238,247	117,402
127,137	-4,875	238,052	117,296
128,151	-4,817	237,964	117,290
129,166	-4,655	237,735	117,298
130,181	-4,926	237,554	116,978
131,195	-4,883	237,374	116,914
132,210	-4,661	237,326	117,060
133,224	-4,380	236,980	117,106
134,239	-4,492	236,881	116,956
135,254	-4,382	236,715	116,953
136,268	-4,574	236,426	116,645
137,283	-5,028	236,318	116,215
138,297	-4,817	236,076	116,255
139,312	-4,994	235,898	116,014
140,327	-4,573	235,726	116,259
141,341	-4,096	235,698	116,618
142,356	-4,101	235,567	116,539
143,370	-4,073	235,482	116,509
144,385	-4,187	235,362	116,348
145,400	-4,199	235,091	116,194
146,414	-3,939	234,802	116,249
147,429	-3,910	234,712	116,217
148,443	-4,002	234,585	116,070
149,458	-4,309	234,469	115,757
150,473	-4,120	234,242	115,785
151,487	-4,311	234,115	115,560
152,502	-4,279	234,065	115,550
153,516	-4,033	233,885	115,647
154,531	-4,200	233,578	115,352
155,546	-4,080	233,370	115,335
156,560	-4,171	233,287	115,211
157,575	-4,409	233,030	114,885
158,589	-4,361	233,041	114,918
159,604	-4,130	232,742	114,944
160,619	-4,110	232,613	114,885
161,633	-4,037	232,486	114,870
162,648	-4,000	232,293	114,794
163,662	-4,181	232,114	114,552
164,677	-4,267	232,136	114,485
165,692	-4,231	231,925	114,399
166,706	-4,135	231,765	114,386
167,721	-3,912	231,627	114,483
168,735	-3,852	231,540	114,477
169,750	-3,904	231,419	114,366
170,764	-4,083	231,220	114,117
171,779	-3,914	231,060	114,160
172,794	-3,962	230,852	114,010
173,808	-4,246	230,663	113,683
174,823	-4,462	230,243	113,297
175,837	-4,613	230,066	113,082
176,852	-4,366	230,130	113,297
177,867	-4,044	230,030	113,490
178,881	-4,141	230,047	113,412
179,896	-4,138	229,798	113,281
180,910	-4,133	229,604	113,179
181,925	-3,921	229,297	113,183
182,940	-4,092	229,300	113,041
183,954	-4,175	229,184	112,909
184,969	-4,011	229,059	112,965
185,983	-3,875	228,741	112,904
186,998	-3,969	228,778	112,839
188,013	-4,092	228,692	112,691
189,027	-3,812	228,422	112,765
190,042	-3,865	228,179	112,595
191,056	-4,012	228,115	112,438
192,071	-3,913	227,759	112,330
193,086	-3,852	227,549	112,263
194,100	-4,137	227,494	112,006
195,115	-4,598	227,188	111,490
196,129	-5,536	226,719	110,528
197,144	-2,414	227,817	113,467
198,159	2,306	228,996	117,705
199,173	3,971	229,503	119,247
200,188	3,982	229,360	119,170
201,202	4,312	229,223	119,344
202,217	4,358	229,078	119,293
203,232	4,698	229,064	119,538
204,246	4,633	228,916	119,400
205,261	4,694	228,728	119,338
206,275	5,066	228,734	119,618
207,290	5,009	228,471	119,425
208,304	4,958	228,428	119,353
209,319	4,976	228,063	119,165
210,334	4,759	228,141	119,029
211,348	4,497	227,664	118,568
212,363	4,188	227,393	118,179
213,377	3,831	227,292	117,843
214,392	3,963	227,157	117,863
215,407	3,986	227,222	117,904
216,421	4,308	226,888	117,967
217,436	3,968	226,735	117,617
218,450	3,626	226,627	117,289
219,465	3,695	226,453	117,241
220,480	3,866	226,223	117,242
221,494	3,671	226,111	117,024
222,509	3,883	226,050	117,144
223,523	4,224	225,783	117,255
224,538	3,838	225,635	116,874
225,553	3,857	225,592	116,856
226,567	3,969	225,441	116,852
227,582	4,271	225,315	117,006
228,596	4,314	225,227	116,982
229,611	4,295	224,952	116,815
230,626	3,922	224,699	116,391
231,640	3,851	224,538	116,243
232,655	4,008	224,607	116,387
233,669	4,471	224,591	116,718
234,684	4,630	224,417	116,738
235,699	4,450	224,151	116,454
236,713	4,193	224,012	116,177
237,728	3,962	223,894	115,932
238,742	3,999	223,597	115,795
239,757	4,102	223,394	115,757
240,772	4,170	223,255	115,726
241,786	3,907	223,168	115,473
242,801	4,159	223,206	115,671
243,815	4,503	223,029	115,827
244,830	4,498	222,804	115,696
245,844	3,926	222,650	115,178
246,859	4,159	222,631	115,333
247,874	4,166	222,423	115,219
248,888	4,332	222,330	115,285
249,903	4,139	222,112	115,018
250,917	4,064	221,894	114,838
251,932	3,951	221,692	114,640
252,947	3,984	221,521	114,566
253,961	4,098	221,419	114,587
254,976	4,110	221,256	114,502
255,990	4,419	221,229	114,707
257,005	4,229	221,151	114,516
258,020	4,348	220,913	114,470
259,034	4,703	220,902	114,718
260,049	4,393	220,626	114,334
261,063	4,525	220,545	114,380
262,078	4,609	220,337	114,325
263,093	4,543	220,414	114,305
264,107	4,386	220,333	114,137
265,122	4,524	219,928	114,019
266,136	4,427	219,981	113,964
267,151	4,657	219,801	114,031
268,166	4,134	219,466	113,461
269,180	3,805	219,246	113,095
270,195	3,817	219,207	113,074
271,209	3,862	219,071	113,027
272,224	3,988	218,896	113,020
273,239	4,033	218,930	113,060
274,253	4,006	218,602	112,860
275,268	3,815	218,404	112,608
276,282	3,848	218,071	112,451
277,297	3,823	218,064	112,418
278,312	3,643	218,088	112,289
279,326	4,024	217,847	112,433
280,341	4,131	217,783	112,468
281,355	4,017	217,636	112,299
282,370	3,892	217,475	112,115
283,384	4,004	217,263	112,077
284,399	3,868	217,110	111,890
285,414	3,602	217,067	111,664
286,428	4,055	217,073	111,986
287,443	4,179	216,748	111,899
288,457	4,284	216,703	111,942
289,472	3,976	216,549	111,629
290,487	3,603	216,226	111,182
291,501	3,561	216,216	111,137
292,516	3,941	215,923	111,251
293,530	3,908	215,894	111,203
294,545	3,873	215,721	111,079
295,560	3,839	215,671	111,018
296,574	4,190	215,472	111,159
297,589	3,946	215,414	110,943
298,603	3,950	215,457	110,958
299,618	3,857	215,300	110,800
300,633	3,812	215,070	110,639
301,647	4,244	215,033	110,922
302,662	4,368	214,802	110,881
303,676	4,255	214,667	110,722
304,691	4,263	214,571	110,668
305,706	4,290	214,398	110,588
306,720	4,327	214,204	110,505
307,735	4,159	214,136	110,339
308,749	3,635	214,044	109,907
309,764	4,125	213,777	110,110
310,779	4,308	213,812	110,249
311,793	4,284	213,564	110,095
312,808	4,111	213,385	109,869
313,822	3,982	213,262	109,703
314,837	3,830	213,173	109,539
315,852	3,809	212,982	109,417
316,866	4,085	212,765	109,492
317,881	4,164	212,671	109,490
318,895	4,261	212,683	109,556
319,910	3,963	212,476	109,227
320,925	3,688	212,195	108,879
321,939	3,493	211,969	108,614
322,954	3,659	211,838	108,655
323,968	4,235	211,914	109,092
324,983	4,251	211,800	109,035
325,997	4,144	211,782	108,941
327,012	4,041	211,539	108,733
328,027	3,978	211,429	108,622
329,041	4,499	211,265	108,896
330,056	4,541	211,335	108,952
331,070	4,229	210,910	108,503
332,085	3,852	210,696	108,118
333,100	4,103	210,525	108,198
334,114	4,338	210,456	108,317
335,129	3,984	210,433	108,048
336,143	3,870	210,220	107,848
337,158	3,779	210,086	107,706
338,173	3,957	210,017	107,786
339,187	3,883	209,832	107,630
340,202	3,715	209,621	107,394
341,216	3,541	209,657	107,281
342,231	3,942	209,413	107,427
343,246	3,782	209,295	107,245
344,260	4,174	209,065	107,392
345,275	3,966	209,019	107,213
346,289	4,135	208,974	107,298
347,304	4,285	208,747	107,277
348,319	4,247	208,654	107,193
349,333	4,416	208,373	107,155
350,348	4,060	208,376	106,901
351,362	4,268	208,289	106,991
352,377	4,391	208,182	107,011
353,392	4,146	208,066	106,773
354,406	4,158	207,893	106,683
355,421	194,220	1344,338	1434,328
356,435	154,967	1482,911	1434,449
