DTS Sentinel unit serial number:	SN410029Multiplexer serial number:	ORYXHardware model number:	OX2-SRSoftware version number:	ORYX F/W v4,00 Oryx Data Collector v3.7.2.0data status	okinstallation	B6 Nyhavnadifferential loss correction	single-endedforward channel	channel 2reverse channel	N/Adate	2023/12/10time	10:25:08forward acquisition time	300,00reverse acquisition time	0,00gamma	499,1914k internal	0,3123k external	0,3123temperature offset calibration	1,0000default loss term (dB/km)	0,3820temperature slope calibration	1,0000multiplexer offset coefficient	1,0000multiplexer slope coefficient	1,0000fibre end	0,00T internal ref (°C)	22,56T ext. ref 1 (°C)	6,42T ext. ref 2 (°C)	6,43length (m)	temperature (°C)	Stokes	anti-Stokes-744,400	5,903	0,075	0,041
-743,385	-23,268	-0,136	0,061
-742,371	-200,000	0,005	-0,081
-741,356	800,000	-0,050	0,132
-740,342	800,000	-0,026	0,086
-739,327	-200,000	-0,215	-0,000
-738,312	-200,000	0,014	-0,186
-737,298	17,007	-0,117	0,069
-736,283	-200,000	0,004	-0,199
-735,269	-19,542	-0,182	-0,084
-734,254	550,374	0,038	0,069
-733,239	-146,287	-0,508	0,033
-732,225	359,922	0,043	-0,065
-731,210	-200,000	0,003	-0,132
-730,196	12,340	-0,065	0,037
-729,181	800,000	-0,020	-0,045
-728,167	800,000	0,020	-0,063
-727,152	-39,176	-0,062	-0,024
-726,137	-200,000	-0,004	-0,190
-725,123	-80,572	-0,106	-0,026
-724,108	800,000	-0,021	-0,060
-723,094	-200,000	-0,034	-0,198
-722,079	734,343	0,011	-0,022
-721,064	-78,543	0,040	-0,010
-720,050	99,806	0,030	0,026
-719,035	-22,718	-0,085	0,038
-718,021	76,386	-0,123	-0,097
-717,006	-200,000	0,008	-0,030
-715,991	-32,983	-0,073	-0,030
-714,977	-200,000	-0,015	-0,183
-713,962	-200,000	0,003	-0,141
-712,948	-18,754	0,056	0,026
-711,933	800,000	0,044	0,095
-710,918	800,000	0,006	-0,015
-709,904	-200,000	-0,036	-0,214
-708,889	133,588	-0,092	-0,089
-707,875	73,103	0,066	-0,051
-706,860	800,000	0,010	0,030
-705,845	-104,891	0,089	-0,015
-704,831	-58,438	0,162	0,052
-703,816	-147,092	-0,035	0,002
-702,802	-200,000	-0,004	-0,130
-701,787	331,729	-0,059	-0,085
-700,772	540,174	0,069	-0,123
-699,758	1,777	-0,056	0,030
-698,743	-200,000	0,007	0,107
-697,729	16,913	0,093	0,055
-696,714	-67,628	0,080	0,023
-695,699	-200,000	0,006	-0,075
-694,685	800,000	-0,068	-0,155
-693,670	-200,000	-0,040	-0,158
-692,656	496,554	-0,041	0,070
-691,641	-200,000	0,029	0,102
-690,627	-7,227	-0,091	0,046
-689,612	-63,998	-0,047	-0,014
-688,597	-45,146	-0,015	-0,006
-687,583	800,000	-0,051	-0,106
-686,568	-96,645	-0,096	0,019
-685,554	158,672	0,096	-0,099
-684,539	32,919	-0,092	-0,059
-683,524	194,664	-0,057	0,065
-682,510	800,000	-0,015	0,034
-681,495	-200,000	-0,004	0,052
-680,481	36,792	-0,039	0,026
-679,466	715,078	-0,047	-0,092
-678,451	27,717	-0,028	-0,018
-677,437	332,107	0,145	-0,209
-676,422	187,743	0,060	-0,067
-675,408	194,479	-0,025	-0,028
-674,393	84,593	-0,075	0,061
-673,378	498,818	-0,042	-0,073
-672,364	749,848	0,090	-0,182
-671,349	-200,000	-0,030	0,112
-670,335	311,015	0,032	0,045
-669,320	273,986	-0,015	0,020
-668,305	-200,000	0,004	0,020
-667,291	424,229	-0,049	0,079
-666,276	83,909	0,048	0,039
-665,262	-8,285	-0,068	-0,034
-664,247	-163,943	-0,132	0,004
-663,232	800,000	-0,016	0,048
-662,218	-200,000	-0,016	-0,114
-661,203	800,000	0,021	-0,060
-660,189	-200,000	-0,007	-0,096
-659,174	800,000	-0,043	-0,118
-658,159	191,626	0,049	0,055
-657,145	51,451	-0,065	-0,046
-656,130	35,734	0,140	0,092
-655,116	-121,270	-0,056	-0,007
-654,101	-111,295	-0,087	0,013
-653,086	99,341	-0,029	0,025
-652,072	420,364	0,024	0,039
-651,057	-58,018	-0,108	0,035
-650,043	136,707	-0,033	-0,032
-649,028	181,992	-0,100	-0,110
-648,014	-200,000	-0,001	0,063
-646,999	478,460	-0,007	0,012
-645,984	272,493	-0,060	-0,079
-644,970	-200,000	0,004	-0,045
-643,955	800,000	0,070	-0,177
-642,941	800,000	-0,093	-0,210
-641,926	-200,000	-0,039	-0,167
-640,911	82,030	0,037	0,030
-639,897	800,000	0,018	-0,050
-638,882	-62,669	-0,056	-0,017
-637,868	336,998	0,051	-0,073
-636,853	389,574	-0,092	-0,142
-635,838	-200,000	-0,013	-0,155
-634,824	588,852	-0,030	0,055
-633,809	-140,806	-0,014	0,001
-632,795	137,079	-0,033	0,032
-631,780	-160,959	0,055	0,002
-630,765	-15,183	0,083	-0,039
-629,751	-4,009	-0,060	-0,031
-628,736	45,229	-0,157	-0,108
-627,722	253,673	0,054	0,069
-626,707	2,590	-0,105	0,056
-625,692	226,212	0,079	0,095
-624,678	289,078	-0,051	0,069
-623,663	800,000	-0,033	0,098
-622,649	-21,407	0,036	-0,016
-621,634	49,133	-0,091	-0,063
-620,619	357,586	-0,076	0,112
-619,605	109,897	0,019	0,017
-618,590	20,559	0,086	0,051
-617,576	274,543	0,056	0,074
-616,561	-200,000	0,013	-0,077
-615,546	658,866	0,062	0,118
-614,532	-87,193	-0,164	-0,037
-613,517	800,000	0,051	-0,131
-612,503	240,159	-0,073	0,091
-611,488	-88,530	0,116	0,025
-610,474	800,000	0,043	-0,097
-609,459	-33,026	0,036	0,015
-608,444	2,972	0,036	0,020
-607,430	55,790	-0,121	-0,087
-606,415	41,708	0,033	-0,022
-605,401	-98,906	0,140	-0,026
-604,386	238,246	-0,047	0,058
-603,371	6,687	-0,077	-0,042
-602,357	800,000	0,066	0,143
-601,342	-200,000	0,029	0,131
-600,328	800,000	0,025	-0,074
-599,313	-200,000	-0,001	-0,130
-598,298	-200,000	-0,005	-0,077
-597,284	-200,000	-0,059	0,000
-596,269	-16,280	0,061	-0,029
-595,255	800,000	0,089	0,209
-594,240	-170,431	-0,071	-0,002
-593,225	-34,739	-0,151	0,061
-592,211	186,488	-0,029	0,032
-591,196	239,990	0,110	-0,136
-590,182	800,000	-0,023	0,050
-589,167	800,000	-0,050	-0,148
-588,152	-200,000	0,003	-0,037
-587,138	329,656	-0,064	-0,092
-586,123	-200,000	-0,001	-0,024
-585,109	800,000	0,024	-0,070
-584,094	-200,000	-0,010	0,072
-583,079	9,183	0,097	0,054
-582,065	-200,000	-0,032	0,161
-581,050	800,000	0,017	0,039
-580,036	397,484	-0,006	-0,010
-579,021	-109,302	-0,030	-0,005
-578,006	-109,780	-0,113	0,017
-576,992	207,121	0,062	0,072
-575,977	338,081	-0,008	-0,011
-574,963	145,789	-0,065	0,065
-573,948	-20,691	-0,092	0,042
-572,934	466,411	0,029	0,048
-571,919	331,732	-0,024	-0,034
-570,904	800,000	-0,071	-0,151
-569,890	74,273	0,095	-0,074
-568,875	108,661	-0,064	-0,056
-567,861	800,000	-0,023	-0,052
-566,846	-27,476	0,143	0,061
-565,831	800,000	0,028	-0,075
-564,817	800,000	0,041	-0,128
-563,802	-200,000	0,035	-0,119
-562,788	44,435	0,068	0,046
-561,773	332,136	-0,083	0,119
-560,758	-200,000	-0,012	0,070
-559,744	-200,000	0,009	0,046
-558,729	-133,112	-0,058	0,005
-557,715	-86,546	-0,153	-0,034
-556,700	135,904	-0,043	-0,041
-555,685	-200,000	-0,016	-0,055
-554,671	-200,000	-0,006	-0,069
-553,656	-200,000	-0,003	-0,063
-552,642	-58,640	0,009	0,003
-551,627	-57,639	0,038	0,012
-550,612	36,385	-0,103	-0,067
-549,598	536,381	-0,025	-0,043
-548,583	322,341	0,058	-0,082
-547,569	310,096	-0,105	-0,146
-546,554	141,091	0,051	-0,050
-545,539	192,445	0,023	0,026
-544,525	-98,691	-0,102	-0,019
-543,510	-24,129	0,061	-0,027
-542,496	99,885	-0,108	0,092
-541,481	-123,628	-0,004	-0,001
-540,466	27,309	0,026	0,016
-539,452	800,000	0,007	-0,016
-538,437	800,000	0,047	-0,113
-537,423	-200,000	0,047	-0,174
-536,408	86,955	0,063	-0,051
-535,393	134,267	-0,054	-0,052
-534,379	153,458	-0,015	-0,015
-533,364	-143,046	0,128	0,009
-532,350	-116,052	0,040	0,005
-531,335	-88,661	0,053	-0,012
-530,321	-152,756	0,116	0,006
-529,306	-200,000	-0,018	0,116
-528,291	117,722	0,044	0,040
-527,277	800,000	0,028	-0,060
-526,262	214,063	-0,104	-0,122
-525,248	-59,417	0,089	-0,028
-524,233	-187,141	-0,061	0,001
-523,218	800,000	-0,016	-0,051
-522,204	-200,000	0,020	-0,074
-521,189	-86,848	-0,083	-0,019
-520,175	61,486	0,068	0,050
-519,160	363,562	-0,061	0,090
-518,145	440,028	-0,050	-0,081
-517,131	800,000	-0,016	0,037
-516,116	-200,000	0,001	0,055
-515,102	-139,422	0,107	0,008
-514,087	177,290	0,027	0,029
-513,072	51,841	-0,019	0,013
-512,058	-45,604	-0,090	0,033
-511,043	800,000	0,022	0,047
-510,029	311,949	0,069	-0,095
-509,014	450,046	-0,051	0,083
-507,999	800,000	-0,029	0,091
-506,985	-44,583	-0,121	-0,044
-505,970	365,270	-0,054	-0,081
-504,956	-159,527	0,105	0,004
-503,941	800,000	-0,004	-0,014
-502,926	190,571	0,089	0,099
-501,912	27,454	-0,007	0,004
-500,897	-200,000	0,021	0,119
-499,883	40,630	-0,193	0,128
-498,868	-200,000	-0,007	-0,083
-497,853	-93,963	-0,122	0,025
-496,839	-200,000	-0,019	0,224
-495,824	800,000	-0,032	0,073
-494,810	102,187	0,065	0,056
-493,795	-166,153	0,048	0,001
-492,781	-163,444	0,081	-0,003
-491,766	-200,000	-0,028	-0,238
-490,751	791,545	0,022	0,045
-489,737	-111,462	-0,090	0,013
-488,722	717,513	0,028	0,055
-487,708	-200,000	-0,002	-0,014
-486,693	-200,000	0,002	-0,064
-485,678	99,793	-0,086	-0,074
-484,664	-200,000	-0,002	0,007
-483,649	-123,177	-0,022	0,003
-482,635	800,000	-0,039	0,106
-481,620	800,000	-0,038	-0,088
-480,605	-86,395	0,064	0,014
-479,591	257,502	0,047	0,060
-478,576	-88,908	-0,069	0,015
-477,562	-200,000	-0,024	-0,147
-476,547	800,000	0,035	0,084
-475,532	294,393	-0,037	-0,050
-474,518	-106,950	0,155	0,025
-473,503	800,000	0,027	-0,075
-472,489	-42,198	-0,057	-0,022
-471,474	-74,096	0,084	0,022
-470,459	-68,264	0,047	-0,013
-469,445	510,470	0,077	-0,133
-468,430	399,459	0,023	-0,036
-467,416	-126,379	0,152	-0,016
-466,401	54,607	-0,051	-0,036
-465,386	391,482	-0,024	0,037
-464,372	278,479	0,031	0,040
-463,357	44,900	0,145	-0,099
-462,343	-24,080	0,060	-0,026
-461,328	497,419	0,067	-0,114
-460,313	143,177	-0,057	-0,055
-459,299	105,301	-0,064	-0,056
-458,284	800,000	0,037	0,097
-457,270	800,000	-0,038	-0,102
-456,255	-49,352	0,117	-0,041
-455,241	-34,791	-0,151	-0,060
-454,226	-156,262	-0,157	0,007
-453,211	-200,000	0,024	0,093
-452,197	-171,650	0,024	0,001
-451,182	80,058	0,099	0,078
-450,168	-200,000	-0,011	-0,129
-449,153	28,692	0,043	0,027
-448,138	-63,378	-0,070	0,021
-447,124	106,636	-0,069	-0,060
-446,109	-28,736	-0,097	0,041
-445,095	800,000	0,032	-0,072
-444,080	32,363	-0,062	0,039
-443,065	-133,034	-0,053	-0,005
-442,051	436,206	-0,124	-0,199
-441,036	138,815	0,075	-0,073
-440,022	278,047	-0,034	-0,045
-439,007	800,000	-0,042	-0,099
-437,992	800,000	0,008	0,024
-436,978	138,860	-0,130	0,126
-435,963	464,564	0,035	0,059
-434,949	211,414	-0,029	-0,034
-433,934	-159,397	0,058	-0,002
-432,919	-200,000	-0,036	0,162
-431,905	700,421	-0,056	-0,108
-430,890	798,296	-0,073	0,148
-429,876	800,000	-0,080	0,171
-428,861	800,000	0,056	0,129
-427,846	800,000	0,050	-0,129
-426,832	-27,958	-0,021	-0,009
-425,817	232,844	0,031	0,038
-424,803	421,267	0,037	-0,059
-423,788	-148,570	-0,045	-0,003
-422,773	-51,188	0,087	0,030
-421,759	166,990	0,106	0,110
-420,744	-200,000	0,012	0,044
-419,730	351,710	-0,028	-0,041
-418,715	201,929	-0,060	-0,068
-417,701	800,000	0,020	-0,052
-416,686	-200,000	0,003	0,046
-415,671	-71,672	0,230	0,063
-414,657	800,000	0,040	-0,115
-413,642	137,124	-0,006	0,006
-412,628	-200,000	-0,009	0,084
-411,613	800,000	-0,003	-0,010
-410,598	554,280	0,042	0,074
-409,584	322,216	0,027	0,038
-408,569	-69,833	0,170	0,047
-407,555	158,257	0,044	0,045
-406,540	248,207	0,099	0,123
-405,525	108,208	-0,022	-0,019
-404,511	-200,000	0,034	0,158
-403,496	-110,577	-0,041	0,006
-402,482	-123,158	0,117	0,014
-401,467	274,695	0,060	-0,078
-400,452	-193,210	-0,111	-0,001
-399,438	111,577	-0,077	0,068
-398,423	614,666	-0,036	-0,067
-397,409	90,723	-0,111	-0,092
-396,394	-106,630	-0,019	-0,003
-395,379	-29,197	-0,046	0,019
-394,365	136,647	-0,033	0,032
-393,350	127,072	0,044	0,041
-392,336	529,542	-0,036	0,064
-391,321	-90,625	0,130	-0,027
-390,306	497,005	-0,030	-0,051
-389,292	-19,614	0,088	0,040
-388,277	-12,287	0,129	0,062
-387,263	28,843	0,050	-0,031
-386,248	660,562	0,045	-0,087
-385,233	84,676	0,039	0,032
-384,219	45,206	-0,081	0,055
-383,204	-200,000	-0,021	-0,135
-382,190	520,297	0,012	0,020
-381,175	-171,251	0,092	-0,002
-380,160	-200,000	0,000	0,006
-379,146	214,416	0,104	-0,121
-378,131	-105,381	0,084	0,014
-377,117	-95,475	-0,080	-0,016
-376,102	-131,414	0,073	-0,007
-375,088	414,109	-0,039	-0,061
-374,073	84,225	-0,007	-0,006
-373,058	140,013	-0,067	0,065
-372,044	-200,000	-0,020	0,092
-371,029	-200,000	0,001	0,140
-370,015	274,827	0,034	0,044
-369,000	257,758	0,159	-0,202
-367,985	725,156	-0,135	-0,265
-366,971	-107,537	0,113	0,018
-365,956	110,908	0,023	-0,021
-364,942	-200,000	0,001	0,091
-363,927	-54,790	-0,052	-0,017
-362,912	-37,268	-0,145	-0,057
-361,898	16,564	-0,104	-0,060
-360,883	732,578	0,069	-0,137
-359,869	-200,000	-0,119	-0,000
-358,854	-200,000	-0,031	-0,138
-357,839	-9,461	0,066	0,032
-356,825	-200,000	0,024	0,083
-355,810	639,547	-0,074	0,139
-354,796	-100,732	-0,093	-0,017
-353,781	131,278	-0,165	-0,155
-352,766	271,282	0,032	0,042
-351,752	-144,864	0,141	0,009
-350,737	-62,669	0,070	0,021
-349,723	-200,000	0,004	-0,037
-348,708	800,000	0,070	0,182
-347,693	-200,000	-0,019	0,141
-346,679	287,457	-0,055	0,073
-345,664	800,000	-0,022	0,061
-344,650	800,000	-0,057	-0,120
-343,635	-65,744	0,074	0,022
-342,620	118,398	-0,037	0,033
-341,606	800,000	-0,004	0,010
-340,591	-51,922	-0,142	0,048
-339,577	114,203	0,039	0,035
-338,562	-200,000	-0,011	0,084
-337,548	8,501	0,101	0,056
-336,533	-104,172	0,036	-0,006
-335,518	-5,651	-0,013	-0,007
-334,504	-200,000	-0,009	0,030
-333,489	-200,000	-0,019	0,125
-332,475	110,804	-0,112	0,099
-331,460	800,000	-0,007	0,018
-330,445	41,233	0,086	0,057
-329,431	34,374	0,024	-0,015
-328,416	-114,994	-0,019	0,003
-327,402	271,342	0,091	-0,118
-326,387	800,000	0,020	-0,066
-325,372	65,360	-0,072	0,053
-324,358	-200,000	0,019	-0,097
-323,343	-200,000	0,006	-0,023
-322,329	800,000	0,047	0,135
-321,314	-200,000	-0,024	0,104
-320,299	-170,252	-0,067	-0,002
-319,285	278,968	0,024	0,031
-318,270	50,177	-0,021	-0,014
-317,256	-200,000	0,049	-0,202
-316,241	209,262	0,044	0,051
-315,226	800,000	0,028	-0,073
-314,212	16,752	0,039	0,022
-313,197	78,045	0,103	0,080
-312,183	361,807	0,105	-0,155
-311,168	261,138	0,038	0,048
-310,153	-200,000	0,017	0,125
-309,139	260,520	-0,023	0,029
-308,124	-18,980	0,126	0,057
-307,110	490,852	0,048	0,081
-306,095	-99,959	0,129	0,023
-305,080	-76,403	0,107	-0,027
-304,066	800,000	0,008	0,025
-303,051	132,306	0,045	-0,042
-302,037	329,622	0,085	-0,120
-301,022	-200,000	0,007	-0,028
-300,008	-200,000	0,022	-0,118
-298,993	401,954	-0,065	0,100
-297,978	-200,000	0,002	0,064
-296,964	-200,000	0,001	-0,064
-295,949	-51,763	-0,112	0,038
-294,935	-62,473	-0,058	0,018
-293,920	12,271	-0,175	-0,098
-292,905	-107,575	-0,029	-0,005
-291,891	-121,606	0,125	-0,015
-290,876	-30,918	-0,100	-0,041
-289,862	8,597	-0,016	-0,009
-288,847	-200,000	-0,011	0,073
-287,832	44,613	-0,088	-0,059
-286,818	-200,000	0,022	-0,159
-285,803	-0,458	0,165	0,085
-284,789	135,841	0,072	0,069
-283,774	-200,000	0,019	0,068
-282,759	121,726	-0,050	0,046
-281,745	485,763	0,008	0,013
-280,730	-200,000	0,019	-0,154
-279,716	-200,000	-0,005	0,027
-278,701	274,204	-0,032	0,041
-277,686	-200,000	0,029	-0,119
-276,672	228,790	-0,046	-0,055
-275,657	-200,000	0,011	-0,060
-274,643	-9,620	-0,089	-0,043
-273,628	-200,000	-0,008	-0,037
-272,613	-49,709	-0,062	0,022
-271,599	27,119	-0,024	-0,015
-270,584	-200,000	-0,000	0,028
-269,570	800,000	0,024	0,071
-268,555	800,000	-0,011	-0,024
-267,540	-14,358	-0,077	0,036
-266,526	-77,453	-0,081	-0,020
-265,511	-25,301	0,014	0,006
-264,497	187,520	0,062	0,067
-263,482	166,872	0,152	0,158
-262,467	169,296	-0,040	-0,042
-261,453	-200,000	0,003	0,046
-260,438	-91,460	0,113	-0,023
-259,424	602,851	-0,008	-0,015
-258,409	21,119	0,037	0,022
-257,395	-17,497	0,100	0,046
-256,380	-13,669	0,064	0,030
-255,365	-37,459	0,082	-0,032
-254,351	-43,650	0,020	0,007
-253,336	184,128	-0,036	-0,039
-252,322	130,486	-0,088	-0,083
-251,307	-200,000	0,003	0,068
-250,292	-200,000	-0,021	0,089
-249,278	360,406	-0,042	-0,062
-248,263	-130,974	-0,067	-0,006
-247,249	-200,000	-0,008	-0,081
-246,234	-141,609	0,066	-0,005
-245,219	800,000	0,015	0,033
-244,205	151,102	-0,072	-0,072
-243,190	8,412	0,062	-0,034
-242,176	-158,913	-0,123	0,005
-241,161	134,304	-0,040	0,038
-240,146	-32,452	-0,067	0,027
-239,132	-200,000	0,021	-0,070
-238,117	-115,806	-0,152	-0,021
-237,103	-170,895	-0,109	-0,003
-236,088	100,025	-0,057	0,048
-235,073	800,000	0,021	0,056
-234,059	-119,958	0,100	0,012
-233,044	800,000	0,015	0,040
-232,030	308,935	0,049	-0,067
-231,015	-200,000	0,011	0,087
-230,000	-200,000	0,004	-0,013
-228,986	761,428	-0,025	-0,051
-227,971	373,555	-0,063	0,094
-226,957	800,000	-0,036	-0,085
-225,942	278,751	-0,078	-0,102
-224,927	-200,000	0,004	-0,117
-223,913	800,000	-0,046	0,130
-222,898	-200,000	-0,015	-0,161
-221,884	-100,446	0,036	-0,007
-220,869	-78,675	-0,053	-0,013
-219,855	276,878	-0,047	0,061
-218,840	-200,000	-0,003	0,093
-217,825	-200,000	0,005	0,073
-216,811	800,000	-0,061	0,132
-215,796	-79,072	-0,155	0,038
-214,782	-200,000	-0,034	0,121
-213,767	255,921	0,065	0,081
-212,752	-200,000	0,022	-0,091
-211,738	206,708	0,082	0,094
-210,723	-57,058	0,045	-0,014
-209,709	253,880	0,073	-0,092
-208,694	206,595	0,032	-0,036
-207,679	-3,553	-0,056	-0,029
-206,665	800,000	-0,069	0,199
-205,650	-200,000	-0,006	0,241
-204,636	-200,000	0,004	0,025
-203,621	55,068	-0,014	-0,010
-202,606	-149,976	-0,074	0,004
-201,592	58,691	0,061	0,044
-200,577	-35,544	-0,189	0,074
-199,563	333,968	-0,028	-0,040
-198,548	-200,000	0,003	-0,029
-197,533	163,628	0,071	0,073
-196,519	-113,573	-0,121	-0,017
-195,504	-18,664	0,049	0,022
-194,490	30,625	-0,080	-0,050
-193,475	745,720	0,039	-0,076
-192,460	-83,638	0,055	0,013
-191,446	221,774	0,095	0,111
-190,431	-10,778	-0,106	-0,051
-189,417	-39,138	-0,087	0,033
-188,402	8,393	-0,105	-0,057
-187,387	102,186	-0,063	-0,053
-186,373	354,258	-0,061	-0,089
-185,358	8,200	0,068	0,037
-184,344	-43,794	0,086	-0,031
-183,329	-88,882	0,096	0,021
-182,315	144,632	0,139	0,136
-181,300	-200,000	-0,004	0,166
-180,285	270,181	-0,071	0,091
-179,271	177,510	0,020	-0,022
-178,256	-200,000	0,012	-0,159
-177,242	-73,384	0,053	0,014
-176,227	-200,000	-0,005	0,071
-175,212	93,774	0,055	0,046
-174,198	-200,000	0,008	-0,064
-173,183	-41,472	-0,095	0,035
-172,169	641,703	0,063	-0,118
-171,154	-4,609	-0,076	-0,038
-170,139	-57,940	0,078	0,025
-169,125	-200,000	-0,005	0,038
-168,110	202,899	0,075	0,084
-167,096	-200,000	0,011	0,082
-166,081	54,553	0,085	-0,060
-165,066	-200,000	0,001	-0,033
-164,052	-195,282	-0,136	-0,001
-163,037	765,058	0,085	0,170
-162,023	712,395	0,022	-0,043
-161,008	-200,000	0,006	-0,086
-159,993	133,885	0,060	0,057
-158,979	-181,508	-0,067	0,001
-157,964	354,338	0,062	0,090
-156,950	433,694	-0,009	0,014
-155,935	631,356	0,074	0,137
-154,920	-113,274	0,075	0,011
-153,906	-0,477	0,065	-0,033
-152,891	-200,000	-0,013	0,119
-151,877	-78,840	-0,053	0,013
-150,862	-200,000	0,023	-0,185
-149,847	123,073	-0,083	0,075
-148,833	202,603	0,051	0,057
-147,818	800,000	-0,070	-0,149
-146,804	411,646	-0,030	0,046
-145,789	-106,584	0,091	-0,015
-144,775	-5,897	-0,057	0,028
-143,760	142,715	-0,048	0,046
-142,745	631,387	0,084	-0,155
-141,731	-114,443	0,113	0,016
-140,716	-54,311	0,177	0,058
-139,702	800,000	-0,028	0,085
-138,687	-200,000	-0,023	0,144
-137,672	-89,931	-0,152	-0,032
-136,658	800,000	-0,059	-0,149
-135,643	-200,000	-0,016	-0,078
-134,629	56,459	-0,048	-0,034
-133,614	-200,000	0,002	0,043
-132,599	168,661	-0,096	0,099
-131,585	23,752	-0,053	0,032
-130,570	457,660	-0,003	0,004
-129,556	548,239	0,057	-0,100
-128,541	-200,000	0,015	0,076
-127,526	-200,000	0,021	0,074
-126,512	-103,689	0,099	-0,017
-125,497	800,000	0,043	-0,122
-124,483	-101,459	-0,073	0,013
-123,468	-53,862	0,088	-0,029
-122,453	152,422	0,034	0,034
-121,439	86,210	-0,070	-0,056
-120,424	-200,000	0,015	-0,082
-119,410	220,071	0,130	0,152
-118,395	291,882	0,021	-0,028
-117,380	140,733	0,059	-0,057
-116,366	399,570	0,027	0,042
-115,351	-137,569	-0,082	0,007
-114,337	-25,385	-0,034	-0,014
-113,322	-128,946	-0,034	-0,003
-112,307	542,719	-0,023	0,040
-111,293	-111,457	-0,088	0,013
-110,278	800,000	-0,007	0,016
-109,264	-155,792	0,091	0,004
-108,249	-140,549	0,104	0,008
-107,234	31,621	0,088	0,055
-106,220	43,623	-0,164	-0,109
-105,205	245,817	0,043	-0,053
-104,191	-200,000	-0,006	0,072
-103,176	-200,000	-0,013	-0,047
-102,162	89,775	-0,053	-0,043
-101,147	454,561	0,025	0,041
-100,132	654,610	0,061	-0,115
-99,118	114,562	0,054	-0,048
-98,103	800,000	0,024	0,073
-97,089	215,837	0,111	0,128
-96,074	205,837	-0,082	0,093
-95,059	-29,378	0,132	-0,055
-94,045	800,000	-0,040	-0,100
-93,030	-52,556	-0,044	-0,015
-92,016	-200,000	-0,025	-0,138
-91,001	800,000	-0,021	-0,067
-89,986	-13,105	0,135	0,063
-88,972	-26,348	0,065	-0,028
-87,957	-200,000	-0,006	-0,075
-86,943	-200,000	0,003	-0,165
-85,928	-200,000	0,022	0,096
-84,913	162,944	0,019	0,019
-83,899	17,634	-0,015	-0,009
-82,884	-170,300	-0,089	-0,002
-81,870	-39,943	0,026	0,010
-80,855	516,192	-0,022	-0,038
-79,840	-123,702	0,151	-0,017
-78,826	289,088	0,060	-0,080
-77,811	-200,000	0,009	-0,181
-76,797	409,471	0,038	-0,058
-75,782	800,000	0,053	0,124
-74,767	144,595	-0,065	-0,063
-73,753	-159,226	0,198	0,008
-72,738	-107,264	0,065	0,010
-71,724	407,753	0,056	-0,086
-70,709	-54,358	-0,124	0,041
-69,694	216,079	0,139	0,160
-68,680	-127,140	0,178	-0,019
-67,665	-200,000	-0,016	-0,088
-66,651	66,216	0,023	0,017
-65,636	-61,272	-0,088	-0,027
-64,622	146,847	0,097	-0,094
-63,607	800,000	0,042	-0,111
-62,592	253,770	-0,034	-0,043
-61,578	139,301	0,051	0,048
-60,563	800,000	-0,035	0,074
-59,549	-200,000	0,023	0,103
-58,534	-132,243	-1,428	-0,132
-57,519	379,639	-0,971	-1,448
-56,505	-200,000	-0,805	-4,464
-55,490	77,281	0,562	-0,433
-54,476	800,000	4,864	11,857
-53,461	-200,000	13,382	253,041
-52,446	-200,000	688,630	2267,855
-51,432	596,142	1622,403	2927,114
-50,417	120,765	1635,875	1475,858
-49,403	73,646	1289,851	979,581
-48,388	38,397	1024,775	661,276
-47,373	24,500	982,216	588,105
-46,359	23,685	972,041	579,313
-45,344	22,742	967,956	573,774
-44,330	22,693	966,322	572,621
-43,315	22,613	964,861	571,473
-42,300	22,570	963,898	570,738
-41,286	22,574	962,826	570,095
-40,271	22,574	962,008	569,588
-39,257	22,580	961,033	569,008
-38,242	22,522	960,136	568,267
-37,227	22,583	959,300	567,946
-36,213	22,590	958,448	567,443
-35,198	22,532	957,581	566,720
-34,184	22,578	956,916	566,453
-33,169	22,498	956,070	565,669
-32,154	22,639	955,029	565,486
-31,140	22,575	954,291	564,820
-30,125	22,602	953,495	564,414
-29,111	22,641	952,616	563,997
-28,096	22,627	951,793	563,443
-27,082	22,615	951,217	563,041
-26,067	22,584	950,530	562,511
-25,052	22,632	949,729	562,170
-24,038	22,636	949,231	561,864
-23,023	22,647	948,335	561,348
-22,009	22,540	947,981	560,773
-20,994	22,680	947,075	560,662
-19,979	22,576	946,661	560,061
-18,965	22,560	946,057	559,631
-17,950	22,637	945,277	559,393
-16,936	22,514	944,765	558,677
-15,921	22,535	944,149	558,357
-14,906	22,533	943,117	557,719
-13,892	22,485	942,586	557,231
-12,877	22,517	942,032	556,983
-11,863	22,531	941,089	556,448
-10,848	22,503	940,866	556,204
-9,833	22,581	940,378	556,141
-8,819	22,544	939,739	555,623
-7,804	22,463	939,240	555,048
-6,790	22,503	938,410	554,663
-5,775	22,494	937,994	554,368
-4,760	22,477	937,360	553,916
-3,746	22,428	936,815	553,417
-2,731	22,365	935,937	552,677
-1,717	22,293	935,138	551,958
-0,702	22,375	934,512	551,824
0,313	22,122	933,913	551,505
1,327	25,189	931,823	559,870
2,342	34,786	796,777	504,311
3,356	32,908	452,009	283,236
4,371	2,049	293,889	153,363
5,386	-2,454	274,840	139,146
6,400	-3,973	268,844	134,689
7,415	-4,451	266,535	133,081
8,429	-4,136	265,305	132,744
9,444	-4,157	264,429	132,274
10,459	-4,257	263,841	131,877
11,473	-4,112	263,156	131,655
12,488	-4,141	262,698	131,388
13,502	-4,485	262,121	130,776
14,517	-4,371	261,814	130,714
15,531	-4,489	261,289	130,334
16,546	-4,395	261,000	130,263
17,561	-4,231	260,547	130,173
18,575	-4,264	260,294	130,005
19,590	-4,539	260,066	129,632
20,604	-4,454	259,759	129,545
21,619	-4,296	259,293	129,442
22,634	-4,277	258,971	129,287
23,648	-4,351	258,831	129,139
24,663	-4,430	258,540	128,912
25,677	-4,489	258,349	128,753
26,692	-4,341	258,018	128,708
27,707	-4,415	257,747	128,496
28,721	-4,281	257,517	128,489
29,736	-4,611	257,232	128,042
30,750	-4,490	257,070	128,057
31,765	-4,376	256,758	127,991
32,780	-4,361	256,454	127,842
33,794	-4,415	256,298	127,704
34,809	-4,593	256,034	127,405
35,823	-4,471	255,787	127,378
36,838	-4,502	255,653	127,272
37,853	-4,661	255,421	127,006
38,867	-4,608	255,044	126,854
39,882	-4,561	254,955	126,839
40,896	-4,349	254,569	126,822
41,911	-4,482	254,383	126,602
42,926	-4,405	254,089	126,511
43,940	-4,569	253,891	126,258
44,955	-4,576	253,819	126,204
45,969	-4,561	253,521	126,059
46,984	-5,036	253,246	125,496
47,999	-4,952	252,973	125,423
49,013	-5,242	252,774	125,061
50,028	-5,195	252,385	124,898
51,042	-5,305	252,230	124,716
52,057	-5,345	252,007	124,559
53,071	-5,429	251,889	124,417
54,086	-5,270	251,692	124,446
55,101	-5,075	251,690	124,602
56,115	-4,791	251,392	124,690
57,130	-4,466	251,336	124,932
58,144	-4,192	251,153	125,066
59,159	-4,352	250,965	124,823
60,174	-4,266	250,743	124,776
61,188	-4,285	250,538	124,646
62,203	-4,336	250,382	124,514
63,217	-4,322	250,060	124,354
64,232	-4,543	249,983	124,115
65,247	-4,437	249,705	124,057
66,261	-4,125	249,421	124,172
67,276	-4,567	249,156	123,651
68,290	-4,644	248,925	123,459
69,305	-4,951	248,822	123,135
70,320	-4,732	248,558	123,180
71,334	-4,591	248,488	123,255
72,349	-4,343	248,193	123,309
73,363	-4,197	248,183	123,417
74,378	-4,177	247,845	123,255
75,393	-4,270	247,781	123,133
76,407	-4,533	247,608	122,813
77,422	-4,361	247,248	122,769
78,436	-4,425	247,143	122,652
79,451	-4,320	246,834	122,577
80,466	-4,595	246,768	122,300
81,480	-4,627	246,352	122,056
82,495	-4,686	246,161	121,901
83,509	-4,597	245,970	121,870
84,524	-4,687	245,890	121,744
85,539	-4,677	245,711	121,653
86,553	-4,635	245,474	121,560
87,568	-4,756	245,299	121,360
88,582	-4,726	245,147	121,300
89,597	-4,770	245,037	121,197
90,611	-4,588	244,790	121,218
91,626	-4,525	244,677	121,204
92,641	-4,419	244,394	121,141
93,655	-4,482	244,260	121,011
94,670	-4,306	243,971	121,004
95,684	-4,763	244,085	120,668
96,699	-4,778	243,969	120,588
97,714	-4,569	243,469	120,504
98,728	-4,687	243,305	120,314
99,743	-4,685	242,951	120,129
100,757	-4,789	242,819	119,967
101,772	-4,670	242,715	120,004
102,787	-4,539	242,631	120,060
103,801	-4,504	242,405	119,966
104,816	-4,549	242,241	119,838
105,830	-4,319	242,051	119,923
106,845	-4,309	241,950	119,871
107,860	-4,669	241,795	119,486
108,874	-4,632	241,545	119,382
109,889	-4,534	241,269	119,316
110,903	-4,648	241,030	119,093
111,918	-4,578	240,927	119,090
112,933	-4,486	240,797	119,091
113,947	-4,512	240,795	119,057
114,962	-4,185	240,443	119,142
115,976	-4,527	240,262	118,760
116,991	-4,502	240,223	118,751
118,006	-4,555	239,921	118,547
119,020	-4,601	239,849	118,464
120,035	-4,486	239,751	118,499
121,049	-4,488	239,559	118,391
122,064	-4,464	239,493	118,368
123,079	-4,575	239,179	118,112
124,093	-4,677	238,945	117,902
125,108	-4,631	238,662	117,790
126,122	-4,978	238,528	117,431
127,137	-4,944	238,359	117,364
128,151	-4,866	238,136	117,308
129,166	-4,740	238,033	117,349
130,181	-4,737	237,790	117,221
131,195	-4,739	237,536	117,083
132,210	-4,755	237,507	117,046
133,224	-4,682	237,553	117,118
134,239	-4,436	237,204	117,134
135,254	-4,424	237,105	117,084
136,268	-4,427	236,606	116,825
137,283	-5,093	236,588	116,268
138,297	-5,042	236,424	116,218
139,312	-4,960	236,075	116,103
140,327	-4,800	236,277	116,321
141,341	-4,257	236,101	116,661
142,356	-4,176	235,950	116,641
143,370	-4,025	235,864	116,709
144,385	-4,177	235,513	116,403
145,400	-4,052	235,462	116,468
146,414	-4,118	235,206	116,278
147,429	-4,361	235,182	116,062
148,443	-4,337	234,940	115,951
149,458	-4,142	234,653	115,955
150,473	-4,106	234,591	115,942
151,487	-4,301	234,286	115,626
152,502	-4,128	234,107	115,665
153,516	-4,166	234,004	115,573
154,531	-4,262	233,867	115,419
155,546	-4,135	233,743	115,448
156,560	-4,246	233,524	115,242
157,575	-4,473	233,468	115,023
158,589	-4,271	233,141	115,012
159,604	-4,298	233,219	115,019
160,619	-3,913	232,833	115,124
161,633	-4,100	232,878	114,987
162,648	-4,133	232,662	114,845
163,662	-4,166	232,457	114,707
164,677	-4,473	232,366	114,409
165,692	-4,315	232,362	114,522
166,706	-4,216	232,084	114,453
167,721	-3,903	231,838	114,569
168,735	-4,110	231,665	114,309
169,750	-4,130	231,464	114,184
170,764	-4,161	231,457	114,146
171,779	-4,253	231,365	114,019
172,794	-4,180	231,166	113,968
173,808	-4,267	230,837	113,726
174,823	-4,752	230,623	113,231
175,837	-4,921	230,480	113,017
176,852	-4,444	230,475	113,379
177,867	-4,204	230,257	113,450
178,881	-4,341	230,269	113,338
179,896	-4,170	230,042	113,350
180,910	-4,136	229,917	113,305
181,925	-4,095	229,720	113,230
182,940	-3,991	229,463	113,174
183,954	-4,139	229,493	113,063
184,969	-4,155	229,404	112,997
185,983	-3,917	229,196	113,070
186,998	-4,100	229,022	112,831
188,013	-3,751	228,752	112,960
189,027	-3,979	228,633	112,714
190,042	-4,000	228,609	112,675
191,056	-4,006	228,387	112,552
192,071	-3,950	228,307	112,545
193,086	-4,127	228,124	112,308
194,100	-3,966	227,905	112,315
195,115	-4,190	227,590	111,977
196,129	-4,683	227,450	111,516
197,144	-1,243	228,643	114,760
198,159	2,906	229,531	118,418
199,173	4,001	229,736	119,363
200,188	4,163	229,612	119,413
201,202	4,093	229,408	119,242
202,217	4,336	229,489	119,462
203,232	4,446	229,403	119,492
204,246	4,711	229,176	119,568
205,261	4,652	229,268	119,560
206,275	4,818	229,040	119,558
207,290	4,913	228,829	119,510
208,304	4,813	228,734	119,374
209,319	4,693	228,497	119,146
210,334	4,906	228,207	119,149
211,348	4,445	227,970	118,660
212,363	4,009	227,713	118,181
213,377	3,797	227,688	117,995
214,392	3,787	227,513	117,886
215,407	3,900	227,454	117,931
216,421	4,146	227,252	118,005
217,436	3,886	227,080	117,706
218,450	3,692	226,812	117,408
219,465	3,611	226,632	117,242
220,480	3,803	226,625	117,375
221,494	3,865	226,377	117,283
222,509	3,987	226,311	117,332
223,523	4,056	226,015	117,220
224,538	3,841	226,011	117,045
225,553	3,842	225,831	116,942
226,567	3,933	225,675	116,919
227,582	4,140	225,762	117,111
228,596	4,387	225,544	117,175
229,611	4,108	225,318	116,836
230,626	3,746	225,162	116,470
231,640	3,987	224,969	116,543
232,655	3,975	224,900	116,487
233,669	4,561	224,784	116,860
234,684	4,631	224,787	116,904
235,699	4,347	224,454	116,506
236,713	4,145	224,339	116,284
237,728	3,964	224,106	116,015
238,742	3,981	223,787	115,853
239,757	3,930	223,660	115,738
240,772	3,950	223,593	115,709
241,786	3,925	223,358	115,558
242,801	4,328	223,363	115,853
243,815	4,349	223,278	115,814
244,830	4,435	223,138	115,796
245,844	4,068	223,079	115,480
246,859	3,895	222,941	115,268
247,874	4,279	222,647	115,394
248,888	4,168	222,626	115,290
249,903	4,076	222,313	115,048
250,917	4,022	222,237	114,959
251,932	3,855	222,068	114,736
252,947	4,049	221,840	114,752
253,961	3,700	221,724	114,422
254,976	3,974	221,572	114,537
255,990	4,369	221,525	114,797
257,005	4,079	221,482	114,549
258,020	4,261	221,234	114,546
259,034	4,300	221,260	114,578
260,049	4,368	221,023	114,496
261,063	3,973	220,913	114,135
262,078	4,114	220,726	114,133
263,093	4,282	220,664	114,215
264,107	4,426	220,470	114,210
265,122	4,225	220,315	113,972
266,136	4,427	220,215	114,059
267,151	4,306	220,057	113,878
268,166	4,073	219,789	113,557
269,180	3,709	219,481	113,120
270,195	3,924	219,475	113,265
271,209	3,895	219,352	113,170
272,224	4,024	219,070	113,110
273,239	3,913	219,115	113,041
274,253	3,842	218,919	112,877
275,268	3,742	218,649	112,655
276,282	3,853	218,544	112,672
277,297	3,521	218,377	112,333
278,312	3,673	218,262	112,375
279,326	4,027	218,199	112,591
280,341	3,874	218,038	112,386
281,355	4,320	217,935	112,649
282,370	3,935	217,892	112,336
283,384	3,579	217,668	111,950
284,399	3,589	217,444	111,833
285,414	3,540	217,236	111,680
286,428	3,666	217,217	111,751
287,443	3,918	217,156	111,894
288,457	4,244	217,054	112,068
289,472	4,214	216,704	111,856
290,487	3,544	216,465	111,237
291,501	3,397	216,402	111,088
292,516	3,622	216,273	111,175
293,530	3,698	216,232	111,199
294,545	3,681	216,004	111,059
295,560	3,593	215,979	110,973
296,574	3,841	215,802	111,052
297,589	3,957	215,641	111,042
298,603	4,097	215,483	111,052
299,618	3,973	215,418	110,919
300,633	3,936	215,360	110,852
301,647	4,194	215,138	110,915
302,662	4,362	215,185	111,049
303,676	4,161	214,945	110,771
304,691	4,155	214,801	110,683
305,706	4,331	214,647	110,720
306,720	4,188	214,585	110,575
307,735	4,067	214,423	110,396
308,749	3,786	214,310	110,126
309,764	4,080	214,073	110,205
310,779	4,288	214,050	110,332
311,793	4,199	213,890	110,176
312,808	3,962	213,744	109,922
313,822	3,944	213,440	109,743
314,837	4,124	213,262	109,770
315,852	3,747	213,183	109,451
316,866	3,827	213,113	109,463
317,881	3,968	213,232	109,614
318,895	4,118	212,944	109,563
319,910	3,847	212,652	109,210
320,925	3,618	212,408	108,912
321,939	3,406	212,110	108,600
322,954	3,475	212,180	108,675
323,968	4,085	212,218	109,117
324,983	4,201	212,013	109,084
325,997	4,126	211,960	108,994
327,012	3,935	211,808	108,771
328,027	4,012	211,689	108,755
329,041	4,425	211,587	108,985
330,056	4,420	211,543	108,949
331,070	3,984	211,121	108,415
332,085	3,902	210,931	108,249
333,100	4,132	210,948	108,411
334,114	3,794	210,886	108,131
335,129	3,901	210,595	108,047
336,143	3,721	210,462	107,842
337,158	3,583	210,388	107,699
338,173	3,816	210,260	107,787
339,187	3,648	210,015	107,534
340,202	3,751	209,956	107,566
341,216	3,614	209,691	107,325
342,231	3,746	209,635	107,380
343,246	3,607	209,559	107,234
344,260	3,839	209,498	107,354
345,275	3,861	209,332	107,275
346,289	4,125	209,190	107,378
347,304	4,143	209,151	107,360
348,319	4,082	208,906	107,183
349,333	3,623	208,806	106,802
350,348	3,936	208,701	106,956
351,362	3,925	208,686	106,932
352,377	4,187	208,418	106,967
353,392	4,079	208,214	106,777
354,406	3,984	208,255	106,724
355,421	193,790	1347,018	1435,443
356,435	154,608	1485,871	1435,577
