DTS Sentinel unit serial number:	SN410029Multiplexer serial number:	ORYXHardware model number:	OX2-SRSoftware version number:	ORYX F/W v4,00 Oryx Data Collector v3.7.2.0data status	okinstallation	B6 Nyhavnadifferential loss correction	single-endedforward channel	channel 2reverse channel	N/Adate	2023/12/10time	12:45:08forward acquisition time	300,00reverse acquisition time	0,00gamma	499,1914k internal	0,3123k external	0,3123temperature offset calibration	1,0000default loss term (dB/km)	0,3820temperature slope calibration	1,0000multiplexer offset coefficient	1,0000multiplexer slope coefficient	1,0000fibre end	0,00T internal ref (°C)	22,80T ext. ref 1 (°C)	6,56T ext. ref 2 (°C)	6,58length (m)	temperature (°C)	Stokes	anti-Stokes-744,400	-104,396	0,060	0,010
-743,385	261,175	-0,077	0,100
-742,371	189,433	0,084	-0,094
-741,356	-72,574	-0,207	0,057
-740,342	-200,000	-0,011	-0,051
-739,327	-21,492	-0,303	0,137
-738,312	-200,000	-0,001	0,108
-737,298	-31,888	-0,344	0,143
-736,283	687,163	-0,039	0,076
-735,269	-18,750	-0,192	-0,089
-734,254	629,278	-0,056	-0,107
-733,239	-142,666	-0,467	-0,034
-732,225	-200,000	-0,012	0,072
-731,210	-200,000	-0,001	0,023
-730,196	800,000	0,033	0,081
-729,181	-41,337	-0,142	0,054
-728,167	-62,077	0,077	0,024
-727,152	-24,079	-0,134	-0,059
-726,137	800,000	-0,040	-0,100
-725,123	-200,000	-0,011	-0,196
-724,108	-127,566	-0,118	0,013
-723,094	52,356	-0,099	-0,070
-722,079	-200,000	-0,017	-0,084
-721,064	-200,000	-0,010	-0,045
-720,050	51,336	-0,046	0,032
-719,035	-200,000	-0,003	-0,075
-718,021	616,356	-0,058	-0,110
-717,006	-110,700	0,044	0,007
-715,991	800,000	-0,093	-0,219
-714,977	48,106	0,028	-0,019
-713,962	329,456	0,102	0,146
-712,948	84,865	0,076	-0,062
-711,933	53,416	-0,023	0,017
-710,918	-200,000	0,011	-0,138
-709,904	800,000	-0,031	-0,072
-708,889	310,402	0,046	-0,065
-707,875	-200,000	-0,018	-0,086
-706,860	139,382	-0,092	-0,090
-705,845	-14,210	-0,059	-0,028
-704,831	-70,828	-0,028	-0,008
-703,816	225,649	0,030	-0,036
-702,802	62,997	-0,031	-0,023
-701,787	-9,174	-0,038	0,019
-700,772	-200,000	-0,005	0,064
-699,758	-69,240	0,058	0,017
-698,743	142,248	-0,116	-0,115
-697,729	329,646	-0,092	0,133
-696,714	190,578	0,075	-0,084
-695,699	-74,920	-0,129	0,034
-694,685	800,000	-0,031	-0,099
-693,670	-200,000	-0,007	-0,069
-692,656	101,429	0,031	-0,027
-691,641	800,000	0,063	-0,139
-690,627	-48,517	0,121	-0,043
-689,612	-113,313	-0,076	0,011
-688,597	140,764	0,039	0,038
-687,583	37,925	-0,063	-0,041
-686,568	-200,000	-0,028	-0,098
-685,554	345,852	-0,049	-0,072
-684,539	800,000	0,067	0,152
-683,524	245,146	-0,080	0,100
-682,510	800,000	-0,043	0,120
-681,495	231,501	-0,054	0,066
-680,481	-81,221	-0,058	-0,014
-679,466	-200,000	0,016	-0,090
-678,451	-200,000	0,009	-0,063
-677,437	-117,313	0,099	-0,013
-676,422	-174,543	0,168	-0,004
-675,408	-25,626	0,049	-0,021
-674,393	-200,000	0,011	-0,105
-673,378	309,809	0,115	-0,161
-672,364	-25,234	-0,091	-0,040
-671,349	800,000	-0,045	-0,128
-670,335	-28,864	-0,072	0,031
-669,320	-155,904	0,140	0,007
-668,305	800,000	0,014	-0,045
-667,291	800,000	0,007	0,017
-666,276	125,430	-0,092	-0,086
-665,262	-100,640	0,080	0,015
-664,247	421,405	-0,036	-0,058
-663,232	-24,625	-0,021	-0,009
-662,218	8,274	-0,098	-0,055
-661,203	720,068	-0,033	0,065
-660,189	-200,000	0,014	-0,062
-659,174	-200,000	0,026	-0,163
-658,159	664,713	-0,086	-0,165
-657,145	36,221	-0,083	-0,054
-656,130	3,871	-0,154	-0,083
-655,116	45,622	-0,073	-0,050
-654,101	106,054	-0,080	0,070
-653,086	296,119	-0,065	0,088
-652,072	251,879	-0,061	-0,078
-651,057	-39,522	-0,153	0,059
-650,043	-16,794	-0,075	-0,035
-649,028	-200,000	-0,003	-0,027
-648,014	-116,874	0,153	-0,021
-646,999	-97,170	-0,075	-0,014
-645,984	-123,398	-0,116	-0,014
-644,970	-200,000	0,025	-0,115
-643,955	-13,716	-0,072	0,034
-642,941	-114,537	-0,112	-0,016
-641,926	-6,620	-0,077	-0,039
-640,911	-78,749	-0,088	0,022
-639,897	-200,000	-0,000	0,054
-638,882	800,000	0,035	0,108
-637,868	-122,986	-0,198	0,023
-636,853	-200,000	-0,021	-0,092
-635,838	800,000	0,021	-0,056
-634,824	-6,013	-0,093	-0,047
-633,809	800,000	-0,028	-0,078
-632,795	800,000	0,084	0,204
-631,780	-200,000	0,023	-0,076
-630,765	800,000	0,032	0,094
-629,751	800,000	0,034	-0,096
-628,736	800,000	-0,040	-0,090
-627,722	93,823	-0,140	0,117
-626,707	185,265	0,043	-0,048
-625,692	800,000	-0,003	0,009
-624,678	800,000	-0,069	0,195
-623,663	79,076	-0,009	-0,007
-622,649	102,045	-0,062	-0,054
-621,634	363,305	-0,038	-0,057
-620,619	800,000	-0,021	0,061
-619,605	-200,000	-0,014	-0,120
-618,590	559,839	0,028	-0,051
-617,576	-200,000	-0,011	0,055
-616,561	-200,000	-0,004	0,096
-615,546	31,503	0,099	0,063
-614,532	-200,000	-0,016	-0,089
-613,517	16,396	0,094	-0,055
-612,503	19,212	0,032	-0,019
-611,488	81,125	-0,043	-0,034
-610,474	111,138	-0,041	-0,037
-609,459	-107,196	-0,029	0,005
-608,444	-200,000	-0,026	-0,145
-607,430	437,356	-0,041	-0,066
-606,415	69,573	0,050	-0,039
-605,401	-200,000	0,015	0,059
-604,386	800,000	-0,008	-0,022
-603,371	606,897	0,025	-0,047
-602,357	-33,928	0,078	0,032
-601,342	800,000	0,030	0,086
-600,328	-200,000	-0,010	-0,109
-599,313	-66,278	-0,153	0,045
-598,298	422,733	0,078	-0,125
-597,284	312,746	0,097	0,135
-596,269	387,565	-0,015	0,023
-595,255	-46,944	0,086	-0,031
-594,240	-116,969	0,092	0,012
-593,225	-88,666	-0,183	-0,040
-592,211	-200,000	-0,012	-0,114
-591,196	214,894	0,053	-0,062
-590,182	-101,077	0,145	-0,026
-589,167	-117,746	0,098	-0,013
-588,152	-200,000	0,014	0,094
-587,138	135,103	0,103	0,099
-586,123	546,041	0,039	-0,069
-585,109	-94,739	-0,104	-0,021
-584,094	425,157	0,005	-0,008
-583,079	-200,000	-0,024	-0,104
-582,065	42,196	0,051	-0,034
-581,050	41,903	0,047	-0,031
-580,036	-127,042	-0,089	-0,010
-579,021	800,000	-0,014	-0,041
-578,006	800,000	-0,019	0,041
-576,992	800,000	-0,035	-0,092
-575,977	-18,800	-0,036	-0,016
-574,963	38,886	-0,015	-0,010
-573,948	-89,411	0,058	-0,012
-572,934	800,000	0,046	0,127
-571,919	-82,674	-0,083	-0,020
-570,904	194,090	-0,079	-0,089
-569,890	-200,000	0,018	-0,157
-568,875	800,000	-0,051	-0,164
-567,861	-82,627	0,064	-0,015
-566,846	-200,000	-0,027	0,123
-565,831	-28,099	-0,062	0,026
-564,817	-50,600	-0,023	-0,008
-563,802	-200,000	-0,046	-0,178
-562,788	580,559	-0,087	-0,158
-561,773	240,025	0,082	-0,101
-560,758	399,060	-0,027	0,042
-559,744	289,761	0,066	0,088
-558,729	163,971	-0,093	-0,097
-557,715	-200,000	-0,003	-0,067
-556,700	139,990	0,091	-0,088
-555,685	-121,761	-0,046	0,006
-554,671	-200,000	-0,006	-0,084
-553,656	-125,288	-0,065	-0,007
-552,642	-176,227	-0,037	-0,001
-551,627	110,369	-0,031	-0,027
-550,612	800,000	-0,025	-0,063
-549,598	-200,000	0,009	-0,068
-548,583	-200,000	0,002	-0,195
-547,569	-200,000	-0,015	0,099
-546,554	413,323	-0,036	0,056
-545,539	96,408	0,100	0,085
-544,525	231,487	-0,022	-0,026
-543,510	84,825	-0,070	0,057
-542,496	-60,469	-0,134	-0,042
-541,481	-200,000	-0,035	-0,118
-540,466	54,335	0,062	0,044
-539,452	-200,000	-0,026	0,157
-538,437	566,075	-0,051	0,092
-537,423	722,242	0,021	-0,042
-536,408	-41,564	-0,055	-0,021
-535,393	-200,000	0,020	-0,169
-534,379	-200,000	-0,009	0,034
-533,364	-9,768	-0,063	-0,031
-532,350	-200,000	-0,007	-0,041
-531,335	-4,125	0,104	0,053
-530,321	-200,000	0,007	-0,060
-529,306	60,812	-0,080	0,059
-528,291	-108,352	-0,108	-0,017
-527,277	-200,000	0,015	-0,063
-526,262	-200,000	0,011	0,111
-525,248	-82,541	-0,083	-0,020
-524,233	58,297	0,074	-0,053
-523,218	-118,952	-0,051	0,007
-522,204	106,255	0,049	-0,043
-521,189	-200,000	-0,007	0,052
-520,175	-200,000	-0,002	0,040
-519,160	-31,821	-0,036	-0,015
-518,145	-10,290	-0,020	0,010
-517,131	-16,205	0,037	0,017
-516,116	18,602	0,069	0,041
-515,102	-200,000	0,006	-0,058
-514,087	-200,000	-0,003	-0,061
-513,072	-200,000	0,021	-0,085
-512,058	-79,656	0,066	-0,016
-511,043	800,000	0,046	-0,149
-510,029	-59,318	0,173	0,055
-509,014	-58,648	0,056	0,018
-507,999	800,000	0,028	0,085
-506,985	92,219	0,040	-0,034
-505,970	800,000	-0,028	-0,061
-504,956	242,458	-0,029	-0,035
-503,941	-48,876	0,046	-0,016
-502,926	-65,504	0,177	-0,052
-501,912	-200,000	0,031	-0,131
-500,897	-200,000	-0,003	-0,015
-499,883	162,905	-0,100	-0,104
-498,868	81,998	-0,091	0,072
-497,853	-200,000	-0,022	-0,083
-496,839	-71,697	0,065	0,018
-495,824	-69,823	0,156	-0,044
-494,810	54,089	-0,094	0,067
-493,795	-139,285	-0,049	0,004
-492,781	21,471	0,076	0,046
-491,766	4,805	0,073	-0,039
-490,751	-200,000	-0,018	-0,124
-489,737	-200,000	0,023	-0,117
-488,722	-200,000	0,015	0,075
-487,708	512,505	0,022	0,038
-486,693	266,050	-0,055	-0,071
-485,678	-100,621	0,043	0,008
-484,664	-50,148	-0,075	0,026
-483,649	-67,197	-0,065	-0,019
-482,635	-124,324	-0,093	0,011
-481,620	-142,167	-0,031	-0,002
-480,605	-152,907	0,075	-0,004
-479,591	800,000	0,065	0,204
-478,576	-200,000	0,010	0,049
-477,562	2,844	0,098	-0,052
-476,547	342,954	0,015	0,022
-475,532	-6,254	-0,102	-0,051
-474,518	-160,844	0,148	0,006
-473,503	-200,000	0,008	0,052
-472,489	-97,502	-0,113	0,022
-471,474	71,082	0,027	-0,021
-470,459	-200,000	0,003	0,043
-469,445	-95,268	0,038	0,008
-468,430	-89,174	0,123	0,027
-467,416	-32,392	0,057	-0,023
-466,401	800,000	0,032	0,078
-465,386	-200,000	0,006	0,094
-464,372	43,009	-0,041	-0,028
-463,357	727,501	0,050	-0,099
-462,343	-106,886	-0,075	0,012
-461,328	455,533	-0,027	0,045
-460,313	-200,000	0,016	-0,123
-459,299	-200,000	-0,019	-0,119
-458,284	84,133	-0,004	-0,003
-457,270	800,000	-0,017	0,039
-456,255	538,171	0,075	0,132
-455,241	-71,783	-0,046	-0,013
-454,226	31,096	-0,108	-0,068
-453,211	16,460	0,096	0,055
-452,197	-50,161	0,046	0,016
-451,182	-68,863	0,085	0,024
-450,168	74,007	-0,038	-0,029
-449,153	131,694	-0,060	-0,057
-448,138	-200,000	0,027	-0,086
-447,124	-200,000	0,017	-0,095
-446,109	-200,000	0,023	-0,111
-445,095	-200,000	0,026	-0,147
-444,080	162,299	-0,015	0,016
-443,065	2,584	-0,060	0,032
-442,051	-70,102	-0,096	-0,027
-441,036	139,164	0,022	-0,021
-440,022	16,069	-0,136	-0,079
-439,007	-36,170	-0,069	-0,027
-437,992	-43,014	0,036	-0,013
-436,978	-94,234	-0,047	0,009
-435,963	30,195	0,091	0,057
-434,949	-116,505	-0,048	-0,006
-433,934	85,407	0,051	0,041
-432,919	-66,917	-0,203	-0,059
-431,905	171,231	0,041	0,043
-430,890	330,411	0,083	0,118
-429,876	221,781	-0,104	0,123
-428,861	-200,000	0,019	0,110
-427,846	-34,091	0,222	0,089
-426,832	-30,335	-0,094	0,039
-425,817	244,955	-0,031	0,038
-424,803	582,516	0,013	-0,023
-423,788	-33,726	0,044	0,018
-422,773	-13,468	0,212	0,101
-421,759	109,859	0,010	-0,009
-420,744	35,405	-0,085	0,055
-419,730	211,982	-0,022	0,026
-418,715	242,008	-0,057	-0,070
-417,701	-200,000	0,003	-0,088
-416,686	100,073	0,098	0,084
-415,671	46,268	-0,031	-0,021
-414,657	800,000	0,027	0,058
-413,642	-200,000	0,015	-0,062
-412,628	278,245	-0,068	-0,089
-411,613	-184,435	-0,025	-0,000
-410,598	28,330	-0,046	-0,028
-409,584	-10,023	-0,119	-0,058
-408,569	95,308	-0,027	0,023
-407,555	-109,028	0,106	0,016
-406,540	-100,421	0,188	0,034
-405,525	800,000	-0,047	-0,126
-404,511	-33,826	-0,050	0,020
-403,496	156,346	0,080	0,081
-402,482	-116,446	0,158	0,021
-401,467	49,872	0,111	0,077
-400,452	-200,000	-0,022	0,124
-399,438	98,477	-0,035	0,030
-398,423	-83,938	-0,117	-0,027
-397,409	153,631	-0,163	-0,164
-396,394	-200,000	0,001	-0,108
-395,379	-200,000	-0,001	0,047
-394,365	92,401	-0,010	-0,008
-393,350	-110,862	0,127	-0,019
-392,336	800,000	-0,019	0,056
-391,321	-103,884	-0,190	-0,032
-390,306	72,117	0,102	0,078
-389,292	-200,000	0,014	-0,119
-388,277	-17,142	-0,076	-0,035
-387,263	-57,637	0,168	-0,054
-386,248	267,558	0,115	0,148
-385,233	520,451	-0,078	0,135
-384,219	-200,000	-0,002	0,082
-383,204	-200,000	0,006	-0,071
-382,190	575,691	-0,094	-0,169
-381,175	-100,036	0,038	-0,007
-380,160	-65,413	0,103	0,030
-379,146	-33,750	-0,017	0,007
-378,131	800,000	0,039	0,114
-377,117	-2,495	-0,116	0,060
-376,102	-200,000	0,021	-0,101
-375,088	210,540	0,061	-0,071
-374,073	-53,962	0,070	-0,023
-373,058	214,376	-0,066	0,077
-372,044	800,000	0,026	0,069
-371,029	60,763	0,096	0,070
-370,015	-200,000	-0,030	-0,142
-369,000	-200,000	0,018	-0,087
-367,985	88,449	0,136	-0,111
-366,971	31,080	-0,023	0,014
-365,956	90,530	0,073	0,060
-364,942	-61,611	0,067	0,021
-363,927	-49,130	-0,095	0,033
-362,912	-200,000	-0,003	-0,031
-361,898	-200,000	0,002	0,006
-360,883	74,279	-0,074	-0,057
-359,869	-80,933	-0,101	-0,024
-358,854	-86,637	-0,105	-0,023
-357,839	7,006	0,079	-0,043
-356,825	123,169	-0,010	0,009
-355,810	-143,682	-0,083	0,006
-354,796	-100,038	-0,015	0,003
-353,781	-200,000	0,024	-0,090
-352,766	-134,627	-0,082	0,007
-351,752	-200,000	0,033	0,119
-350,737	75,836	0,106	-0,082
-349,723	-175,604	-0,048	0,001
-348,708	261,077	0,113	0,143
-347,693	-200,000	0,013	0,113
-346,679	366,102	-0,071	-0,106
-345,664	351,076	-0,021	0,031
-344,650	800,000	0,073	0,152
-343,635	144,053	0,078	0,077
-342,620	-200,000	-0,006	-0,033
-341,606	-13,505	-0,069	-0,033
-340,591	-3,112	0,122	-0,062
-339,577	-200,000	0,002	-0,018
-338,562	78,425	-0,039	-0,030
-337,548	78,189	-0,067	-0,052
-336,533	219,166	-0,039	0,046
-335,518	-5,502	0,082	0,041
-334,504	-105,407	0,060	0,010
-333,489	74,876	-0,066	-0,051
-332,475	260,861	-0,032	0,041
-331,460	-75,194	-0,134	-0,035
-330,445	550,563	-0,018	0,032
-329,431	-42,206	-0,096	-0,036
-328,416	105,791	0,054	-0,047
-327,402	-115,187	0,024	0,003
-326,387	528,234	-0,050	-0,086
-325,372	368,998	-0,057	-0,085
-324,358	-200,000	0,006	0,117
-323,343	-14,900	0,082	-0,038
-322,329	195,929	0,073	-0,082
-321,314	-200,000	-0,011	0,051
-320,299	-112,112	0,115	-0,017
-319,285	159,441	-0,032	0,032
-318,270	-200,000	-0,009	0,162
-317,256	-71,486	0,060	0,016
-316,241	679,704	0,056	0,107
-315,226	649,296	-0,038	0,071
-314,212	800,000	-0,029	0,084
-313,197	5,070	0,051	-0,028
-312,183	628,184	0,030	0,056
-311,168	800,000	-0,047	-0,102
-310,153	-137,807	-0,124	-0,010
-309,139	464,062	0,007	0,011
-308,124	-53,635	0,066	0,022
-307,110	11,876	-0,012	0,007
-306,095	800,000	0,038	0,096
-305,080	-154,984	0,104	0,005
-304,066	-49,614	-0,127	0,044
-303,051	800,000	0,050	-0,112
-302,037	33,214	-0,078	-0,050
-301,022	800,000	-0,022	0,058
-300,008	293,600	-0,064	0,086
-298,993	-82,103	0,099	-0,023
-297,978	283,674	-0,073	-0,096
-296,964	145,757	-0,140	0,137
-295,949	-137,296	-0,111	0,009
-294,935	-200,000	-0,007	-0,055
-293,920	800,000	-0,028	0,067
-292,905	-200,000	0,009	0,199
-291,891	609,020	0,045	0,082
-290,876	-156,338	-0,109	0,005
-289,862	121,349	0,099	-0,091
-288,847	-11,314	0,059	0,028
-287,832	-98,902	-0,104	-0,019
-286,818	222,593	-0,138	0,163
-285,803	12,533	0,080	0,045
-284,789	-89,620	0,057	0,012
-283,774	258,309	-0,083	0,104
-282,759	287,468	0,048	0,064
-281,745	800,000	0,017	-0,047
-280,730	-53,606	-0,096	0,032
-279,716	190,921	0,021	0,023
-278,701	9,918	0,100	-0,055
-277,686	-91,272	0,034	-0,007
-276,672	-200,000	0,005	0,029
-275,657	-54,622	-0,159	0,052
-274,643	-200,000	-0,008	0,080
-273,628	800,000	0,055	0,115
-272,613	-200,000	0,013	0,095
-271,599	290,311	0,109	-0,145
-270,584	65,879	0,056	0,041
-269,570	312,855	-0,034	0,046
-268,555	5,951	0,108	0,058
-267,540	787,728	-0,038	0,077
-266,526	-200,000	0,007	0,031
-265,511	-4,166	0,054	0,027
-264,497	-200,000	0,004	-0,075
-263,482	-200,000	0,002	0,083
-262,467	-94,652	-0,101	0,020
-261,453	19,264	-0,059	-0,035
-260,438	188,991	0,059	0,065
-259,424	84,675	-0,112	-0,089
-258,409	-200,000	-0,009	0,103
-257,395	-42,492	-0,098	0,036
-256,380	800,000	0,086	0,203
-255,365	110,408	-0,030	0,026
-254,351	213,864	0,050	-0,057
-253,336	140,216	-0,042	-0,041
-252,322	189,590	-0,082	-0,090
-251,307	800,000	-0,038	-0,102
-250,292	271,624	0,082	0,106
-249,278	658,536	-0,066	-0,126
-248,263	395,206	0,054	0,082
-247,249	-200,000	-0,006	0,037
-246,234	-46,832	0,081	0,029
-245,219	-149,742	0,041	0,002
-244,205	-122,765	-0,033	-0,004
-243,190	225,480	-0,027	0,032
-242,176	68,141	0,055	-0,041
-241,161	670,574	0,030	-0,057
-240,146	769,368	-0,067	-0,133
-239,132	-61,633	0,077	-0,024
-238,117	800,000	0,016	-0,041
-237,103	626,322	0,041	-0,075
-236,088	-200,000	-0,014	0,057
-235,073	258,044	0,079	0,100
-234,059	800,000	0,039	0,117
-233,044	597,107	0,058	0,106
-232,030	-119,176	0,122	-0,015
-231,015	800,000	0,014	-0,036
-230,000	-53,182	0,171	-0,057
-228,986	-56,859	-0,140	0,045
-227,971	-200,000	-0,014	0,086
-226,957	573,076	0,065	0,117
-225,942	800,000	-0,073	0,170
-224,927	800,000	-0,069	0,159
-223,913	-200,000	-0,016	0,088
-222,898	126,761	-0,092	-0,086
-221,884	-135,355	-0,063	-0,005
-220,869	-16,803	-0,071	0,033
-219,855	800,000	-0,039	0,089
-218,840	-200,000	0,039	0,133
-217,825	119,760	0,142	0,129
-216,811	-64,223	-0,117	-0,035
-215,796	800,000	0,014	0,043
-214,782	800,000	0,028	0,058
-213,767	-17,185	-0,048	-0,022
-212,752	-200,000	0,004	0,138
-211,738	112,235	0,115	-0,102
-210,723	-120,762	0,189	-0,023
-209,709	-189,361	-0,072	0,001
-208,694	334,356	-0,037	-0,053
-207,679	182,403	0,097	-0,105
-206,665	-200,000	-0,000	-0,057
-205,650	76,932	0,085	0,066
-204,636	-55,271	0,031	-0,010
-203,621	-200,000	0,005	0,111
-202,606	128,903	-0,067	-0,062
-201,592	-19,164	-0,036	-0,016
-200,577	675,403	0,032	0,062
-199,563	251,245	-0,064	0,079
-198,548	800,000	0,051	0,133
-197,533	-189,037	0,071	0,001
-196,519	651,042	0,061	0,114
-195,504	3,495	-0,046	-0,024
-194,490	800,000	-0,052	-0,149
-193,475	-162,013	-0,151	0,005
-192,460	-80,882	0,089	0,021
-191,446	-200,000	0,019	-0,062
-190,431	-200,000	-0,004	0,051
-189,417	800,000	-0,020	-0,045
-188,402	800,000	-0,006	0,017
-187,387	800,000	-0,033	0,102
-186,373	684,533	-0,021	-0,040
-185,358	800,000	-0,066	-0,146
-184,344	800,000	0,050	0,110
-183,329	-10,409	-0,066	0,032
-182,315	800,000	-0,037	0,119
-181,300	113,140	0,078	-0,069
-180,285	-200,000	0,015	-0,185
-179,271	800,000	-0,108	-0,220
-178,256	65,987	0,110	0,081
-177,242	46,664	-0,107	-0,072
-176,227	-149,489	-0,050	0,003
-175,212	-200,000	0,011	0,043
-174,198	-105,680	0,070	0,011
-173,183	-200,000	-0,013	-0,051
-172,169	-120,282	-0,125	-0,015
-171,154	-42,945	0,119	-0,044
-170,139	188,704	-0,034	0,037
-169,125	800,000	0,045	0,109
-168,110	-9,340	0,130	0,063
-167,096	-200,000	0,004	0,080
-166,081	-200,000	0,008	0,028
-165,066	204,794	-0,074	0,083
-164,052	-127,974	0,086	-0,009
-163,037	176,081	0,082	-0,087
-162,023	-55,661	-0,037	0,012
-161,008	73,809	0,068	-0,052
-159,993	97,457	-0,036	0,030
-158,979	208,296	-0,114	-0,130
-157,964	-200,000	0,019	-0,192
-156,950	79,304	-0,087	-0,068
-155,935	800,000	0,062	-0,137
-154,920	135,542	0,083	0,079
-153,906	371,242	0,061	0,091
-152,891	123,387	-0,086	0,078
-151,877	-69,605	-0,090	0,025
-150,862	76,123	-0,087	-0,067
-149,847	-200,000	-0,030	-0,111
-148,833	-200,000	0,006	-0,098
-147,818	-200,000	0,045	0,155
-146,804	-147,357	0,104	0,006
-145,789	800,000	0,034	0,082
-144,775	245,411	-0,024	-0,029
-143,760	800,000	0,001	0,002
-142,745	271,027	0,072	-0,093
-141,731	-200,000	0,003	0,012
-140,716	248,627	-0,043	0,053
-139,702	800,000	0,031	-0,075
-138,687	42,542	-0,074	0,049
-137,672	800,000	0,004	-0,012
-136,658	-200,000	0,016	-0,129
-135,643	800,000	0,019	0,042
-134,629	-200,000	-0,006	0,091
-133,614	-93,525	-0,100	0,020
-132,599	229,661	0,083	0,099
-131,585	81,860	0,146	0,115
-130,570	800,000	-0,050	-0,128
-129,556	222,479	0,078	-0,092
-128,541	184,312	-0,045	0,049
-127,526	-200,000	0,006	0,034
-126,512	-130,031	0,071	0,007
-125,497	-200,000	0,003	0,023
-124,483	121,360	-0,021	-0,019
-123,468	-200,000	-0,019	-0,087
-122,453	-119,378	-0,098	0,012
-121,439	557,664	0,106	-0,187
-120,424	-200,000	-0,013	-0,105
-119,410	257,204	-0,083	-0,104
-118,395	295,587	-0,055	0,074
-117,380	-200,000	-0,003	0,098
-116,366	123,571	0,081	0,074
-115,351	-200,000	-0,024	-0,129
-114,337	310,303	-0,058	0,079
-113,322	800,000	0,035	0,077
-112,307	5,087	-0,038	0,020
-111,293	-200,000	-0,001	0,065
-110,278	378,146	-0,057	-0,084
-109,264	48,379	-0,056	-0,038
-108,249	-33,022	-0,045	-0,018
-107,234	0,467	-0,036	-0,019
-106,220	255,802	0,090	-0,113
-105,205	-111,339	0,064	0,009
-104,191	293,648	0,051	-0,068
-103,176	153,322	-0,095	-0,094
-102,162	-82,738	0,094	0,022
-101,147	16,544	0,080	-0,046
-100,132	172,951	0,029	0,031
-99,118	-44,541	-0,058	0,021
-98,103	800,000	0,019	0,062
-97,089	62,542	0,097	-0,071
-96,074	-42,809	0,070	0,026
-95,059	-200,000	0,025	-0,168
-94,045	-164,676	-0,166	-0,005
-93,030	-61,872	-0,120	-0,036
-92,016	50,214	0,047	-0,032
-91,001	-133,711	0,063	0,006
-89,986	800,000	0,018	-0,052
-88,972	16,510	-0,114	0,065
-87,957	38,875	-0,025	0,016
-86,943	32,359	-0,040	0,025
-85,928	-200,000	-0,002	0,007
-84,913	-176,068	0,062	-0,001
-83,899	800,000	-0,062	-0,149
-82,884	196,639	0,053	-0,059
-81,870	39,631	0,040	0,026
-80,855	800,000	0,015	-0,036
-79,840	800,000	-0,050	-0,126
-78,826	292,944	-0,064	0,085
-77,811	800,000	0,043	-0,095
-76,797	90,763	-0,021	-0,017
-75,782	-200,000	-0,011	-0,045
-74,767	-200,000	0,007	-0,036
-73,753	295,981	-0,047	-0,062
-72,738	492,128	0,070	-0,118
-71,724	800,000	0,006	0,018
-70,709	8,916	0,113	-0,062
-69,694	-200,000	-0,010	-0,100
-68,680	800,000	0,030	-0,063
-67,665	543,803	0,053	0,091
-66,651	-30,581	0,063	-0,026
-65,636	48,347	0,098	-0,067
-64,622	222,954	-0,104	0,122
-63,607	-30,345	0,072	0,029
-62,592	119,664	-0,156	0,140
-61,578	143,876	0,108	0,105
-60,563	376,238	0,020	-0,029
-59,549	800,000	-0,048	0,131
-58,534	-174,016	-1,159	-0,024
-57,519	723,394	-0,771	-1,497
-56,505	-200,000	-0,941	-4,261
-55,490	95,979	0,616	-0,510
-54,476	800,000	5,006	11,882
-53,461	-200,000	13,263	252,623
-52,446	-200,000	688,391	2274,392
-51,432	599,343	1623,895	2935,613
-50,417	121,342	1637,702	1480,062
-49,403	73,377	1292,035	980,017
-48,388	38,499	1026,247	662,487
-47,373	24,750	983,462	589,604
-46,359	23,948	973,413	580,922
-45,344	23,016	969,124	575,289
-44,330	22,949	967,728	574,218
-43,315	22,897	966,204	573,123
-42,300	22,873	965,210	572,433
-41,286	22,851	964,241	571,762
-40,271	22,788	963,409	571,042
-39,257	22,845	962,424	570,619
-38,242	22,810	961,698	570,053
-37,227	22,839	960,644	569,499
-36,213	22,780	959,764	568,766
-35,198	22,762	958,969	568,213
-34,184	22,802	958,399	567,983
-33,169	22,800	957,323	567,317
-32,154	22,859	956,364	566,916
-31,140	22,819	955,681	566,359
-30,125	22,825	954,799	565,834
-29,111	22,829	953,977	565,337
-28,096	22,833	953,329	564,943
-27,082	22,820	952,714	564,514
-26,067	22,856	951,721	564,020
-25,052	22,851	951,185	563,664
-24,038	22,825	950,624	563,224
-23,023	22,858	949,810	562,825
-22,009	22,942	949,146	562,678
-20,994	22,864	948,628	562,100
-19,979	22,861	947,840	561,601
-18,965	22,893	947,195	561,299
-17,950	22,875	946,613	560,874
-16,936	22,872	945,907	560,424
-15,921	22,833	945,283	559,907
-14,906	22,682	944,704	559,063
-13,892	22,762	943,870	558,801
-12,877	22,741	943,415	558,442
-11,863	22,639	942,859	557,765
-10,848	22,675	942,281	557,517
-9,833	22,808	941,637	557,537
-8,819	22,791	941,173	557,185
-7,804	22,744	940,322	556,511
-6,790	22,719	939,880	556,149
-5,775	22,750	939,310	555,887
-4,760	22,728	938,704	555,434
-3,746	22,772	937,964	555,114
-2,731	22,562	937,534	554,174
-1,717	22,564	936,661	553,644
-0,702	22,533	935,975	553,116
0,313	22,360	935,192	552,945
1,327	25,529	933,294	561,752
2,342	35,433	798,028	506,759
3,356	33,734	451,979	284,428
4,371	2,211	292,916	152,998
5,386	-2,321	273,719	138,687
6,400	-3,888	267,995	134,326
7,415	-4,292	265,407	132,646
8,429	-3,876	264,115	132,368
9,444	-3,973	263,272	131,846
10,459	-4,055	262,618	131,433
11,473	-4,309	262,111	130,937
12,488	-4,243	261,623	130,741
13,502	-4,370	261,123	130,365
14,517	-4,229	260,641	130,240
15,531	-4,418	260,463	129,970
16,546	-3,983	259,781	130,007
17,561	-4,079	259,587	129,813
18,575	-4,120	259,352	129,647
19,590	-4,168	258,883	129,358
20,604	-4,125	258,635	129,261
21,619	-4,151	258,288	129,053
22,634	-4,026	257,828	128,923
23,648	-4,328	257,700	128,579
24,663	-4,101	257,363	128,600
25,677	-4,130	257,120	128,442
26,692	-4,285	256,853	128,160
27,707	-4,439	256,696	127,934
28,721	-4,209	256,356	127,957
29,736	-4,404	256,070	127,630
30,750	-4,326	255,856	127,581
31,765	-4,394	255,574	127,369
32,780	-4,251	255,448	127,421
33,794	-4,253	255,044	127,206
34,809	-4,188	254,822	127,141
35,823	-4,219	254,626	127,005
36,838	-4,228	254,442	126,894
37,853	-4,374	254,238	126,653
38,867	-4,209	253,902	126,618
39,882	-4,225	253,716	126,500
40,896	-4,354	253,672	126,354
41,911	-4,096	253,272	126,369
42,926	-4,361	252,973	125,978
43,940	-4,208	252,982	126,105
44,955	-4,330	252,708	125,851
45,969	-4,667	252,560	125,473
46,984	-4,561	252,257	125,403
47,999	-4,804	251,892	125,000
49,013	-4,772	251,614	124,878
50,028	-4,971	251,430	124,604
51,042	-5,011	251,178	124,433
52,057	-5,289	251,010	124,099
53,071	-4,935	250,735	124,257
54,086	-5,019	250,601	124,107
55,101	-4,925	250,538	124,146
56,115	-4,747	250,344	124,192
57,130	-4,099	250,037	124,585
58,144	-4,010	250,014	124,639
59,159	-3,896	249,782	124,610
60,174	-3,979	249,646	124,460
61,188	-4,184	249,380	124,140
62,203	-3,979	249,131	124,181
63,217	-4,117	248,959	123,967
64,232	-4,097	248,898	123,942
65,247	-4,128	248,720	123,815
66,261	-4,210	248,326	123,539
67,276	-4,288	247,922	123,261
68,290	-4,543	247,835	122,989
69,305	-4,406	247,548	122,952
70,320	-4,397	247,377	122,864
71,334	-4,360	247,269	122,830
72,349	-4,099	247,184	122,999
73,363	-4,062	247,016	122,936
74,378	-4,115	246,816	122,781
75,393	-4,192	246,612	122,603
76,407	-4,201	246,471	122,514
77,422	-4,307	246,303	122,330
78,436	-4,290	246,147	122,256
79,451	-3,950	245,643	122,282
80,466	-4,229	245,651	122,039
81,480	-4,335	245,332	121,781
82,495	-4,590	245,214	121,497
83,509	-4,515	244,829	121,358
84,524	-4,566	244,746	121,264
85,539	-4,460	244,508	121,223
86,553	-4,371	244,192	121,131
87,568	-4,569	244,184	120,950
88,582	-4,396	243,841	120,914
89,597	-4,532	243,665	120,702
90,611	-4,512	243,783	120,767
91,626	-4,357	243,568	120,779
92,641	-4,331	243,417	120,715
93,655	-4,435	243,231	120,526
94,670	-4,458	242,847	120,305
95,684	-4,407	242,823	120,326
96,699	-4,473	242,623	120,160
97,714	-4,483	242,411	120,036
98,728	-4,438	242,294	120,005
99,743	-4,653	241,794	119,568
100,757	-4,713	241,779	119,501
101,772	-4,643	241,591	119,455
102,787	-4,336	241,314	119,562
103,801	-4,591	241,268	119,317
104,816	-4,408	241,154	119,401
105,830	-4,217	241,048	119,496
106,845	-4,229	240,857	119,381
107,860	-4,190	240,596	119,273
108,874	-4,420	240,494	119,022
109,889	-4,405	240,230	118,894
110,903	-4,387	239,895	118,732
111,918	-4,292	239,814	118,759
112,933	-4,454	239,752	118,584
113,947	-4,385	239,622	118,566
114,962	-4,228	239,301	118,526
115,976	-4,292	239,234	118,429
116,991	-4,292	239,065	118,335
118,006	-4,286	238,810	118,203
119,020	-4,230	238,748	118,208
120,035	-4,134	238,732	118,267
121,049	-4,247	238,467	118,033
122,064	-4,151	238,342	118,039
123,079	-4,178	238,202	117,938
124,093	-4,208	237,787	117,697
125,108	-4,466	237,546	117,358
126,122	-4,787	237,463	117,047
127,137	-4,752	237,248	116,958
128,151	-4,695	237,096	116,919
129,166	-4,391	236,919	117,067
130,181	-4,616	236,720	116,776
131,195	-4,534	236,415	116,682
132,210	-4,572	236,367	116,617
133,224	-4,512	236,274	116,609
134,239	-4,230	236,097	116,738
135,254	-4,233	235,921	116,639
136,268	-4,374	235,787	116,448
137,283	-4,609	235,414	116,065
138,297	-4,803	235,246	115,817
139,312	-4,534	235,017	115,910
140,327	-4,397	234,991	115,996
141,341	-4,011	235,015	116,307
142,356	-4,125	235,014	116,205
143,370	-4,014	234,811	116,183
144,385	-3,748	234,438	116,200
145,400	-4,008	234,337	115,932
146,414	-3,989	234,297	115,917
147,429	-3,939	234,125	115,862
148,443	-3,772	233,689	115,769
149,458	-3,947	233,663	115,606
150,473	-3,712	233,502	115,703
151,487	-4,001	233,377	115,401
152,502	-4,080	233,161	115,222
153,516	-3,958	232,979	115,217
154,531	-3,926	232,753	115,121
155,546	-3,982	232,549	114,965
156,560	-4,374	232,557	114,649
157,575	-4,157	232,246	114,657
158,589	-3,921	231,998	114,710
159,604	-3,874	231,944	114,711
160,619	-3,721	231,779	114,740
161,633	-3,912	231,800	114,589
162,648	-3,925	231,527	114,433
163,662	-3,871	231,469	114,438
164,677	-4,046	231,259	114,186
165,692	-3,958	231,058	114,145
166,706	-3,780	230,955	114,225
167,721	-3,732	230,761	114,156
168,735	-3,835	230,642	114,006
169,750	-3,959	230,607	113,881
170,764	-3,945	230,386	113,773
171,779	-3,823	230,323	113,827
172,794	-3,739	230,133	113,789
173,808	-3,906	229,694	113,432
174,823	-4,283	229,504	113,033
175,837	-4,683	229,393	112,656
176,852	-4,301	229,295	112,896
177,867	-4,180	229,357	113,011
178,881	-3,936	229,187	113,107
179,896	-3,808	228,973	113,091
180,910	-3,933	228,998	112,996
181,925	-3,732	228,670	112,980
182,940	-3,972	228,662	112,780
183,954	-3,834	228,288	112,692
184,969	-3,848	228,212	112,634
185,983	-3,841	228,127	112,587
186,998	-3,691	227,901	112,582
188,013	-3,704	227,768	112,496
189,027	-3,657	227,730	112,503
190,042	-3,758	227,483	112,293
191,056	-3,691	227,305	112,248
192,071	-3,793	227,229	112,121
193,086	-3,744	226,963	112,018
194,100	-3,934	226,808	111,785
195,115	-4,206	226,571	111,449
196,129	-4,916	226,235	110,728
197,144	-1,629	227,163	113,706
198,159	2,167	228,318	117,207
199,173	4,064	228,636	118,826
200,188	4,109	228,644	118,853
201,202	4,435	228,348	118,940
202,217	4,579	228,391	119,063
203,232	4,687	228,240	119,056
204,246	4,762	228,149	119,056
205,261	4,775	227,982	118,969
206,275	4,975	227,827	119,031
207,290	4,874	227,836	118,948
208,304	4,940	227,605	118,867
209,319	4,807	227,247	118,568
210,334	4,806	227,181	118,522
211,348	4,528	227,030	118,219
212,363	4,156	226,738	117,772
213,377	4,223	226,426	117,651
214,392	3,987	226,374	117,434
215,407	4,269	226,074	117,482
216,421	4,153	226,152	117,424
217,436	4,003	225,877	117,157
218,450	3,841	225,703	116,933
219,465	3,836	225,556	116,843
220,480	4,005	225,363	116,860
221,494	4,010	225,318	116,830
222,509	4,130	225,200	116,850
223,523	4,072	225,097	116,742
224,538	3,988	224,909	116,570
225,553	4,126	224,696	116,554
226,567	3,911	224,543	116,302
227,582	4,356	224,490	116,600
228,596	4,503	224,463	116,687
229,611	4,335	224,143	116,383
230,626	3,800	224,112	115,953
231,640	3,929	223,899	115,930
232,655	4,302	223,680	116,087
233,669	4,671	223,719	116,374
234,684	4,508	223,668	116,215
235,699	4,469	223,427	116,050
236,713	4,294	223,148	115,763
237,728	4,082	223,076	115,557
238,742	3,787	222,745	115,154
239,757	3,956	222,735	115,265
240,772	3,960	222,624	115,200
241,786	4,100	222,268	115,110
242,801	4,350	222,196	115,249
243,815	4,321	222,214	115,227
244,830	4,340	222,117	115,181
245,844	4,218	221,848	114,940
246,859	4,135	221,787	114,836
247,874	4,461	221,525	114,933
248,888	4,229	221,411	114,691
249,903	4,266	221,269	114,634
250,917	4,025	221,227	114,424
251,932	3,998	221,037	114,295
252,947	3,804	220,808	114,023
253,961	3,919	220,537	113,958
254,976	3,995	220,586	114,029
255,990	4,235	220,514	114,159
257,005	4,160	220,286	113,976
258,020	4,319	220,147	114,011
259,034	4,440	220,180	114,108
260,049	4,421	219,990	113,985
261,063	4,241	219,783	113,734
262,078	4,429	219,710	113,825
263,093	4,538	219,576	113,826
264,107	4,254	219,459	113,546
265,122	4,555	219,149	113,597
266,136	4,545	219,062	113,535
267,151	4,524	219,017	113,485
268,166	4,083	218,817	113,048
269,180	3,698	218,584	112,635
270,195	3,926	218,298	112,644
271,209	3,979	218,181	112,613
272,224	4,073	218,225	112,695
273,239	4,260	218,109	112,761
274,253	4,048	217,770	112,421
275,268	3,744	217,691	112,149
276,282	3,714	217,505	112,020
277,297	3,733	217,283	111,911
278,312	3,897	217,380	112,070
279,326	4,121	217,095	112,076
280,341	3,847	217,133	111,886
281,355	4,298	216,905	112,086
282,370	4,131	216,634	111,815
283,384	4,097	216,477	111,699
284,399	3,618	216,328	111,266
285,414	3,579	216,359	111,243
286,428	3,916	216,216	111,404
287,443	4,304	215,947	111,536
288,457	4,330	215,936	111,539
289,472	4,242	215,649	111,317
290,487	3,698	215,538	110,858
291,501	3,516	215,388	110,640
292,516	3,817	215,283	110,792
293,530	3,897	215,110	110,751
294,545	3,870	215,023	110,677
295,560	3,763	214,961	110,559
296,574	3,950	214,793	110,597
297,589	3,902	214,662	110,485
298,603	3,997	214,635	110,530
299,618	3,972	214,485	110,425
300,633	4,154	214,214	110,405
301,647	4,174	214,305	110,456
302,662	4,150	214,114	110,331
303,676	4,358	213,996	110,410
304,691	4,460	213,736	110,339
305,706	4,267	213,719	110,182
306,720	4,235	213,635	110,106
307,735	4,277	213,207	109,906
308,749	4,005	213,112	109,653
309,764	4,414	213,015	109,884
310,779	4,610	212,886	109,948
311,793	4,203	212,759	109,583
312,808	4,233	212,670	109,548
313,822	4,163	212,459	109,380
314,837	4,096	212,272	109,227
315,852	4,018	212,182	109,116
316,866	4,097	212,094	109,116
317,881	4,429	211,921	109,252
318,895	4,507	211,844	109,258
319,910	4,045	211,625	108,809
320,925	3,716	211,465	108,485
321,939	3,628	211,262	108,309
322,954	3,830	211,257	108,439
323,968	4,024	211,172	108,523
324,983	4,132	211,057	108,530
325,997	4,555	210,974	108,776
327,012	4,370	210,777	108,534
328,027	4,197	210,613	108,319
329,041	4,539	210,575	108,530
330,056	4,546	210,429	108,449
331,070	4,074	210,286	108,035
332,085	3,772	210,024	107,679
333,100	4,028	210,003	107,838
334,114	3,934	209,834	107,676
335,129	4,007	209,685	107,641
336,143	3,877	209,492	107,441
337,158	3,943	209,424	107,443
338,173	3,796	209,297	107,265
339,187	3,895	209,180	107,265
340,202	3,841	208,837	107,042
341,216	3,815	208,657	106,922
342,231	3,701	208,622	106,815
343,246	3,722	208,542	106,780
344,260	3,783	208,539	106,811
345,275	4,064	208,277	106,863
346,289	4,147	208,208	106,875
347,304	4,364	208,096	106,958
348,319	4,081	207,829	106,616
349,333	3,943	207,877	106,535
350,348	4,174	207,654	106,571
351,362	4,056	207,571	106,438
352,377	4,410	207,463	106,617
353,392	4,304	207,215	106,407
354,406	4,056	207,281	106,261
355,421	193,214	1345,543	1431,798
356,435	154,098	1484,333	1431,914
