DTS Sentinel unit serial number:	SN410029Multiplexer serial number:	ORYXHardware model number:	OX2-SRSoftware version number:	ORYX F/W v4,00 Oryx Data Collector v3.7.2.0data status	okinstallation	B6 Nyhavnadifferential loss correction	single-endedforward channel	channel 2reverse channel	N/Adate	2023/12/08time	18:45:08forward acquisition time	300,00reverse acquisition time	0,00gamma	499,1914k internal	0,3158k external	0,3158temperature offset calibration	1,0000default loss term (dB/km)	0,3820temperature slope calibration	1,0000multiplexer offset coefficient	1,0000multiplexer slope coefficient	1,0000fibre end	0,00T internal ref (°C)	15,25T ext. ref 1 (°C)	-1,32T ext. ref 2 (°C)	-1,31length (m)	temperature (°C)	Stokes	anti-Stokes-744,400	-9,422	0,090	-0,044
-743,385	-56,571	-0,211	-0,069
-742,371	192,407	0,087	-0,097
-741,356	-149,375	-0,285	0,016
-740,342	800,000	0,086	0,191
-739,327	-163,394	-0,207	-0,007
-738,312	288,564	0,080	0,107
-737,298	-17,278	-0,244	-0,113
-736,283	98,126	0,121	0,103
-735,269	-107,486	-0,182	0,029
-734,254	-53,733	0,112	0,037
-733,239	8,751	-0,407	-0,225
-732,225	-46,880	0,146	-0,052
-731,210	-145,968	0,082	-0,005
-730,196	142,836	-0,066	-0,064
-729,181	57,971	-0,051	0,037
-728,167	-200,000	0,001	-0,050
-727,152	-46,787	-0,026	0,009
-726,137	800,000	-0,010	-0,023
-725,123	-149,897	-0,141	-0,008
-724,108	59,168	-0,114	-0,082
-723,094	800,000	-0,042	-0,130
-722,079	800,000	-0,037	-0,081
-721,064	632,794	0,035	-0,065
-720,050	394,640	-0,012	0,019
-719,035	63,479	0,027	0,020
-718,021	-125,325	-0,029	0,003
-717,006	165,902	-0,060	-0,063
-715,991	800,000	-0,038	-0,087
-714,977	340,232	-0,124	-0,178
-713,962	-72,171	-0,045	0,012
-712,948	422,755	0,047	-0,075
-711,933	44,710	-0,102	-0,069
-710,918	-81,480	0,068	-0,016
-709,904	38,874	0,022	-0,014
-708,889	-200,000	0,013	-0,210
-707,875	44,216	0,098	-0,066
-706,860	-0,815	0,114	-0,059
-705,845	-121,900	-0,061	-0,007
-704,831	800,000	-0,049	0,144
-703,816	-17,538	0,071	0,033
-702,802	-200,000	0,003	0,132
-701,787	-23,081	-0,051	-0,022
-700,772	-104,134	-0,027	0,005
-699,758	-200,000	-0,003	0,045
-698,743	-200,000	0,012	0,077
-697,729	-200,000	-0,009	-0,045
-696,714	109,324	0,070	0,062
-695,699	800,000	-0,040	0,085
-694,685	21,909	-0,127	-0,076
-693,670	-200,000	-0,025	0,122
-692,656	-200,000	-0,008	0,039
-691,641	-78,667	-0,066	-0,016
-690,627	-200,000	-0,024	-0,176
-689,612	17,540	0,013	0,008
-688,597	800,000	0,032	0,069
-687,583	-200,000	0,021	-0,110
-686,568	622,541	-0,034	-0,063
-685,554	148,121	-0,050	-0,050
-684,539	-200,000	-0,004	0,032
-683,524	-115,008	0,072	-0,010
-682,510	800,000	0,037	-0,086
-681,495	800,000	-0,007	0,022
-680,481	118,746	-0,073	-0,067
-679,466	800,000	-0,015	0,044
-678,451	-143,824	0,180	0,012
-677,437	31,396	0,032	-0,020
-676,422	310,419	-0,092	-0,127
-675,408	-162,335	-0,113	0,004
-674,393	-200,000	0,002	0,104
-673,378	-20,584	0,103	0,047
-672,364	800,000	-0,031	-0,067
-671,349	-147,004	0,028	-0,002
-670,335	35,759	-0,076	0,049
-669,320	-3,094	-0,072	0,037
-668,305	104,826	0,082	-0,071
-667,291	-200,000	-0,002	-0,115
-666,276	341,353	-0,033	0,048
-665,262	-23,512	-0,098	-0,043
-664,247	261,300	0,038	-0,048
-663,232	-8,443	-0,119	-0,058
-662,218	800,000	0,023	-0,067
-661,203	70,202	0,055	-0,041
-660,189	2,524	0,104	0,055
-659,174	122,114	-0,055	0,050
-658,159	-200,000	-0,011	0,058
-657,145	112,287	-0,084	0,075
-656,130	734,269	0,032	0,064
-655,116	69,417	0,099	0,075
-654,101	-48,088	0,044	0,016
-653,086	-200,000	0,011	0,078
-652,072	81,645	-0,079	0,063
-651,057	800,000	-0,021	-0,050
-650,043	800,000	-0,043	-0,089
-649,028	-92,569	0,044	-0,009
-648,014	420,872	-0,046	-0,073
-646,999	342,939	0,059	0,085
-645,984	137,012	0,109	0,104
-644,970	-96,930	0,082	0,016
-643,955	-89,789	-0,047	0,010
-642,941	-79,373	-0,124	-0,031
-641,926	210,758	0,047	-0,054
-640,911	233,542	-0,021	-0,026
-639,897	-69,376	0,123	0,034
-638,882	-200,000	-0,004	0,037
-637,868	107,550	0,127	-0,111
-636,853	-200,000	-0,003	0,047
-635,838	800,000	0,010	0,029
-634,824	-178,259	0,098	-0,002
-633,809	136,766	0,177	-0,170
-632,795	121,972	-0,047	0,043
-631,780	800,000	-0,078	0,190
-630,765	-200,000	0,003	0,119
-629,751	265,834	-0,015	-0,020
-628,736	-200,000	0,004	-0,127
-627,722	-200,000	-0,013	-0,053
-626,707	-79,708	-0,069	0,017
-625,692	105,130	0,158	0,137
-624,678	800,000	-0,034	0,101
-623,663	190,014	0,055	0,060
-622,649	95,820	-0,157	-0,131
-621,634	180,632	-0,057	0,061
-620,619	-200,000	0,002	-0,065
-619,605	52,881	-0,056	-0,039
-618,590	186,965	0,069	0,075
-617,576	-47,170	-0,055	0,020
-616,561	-50,783	0,151	-0,052
-615,546	-200,000	-0,014	-0,094
-614,532	231,052	0,065	-0,078
-613,517	34,246	0,184	-0,117
-612,503	184,423	0,166	-0,180
-611,488	800,000	0,036	0,108
-610,474	8,424	-0,043	-0,024
-609,459	352,797	-0,065	-0,095
-608,444	80,936	-0,085	0,067
-607,430	178,775	0,040	-0,043
-606,415	-200,000	0,013	-0,112
-605,401	800,000	0,030	-0,077
-604,386	800,000	-0,026	0,076
-603,371	228,769	-0,027	-0,032
-602,357	800,000	-0,038	0,090
-601,342	-152,624	-0,130	-0,007
-600,328	-10,634	-0,137	0,066
-599,313	334,033	-0,021	-0,030
-598,298	-41,683	0,098	-0,037
-597,284	800,000	-0,033	0,095
-596,269	-200,000	0,034	-0,111
-595,255	-88,667	-0,137	0,030
-594,240	-98,742	0,142	-0,026
-593,225	109,245	0,106	-0,093
-592,211	-115,662	0,102	-0,014
-591,196	120,968	0,036	-0,032
-590,182	-190,021	-0,077	0,001
-589,167	58,381	-0,058	0,041
-588,152	-107,858	-0,152	0,024
-587,138	-1,809	0,080	-0,041
-586,123	-51,698	-0,031	-0,011
-585,109	675,387	0,062	-0,119
-584,094	-200,000	-0,010	-0,118
-583,079	800,000	-0,012	0,033
-582,065	186,249	0,026	-0,028
-581,050	464,412	0,013	0,021
-580,036	-170,999	-0,100	0,002
-579,021	-145,548	-0,032	-0,002
-578,006	167,995	-0,077	-0,080
-576,992	-200,000	0,034	-0,173
-575,977	-50,270	-0,080	0,028
-574,963	-200,000	-0,016	0,106
-573,948	189,051	-0,103	0,113
-572,934	608,730	-0,038	0,070
-571,919	4,075	0,066	0,035
-570,904	-200,000	0,002	0,013
-569,890	-132,689	-0,076	0,007
-568,875	34,441	0,182	0,116
-567,861	121,716	0,137	0,125
-566,846	-200,000	-0,011	0,127
-565,831	219,866	-0,057	0,067
-564,817	-200,000	-0,003	0,037
-563,802	-128,846	0,074	-0,007
-562,788	800,000	-0,018	-0,048
-561,773	154,750	-0,069	0,069
-560,758	17,176	0,119	0,069
-559,744	154,414	0,042	0,043
-558,729	-200,000	0,003	0,075
-557,715	800,000	-0,014	-0,036
-556,700	152,447	-0,101	0,101
-555,685	-14,271	0,141	-0,066
-554,671	-200,000	0,018	0,063
-553,656	-129,851	0,207	0,020
-552,642	-200,000	0,036	0,126
-551,627	-200,000	-0,006	0,104
-550,612	-128,035	-0,062	0,006
-549,598	800,000	0,055	-0,134
-548,583	250,284	-0,089	-0,111
-547,569	166,313	0,009	0,010
-546,554	506,661	0,096	-0,164
-545,539	-71,264	0,153	-0,042
-544,525	122,216	-0,100	-0,092
-543,510	98,905	-0,089	-0,075
-542,496	-200,000	-0,002	-0,059
-541,481	-60,870	-0,064	-0,020
-540,466	290,714	0,100	-0,134
-539,452	-155,149	-0,116	-0,005
-538,437	482,884	-0,060	0,100
-537,423	-200,000	-0,035	0,178
-536,408	-200,000	0,018	0,207
-535,393	-28,955	-0,089	0,037
-534,379	-200,000	-0,013	0,073
-533,364	223,698	-0,062	0,074
-532,350	648,410	-0,025	-0,047
-531,335	800,000	-0,034	-0,083
-530,321	-104,576	0,073	-0,012
-529,306	-200,000	0,015	-0,177
-528,291	212,849	0,026	-0,030
-527,277	800,000	-0,031	-0,095
-526,262	800,000	-0,016	-0,042
-525,248	-129,501	0,062	0,006
-524,233	84,887	-0,080	-0,064
-523,218	474,778	-0,012	-0,020
-522,204	149,772	-0,024	0,024
-521,189	234,924	-0,033	-0,040
-520,175	737,678	-0,049	0,097
-519,160	205,186	-0,087	-0,099
-518,145	-200,000	0,001	-0,064
-517,131	466,882	0,043	-0,071
-516,116	-143,530	-0,061	-0,004
-515,102	14,633	-0,037	0,021
-514,087	7,945	-0,120	-0,066
-513,072	-200,000	-0,031	-0,123
-512,058	-200,000	0,002	-0,014
-511,043	486,420	-0,043	-0,072
-510,029	-96,910	0,037	-0,007
-509,014	-18,345	0,188	0,085
-507,999	-120,996	0,082	0,010
-506,985	211,230	-0,081	-0,094
-505,970	-96,896	-0,089	0,017
-504,956	499,591	-0,088	-0,150
-503,941	617,587	-0,069	-0,128
-502,926	-200,000	0,011	0,060
-501,912	8,272	0,058	0,032
-500,897	-67,181	0,073	0,021
-499,883	-137,858	-0,118	-0,009
-498,868	-200,000	0,009	0,073
-497,853	-200,000	0,001	0,062
-496,839	777,786	-0,028	-0,056
-495,824	7,470	-0,071	-0,038
-494,810	373,710	0,061	0,091
-493,795	-38,322	0,113	0,043
-492,781	233,293	-0,090	-0,108
-491,766	800,000	0,048	-0,121
-490,751	4,791	-0,107	0,057
-489,737	800,000	0,048	0,098
-488,722	-200,000	0,004	0,050
-487,708	-34,089	-0,095	0,038
-486,693	-85,560	0,082	0,019
-485,678	-200,000	-0,035	0,000
-484,664	-200,000	0,007	-0,057
-483,649	352,648	0,033	-0,049
-482,635	580,249	0,037	-0,067
-481,620	800,000	-0,024	0,074
-480,605	0,690	-0,084	0,044
-479,591	2,943	0,082	-0,043
-478,576	334,347	-0,073	-0,103
-477,562	-45,970	-0,136	0,049
-476,547	320,033	-0,025	-0,034
-475,532	-99,021	-0,107	-0,020
-474,518	-29,637	-0,083	-0,034
-473,503	35,291	0,090	-0,057
-472,489	-101,570	0,033	-0,006
-471,474	-64,422	0,058	-0,017
-470,459	-200,000	-0,002	0,102
-469,445	784,620	0,046	-0,093
-468,430	7,053	0,061	-0,033
-467,416	-200,000	0,014	0,085
-466,401	-200,000	0,019	-0,072
-465,386	-200,000	-0,015	0,071
-464,372	267,779	-0,054	0,069
-463,357	-92,129	0,092	0,019
-462,343	766,164	-0,035	-0,070
-461,328	800,000	0,025	-0,051
-460,313	4,267	0,083	-0,044
-459,299	34,746	-0,040	-0,026
-458,284	109,170	0,042	-0,037
-457,270	370,018	0,075	0,112
-456,255	261,867	0,054	-0,069
-455,241	-95,640	0,014	-0,003
-454,226	-71,683	-0,100	-0,027
-453,211	-200,000	0,017	-0,132
-452,197	-200,000	-0,008	0,099
-451,182	-9,405	0,007	0,003
-450,168	-147,820	0,093	0,006
-449,153	800,000	0,039	0,089
-448,138	191,546	0,097	-0,106
-447,124	-26,982	0,128	0,054
-446,109	-3,983	0,058	0,029
-445,095	461,862	0,004	0,007
-444,080	52,294	0,050	-0,035
-443,065	-67,261	-0,093	0,027
-442,051	-200,000	-0,040	-0,251
-441,036	800,000	0,047	-0,102
-440,022	424,370	-0,033	-0,052
-439,007	-200,000	0,004	0,029
-437,992	-200,000	0,014	0,116
-436,978	-31,592	-0,136	-0,055
-435,963	800,000	-0,019	0,058
-434,949	-200,000	0,010	-0,039
-433,934	187,072	-0,072	-0,078
-432,919	89,475	-0,081	0,066
-431,905	108,489	0,061	-0,053
-430,890	-200,000	0,032	-0,117
-429,876	-200,000	-0,026	0,106
-428,861	-71,120	-0,155	-0,042
-427,846	-200,000	0,023	0,089
-426,832	18,267	-0,108	-0,063
-425,817	34,422	0,066	-0,042
-424,803	-8,751	-0,061	-0,030
-423,788	-8,798	-0,103	-0,050
-422,773	-20,788	0,101	0,045
-421,759	736,201	0,028	0,055
-420,744	123,651	-0,113	-0,103
-419,730	544,900	0,038	-0,067
-418,715	83,148	0,072	-0,057
-417,701	-200,000	0,007	-0,058
-416,686	-174,609	-0,043	0,001
-415,671	104,572	-0,029	-0,025
-414,657	223,100	0,086	0,101
-413,642	-125,517	0,171	0,019
-412,628	800,000	0,025	0,069
-411,613	61,912	-0,062	-0,045
-410,598	-200,000	0,035	-0,150
-409,584	457,924	0,072	-0,117
-408,569	-48,698	0,193	0,067
-407,555	-200,000	0,028	0,097
-406,540	-200,000	0,015	0,060
-405,525	-122,509	-0,081	0,009
-404,511	308,758	-0,052	0,071
-403,496	-200,000	0,027	0,109
-402,482	133,380	-0,133	0,125
-401,467	-200,000	0,007	0,057
-400,452	-200,000	0,049	0,162
-399,438	-123,431	-0,129	-0,015
-398,423	41,376	-0,047	0,031
-397,409	49,788	-0,071	0,048
-396,394	64,068	0,009	-0,006
-395,379	134,809	0,089	0,084
-394,365	-200,000	-0,003	0,041
-393,350	191,341	0,016	0,017
-392,336	297,567	0,102	0,137
-391,321	-200,000	-0,002	-0,129
-390,306	-200,000	-0,017	0,118
-389,292	286,632	-0,088	-0,116
-388,277	110,829	-0,059	0,051
-387,263	-200,000	-0,029	0,100
-386,248	-119,620	-0,069	0,009
-385,233	237,157	-0,052	0,062
-384,219	20,496	-0,017	0,010
-383,204	-200,000	0,005	-0,079
-382,190	258,395	0,078	0,097
-381,175	47,578	-0,120	-0,081
-380,160	-103,039	0,211	0,036
-379,146	22,426	0,078	0,047
-378,131	531,237	-0,010	-0,017
-377,117	800,000	0,003	0,007
-376,102	-200,000	-0,003	-0,064
-375,088	-36,353	-0,067	-0,026
-374,073	-108,800	-0,129	0,020
-373,058	-69,601	-0,029	0,008
-372,044	14,832	0,035	-0,020
-371,029	-62,317	-0,119	0,036
-370,015	-200,000	-0,004	0,113
-369,000	-200,000	0,011	-0,090
-367,985	99,755	-0,140	0,118
-366,971	315,696	-0,123	0,169
-365,956	-125,692	-0,022	0,002
-364,942	-164,461	0,105	0,003
-363,927	-200,000	-0,006	0,031
-362,912	-200,000	-0,002	0,064
-361,898	800,000	0,025	0,066
-360,883	23,099	0,041	-0,024
-359,869	-48,567	0,071	-0,025
-358,854	359,329	-0,072	0,105
-357,839	-200,000	0,004	0,050
-356,825	-200,000	0,007	0,105
-355,810	500,660	0,070	0,118
-354,796	2,438	-0,072	-0,038
-353,781	90,500	0,084	-0,068
-352,766	-182,490	-0,130	0,002
-351,752	154,091	-0,095	-0,095
-350,737	-136,908	0,061	0,005
-349,723	-115,019	-0,083	0,011
-348,708	783,459	0,023	0,046
-347,693	-42,471	-0,088	-0,032
-346,679	-200,000	-0,015	-0,071
-345,664	405,328	-0,109	-0,167
-344,650	-83,523	0,119	-0,027
-343,635	36,317	-0,106	0,068
-342,620	-58,742	0,044	-0,014
-341,606	-122,550	-0,082	0,010
-340,591	-200,000	-0,031	0,146
-339,577	46,157	0,074	0,050
-338,562	800,000	0,023	0,065
-337,548	-200,000	0,033	-0,127
-336,533	-151,868	-0,076	0,004
-335,518	800,000	-0,052	0,123
-334,504	-55,091	0,027	0,009
-333,489	-200,000	-0,036	-0,157
-332,475	-200,000	0,016	-0,060
-331,460	-113,829	-0,107	0,015
-330,445	-200,000	-0,011	0,075
-329,431	-200,000	-0,004	-0,030
-328,416	-200,000	0,004	-0,044
-327,402	86,161	-0,040	-0,032
-326,387	-64,350	-0,062	-0,018
-325,372	-64,687	0,038	-0,011
-324,358	754,830	-0,049	0,096
-323,343	-200,000	-0,028	-0,098
-322,329	-200,000	-0,016	0,155
-321,314	-200,000	0,004	-0,075
-320,299	38,463	0,087	0,056
-319,285	-200,000	-0,042	-0,172
-318,270	43,193	-0,031	-0,021
-317,256	179,213	-0,091	-0,096
-316,241	171,138	-0,034	-0,035
-315,226	326,674	-0,099	-0,138
-314,212	-99,195	0,124	0,023
-313,197	-41,338	0,129	-0,048
-312,183	370,670	0,015	0,022
-311,168	7,597	-0,081	0,044
-310,153	-200,000	0,033	-0,123
-309,139	-195,789	-0,063	-0,000
-308,124	-200,000	0,034	-0,117
-307,110	-34,929	0,105	0,041
-306,095	-185,624	0,094	-0,001
-305,080	-164,370	-0,113	0,004
-304,066	-200,000	-0,007	-0,043
-303,051	34,221	-0,054	0,034
-302,037	471,498	0,020	0,032
-301,022	95,364	0,046	0,038
-300,008	-200,000	0,029	-0,129
-298,993	-148,395	0,087	0,005
-297,978	800,000	0,020	-0,059
-296,964	-200,000	-0,034	0,157
-295,949	77,036	-0,068	-0,052
-294,935	156,766	0,067	0,068
-293,920	-43,023	0,004	0,001
-292,905	10,052	-0,049	0,027
-291,891	517,515	-0,054	-0,091
-290,876	239,107	0,023	-0,028
-289,862	-200,000	0,007	0,077
-288,847	-200,000	0,013	-0,128
-287,832	70,777	-0,187	0,140
-286,818	127,643	0,090	-0,082
-285,803	724,105	0,038	-0,074
-284,789	800,000	-0,047	0,146
-283,774	479,669	0,078	0,128
-282,759	307,741	0,068	-0,092
-281,745	214,792	-0,033	0,038
-280,730	250,055	-0,071	-0,087
-279,716	-43,902	0,028	-0,010
-278,701	42,290	0,113	0,074
-277,686	800,000	0,034	0,100
-276,672	-200,000	0,006	0,113
-275,657	-135,693	0,021	-0,002
-274,643	800,000	-0,060	-0,154
-273,628	-26,229	-0,045	-0,019
-272,613	-31,237	0,010	-0,004
-271,599	-96,456	0,043	0,008
-270,584	-200,000	-0,028	0,115
-269,570	-139,436	0,236	0,018
-268,555	-24,285	-0,039	0,017
-267,540	-62,323	-0,092	0,027
-266,526	-200,000	-0,029	-0,130
-265,511	134,525	-0,125	0,118
-264,497	-110,148	0,058	-0,009
-263,482	484,015	0,095	0,156
-262,467	114,958	0,011	-0,010
-261,453	-35,802	-0,078	-0,031
-260,438	122,174	0,099	0,089
-259,424	-4,841	0,071	-0,035
-258,409	188,463	-0,012	-0,013
-257,395	404,153	-0,046	-0,070
-256,380	154,669	0,079	-0,079
-255,365	-19,016	0,070	0,031
-254,351	33,604	0,119	0,075
-253,336	-200,000	-0,009	0,063
-252,322	129,402	-0,025	0,024
-251,307	106,140	0,061	0,052
-250,292	-83,598	-0,072	0,016
-249,278	-178,042	-0,079	-0,001
-248,263	-104,043	-0,046	0,008
-247,249	-200,000	-0,029	-0,109
-246,234	228,267	0,070	0,083
-245,219	-200,000	0,009	0,036
-244,205	243,360	0,048	0,058
-243,190	70,604	0,042	-0,031
-242,176	-200,000	0,003	-0,018
-241,161	-62,314	-0,063	0,019
-240,146	33,964	0,117	0,074
-239,132	113,925	-0,060	0,052
-238,117	-200,000	-0,027	0,095
-237,103	-200,000	0,052	0,196
-236,088	800,000	-0,011	-0,029
-235,073	-40,965	-0,067	-0,025
-234,059	-200,000	0,009	0,072
-233,044	157,431	-0,024	0,024
-232,030	-192,665	-0,033	-0,000
-231,015	-167,529	-0,055	-0,002
-230,000	781,681	-0,009	-0,017
-228,986	294,892	-0,031	-0,040
-227,971	28,566	0,029	0,017
-226,957	-28,645	0,111	0,046
-225,942	617,514	-0,050	-0,090
-224,927	-43,927	-0,109	-0,040
-223,913	64,575	0,132	0,096
-222,898	-21,069	-0,105	-0,046
-221,884	-34,090	0,042	-0,017
-220,869	-200,000	-0,011	0,071
-219,855	-200,000	-0,030	-0,097
-218,840	800,000	-0,028	0,078
-217,825	653,793	-0,019	-0,036
-216,811	-67,699	-0,088	-0,025
-215,796	-50,286	0,063	-0,021
-214,782	97,602	-0,097	0,081
-213,767	-200,000	0,034	0,152
-212,752	215,773	0,027	-0,031
-211,738	83,549	-0,041	0,033
-210,723	287,710	0,058	0,076
-209,709	499,913	-0,023	-0,038
-208,694	19,565	0,142	0,082
-207,679	-200,000	-0,032	-0,158
-206,665	159,430	0,077	-0,077
-205,650	-42,748	0,053	0,019
-204,636	-73,671	0,047	0,012
-203,621	-72,812	-0,169	0,044
-202,606	-43,841	0,083	-0,030
-201,592	753,227	0,037	0,073
-200,577	145,290	0,030	-0,029
-199,563	16,228	-0,159	0,090
-198,548	-57,384	0,081	-0,025
-197,533	378,805	-0,044	0,065
-196,519	-200,000	-0,011	0,051
-195,504	481,486	0,010	0,016
-194,490	-200,000	0,013	-0,056
-193,475	-79,049	-0,115	-0,028
-192,460	355,875	0,052	-0,075
-191,446	480,405	-0,079	-0,130
-190,431	45,928	0,024	-0,016
-189,417	800,000	-0,026	-0,060
-188,402	207,415	0,024	0,027
-187,387	200,256	-0,001	-0,001
-186,373	234,708	0,036	-0,043
-185,358	698,803	-0,038	-0,072
-184,344	47,800	-0,087	-0,059
-183,329	205,634	0,035	0,040
-182,315	-200,000	-0,004	0,163
-181,300	54,022	0,094	-0,065
-180,285	800,000	0,028	-0,076
-179,271	-73,715	-0,182	0,047
-178,256	-107,658	0,161	-0,025
-177,242	15,379	0,102	-0,058
-176,227	-48,128	0,018	0,006
-175,212	135,520	0,037	-0,035
-174,198	486,882	0,060	0,099
-173,183	178,981	0,054	-0,057
-172,169	-64,857	-0,061	0,018
-171,154	800,000	0,024	0,067
-170,139	-200,000	-0,017	0,155
-169,125	368,577	0,083	-0,122
-168,110	7,309	0,090	-0,048
-167,096	96,828	0,141	-0,116
-166,081	-200,000	-0,009	0,101
-165,066	292,301	-0,059	0,077
-164,052	144,080	0,142	-0,137
-163,037	-200,000	0,010	0,043
-162,023	436,637	0,062	0,097
-161,008	8,382	0,032	-0,017
-159,993	-200,000	0,008	-0,037
-158,979	49,973	-0,151	-0,103
-157,964	-63,568	-0,179	-0,053
-156,950	638,473	0,063	-0,116
-155,935	73,665	-0,087	-0,066
-154,920	137,122	0,090	-0,085
-153,906	204,329	0,046	0,051
-152,891	-200,000	0,005	0,112
-151,877	109,694	-0,111	0,096
-150,862	101,361	0,113	0,094
-149,847	-187,134	-0,143	0,001
-148,833	145,391	0,099	-0,095
-147,818	-20,558	0,096	-0,042
-146,804	-200,000	-0,033	0,105
-145,789	-63,362	0,173	0,051
-144,775	205,443	0,066	-0,074
-143,760	204,146	-0,053	-0,059
-142,745	-8,888	0,119	-0,057
-141,731	30,979	-0,073	-0,045
-140,716	482,638	0,002	0,002
-139,702	800,000	0,029	0,060
-138,687	315,953	-0,089	0,122
-137,672	800,000	-0,025	0,060
-136,658	-200,000	-0,009	-0,172
-135,643	-75,443	0,016	-0,004
-134,629	87,129	-0,064	-0,051
-133,614	13,950	0,059	-0,033
-132,599	-2,958	0,111	0,056
-131,585	800,000	0,066	0,138
-130,570	-51,197	-0,150	0,050
-129,556	800,000	-0,072	-0,147
-128,541	-200,000	0,009	0,046
-127,526	-58,546	0,068	0,021
-126,512	-36,253	-0,028	0,011
-125,497	524,400	0,028	-0,047
-124,483	-85,726	0,043	0,010
-123,468	800,000	-0,034	0,096
-122,453	590,340	-0,027	-0,048
-121,439	-113,254	-0,154	-0,022
-120,424	160,935	-0,018	-0,018
-119,410	-26,813	-0,062	0,026
-118,395	-11,924	0,045	0,021
-117,380	800,000	-0,056	0,164
-116,366	-115,574	0,063	-0,008
-115,351	22,885	0,089	-0,052
-114,337	29,397	-0,211	-0,129
-113,322	-200,000	-0,001	0,075
-112,307	800,000	0,024	-0,054
-111,293	-6,853	0,174	0,085
-110,278	212,231	0,045	-0,052
-109,264	-97,185	-0,093	0,017
-108,249	190,366	-0,134	0,145
-107,234	800,000	0,007	-0,021
-106,220	407,754	-0,085	-0,130
-105,205	109,373	-0,020	-0,018
-104,191	166,082	0,056	-0,058
-103,176	370,413	0,089	0,130
-102,162	215,133	0,060	0,069
-101,147	-145,543	-0,103	-0,007
-100,132	-200,000	-0,018	0,071
-99,118	-45,270	0,153	-0,054
-98,103	182,722	-0,120	-0,128
-97,089	-78,940	0,137	-0,033
-96,074	-200,000	-0,032	0,119
-95,059	-200,000	0,021	0,179
-94,045	-200,000	0,011	-0,043
-93,030	-62,925	-0,119	-0,035
-92,016	224,642	0,043	0,050
-91,001	-200,000	0,007	0,173
-89,986	404,486	-0,031	-0,047
-88,972	-157,803	0,052	-0,002
-87,957	723,755	0,107	0,205
-86,943	217,870	-0,109	-0,126
-85,928	-24,912	-0,013	-0,006
-84,913	325,413	-0,014	-0,019
-83,899	800,000	-0,028	-0,070
-82,884	596,600	0,052	-0,092
-81,870	-16,424	0,064	-0,029
-80,855	-78,561	0,136	0,033
-79,840	800,000	-0,013	-0,036
-78,826	-200,000	0,009	-0,103
-77,811	-78,113	-0,116	-0,029
-76,797	-73,291	0,095	0,025
-75,782	219,431	-0,064	0,074
-74,767	800,000	0,043	0,107
-73,753	-200,000	-0,007	-0,043
-72,738	-73,287	0,086	-0,022
-71,724	-200,000	-0,001	0,061
-70,709	-85,917	0,044	0,010
-69,694	54,685	-0,119	0,082
-68,680	-200,000	0,025	0,092
-67,665	800,000	-0,071	0,151
-66,651	-47,669	0,149	-0,052
-65,636	-200,000	0,000	-0,114
-64,622	389,402	-0,028	0,042
-63,607	800,000	-0,023	-0,068
-62,592	-200,000	-0,035	-0,137
-61,578	795,802	-0,041	-0,082
-60,563	629,489	0,030	-0,054
-59,549	-23,416	-0,082	0,035
-58,534	1,461	-2,082	-1,071
-57,519	-200,000	-0,129	-0,726
-56,505	-200,000	-1,161	-4,945
-55,490	46,555	0,929	0,618
-54,476	800,000	5,255	11,740
-53,461	-200,000	17,819	290,382
-52,446	800,000	726,185	2232,080
-51,432	537,554	1638,931	2805,339
-50,417	109,904	1629,044	1402,134
-49,403	73,419	1283,576	963,118
-48,388	31,664	1026,243	632,121
-47,373	19,895	988,278	569,963
-46,359	18,288	976,218	557,723
-45,344	15,616	972,389	546,779
-44,330	15,781	970,946	546,483
-43,315	15,271	969,196	543,813
-42,300	15,235	968,172	543,098
-41,286	15,311	966,907	542,615
-40,271	15,220	966,133	541,864
-39,257	15,304	965,119	541,548
-38,242	15,238	964,360	540,886
-37,227	15,262	963,580	540,503
-36,213	15,309	962,525	540,043
-35,198	15,271	961,698	539,435
-34,184	15,299	961,002	539,115
-33,169	15,244	960,092	538,406
-32,154	15,282	959,242	538,028
-31,140	15,291	958,247	537,477
-30,125	15,329	957,586	537,208
-29,111	15,296	956,719	536,594
-28,096	15,338	955,940	536,272
-27,082	15,241	955,433	535,654
-26,067	15,243	954,623	535,185
-25,052	15,271	953,851	534,821
-24,038	15,338	953,100	534,594
-23,023	15,235	952,472	533,891
-22,009	15,292	951,917	533,741
-20,994	15,265	951,301	533,287
-19,979	15,298	950,740	533,056
-18,965	15,281	949,952	532,540
-17,950	15,254	949,502	532,180
-16,936	15,239	948,860	531,751
-15,921	15,256	948,241	531,437
-14,906	15,193	947,353	530,717
-13,892	15,215	946,750	530,428
-12,877	15,206	946,112	530,023
-11,863	15,157	945,410	529,451
-10,848	15,223	944,846	529,325
-9,833	15,288	944,538	529,337
-8,819	15,235	943,941	528,814
-7,804	15,165	943,327	528,225
-6,790	15,202	942,911	528,090
-5,775	15,209	942,077	527,624
-4,760	15,159	941,521	527,134
-3,746	15,191	940,862	526,844
-2,731	15,025	940,216	525,938
-1,717	15,027	939,539	525,545
-0,702	15,034	938,786	525,123
0,313	14,844	938,167	524,970
1,327	18,243	936,160	534,500
2,342	27,393	789,871	475,079
3,356	23,975	444,158	262,065
4,371	-5,629	294,662	144,350
5,386	-9,625	276,417	131,622
6,400	-10,888	270,687	127,712
7,415	-11,023	268,241	126,423
8,429	-10,951	266,723	125,762
9,444	-11,003	266,123	125,420
10,459	-10,962	265,377	125,095
11,473	-11,078	264,648	124,635
12,488	-11,185	264,375	124,398
13,502	-11,605	263,774	123,725
14,517	-11,299	263,150	123,697
15,531	-11,153	262,964	123,730
16,546	-11,043	262,364	123,536
17,561	-11,107	261,988	123,290
18,575	-11,110	261,909	123,239
19,590	-11,097	261,369	122,986
20,604	-10,979	261,188	122,995
21,619	-11,178	260,866	122,654
22,634	-11,406	260,627	122,328
23,648	-11,238	260,251	122,291
24,663	-11,252	259,884	122,094
25,677	-11,123	259,628	122,078
26,692	-11,321	259,465	121,815
27,707	-11,329	259,153	121,650
28,721	-11,309	258,837	121,509
29,736	-11,258	258,477	121,375
30,750	-11,208	258,274	121,312
31,765	-11,309	258,053	121,108
32,780	-11,419	257,867	120,913
33,794	-11,172	257,583	120,987
34,809	-11,223	257,361	120,827
35,823	-11,425	257,273	120,597
36,838	-11,383	256,845	120,423
37,853	-11,410	256,671	120,307
38,867	-11,410	256,493	120,213
39,882	-11,376	256,047	120,022
40,896	-11,357	255,887	119,953
41,911	-11,376	255,774	119,873
42,926	-11,440	255,510	119,683
43,940	-11,509	255,213	119,473
44,955	-11,283	254,842	119,485
45,969	-11,713	254,739	119,052
46,984	-11,716	254,464	118,911
47,999	-11,770	254,228	118,744
49,013	-11,984	254,063	118,470
50,028	-11,979	253,599	118,247
51,042	-12,195	253,424	117,968
52,057	-12,215	253,155	117,816
53,071	-12,028	253,048	117,917
54,086	-12,119	252,951	117,783
55,101	-11,893	252,760	117,878
56,115	-11,684	252,743	118,039
57,130	-11,330	252,403	118,175
58,144	-11,027	252,287	118,371
59,159	-10,885	252,122	118,405
60,174	-11,136	251,915	118,081
61,188	-11,152	251,627	117,922
62,203	-11,058	251,444	117,906
63,217	-11,273	251,351	117,668
64,232	-11,172	251,008	117,583
65,247	-11,260	250,851	117,425
66,261	-11,229	250,508	117,280
67,276	-11,582	250,318	116,880
68,290	-11,714	250,001	116,608
69,305	-11,954	249,889	116,341
70,320	-11,731	249,599	116,385
71,334	-11,309	249,529	116,701
72,349	-11,308	249,468	116,663
73,363	-11,200	249,121	116,582
74,378	-11,035	248,928	116,621
75,393	-11,242	248,705	116,331
76,407	-11,290	248,515	116,191
77,422	-11,463	248,427	115,993
78,436	-11,122	248,104	116,120
79,451	-11,311	248,023	115,912
80,466	-11,375	247,701	115,697
81,480	-11,666	247,476	115,337
82,495	-11,661	247,347	115,271
83,509	-11,723	247,185	115,133
84,524	-11,524	246,950	115,181
85,539	-11,655	246,631	114,911
86,553	-11,722	246,434	114,753
87,568	-11,618	246,328	114,780
88,582	-11,458	246,039	114,770
89,597	-11,593	245,961	114,611
90,611	-11,512	245,847	114,615
91,626	-11,485	245,676	114,547
92,641	-11,334	245,304	114,490
93,655	-11,603	245,280	114,244
94,670	-11,523	245,063	114,199
95,684	-11,463	244,779	114,106
96,699	-11,486	244,620	114,003
97,714	-11,606	244,459	113,818
98,728	-11,671	244,290	113,676
99,743	-11,718	243,882	113,437
100,757	-11,680	243,744	113,393
101,772	-11,873	243,662	113,186
102,787	-11,666	243,450	113,249
103,801	-11,701	243,337	113,157
104,816	-11,569	243,216	113,199
105,830	-11,634	243,095	113,079
106,845	-11,233	242,801	113,263
107,860	-11,452	242,659	113,006
108,874	-11,325	242,333	112,949
109,889	-11,557	242,175	112,674
110,903	-11,459	241,944	112,637
111,918	-11,661	241,714	112,355
112,933	-11,553	241,703	112,428
113,947	-11,422	241,536	112,448
114,962	-11,493	241,313	112,276
115,976	-11,521	241,184	112,182
116,991	-11,465	241,015	112,140
118,006	-11,457	240,995	112,127
119,020	-11,388	240,636	112,006
120,035	-11,464	240,640	111,936
121,049	-11,302	240,305	111,903
122,064	-11,323	240,178	111,816
123,079	-11,364	239,887	111,637
124,093	-11,427	239,764	111,519
125,108	-11,819	239,450	111,045
126,122	-11,878	239,402	110,965
127,137	-11,875	239,087	110,811
128,151	-11,845	238,931	110,753
129,166	-11,667	238,777	110,816
130,181	-11,598	238,580	110,771
131,195	-11,815	238,426	110,514
132,210	-11,404	238,198	110,730
133,224	-11,367	238,033	110,673
134,239	-11,446	237,920	110,547
135,254	-11,533	237,890	110,453
136,268	-11,652	237,522	110,177
137,283	-11,925	237,373	109,879
138,297	-11,753	237,106	109,884
139,312	-11,942	236,792	109,577
140,327	-11,553	236,864	109,912
141,341	-10,969	236,811	110,346
142,356	-11,225	236,684	110,072
143,370	-11,175	236,550	110,040
144,385	-10,700	236,299	110,293
145,400	-10,924	236,251	110,081
146,414	-11,013	236,062	109,913
147,429	-11,139	235,844	109,701
148,443	-11,179	235,614	109,552
149,458	-11,159	235,534	109,521
150,473	-11,152	235,352	109,432
151,487	-11,079	235,034	109,333
152,502	-11,027	234,920	109,311
153,516	-10,834	234,715	109,359
154,531	-11,042	234,635	109,147
155,546	-11,097	234,402	108,986
156,560	-11,189	234,211	108,814
157,575	-11,312	234,047	108,631
158,589	-11,315	233,801	108,504
159,604	-11,054	233,819	108,710
160,619	-10,997	233,685	108,682
161,633	-10,966	233,459	108,592
162,648	-10,837	233,278	108,600
163,662	-11,141	233,066	108,252
164,677	-11,213	232,898	108,108
165,692	-11,135	232,960	108,189
166,706	-11,063	232,765	108,145
167,721	-10,888	232,523	108,160
168,735	-10,790	232,533	108,232
169,750	-10,874	232,157	107,982
170,764	-10,786	232,002	107,968
171,779	-11,068	231,964	107,720
172,794	-10,924	231,686	107,694
173,808	-11,303	231,508	107,306
174,823	-11,724	231,155	106,805
175,837	-11,601	230,987	106,814
176,852	-11,477	231,087	106,947
177,867	-11,100	230,903	107,146
178,881	-11,018	230,798	107,151
179,896	-10,941	230,737	107,173
180,910	-10,925	230,561	107,095
181,925	-10,926	230,278	106,952
182,940	-10,952	230,152	106,864
183,954	-11,028	230,117	106,780
184,969	-10,947	229,896	106,730
185,983	-10,744	229,870	106,866
186,998	-10,753	229,592	106,720
188,013	-10,626	229,499	106,766
189,027	-10,661	229,372	106,670
190,042	-10,916	229,156	106,363
191,056	-10,848	229,166	106,411
192,071	-10,814	228,853	106,283
193,086	-10,768	228,583	106,183
194,100	-10,807	228,477	106,094
195,115	-11,468	228,079	105,392
196,129	-11,721	227,964	105,135
197,144	-5,986	229,782	110,398
198,159	0,232	231,611	116,097
199,173	3,159	232,394	118,754
200,188	3,328	232,461	118,909
201,202	3,048	232,356	118,627
202,217	3,393	232,227	118,819
203,232	3,738	232,028	118,973
204,246	3,808	231,797	118,898
205,261	3,851	231,657	118,850
206,275	4,052	231,614	118,972
207,290	3,842	231,577	118,780
208,304	3,987	231,351	118,766
209,319	3,909	231,124	118,578
210,334	3,923	230,777	118,401
211,348	3,623	230,698	118,119
212,363	3,399	230,374	117,770
213,377	3,209	230,255	117,553
214,392	3,152	230,128	117,434
215,407	3,388	229,941	117,509
216,421	3,212	229,900	117,342
217,436	2,945	229,685	117,018
218,450	2,841	229,411	116,788
219,465	2,508	229,355	116,495
220,480	2,834	229,213	116,661
221,494	2,682	229,269	116,563
222,509	3,074	228,948	116,689
223,523	2,969	228,916	116,581
224,538	2,983	228,643	116,443
225,553	3,222	228,404	116,493
226,567	3,326	228,376	116,548
227,582	3,319	228,431	116,559
228,596	3,754	228,199	116,762
229,611	3,193	228,033	116,240
230,626	2,976	227,755	115,924
231,640	2,939	227,565	115,788
232,655	3,114	227,594	115,926
233,669	3,682	227,499	116,297
234,684	3,878	227,374	116,371
235,699	3,726	227,106	116,109
236,713	3,111	226,946	115,552
237,728	3,281	226,757	115,574
238,742	2,836	226,539	115,116
239,757	3,035	226,372	115,171
240,772	3,227	226,167	115,202
241,786	2,944	226,091	114,939
242,801	3,290	226,081	115,184
243,815	3,681	226,105	115,480
244,830	3,667	225,923	115,367
245,844	3,161	225,609	114,816
246,859	3,215	225,416	114,748
247,874	3,222	225,226	114,646
248,888	3,583	225,110	114,848
249,903	3,400	224,957	114,622
250,917	3,213	224,853	114,419
251,932	3,047	224,675	114,195
252,947	3,139	224,464	114,146
253,961	2,955	224,368	113,950
254,976	3,005	224,170	113,877
255,990	3,206	224,265	114,064
257,005	3,286	223,955	113,956
258,020	3,147	223,851	113,789
259,034	3,452	223,775	113,968
260,049	3,552	223,576	113,930
261,063	3,235	223,444	113,617
262,078	3,456	223,345	113,721
263,093	3,415	223,308	113,661
264,107	3,399	223,095	113,531
265,122	3,467	222,981	113,513
266,136	3,501	222,995	113,535
267,151	3,595	222,657	113,423
268,166	3,326	222,330	113,047
269,180	2,899	222,141	112,627
270,195	3,293	221,992	112,831
271,209	2,960	221,850	112,503
272,224	3,191	221,672	112,573
273,239	3,314	221,558	112,596
274,253	3,103	221,539	112,421
275,268	2,906	221,270	112,130
276,282	2,713	221,216	111,951
277,297	2,869	220,907	111,899
278,312	2,918	220,931	111,937
279,326	3,149	220,804	112,032
280,341	3,125	220,597	111,899
281,355	3,287	220,403	111,910
282,370	3,085	220,294	111,696
283,384	3,017	220,005	111,490
284,399	2,891	219,926	111,348
285,414	2,820	219,986	111,317
286,428	3,024	219,847	111,385
287,443	3,050	219,615	111,277
288,457	3,300	219,527	111,404
289,472	3,276	219,194	111,207
290,487	2,792	218,984	110,740
291,501	2,714	218,922	110,642
292,516	2,860	218,832	110,693
293,530	3,016	218,671	110,715
294,545	2,906	218,535	110,556
295,560	3,016	218,534	110,626
296,574	3,127	218,406	110,631
297,589	3,109	218,284	110,546
298,603	3,298	218,064	110,561
299,618	3,205	217,959	110,431
300,633	3,160	217,901	110,360
301,647	3,424	217,627	110,402
302,662	3,517	217,577	110,433
303,676	3,390	217,430	110,258
304,691	3,183	217,376	110,071
305,706	3,436	217,289	110,199
306,720	3,217	217,110	109,941
307,735	3,008	216,802	109,626
308,749	2,996	216,808	109,610
309,764	3,372	216,735	109,833
310,779	3,363	216,421	109,658
311,793	3,192	216,356	109,493
312,808	3,300	216,201	109,482
313,822	3,187	216,023	109,301
314,837	2,992	215,748	109,013
315,852	2,948	215,673	108,934
316,866	3,075	215,607	108,982
317,881	3,296	215,608	109,130
318,895	3,291	215,364	108,993
319,910	3,145	215,129	108,761
320,925	3,011	214,800	108,490
321,939	2,753	214,767	108,280
322,954	2,760	214,727	108,255
323,968	3,288	214,658	108,585
324,983	3,398	214,526	108,587
325,997	3,309	214,487	108,494
327,012	3,192	214,310	108,312
328,027	3,069	214,070	108,094
329,041	3,425	214,016	108,309
330,056	3,538	213,837	108,289
331,070	3,154	213,760	107,968
332,085	2,858	213,582	107,660
333,100	3,101	213,452	107,757
334,114	3,312	213,349	107,844
335,129	3,238	213,097	107,655
336,143	3,157	212,896	107,487
337,158	3,385	212,955	107,667
338,173	3,170	212,788	107,422
339,187	3,050	212,509	107,187
340,202	2,956	212,431	107,072
341,216	2,729	212,308	106,841
342,231	3,171	212,155	107,065
343,246	2,843	212,120	106,808
344,260	2,832	211,901	106,681
345,275	2,933	211,967	106,775
346,289	3,337	211,678	106,902
347,304	3,463	211,546	106,914
348,319	3,318	211,349	106,703
349,333	3,033	211,283	106,462
350,348	3,154	211,162	106,476
351,362	3,391	211,152	106,626
352,377	3,098	211,031	106,351
353,392	3,069	210,834	106,223
354,406	3,323	210,668	106,307
355,421	196,306	1340,160	1420,443
356,435	156,819	1477,735	1420,415
