DTS Sentinel unit serial number:	SN410029Multiplexer serial number:	ORYXHardware model number:	OX2-SRSoftware version number:	ORYX F/W v4,00 Oryx Data Collector v3.7.2.0data status	okinstallation	B6 Nyhavnadifferential loss correction	single-endedforward channel	channel 2reverse channel	N/Adate	2023/12/08time	09:30:08forward acquisition time	300,00reverse acquisition time	0,00gamma	499,1914k internal	0,3166k external	0,3166temperature offset calibration	1,0000default loss term (dB/km)	0,3820temperature slope calibration	1,0000multiplexer offset coefficient	1,0000multiplexer slope coefficient	1,0000fibre end	0,00T internal ref (°C)	13,48T ext. ref 1 (°C)	-2,03T ext. ref 2 (°C)	-1,98length (m)	temperature (°C)	Stokes	anti-Stokes-744,400	635,714	0,002	0,004
-743,385	-119,709	-0,291	-0,037
-742,371	69,251	0,119	0,090
-741,356	-122,036	-0,265	0,032
-740,342	520,666	0,101	0,175
-739,327	-154,934	-0,306	0,015
-738,312	15,801	0,050	0,029
-737,298	-54,160	-0,364	-0,121
-736,283	-78,567	0,104	-0,026
-735,269	-60,179	-0,300	-0,094
-734,254	-25,362	0,145	-0,063
-733,239	-11,028	-0,493	-0,238
-732,225	-137,643	0,267	-0,022
-731,210	800,000	0,039	-0,091
-730,196	800,000	0,071	-0,213
-729,181	-200,000	0,008	0,049
-728,167	800,000	-0,012	-0,027
-727,152	-87,767	-0,174	-0,038
-726,137	800,000	-0,093	-0,219
-725,123	203,081	-0,078	-0,089
-724,108	163,601	-0,087	-0,089
-723,094	39,866	-0,140	0,092
-722,079	469,493	-0,104	-0,172
-721,064	-200,000	0,000	-0,203
-720,050	-126,456	-0,044	0,005
-719,035	99,549	-0,056	-0,047
-718,021	273,228	-0,036	-0,046
-717,006	270,994	-0,125	-0,162
-715,991	515,692	0,050	-0,087
-714,977	251,952	-0,072	0,091
-713,962	359,552	0,034	-0,050
-712,948	-200,000	0,013	0,051
-711,933	93,027	0,075	0,062
-710,918	61,897	-0,097	-0,071
-709,904	-91,371	0,018	-0,004
-708,889	-39,591	-0,125	-0,048
-707,875	231,019	-0,072	-0,086
-706,860	664,828	-0,023	-0,044
-705,845	-200,000	0,029	-0,106
-704,831	127,662	-0,127	0,119
-703,816	800,000	0,055	-0,172
-702,802	129,107	-0,095	-0,089
-701,787	-65,906	-0,160	-0,047
-700,772	-128,466	-0,035	-0,004
-699,758	455,825	0,060	0,098
-698,743	351,689	0,075	0,109
-697,729	230,026	0,092	-0,111
-696,714	800,000	0,051	-0,111
-695,699	6,866	-0,094	0,051
-694,685	-68,450	-0,133	-0,038
-693,670	93,375	-0,100	-0,083
-692,656	800,000	0,035	0,105
-691,641	-81,173	0,065	-0,016
-690,627	29,718	-0,040	0,025
-689,612	283,365	-0,089	-0,118
-688,597	-200,000	0,007	-0,100
-687,583	103,890	-0,143	-0,123
-686,568	222,138	-0,019	-0,022
-685,554	-123,791	0,193	-0,022
-684,539	-64,126	-0,151	0,045
-683,524	-50,794	0,113	0,039
-682,510	-200,000	0,008	0,090
-681,495	-200,000	0,011	0,055
-680,481	-200,000	-0,015	-0,133
-679,466	800,000	-0,046	-0,133
-678,451	159,812	0,073	-0,075
-677,437	141,841	-0,084	0,082
-676,422	-200,000	0,035	0,170
-675,408	-200,000	-0,017	-0,066
-674,393	-99,756	-0,138	-0,025
-673,378	-14,695	-0,019	0,009
-672,364	-111,051	-0,166	-0,025
-671,349	-156,407	-0,066	-0,003
-670,335	800,000	-0,028	-0,059
-669,320	78,494	-0,066	0,052
-668,305	-200,000	-0,035	0,128
-667,291	27,100	-0,111	0,068
-666,276	460,296	-0,061	-0,101
-665,262	17,904	0,040	0,023
-664,247	-62,469	-0,098	-0,030
-663,232	226,650	0,019	-0,023
-662,218	-200,000	0,000	-0,053
-661,203	482,294	-0,059	0,099
-660,189	-200,000	0,003	-0,026
-659,174	299,258	0,023	0,031
-658,159	-200,000	0,005	0,096
-657,145	-200,000	-0,004	-0,214
-656,130	-7,128	0,076	0,038
-655,116	-122,309	-0,090	0,011
-654,101	-124,269	0,129	0,015
-653,086	-3,453	-0,080	-0,041
-652,072	122,389	-0,021	0,019
-651,057	-102,317	-0,061	-0,011
-650,043	251,494	-0,036	0,045
-649,028	48,455	-0,090	-0,061
-648,014	-69,674	-0,068	-0,019
-646,999	800,000	-0,042	0,106
-645,984	-16,199	0,094	0,044
-644,970	388,986	-0,058	-0,088
-643,955	-57,349	-0,068	-0,022
-642,941	-131,274	-0,119	-0,011
-641,926	-84,908	-0,054	-0,012
-640,911	132,094	-0,009	-0,008
-639,897	42,652	0,048	-0,032
-638,882	356,523	-0,023	-0,034
-637,868	372,289	-0,040	0,060
-636,853	-200,000	0,008	-0,055
-635,838	149,708	-0,070	-0,070
-634,824	205,533	-0,017	0,019
-633,809	2,415	0,148	0,078
-632,795	-38,329	0,084	0,032
-631,780	-57,495	0,130	0,042
-630,765	511,065	-0,101	-0,172
-629,751	800,000	0,029	0,062
-628,736	-200,000	-0,007	0,131
-627,722	475,430	-0,074	0,123
-626,707	-200,000	0,010	0,052
-625,692	-78,666	-0,029	-0,007
-624,678	8,254	-0,056	-0,031
-623,663	11,856	0,136	-0,076
-622,649	54,523	0,083	-0,058
-621,634	-200,000	0,007	-0,093
-620,619	-4,602	0,030	0,015
-619,605	-112,249	0,116	0,017
-618,590	6,205	0,141	0,076
-617,576	800,000	0,058	0,123
-616,561	800,000	0,051	-0,108
-615,546	296,503	0,053	0,072
-614,532	33,396	-0,093	0,059
-613,517	800,000	0,034	-0,104
-612,503	-108,046	0,083	0,013
-611,488	-171,269	-0,138	0,003
-610,474	-200,000	0,021	0,094
-609,459	-95,682	-0,091	-0,018
-608,444	-200,000	-0,002	-0,135
-607,430	-20,229	-0,107	-0,048
-606,415	66,664	-0,087	0,065
-605,401	-136,971	-0,043	0,004
-604,386	26,171	-0,063	-0,038
-603,371	-200,000	-0,004	0,019
-602,357	730,720	0,040	-0,078
-601,342	62,891	-0,035	0,025
-600,328	-146,868	-0,095	-0,006
-599,313	-200,000	0,011	-0,048
-598,298	325,956	0,006	-0,008
-597,284	800,000	-0,022	0,054
-596,269	-200,000	0,015	-0,113
-595,255	-26,598	-0,065	-0,028
-594,240	286,292	0,025	0,033
-593,225	141,785	-0,069	-0,067
-592,211	-46,590	-0,026	-0,009
-591,196	-106,483	-0,161	-0,026
-590,182	-34,598	0,060	-0,024
-589,167	-161,176	0,049	0,002
-588,152	-175,719	-0,149	-0,003
-587,138	257,610	0,037	-0,047
-586,123	-200,000	-0,012	-0,128
-585,109	69,412	-0,106	-0,080
-584,094	322,662	0,042	-0,058
-583,079	23,663	-0,045	0,027
-582,065	-18,263	0,110	-0,050
-581,050	800,000	-0,020	0,062
-580,036	5,549	-0,033	-0,018
-579,021	65,142	-0,015	-0,011
-578,006	15,071	-0,128	-0,073
-576,992	37,928	-0,091	-0,059
-575,977	800,000	0,020	0,062
-574,963	175,500	0,079	0,083
-573,948	-14,928	-0,099	0,046
-572,934	-200,000	0,108	-0,000
-571,919	800,000	0,031	-0,084
-570,904	223,487	0,041	-0,048
-569,890	411,791	-0,071	-0,110
-568,875	-117,540	0,108	0,014
-567,861	-200,000	0,011	-0,129
-566,846	114,121	0,039	0,035
-565,831	-88,207	-0,125	-0,027
-564,817	43,623	0,067	0,045
-563,802	-128,529	-0,128	0,013
-562,788	800,000	0,024	-0,064
-561,773	18,655	0,086	0,050
-560,758	-84,131	-0,067	-0,015
-559,744	-200,000	-0,014	0,088
-558,729	7,678	-0,062	-0,034
-557,715	56,335	0,032	-0,022
-556,700	-24,994	-0,121	0,052
-555,685	-83,055	-0,085	0,020
-554,671	-128,479	0,053	-0,005
-553,656	-164,286	0,084	-0,003
-552,642	-200,000	0,022	0,136
-551,627	-77,899	0,036	0,009
-550,612	-91,360	-0,165	0,034
-549,598	-200,000	-0,010	-0,053
-548,583	800,000	-0,023	-0,074
-547,569	232,434	0,083	-0,100
-546,554	-104,552	0,093	0,016
-545,539	324,071	-0,077	0,107
-544,525	222,808	0,097	0,114
-543,510	-162,373	0,075	-0,003
-542,496	800,000	-0,091	-0,204
-541,481	800,000	-0,048	0,111
-540,466	260,520	-0,030	-0,038
-539,452	-108,310	-0,111	-0,017
-538,437	-200,000	-0,016	0,081
-537,423	371,057	0,066	0,099
-536,408	-183,717	-0,141	0,002
-535,393	196,951	-0,060	-0,066
-534,379	-200,000	0,018	-0,191
-533,364	-187,421	0,051	-0,000
-532,350	535,822	0,012	-0,021
-531,335	-147,895	-0,120	-0,007
-530,321	-200,000	-0,010	-0,062
-529,306	18,655	-0,039	0,023
-528,291	26,160	-0,140	0,085
-527,277	42,178	-0,042	0,028
-526,262	147,415	0,109	-0,107
-525,248	-93,631	0,061	-0,012
-524,233	16,578	-0,014	-0,008
-523,218	800,000	-0,077	0,181
-522,204	-50,972	0,080	-0,027
-521,189	-111,229	0,033	-0,005
-520,175	150,613	-0,125	-0,124
-519,160	-58,994	0,015	-0,005
-518,145	568,479	0,045	0,081
-517,131	-54,215	-0,003	-0,001
-516,116	135,396	0,030	0,028
-515,102	180,789	-0,108	-0,116
-514,087	271,164	0,054	-0,069
-513,072	346,809	-0,016	-0,023
-512,058	200,632	0,035	0,040
-511,043	-65,714	-0,070	0,020
-510,029	31,270	-0,077	0,048
-509,014	577,180	0,023	0,042
-507,999	117,731	0,055	-0,050
-506,985	382,137	-0,037	-0,056
-505,970	-200,000	0,018	-0,085
-504,956	95,629	0,088	-0,073
-503,941	6,170	-0,039	0,021
-502,926	-200,000	-0,000	0,037
-501,912	-98,858	0,038	-0,007
-500,897	136,526	-0,100	0,095
-499,883	-9,798	-0,008	-0,004
-498,868	645,751	-0,019	0,036
-497,853	-142,742	-0,020	-0,001
-496,839	-200,000	-0,006	0,099
-495,824	-0,536	-0,030	-0,016
-494,810	800,000	-0,062	0,150
-493,795	-105,781	0,073	0,012
-492,781	800,000	-0,053	-0,136
-491,766	-200,000	-0,026	-0,150
-490,751	-200,000	-0,002	-0,102
-489,737	800,000	-0,050	0,110
-488,722	-200,000	0,022	0,123
-487,708	188,500	0,082	0,090
-486,693	-145,628	-0,082	-0,005
-485,678	171,968	-0,051	-0,054
-484,664	281,315	-0,043	0,056
-483,649	232,477	-0,074	-0,089
-482,635	-153,084	0,166	0,008
-481,620	362,187	-0,022	-0,032
-480,605	-200,000	-0,011	0,068
-479,591	-121,822	0,153	0,018
-478,576	230,656	0,037	-0,044
-477,562	-99,931	-0,109	0,020
-476,547	478,422	-0,058	-0,097
-475,532	433,974	0,016	-0,026
-474,518	578,468	0,047	-0,084
-473,503	332,666	0,076	0,108
-472,489	800,000	0,060	-0,128
-471,474	800,000	0,039	0,115
-470,459	-140,603	0,009	0,001
-469,445	62,816	0,012	-0,009
-468,430	-200,000	-0,019	-0,148
-467,416	800,000	-0,037	-0,077
-466,401	505,573	-0,096	0,163
-465,386	255,878	-0,052	0,065
-464,372	-53,009	0,107	-0,036
-463,357	144,559	-0,056	-0,055
-462,343	-51,231	-0,018	-0,006
-461,328	-149,665	-0,032	0,002
-460,313	-117,566	0,046	-0,006
-459,299	-200,000	0,006	-0,094
-458,284	179,519	-0,078	0,083
-457,270	-200,000	0,001	0,020
-456,255	-200,000	-0,026	-0,084
-455,241	81,396	-0,097	-0,076
-454,226	198,224	0,047	-0,053
-453,211	-85,498	0,123	0,028
-452,197	-39,755	0,081	-0,031
-451,182	-200,000	0,008	-0,069
-450,168	800,000	-0,039	-0,096
-449,153	-200,000	-0,000	-0,068
-448,138	-29,713	-0,086	0,036
-447,124	-200,000	-0,005	-0,048
-446,109	572,548	0,059	-0,104
-445,095	32,224	0,059	-0,037
-444,080	800,000	-0,015	0,045
-443,065	-200,000	0,030	0,128
-442,051	424,812	-0,029	-0,045
-441,036	-17,681	-0,044	0,020
-440,022	172,014	-0,051	0,054
-439,007	-200,000	0,000	0,146
-437,992	-33,388	0,086	-0,035
-436,978	102,623	-0,037	0,031
-435,963	340,251	0,094	0,134
-434,949	-48,640	0,087	0,030
-433,934	-56,799	-0,167	-0,053
-432,919	322,029	-0,059	-0,081
-431,905	129,699	0,083	-0,077
-430,890	-39,805	-0,074	-0,028
-429,876	56,781	0,088	0,062
-428,861	-7,497	0,067	-0,033
-427,846	800,000	0,054	-0,155
-426,832	242,375	-0,089	-0,108
-425,817	50,015	0,043	-0,029
-424,803	347,874	-0,009	-0,012
-423,788	800,000	-0,026	-0,056
-422,773	636,570	-0,074	-0,137
-421,759	-63,996	-0,152	0,045
-420,744	104,294	0,062	-0,053
-419,730	-99,583	-0,110	-0,020
-418,715	-200,000	0,033	-0,270
-417,701	-6,181	-0,072	-0,036
-416,686	-200,000	-0,015	-0,106
-415,671	-15,324	0,179	-0,083
-414,657	-200,000	-0,030	0,097
-413,642	424,722	-0,083	0,131
-412,628	104,773	-0,098	-0,084
-411,613	-176,155	-0,142	0,003
-410,598	-200,000	0,015	-0,077
-409,584	-200,000	-0,002	-0,056
-408,569	148,231	0,032	-0,031
-407,555	-78,005	-0,075	0,019
-406,540	297,658	0,050	0,067
-405,525	800,000	-0,008	-0,024
-404,511	128,371	0,052	0,048
-403,496	800,000	-0,044	0,120
-402,482	-200,000	0,000	0,081
-401,467	-116,459	0,016	0,002
-400,452	-61,155	0,013	-0,004
-399,438	800,000	-0,033	-0,077
-398,423	-200,000	-0,012	-0,188
-397,409	39,888	-0,017	0,011
-396,394	-26,183	-0,051	0,022
-395,379	-34,200	0,099	-0,039
-394,365	-200,000	-0,017	-0,094
-393,350	-69,903	-0,103	0,028
-392,336	262,080	0,033	-0,042
-391,321	497,596	0,015	-0,025
-390,306	135,260	-0,041	-0,039
-389,292	-200,000	0,028	-0,098
-388,277	553,813	0,049	-0,085
-387,263	-83,705	0,077	0,018
-386,248	208,367	0,009	-0,010
-385,233	431,375	-0,060	0,095
-384,219	273,779	0,051	-0,066
-383,204	72,535	0,093	-0,070
-382,190	13,530	-0,125	-0,070
-381,175	31,262	-0,096	-0,059
-380,160	-200,000	-0,005	0,033
-379,146	-63,211	0,107	0,032
-378,131	-139,839	-0,027	-0,002
-377,117	180,345	-0,105	-0,112
-376,102	-131,899	0,052	-0,005
-375,088	800,000	-0,009	0,020
-374,073	-24,074	-0,069	-0,030
-373,058	800,000	-0,039	0,122
-372,044	-200,000	-0,017	0,082
-371,029	29,447	0,042	-0,026
-370,015	-35,511	-0,071	0,028
-369,000	-129,955	-0,034	0,003
-367,985	80,708	-0,058	0,045
-366,971	-200,000	-0,005	0,125
-365,956	48,102	0,091	0,061
-364,942	800,000	-0,037	0,086
-363,927	0,856	0,123	0,064
-362,912	-200,000	0,038	0,140
-361,898	-200,000	-0,032	-0,117
-360,883	239,845	-0,085	-0,102
-359,869	71,011	0,060	-0,045
-358,854	295,369	-0,053	-0,070
-357,839	-76,852	0,071	-0,018
-356,825	-135,563	0,043	0,004
-355,810	297,466	-0,029	0,039
-354,796	-84,720	-0,138	0,031
-353,781	-200,000	0,010	-0,070
-352,766	-193,870	-0,065	-0,000
-351,752	-106,378	0,077	0,012
-350,737	-200,000	-0,038	0,125
-349,723	56,370	0,124	0,087
-348,708	144,538	0,078	0,076
-347,693	207,503	0,025	-0,028
-346,679	-16,302	-0,084	0,039
-345,664	70,896	-0,076	-0,057
-344,650	230,153	-0,085	0,101
-343,635	554,322	0,024	0,042
-342,620	-200,000	-0,004	-0,023
-341,606	-143,693	-0,072	-0,005
-340,591	141,716	-0,025	-0,024
-339,577	219,940	-0,064	-0,074
-338,562	-200,000	0,005	-0,063
-337,548	800,000	-0,047	-0,101
-336,533	800,000	0,054	-0,146
-335,518	800,000	-0,041	0,112
-334,504	-200,000	-0,013	0,073
-333,489	-53,876	-0,043	0,014
-332,475	233,544	-0,057	-0,069
-331,460	110,715	-0,108	-0,094
-330,445	-200,000	0,023	-0,194
-329,431	-34,567	0,148	-0,058
-328,416	-112,972	0,102	0,014
-327,402	378,695	0,107	0,159
-326,387	-200,000	0,015	0,101
-325,372	-200,000	0,000	0,050
-324,358	114,862	-0,060	0,053
-323,343	174,314	0,064	0,067
-322,329	-109,762	-0,083	-0,012
-321,314	800,000	-0,033	0,079
-320,299	-53,404	0,041	0,014
-319,285	374,283	0,035	-0,051
-318,270	3,621	0,009	-0,004
-317,256	-200,000	0,012	0,118
-316,241	447,455	0,038	0,061
-315,226	189,452	0,041	0,045
-314,212	65,827	0,076	-0,056
-313,197	28,373	0,022	-0,013
-312,183	38,727	-0,087	-0,056
-311,168	-200,000	-0,017	-0,095
-310,153	800,000	-0,099	-0,199
-309,139	0,165	0,072	0,037
-308,124	24,077	0,041	-0,024
-307,110	-60,185	0,111	0,034
-306,095	636,509	0,084	0,154
-305,080	-200,000	-0,042	-0,189
-304,066	25,245	-0,048	-0,028
-303,051	149,608	-0,121	-0,118
-302,037	-62,602	0,211	0,063
-301,022	-65,049	0,160	0,046
-300,008	101,112	-0,091	0,077
-298,993	308,394	0,076	0,103
-297,978	800,000	-0,011	0,029
-296,964	-200,000	-0,006	0,042
-295,949	800,000	-0,049	0,106
-294,935	-200,000	0,010	-0,032
-293,920	-200,000	0,005	-0,063
-292,905	-73,385	-0,056	0,015
-291,891	263,403	0,027	0,034
-290,876	11,962	-0,042	0,023
-289,862	111,232	0,078	0,068
-288,847	-85,273	0,037	-0,008
-287,832	-26,323	-0,035	0,015
-286,818	6,590	0,068	0,036
-285,803	-167,951	0,142	-0,004
-284,789	256,884	0,010	0,012
-283,774	-200,000	0,029	0,106
-282,759	297,014	-0,110	0,146
-281,745	407,128	0,046	0,070
-280,730	-200,000	0,010	0,035
-279,716	183,388	0,069	0,074
-278,701	-200,000	-0,021	0,080
-277,686	91,677	-0,040	0,033
-276,672	427,834	-0,039	0,061
-275,657	-80,401	0,084	-0,020
-274,643	-19,485	-0,106	0,047
-273,628	-103,032	-0,057	0,010
-272,613	-70,489	-0,082	0,022
-271,599	196,254	0,054	-0,060
-270,584	70,685	0,085	0,064
-269,570	-25,855	0,075	0,032
-268,555	-18,949	-0,069	0,031
-267,540	-58,023	0,132	-0,041
-266,526	-104,871	-0,080	-0,013
-265,511	-200,000	0,004	0,014
-264,497	-200,000	-0,022	0,133
-263,482	79,653	0,051	-0,039
-262,467	100,891	0,091	0,077
-261,453	48,048	0,143	0,096
-260,438	185,523	0,059	0,063
-259,424	299,881	0,057	0,075
-258,409	791,916	-0,049	0,097
-257,395	301,190	0,044	-0,058
-256,380	-200,000	0,014	0,051
-255,365	-37,689	0,102	0,039
-254,351	-82,531	0,091	0,021
-253,336	-88,058	-0,030	0,006
-252,322	-200,000	-0,027	-0,117
-251,307	-71,203	0,116	-0,031
-250,292	-27,779	-0,085	0,035
-249,278	167,441	0,079	-0,081
-248,263	-22,633	-0,081	-0,035
-247,249	-22,320	-0,085	0,037
-246,234	223,449	0,105	0,122
-245,219	274,809	-0,071	-0,091
-244,205	-157,787	0,095	0,004
-243,190	-200,000	0,002	0,056
-242,176	-73,943	0,104	-0,027
-241,161	-7,543	0,081	-0,039
-240,146	-200,000	0,009	0,067
-239,132	-200,000	0,011	-0,086
-238,117	-110,135	0,044	-0,007
-237,103	23,554	0,028	0,016
-236,088	-200,000	-0,036	-0,134
-235,073	-200,000	0,004	0,215
-234,059	800,000	0,027	0,069
-233,044	-200,000	0,044	0,139
-232,030	800,000	0,035	0,109
-231,015	-135,761	0,053	-0,004
-230,000	104,427	0,031	-0,026
-228,986	-8,896	0,045	-0,022
-227,971	-200,000	0,001	0,043
-226,957	-200,000	0,029	0,092
-225,942	789,007	0,068	0,136
-224,927	-200,000	-0,006	-0,110
-223,913	-200,000	0,024	0,124
-222,898	136,114	0,084	-0,079
-221,884	800,000	-0,077	-0,183
-220,869	64,026	0,024	-0,018
-219,855	-200,000	-0,001	-0,059
-218,840	667,422	0,075	-0,140
-217,825	-107,278	-0,068	0,011
-216,811	800,000	-0,004	0,009
-215,796	800,000	-0,042	-0,116
-214,782	-65,903	0,077	0,022
-213,767	-200,000	0,030	0,137
-212,752	49,956	0,032	0,022
-211,738	-200,000	0,006	-0,023
-210,723	-200,000	-0,002	0,089
-209,709	-173,886	-0,162	-0,003
-208,694	49,225	-0,113	-0,076
-207,679	-200,000	0,013	0,056
-206,665	549,851	0,069	0,120
-205,650	189,491	0,128	0,139
-204,636	-69,436	0,088	-0,024
-203,621	245,846	0,019	0,024
-202,606	527,866	0,049	-0,084
-201,592	454,536	-0,043	-0,069
-200,577	523,928	-0,008	-0,014
-199,563	-142,495	0,138	-0,010
-198,548	254,438	0,026	-0,032
-197,533	-27,687	-0,052	0,022
-196,519	800,000	0,063	0,140
-195,504	188,321	0,063	0,067
-194,490	-200,000	0,030	-0,095
-193,475	538,086	-0,043	-0,074
-192,460	-59,963	0,159	0,049
-191,446	-27,926	0,132	0,055
-190,431	-17,509	-0,023	0,010
-189,417	286,395	0,074	-0,096
-188,402	-200,000	-0,028	-0,096
-187,387	8,523	-0,073	0,039
-186,373	11,818	0,057	0,031
-185,358	485,467	-0,049	-0,081
-184,344	-29,558	0,114	0,047
-183,329	-192,249	0,085	-0,001
-182,315	-200,000	-0,042	0,162
-181,300	-73,638	-0,046	0,012
-180,285	-82,092	-0,107	0,025
-179,271	-53,189	0,125	0,041
-178,256	-200,000	-0,021	-0,134
-177,242	-200,000	0,016	0,162
-176,227	-200,000	0,005	-0,080
-175,212	-92,145	-0,113	-0,023
-174,198	800,000	-0,017	-0,045
-173,183	123,154	-0,092	-0,083
-172,169	-72,566	-0,046	-0,012
-171,154	-108,953	0,082	0,012
-170,139	647,042	-0,046	-0,084
-169,125	-200,000	-0,005	0,035
-168,110	174,492	0,054	0,057
-167,096	-200,000	-0,002	-0,055
-166,081	800,000	0,016	0,035
-165,066	-200,000	-0,005	-0,140
-164,052	185,074	0,124	0,132
-163,037	230,980	-0,020	0,023
-162,023	-200,000	0,036	0,178
-161,008	486,810	-0,029	0,047
-159,993	800,000	0,072	0,147
-158,979	510,558	0,060	-0,101
-157,964	-105,422	-0,194	-0,031
-156,950	-58,111	0,081	0,025
-155,935	-200,000	-0,013	-0,147
-154,920	800,000	-0,082	0,224
-153,906	361,855	-0,115	0,166
-152,891	22,266	-0,117	0,068
-151,877	279,504	0,060	-0,078
-150,862	356,697	-0,052	0,075
-149,847	-143,457	-0,081	-0,005
-148,833	-200,000	0,013	-0,058
-147,818	-55,017	-0,032	-0,010
-146,804	-35,433	-0,024	0,009
-145,789	-35,255	0,130	-0,050
-144,775	-200,000	-0,014	-0,048
-143,760	605,949	-0,043	0,078
-142,745	63,671	0,107	0,077
-141,731	588,226	0,048	0,084
-140,716	-107,963	-0,158	-0,024
-139,702	800,000	-0,028	-0,078
-138,687	197,513	-0,098	0,108
-137,672	-200,000	-0,000	-0,056
-136,658	118,447	-0,076	-0,068
-135,643	220,422	0,055	-0,063
-134,629	460,505	-0,020	0,032
-133,614	800,000	0,038	0,097
-132,599	413,583	0,054	0,083
-131,585	674,701	0,047	0,088
-130,570	800,000	-0,027	0,070
-129,556	-71,783	0,050	0,013
-128,541	-200,000	-0,002	0,019
-127,526	358,851	0,035	0,050
-126,512	98,667	0,034	0,028
-125,497	-101,603	0,184	0,032
-124,483	-103,031	-0,165	-0,028
-123,468	-200,000	0,009	-0,206
-122,453	294,584	-0,061	-0,080
-121,439	37,469	-0,040	0,025
-120,424	714,671	-0,013	0,026
-119,410	-35,792	0,134	-0,052
-118,395	-187,554	0,032	0,000
-117,380	-157,164	0,090	-0,004
-116,366	122,228	0,071	0,064
-115,351	232,716	-0,073	-0,086
-114,337	360,139	-0,063	0,091
-113,322	411,460	0,037	0,057
-112,307	18,977	-0,127	-0,073
-111,293	-93,370	0,047	-0,009
-110,278	323,564	-0,096	0,132
-109,264	800,000	0,029	-0,076
-108,249	127,196	-0,018	0,017
-107,234	195,756	-0,132	-0,144
-106,220	-200,000	0,016	-0,095
-105,205	4,414	0,100	0,053
-104,191	-14,687	0,068	0,031
-103,176	-68,463	-0,166	0,046
-102,162	338,270	-0,065	-0,091
-101,147	604,031	-0,031	0,056
-100,132	252,065	-0,066	-0,081
-99,118	-82,209	0,186	-0,043
-98,103	800,000	0,031	0,064
-97,089	-104,094	0,149	0,025
-96,074	103,850	-0,083	-0,069
-95,059	-200,000	-0,006	0,061
-94,045	-200,000	-0,006	0,048
-93,030	-200,000	-0,002	0,018
-92,016	-88,193	0,069	-0,015
-91,001	-119,948	0,102	0,012
-89,986	236,949	-0,065	0,077
-88,972	800,000	-0,049	0,131
-87,957	-200,000	0,003	0,065
-86,943	309,131	-0,057	0,076
-85,928	393,676	-0,035	-0,053
-84,913	105,727	0,137	-0,116
-83,899	132,763	-0,028	-0,026
-82,884	-41,153	-0,103	0,038
-81,870	-158,518	0,215	0,009
-80,855	111,500	0,123	0,106
-79,840	800,000	-0,050	-0,113
-78,826	259,549	0,074	-0,092
-77,811	800,000	-0,026	-0,071
-76,797	-200,000	0,004	0,132
-75,782	296,167	0,008	0,011
-74,767	-70,935	0,079	-0,021
-73,753	800,000	-0,035	0,082
-72,738	311,219	0,070	0,095
-71,724	-24,795	-0,026	-0,011
-70,709	-153,932	0,066	-0,003
-69,694	-200,000	-0,004	0,021
-68,680	-36,083	0,143	-0,055
-67,665	-200,000	0,002	-0,049
-66,651	-66,625	0,158	0,045
-65,636	-200,000	0,037	0,126
-64,622	-200,000	-0,008	-0,036
-63,607	306,307	-0,044	0,058
-62,592	119,111	-0,069	-0,061
-61,578	800,000	0,061	-0,161
-60,563	90,668	0,050	0,040
-59,549	-83,214	0,046	0,010
-58,534	21,347	-2,319	-1,346
-57,519	-200,000	0,014	-0,742
-56,505	-200,000	-1,563	-5,180
-55,490	55,235	0,977	0,675
-54,476	800,000	5,279	12,198
-53,461	-200,000	18,816	312,393
-52,446	800,000	739,772	2297,103
-51,432	545,690	1652,616	2838,127
-50,417	109,047	1636,113	1400,165
-49,403	72,419	1286,626	958,688
-48,388	29,661	1028,339	624,828
-47,373	19,654	991,150	569,217
-46,359	17,129	978,803	553,828
-45,344	13,847	974,876	540,844
-44,330	14,272	973,073	541,211
-43,315	13,496	971,638	537,857
-42,300	13,463	970,516	537,105
-41,286	13,527	969,603	536,790
-40,271	13,490	968,822	536,214
-39,257	13,527	967,805	535,752
-38,242	13,514	966,769	535,113
-37,227	13,516	965,950	534,644
-36,213	13,484	965,144	534,075
-35,198	13,456	964,376	533,539
-34,184	13,491	963,419	533,100
-33,169	13,446	962,606	532,485
-32,154	13,530	961,513	532,130
-31,140	13,440	960,915	531,487
-30,125	13,454	959,985	530,995
-29,111	13,492	959,179	530,650
-28,096	13,474	958,501	530,199
-27,082	13,551	957,846	530,061
-26,067	13,539	957,043	529,560
-25,052	13,527	956,275	529,072
-24,038	13,530	955,866	528,835
-23,023	13,530	955,131	528,410
-22,009	13,561	954,484	528,128
-20,994	13,594	953,624	527,739
-19,979	13,529	953,085	527,210
-18,965	13,492	952,643	526,826
-17,950	13,508	952,177	526,599
-16,936	13,500	951,462	526,157
-15,921	13,529	950,776	525,849
-14,906	13,486	949,691	525,093
-13,892	13,459	949,198	524,712
-12,877	13,393	948,740	524,226
-11,863	13,385	948,139	523,850
-10,848	13,404	947,596	523,589
-9,833	13,507	946,957	523,542
-8,819	13,456	946,318	523,007
-7,804	13,424	945,721	522,555
-6,790	13,425	945,104	522,195
-5,775	13,471	944,651	522,072
-4,760	13,388	944,091	521,477
-3,746	13,451	943,276	521,207
-2,731	13,264	942,601	520,220
-1,717	13,280	941,760	519,785
-0,702	13,212	941,324	519,309
0,313	13,018	940,640	519,103
1,327	16,793	938,456	529,749
2,342	26,305	790,185	471,082
3,356	22,961	445,198	260,440
4,371	-6,368	297,834	144,744
5,386	-9,864	279,445	132,462
6,400	-11,157	273,832	128,581
7,415	-11,130	271,406	127,455
8,429	-11,485	270,014	126,464
9,444	-11,350	268,985	126,094
10,459	-11,575	268,366	125,586
11,473	-11,693	267,684	125,148
12,488	-11,754	267,215	124,862
13,502	-11,870	266,604	124,460
14,517	-12,046	266,182	124,092
15,531	-11,871	265,488	123,916
16,546	-11,831	265,350	123,877
17,561	-11,914	264,920	123,590
18,575	-11,886	264,714	123,509
19,590	-11,825	264,154	123,291
20,604	-11,906	264,149	123,205
21,619	-12,046	263,629	122,825
22,634	-11,910	263,184	122,729
23,648	-11,993	263,020	122,567
24,663	-12,090	262,808	122,370
25,677	-11,968	262,441	122,298
26,692	-12,036	262,279	122,150
27,707	-11,928	261,786	122,006
28,721	-12,013	261,634	121,849
29,736	-12,113	261,339	121,612
30,750	-12,173	261,119	121,445
31,765	-12,034	260,920	121,465
32,780	-12,122	260,533	121,196
33,794	-12,228	260,617	121,131
34,809	-12,374	260,151	120,773
35,823	-12,090	259,784	120,844
36,838	-12,040	259,515	120,752
37,853	-12,143	259,241	120,523
38,867	-12,177	259,211	120,468
39,882	-12,127	258,730	120,278
40,896	-12,187	258,684	120,193
41,911	-12,167	258,212	119,980
42,926	-12,326	258,110	119,783
43,940	-12,325	258,062	119,751
44,955	-12,381	257,749	119,545
45,969	-12,486	257,359	119,262
46,984	-12,509	257,212	119,164
47,999	-12,895	256,955	118,696
49,013	-12,827	256,528	118,547
50,028	-12,951	256,335	118,339
51,042	-13,031	256,098	118,150
52,057	-12,967	255,802	118,058
53,071	-12,877	255,745	118,099
54,086	-12,834	255,584	118,052
55,101	-12,621	255,287	118,090
56,115	-12,567	255,261	118,114
57,130	-12,016	255,283	118,592
58,144	-11,896	255,042	118,574
59,159	-11,665	254,784	118,643
60,174	-11,580	254,371	118,514
61,188	-11,952	254,314	118,155
62,203	-11,947	254,238	118,113
63,217	-12,166	253,967	117,788
64,232	-11,792	253,616	117,938
65,247	-11,710	253,406	117,900
66,261	-11,900	253,270	117,662
67,276	-12,215	252,891	117,205
68,290	-12,448	252,545	116,834
69,305	-12,551	252,425	116,680
70,320	-12,457	252,237	116,663
71,334	-12,196	252,206	116,862
72,349	-11,866	252,001	117,039
73,363	-11,667	251,738	117,077
74,378	-11,953	251,485	116,704
75,393	-11,926	251,315	116,638
76,407	-12,008	251,086	116,451
77,422	-11,774	250,847	116,529
78,436	-11,883	250,826	116,416
79,451	-11,994	250,435	116,130
80,466	-12,324	250,439	115,842
81,480	-12,200	249,702	115,595
82,495	-12,581	249,731	115,275
83,509	-12,402	249,632	115,371
84,524	-12,498	249,441	115,191
85,539	-12,485	249,001	114,988
86,553	-12,640	249,022	114,857
87,568	-12,293	248,757	115,017
88,582	-12,254	248,463	114,904
89,597	-12,429	248,407	114,721
90,611	-11,955	248,166	114,998
91,626	-12,078	248,082	114,845
92,641	-12,383	247,893	114,491
93,655	-12,332	247,713	114,441
94,670	-12,224	247,359	114,358
95,684	-12,195	247,303	114,346
96,699	-12,096	247,151	114,348
97,714	-12,436	246,897	113,936
98,728	-12,530	246,613	113,716
99,743	-12,527	246,443	113,630
100,757	-12,587	246,146	113,434
101,772	-12,466	246,080	113,494
102,787	-12,294	245,875	113,532
103,801	-12,109	245,533	113,518
104,816	-12,167	245,587	113,485
105,830	-12,244	245,530	113,383
106,845	-11,971	245,267	113,479
107,860	-12,070	245,151	113,333
108,874	-11,952	244,875	113,294
109,889	-12,212	244,551	112,918
110,903	-12,148	244,401	112,892
111,918	-12,326	244,220	112,651
112,933	-12,166	244,088	112,712
113,947	-11,911	243,870	112,812
114,962	-12,137	243,766	112,567
115,976	-12,016	243,502	112,535
116,991	-12,115	243,360	112,378
118,006	-12,169	243,325	112,307
119,020	-12,254	243,197	112,168
120,035	-12,027	242,959	112,235
121,049	-12,020	242,846	112,179
122,064	-11,915	242,610	112,146
123,079	-12,149	242,421	111,856
124,093	-12,113	242,138	111,745
125,108	-12,404	241,889	111,382
126,122	-12,517	241,649	111,169
127,137	-12,758	241,509	110,899
128,151	-12,548	241,236	110,935
129,166	-12,284	241,112	111,083
130,181	-12,309	240,948	110,977
131,195	-12,515	240,719	110,694
132,210	-12,439	240,725	110,749
133,224	-12,335	240,541	110,739
134,239	-12,142	240,273	110,763
135,254	-12,004	240,095	110,782
136,268	-12,197	239,835	110,496
137,283	-12,340	239,600	110,262
138,297	-12,596	239,428	109,966
139,312	-12,628	239,276	109,861
140,327	-12,206	239,136	110,128
141,341	-11,814	239,202	110,464
142,356	-11,725	239,029	110,446
143,370	-11,725	238,966	110,408
144,385	-11,877	238,814	110,205
145,400	-11,485	238,474	110,354
146,414	-11,762	238,424	110,098
147,429	-11,796	238,024	109,876
148,443	-11,653	237,921	109,934
149,458	-11,693	237,696	109,788
150,473	-11,532	237,457	109,796
151,487	-11,780	237,410	109,567
152,502	-11,828	237,135	109,391
153,516	-11,699	237,078	109,459
154,531	-11,717	236,851	109,329
155,546	-11,747	236,756	109,252
156,560	-11,917	236,557	109,015
157,575	-12,074	236,332	108,777
158,589	-11,985	236,185	108,769
159,604	-11,583	236,042	109,014
160,619	-11,565	235,881	108,944
161,633	-11,465	235,868	109,008
162,648	-11,554	235,526	108,770
163,662	-11,656	235,424	108,632
164,677	-11,856	235,219	108,369
165,692	-11,736	235,012	108,360
166,706	-11,604	235,191	108,537
167,721	-11,547	234,887	108,432
168,735	-11,591	234,719	108,310
169,750	-11,412	234,465	108,324
170,764	-11,721	234,461	108,069
171,779	-11,657	234,387	108,076
172,794	-11,364	234,074	108,153
173,808	-11,630	233,795	107,804
174,823	-12,275	233,543	107,172
175,837	-12,489	233,289	106,877
176,852	-12,005	233,236	107,224
177,867	-11,771	233,237	107,398
178,881	-11,748	233,212	107,395
179,896	-11,690	232,900	107,287
180,910	-11,527	232,794	107,356
181,925	-11,528	232,703	107,305
182,940	-11,770	232,603	107,059
183,954	-11,603	232,313	107,046
184,969	-11,507	232,115	107,021
185,983	-11,324	232,050	107,124
186,998	-11,469	231,935	106,948
188,013	-11,505	231,679	106,792
189,027	-11,548	231,459	106,649
190,042	-11,605	231,484	106,606
191,056	-11,622	231,321	106,508
192,071	-11,122	230,900	106,693
193,086	-11,279	230,924	106,572
194,100	-11,145	230,822	106,620
195,115	-11,338	230,622	106,369
196,129	-10,651	230,864	107,003
197,144	-5,414	232,676	111,920
198,159	-0,146	234,179	116,759
199,173	2,494	234,742	119,097
200,188	2,702	234,756	119,256
201,202	2,991	234,596	119,390
202,217	3,188	234,368	119,417
203,232	3,385	234,395	119,574
204,246	3,432	234,211	119,506
205,261	3,534	234,169	119,554
206,275	3,701	234,038	119,606
207,290	3,829	233,854	119,601
208,304	3,628	233,763	119,388
209,319	3,824	233,494	119,392
210,334	3,588	233,214	119,055
211,348	3,288	233,047	118,726
212,363	2,917	232,856	118,331
213,377	2,823	232,641	118,138
214,392	2,785	232,510	118,032
215,407	2,816	232,454	118,017
216,421	3,150	232,309	118,191
217,436	3,016	231,995	117,917
218,450	2,750	231,820	117,613
219,465	2,706	231,697	117,506
220,480	2,626	231,636	117,403
221,494	2,511	231,492	117,231
222,509	3,226	231,261	117,653
223,523	2,915	231,300	117,423
224,538	2,953	230,967	117,273
225,553	2,946	230,800	117,172
226,567	3,038	230,588	117,125
227,582	3,291	230,616	117,323
228,596	3,266	230,486	117,227
229,611	2,979	230,243	116,873
230,626	2,579	230,017	116,442
231,640	2,602	229,972	116,427
232,655	3,070	229,873	116,723
233,669	3,204	229,861	116,809
234,684	3,419	229,649	116,855
235,699	3,417	229,438	116,736
236,713	3,080	229,269	116,383
237,728	2,821	229,056	116,067
238,742	2,729	228,921	115,919
239,757	2,883	228,783	115,955
240,772	2,857	228,570	115,817
241,786	2,743	228,506	115,688
242,801	3,122	228,289	115,855
243,815	3,305	228,383	116,031
244,830	3,306	228,118	115,887
245,844	3,116	227,890	115,617
246,859	2,957	227,753	115,417
247,874	2,911	227,683	115,337
248,888	3,005	227,486	115,298
249,903	3,033	227,420	115,275
250,917	2,987	227,196	115,116
251,932	2,818	227,080	114,920
252,947	2,713	226,758	114,668
253,961	2,674	226,785	114,642
254,976	2,874	226,520	114,648
255,990	2,981	226,535	114,726
257,005	2,879	226,445	114,593
258,020	2,939	226,258	114,534
259,034	3,216	226,176	114,690
260,049	3,088	226,050	114,519
261,063	3,131	225,774	114,401
262,078	3,320	225,680	114,485
263,093	3,371	225,584	114,464
264,107	3,155	225,370	114,184
265,122	3,221	225,160	114,117
266,136	3,479	225,119	114,279
267,151	3,413	224,912	114,114
268,166	3,131	224,664	113,768
269,180	2,737	224,381	113,322
270,195	2,716	224,315	113,263
271,209	2,649	224,341	113,216
272,224	2,818	224,049	113,184
273,239	3,272	223,824	113,397
274,253	3,025	223,767	113,175
275,268	2,696	223,565	112,819
276,282	2,874	223,471	112,894
277,297	2,564	223,329	112,582
278,312	2,768	223,251	112,683
279,326	2,924	223,119	112,722
280,341	3,128	222,885	112,744
281,355	2,987	222,857	112,616
282,370	2,851	222,674	112,413
283,384	2,781	222,461	112,244
284,399	2,857	222,174	112,146
285,414	2,800	222,116	112,065
286,428	2,792	222,200	112,091
287,443	3,146	221,949	112,214
288,457	3,053	221,909	112,115
289,472	2,679	221,584	111,667
290,487	2,458	221,376	111,390
291,501	2,505	221,208	111,330
292,516	2,646	221,049	111,344
293,530	2,647	221,078	111,349
294,545	2,623	220,823	111,194
295,560	2,851	220,834	111,356
296,574	2,890	220,675	111,294
297,589	2,787	220,577	111,159
298,603	3,090	220,311	111,236
299,618	3,104	220,268	111,215
300,633	3,034	220,261	111,150
301,647	3,133	220,046	111,103
302,662	3,048	219,905	110,961
303,676	3,188	219,744	110,971
304,691	3,087	219,610	110,820
305,706	3,320	219,423	110,885
306,720	2,992	219,419	110,636
307,735	2,920	219,109	110,417
308,749	2,622	218,892	110,082
309,764	3,112	218,851	110,406
310,779	3,490	218,678	110,582
311,793	3,174	218,574	110,291
312,808	3,440	218,306	110,338
313,822	3,055	218,298	110,047
314,837	2,928	218,140	109,866
315,852	2,790	217,962	109,667
316,866	3,111	217,755	109,784
317,881	3,124	217,814	109,813
318,895	3,089	217,596	109,668
319,910	3,023	217,462	109,544
320,925	2,586	217,218	109,098
321,939	2,502	216,953	108,895
322,954	2,732	216,833	108,989
323,968	3,086	216,894	109,264
324,983	2,866	216,893	109,096
325,997	3,051	216,766	109,154
327,012	2,948	216,554	108,965
328,027	3,306	216,252	109,059
329,041	3,259	216,355	109,066
330,056	3,198	216,173	108,922
331,070	2,898	215,933	108,578
332,085	2,450	215,685	108,125
333,100	2,682	215,584	108,230
334,114	2,800	215,582	108,302
335,129	2,901	215,337	108,242
336,143	3,011	215,195	108,238
337,158	3,053	215,106	108,214
338,173	3,139	214,935	108,179
339,187	2,802	214,827	107,877
340,202	2,781	214,633	107,754
341,216	2,605	214,448	107,528
342,231	2,781	214,459	107,648
343,246	2,814	214,221	107,542
344,260	2,871	214,147	107,536
345,275	3,139	214,068	107,676
346,289	2,860	214,058	107,464
347,304	2,885	213,819	107,353
348,319	2,940	213,628	107,286
349,333	2,867	213,481	107,151
350,348	3,027	213,229	107,127
351,362	3,127	213,182	107,164
352,377	3,297	213,085	107,225
353,392	3,087	212,935	106,992
354,406	3,071	212,854	106,931
355,421	198,249	1334,791	1416,977
356,435	158,543	1471,419	1416,922
