DTS Sentinel unit serial number:	SN410029Multiplexer serial number:	ORYXHardware model number:	OX2-SRSoftware version number:	ORYX F/W v4,00 Oryx Data Collector v3.7.2.0data status	okinstallation	B6 Nyhavnadifferential loss correction	single-endedforward channel	channel 2reverse channel	N/Adate	2023/12/11time	06:00:08forward acquisition time	300,00reverse acquisition time	0,00gamma	499,1914k internal	0,3126k external	0,3126temperature offset calibration	1,0000default loss term (dB/km)	0,3820temperature slope calibration	1,0000multiplexer offset coefficient	1,0000multiplexer slope coefficient	1,0000fibre end	0,00T internal ref (°C)	19,75T ext. ref 1 (°C)	2,90T ext. ref 2 (°C)	2,92length (m)	temperature (°C)	Stokes	anti-Stokes-744,400	65,523	0,161	-0,121
-743,385	-142,467	-0,200	0,014
-742,371	17,402	0,152	-0,089
-741,356	-30,233	-0,263	0,111
-740,342	-152,797	0,117	0,006
-739,327	-163,760	-0,310	0,011
-738,312	-169,645	0,098	0,003
-737,298	-16,434	-0,301	0,141
-736,283	106,876	0,112	0,099
-735,269	-84,677	-0,366	0,085
-734,254	800,000	0,039	0,082
-733,239	104,125	-0,245	-0,215
-732,225	33,118	0,058	-0,037
-731,210	147,088	-0,022	-0,022
-730,196	-41,373	0,176	-0,067
-729,181	-10,699	0,040	-0,019
-728,167	220,665	-0,044	0,053
-727,152	-85,544	-0,141	-0,032
-726,137	76,100	-0,078	-0,062
-725,123	131,053	-0,113	0,108
-724,108	76,750	-0,121	-0,096
-723,094	329,158	-0,050	-0,072
-722,079	97,625	-0,094	-0,080
-721,064	-200,000	0,009	-0,121
-720,050	-48,457	-0,031	-0,011
-719,035	-92,822	0,064	-0,013
-718,021	-165,028	-0,087	0,003
-717,006	63,666	0,087	0,065
-715,991	-200,000	0,016	-0,135
-714,977	455,257	0,028	0,046
-713,962	800,000	-0,048	-0,118
-712,948	678,684	-0,034	-0,066
-711,933	-200,000	0,009	0,099
-710,918	-200,000	0,010	-0,051
-709,904	46,621	-0,038	-0,026
-708,889	-43,025	-0,084	0,031
-707,875	-70,235	0,032	0,009
-706,860	-35,448	-0,109	-0,044
-705,845	68,249	0,155	-0,118
-704,831	116,171	-0,049	0,045
-703,816	-43,368	-0,057	-0,021
-702,802	-82,751	-0,059	-0,014
-701,787	-200,000	0,003	-0,039
-700,772	-200,000	-0,012	-0,119
-699,758	153,948	-0,031	0,032
-698,743	800,000	-0,007	-0,020
-697,729	307,491	-0,014	-0,019
-696,714	-200,000	-0,028	-0,116
-695,699	-93,311	0,005	-0,001
-694,685	271,602	-0,039	0,051
-693,670	-187,593	-0,078	-0,001
-692,656	530,851	-0,042	-0,075
-691,641	800,000	-0,028	-0,078
-690,627	-200,000	0,015	0,053
-689,612	-63,029	-0,013	-0,004
-688,597	296,286	0,035	0,047
-687,583	-200,000	0,008	0,053
-686,568	-200,000	0,017	0,175
-685,554	351,424	-0,043	0,064
-684,539	721,850	-0,021	-0,042
-683,524	62,062	-0,073	-0,054
-682,510	-200,000	-0,021	-0,121
-681,495	-200,000	0,027	0,128
-680,481	251,848	-0,018	0,023
-679,466	800,000	0,030	-0,085
-678,451	-200,000	-0,015	-0,099
-677,437	-95,349	0,093	-0,018
-676,422	-157,405	0,195	-0,009
-675,408	-117,596	-0,102	0,014
-674,393	300,038	0,047	0,064
-673,378	800,000	-0,027	0,085
-672,364	-152,473	-0,170	-0,009
-671,349	24,837	-0,104	-0,064
-670,335	-164,272	0,140	-0,005
-669,320	175,230	0,064	-0,069
-668,305	-60,412	-0,104	-0,033
-667,291	679,182	-0,016	-0,031
-666,276	342,482	-0,073	0,106
-665,262	-200,000	0,022	-0,100
-664,247	-200,000	-0,038	-0,144
-663,232	163,481	0,114	0,120
-662,218	800,000	-0,044	-0,120
-661,203	800,000	-0,018	0,052
-660,189	-83,677	-0,055	-0,013
-659,174	140,015	-0,100	-0,097
-658,159	179,882	0,023	0,025
-657,145	800,000	0,028	-0,059
-656,130	53,504	-0,106	-0,076
-655,116	15,179	-0,082	0,048
-654,101	-200,000	-0,009	-0,070
-653,086	622,368	-0,091	-0,170
-652,072	54,582	-0,067	-0,048
-651,057	-200,000	-0,002	-0,128
-650,043	-200,000	-0,021	-0,110
-649,028	-65,572	-0,132	0,039
-648,014	225,883	0,078	-0,094
-646,999	-175,866	-0,078	-0,002
-645,984	82,149	0,095	0,076
-644,970	-200,000	-0,008	-0,063
-643,955	800,000	-0,030	0,084
-642,941	-11,812	-0,080	-0,039
-641,926	296,815	-0,023	0,031
-640,911	307,199	-0,034	-0,047
-639,897	-78,803	-0,048	-0,012
-638,882	22,083	-0,049	0,029
-637,868	-74,597	0,081	-0,021
-636,853	196,334	-0,037	0,042
-635,838	40,228	0,091	-0,061
-634,824	315,284	-0,028	-0,039
-633,809	109,653	-0,149	0,132
-632,795	-32,711	-0,061	-0,025
-631,780	-22,126	0,119	0,053
-630,765	80,711	-0,028	-0,022
-629,751	-31,883	-0,077	-0,032
-628,736	-200,000	-0,016	-0,109
-627,722	-200,000	-0,016	-0,141
-626,707	800,000	-0,069	0,163
-625,692	231,751	-0,025	-0,031
-624,678	491,772	-0,006	-0,010
-623,663	205,903	-0,035	0,041
-622,649	-134,863	-0,150	-0,013
-621,634	-200,000	0,010	-0,045
-620,619	4,497	0,037	0,020
-619,605	189,018	-0,095	0,105
-618,590	-200,000	0,001	0,053
-617,576	-200,000	-0,014	0,103
-616,561	-83,272	-0,110	0,026
-615,546	359,685	0,063	-0,094
-614,532	-119,580	-0,069	-0,009
-613,517	-162,441	0,037	-0,001
-612,503	-200,000	-0,008	-0,032
-611,488	186,350	-0,078	0,086
-610,474	-53,115	-0,071	0,024
-609,459	-200,000	0,002	0,022
-608,444	43,818	0,060	-0,041
-607,430	-106,980	-0,123	0,020
-606,415	-49,418	-0,120	-0,042
-605,401	-105,416	0,076	0,013
-604,386	-35,481	-0,052	0,021
-603,371	800,000	-0,034	-0,091
-602,357	-9,652	-0,034	0,017
-601,342	-200,000	-0,009	0,164
-600,328	-22,776	-0,074	-0,033
-599,313	-72,430	-0,128	-0,035
-598,298	-116,822	-0,030	0,004
-597,284	800,000	0,063	0,146
-596,269	800,000	-0,027	-0,058
-595,255	781,664	0,055	-0,113
-594,240	-200,000	0,009	-0,052
-593,225	-8,853	-0,117	-0,058
-592,211	253,690	-0,074	-0,093
-591,196	332,021	0,016	-0,023
-590,182	-43,248	-0,125	-0,047
-589,167	-139,641	0,170	-0,013
-588,152	308,529	-0,018	-0,024
-587,138	579,254	-0,055	-0,101
-586,123	800,000	0,078	-0,167
-585,109	-173,055	-0,046	-0,001
-584,094	144,345	-0,143	-0,142
-583,079	-58,000	0,183	-0,059
-582,065	-200,000	-0,031	-0,155
-581,050	-85,350	-0,052	-0,012
-580,036	-62,363	0,054	0,017
-579,021	-200,000	-0,031	-0,109
-578,006	-127,843	-0,168	0,018
-576,992	208,563	0,030	0,035
-575,977	38,364	-0,041	-0,027
-574,963	549,640	0,023	-0,042
-573,948	550,821	-0,031	0,055
-572,934	628,747	-0,036	0,067
-571,919	-200,000	-0,007	-0,058
-570,904	-166,750	0,045	-0,001
-569,890	-67,293	-0,037	-0,011
-568,875	-109,536	0,016	0,002
-567,861	-200,000	0,052	0,229
-566,846	26,092	0,077	-0,048
-565,831	-60,537	0,050	-0,016
-564,817	-112,388	-0,098	-0,014
-563,802	68,476	-0,143	-0,109
-562,788	661,452	-0,016	-0,030
-561,773	-104,589	0,119	-0,020
-560,758	-200,000	0,022	0,088
-559,744	-200,000	-0,039	0,134
-558,729	800,000	0,041	0,111
-557,715	44,081	0,034	-0,023
-556,700	32,595	0,081	0,052
-555,685	800,000	0,057	-0,143
-554,671	-200,000	0,014	0,052
-553,656	101,697	-0,035	-0,031
-552,642	-93,077	0,095	0,019
-551,627	800,000	0,031	0,087
-550,612	-47,250	-0,106	0,038
-549,598	-49,829	0,016	-0,006
-548,583	-18,124	0,038	0,018
-547,569	136,929	0,056	-0,054
-546,554	800,000	0,007	-0,019
-545,539	-200,000	0,019	0,067
-544,525	-87,880	0,027	0,006
-543,510	800,000	-0,043	-0,097
-542,496	277,603	-0,081	-0,107
-541,481	298,796	0,053	0,073
-540,466	-169,733	0,081	0,002
-539,452	446,578	-0,068	-0,111
-538,437	-32,726	0,098	0,040
-537,423	-35,493	-0,035	0,014
-536,408	348,600	0,035	-0,050
-535,393	630,948	0,033	0,062
-534,379	-72,665	0,066	-0,018
-533,364	-200,000	-0,007	-0,043
-532,350	-2,538	0,025	0,013
-531,335	-200,000	0,016	0,065
-530,321	-200,000	0,009	-0,065
-529,306	693,020	-0,017	-0,033
-528,291	182,583	0,016	-0,018
-527,277	-81,336	0,006	-0,002
-526,262	179,912	-0,028	0,030
-525,248	298,947	0,038	-0,051
-524,233	-200,000	0,002	0,105
-523,218	24,449	-0,058	0,035
-522,204	-200,000	-0,009	-0,126
-521,189	800,000	-0,045	-0,125
-520,175	-200,000	0,002	-0,068
-519,160	-200,000	-0,008	-0,036
-518,145	-7,745	-0,037	-0,018
-517,131	-54,003	0,110	-0,037
-516,116	800,000	-0,040	0,103
-515,102	800,000	-0,036	0,096
-514,087	95,826	0,150	-0,126
-513,072	-2,883	-0,029	-0,015
-512,058	1,087	0,103	0,055
-511,043	110,903	0,082	0,072
-510,029	140,883	0,042	0,041
-509,014	-200,000	-0,016	0,108
-507,999	800,000	-0,027	0,058
-506,985	-176,117	-0,108	0,002
-505,970	-17,310	0,064	-0,030
-504,956	20,293	0,074	-0,044
-503,941	98,215	-0,136	-0,115
-502,926	-150,456	0,200	0,011
-501,912	642,904	0,022	-0,041
-500,897	184,122	-0,033	0,036
-499,883	279,682	0,042	-0,055
-498,868	165,134	0,067	-0,070
-497,853	69,315	-0,081	0,061
-496,839	-200,000	-0,003	-0,015
-495,824	-19,839	0,174	-0,079
-494,810	-158,994	-0,047	-0,002
-493,795	-116,287	-0,120	0,016
-492,781	31,614	0,118	-0,074
-491,766	-200,000	-0,003	-0,029
-490,751	52,975	0,081	0,057
-489,737	-200,000	0,047	0,181
-488,722	199,549	-0,019	0,022
-487,708	10,329	0,029	-0,016
-486,693	97,148	0,035	0,029
-485,678	-74,024	0,042	-0,011
-484,664	84,949	0,081	0,065
-483,649	-23,658	0,021	0,009
-482,635	71,090	-0,058	-0,044
-481,620	11,865	-0,083	0,047
-480,605	-200,000	-0,014	0,096
-479,591	189,338	0,034	0,038
-478,576	-168,101	0,058	0,002
-477,562	46,163	0,080	0,054
-476,547	403,044	-0,120	-0,187
-475,532	213,379	0,110	0,128
-474,518	-104,271	0,034	-0,006
-473,503	-80,510	0,094	0,023
-472,489	-45,641	-0,113	-0,041
-471,474	378,659	0,018	-0,027
-470,459	800,000	0,032	0,100
-469,445	800,000	0,078	-0,195
-468,430	-185,679	0,129	-0,001
-467,416	215,659	-0,008	-0,010
-466,401	201,443	-0,039	-0,045
-465,386	-12,657	0,055	0,026
-464,372	800,000	0,017	0,036
-463,357	-91,501	0,144	-0,030
-462,343	-89,846	-0,059	0,013
-461,328	-200,000	-0,002	0,049
-460,313	-151,550	0,127	0,007
-459,299	-200,000	-0,001	0,036
-458,284	117,493	-0,215	0,195
-457,270	173,135	0,093	-0,099
-456,255	-200,000	0,005	-0,075
-455,241	332,186	-0,022	0,032
-454,226	-200,000	0,004	-0,207
-453,211	-21,690	-0,046	-0,020
-452,197	-148,725	0,156	-0,009
-451,182	-49,574	0,151	0,053
-450,168	-184,613	0,111	-0,001
-449,153	299,919	-0,020	-0,027
-448,138	800,000	0,024	-0,069
-447,124	800,000	-0,026	-0,070
-446,109	-200,000	-0,005	-0,037
-445,095	-82,095	0,048	0,011
-444,080	573,925	0,033	-0,059
-443,065	-200,000	0,008	-0,076
-442,051	-41,870	-0,054	-0,020
-441,036	-200,000	0,021	-0,092
-440,022	-200,000	0,017	-0,121
-439,007	331,867	0,028	-0,040
-437,992	-19,306	0,076	0,034
-436,978	-100,479	0,094	0,017
-435,963	-200,000	-0,021	-0,072
-434,949	-136,750	-0,113	0,009
-433,934	-165,093	-0,085	0,003
-432,919	-33,286	-0,104	0,042
-431,905	-200,000	-0,011	0,076
-430,890	-26,760	-0,099	-0,042
-429,876	-200,000	-0,006	0,050
-428,861	607,799	-0,097	0,178
-427,846	64,293	0,070	0,052
-426,832	58,032	-0,067	-0,048
-425,817	-200,000	0,021	-0,118
-424,803	94,503	-0,008	0,007
-423,788	732,124	0,060	0,118
-422,773	108,909	0,053	0,047
-421,759	-0,002	-0,156	0,081
-420,744	-200,000	0,019	-0,075
-419,730	-200,000	0,003	0,050
-418,715	136,558	0,031	0,029
-417,701	-200,000	-0,039	-0,149
-416,686	196,226	0,099	0,111
-415,671	-200,000	0,036	0,127
-414,657	-63,434	-0,115	0,034
-413,642	11,338	-0,038	-0,021
-412,628	-200,000	-0,005	-0,018
-411,613	-54,480	-0,148	-0,049
-410,598	82,177	0,056	-0,045
-409,584	-22,773	0,058	-0,026
-408,569	185,882	0,051	0,056
-407,555	800,000	-0,012	0,033
-406,540	617,161	-0,036	-0,067
-405,525	172,280	-0,061	-0,064
-404,511	-200,000	-0,019	-0,088
-403,496	-200,000	-0,034	-0,197
-402,482	-125,295	0,154	0,017
-401,467	-82,819	0,058	-0,014
-400,452	451,246	-0,091	-0,148
-399,438	-52,670	0,034	0,012
-398,423	-1,139	0,065	0,034
-397,409	23,431	-0,036	0,021
-396,394	-59,818	-0,008	-0,003
-395,379	-46,952	0,068	0,024
-394,365	-18,535	-0,071	0,032
-393,350	146,841	0,068	0,067
-392,336	-49,867	0,042	0,015
-391,321	-56,208	0,052	0,017
-390,306	-176,195	0,037	-0,001
-389,292	800,000	-0,007	0,020
-388,277	294,163	0,051	-0,069
-387,263	114,082	0,056	0,050
-386,248	-200,000	0,024	0,090
-385,233	-30,892	0,054	-0,022
-384,219	761,805	-0,024	-0,048
-383,204	-200,000	-0,014	0,127
-382,190	-107,881	-0,062	-0,010
-381,175	-163,835	0,141	-0,005
-380,160	242,964	0,043	0,053
-379,146	-200,000	0,002	0,010
-378,131	-32,693	-0,028	0,012
-377,117	-58,145	-0,025	-0,008
-376,102	72,013	-0,086	-0,066
-375,088	178,141	0,047	-0,050
-374,073	491,641	-0,091	-0,154
-373,058	-45,334	0,130	0,047
-372,044	-150,496	0,075	-0,004
-371,029	111,947	-0,121	-0,107
-370,015	212,145	-0,068	-0,079
-369,000	98,391	-0,061	-0,052
-367,985	710,786	-0,041	-0,080
-366,971	123,729	0,054	-0,050
-365,956	74,992	0,071	0,055
-364,942	-200,000	0,006	-0,059
-363,927	-200,000	0,008	0,136
-362,912	562,265	-0,049	-0,087
-361,898	456,755	0,019	-0,032
-360,883	44,067	0,053	0,036
-359,869	286,175	0,066	0,087
-358,854	674,681	0,084	-0,162
-357,839	-124,873	0,079	-0,009
-356,825	-54,057	-0,104	-0,035
-355,810	298,274	0,036	-0,049
-354,796	-150,429	0,150	0,008
-353,781	-90,652	-0,012	0,003
-352,766	800,000	-0,050	0,156
-351,752	52,147	0,031	0,022
-350,737	-152,108	-0,087	0,005
-349,723	72,137	0,026	-0,020
-348,708	-200,000	-0,019	0,064
-347,693	0,184	-0,076	0,040
-346,679	-200,000	-0,010	-0,034
-345,664	335,644	-0,090	-0,128
-344,650	209,525	-0,054	-0,062
-343,635	800,000	-0,040	0,093
-342,620	105,571	-0,114	0,099
-341,606	-200,000	0,010	0,042
-340,591	-6,168	0,074	0,037
-339,577	-55,744	-0,116	0,038
-338,562	-2,410	0,083	0,043
-337,548	-200,000	0,025	0,153
-336,533	-112,727	-0,115	-0,017
-335,518	800,000	-0,042	0,087
-334,504	87,359	-0,017	-0,014
-333,489	-200,000	-0,002	-0,094
-332,475	-200,000	0,007	0,057
-331,460	-154,257	0,105	-0,005
-330,445	800,000	-0,022	-0,046
-329,431	-108,184	-0,062	-0,010
-328,416	114,334	-0,083	-0,074
-327,402	-200,000	-0,002	0,009
-326,387	364,053	-0,077	0,114
-325,372	-200,000	0,032	-0,120
-324,358	-35,582	-0,054	-0,021
-323,343	72,576	-0,075	0,057
-322,329	-136,967	0,151	0,013
-321,314	-26,321	-0,162	0,069
-320,299	198,941	0,079	0,089
-319,285	-66,967	0,085	-0,025
-318,270	-55,626	0,151	0,049
-317,256	179,053	-0,048	-0,052
-316,241	92,748	-0,111	0,092
-315,226	67,943	0,090	-0,068
-314,212	-19,227	-0,058	0,026
-313,197	578,340	0,046	0,083
-312,183	196,518	-0,069	-0,077
-311,168	719,379	-0,023	-0,045
-310,153	117,024	-0,045	-0,041
-309,139	-54,676	-0,122	-0,040
-308,124	-79,500	0,055	0,014
-307,110	13,367	0,074	0,042
-306,095	-21,934	-0,050	0,022
-305,080	390,954	-0,101	0,153
-304,066	-58,522	0,153	-0,048
-303,051	-126,851	0,123	-0,013
-302,037	-200,000	-0,013	-0,152
-301,022	167,833	0,051	-0,053
-300,008	800,000	0,019	0,058
-298,993	-200,000	0,016	-0,116
-297,978	28,468	-0,059	0,036
-296,964	-200,000	-0,027	-0,152
-295,949	230,358	-0,064	0,077
-294,935	81,606	0,062	0,049
-293,920	133,266	0,019	0,018
-292,905	800,000	-0,017	-0,045
-291,891	-191,950	0,077	-0,001
-290,876	268,764	-0,060	0,077
-289,862	800,000	-0,018	0,054
-288,847	385,172	-0,003	-0,004
-287,832	-200,000	0,016	-0,079
-286,818	630,839	0,070	-0,130
-285,803	307,083	0,050	-0,068
-284,789	28,246	0,069	0,042
-283,774	-200,000	-0,014	0,091
-282,759	-23,923	0,042	-0,018
-281,745	-83,347	-0,119	0,028
-280,730	-200,000	0,003	-0,114
-279,716	-130,178	0,080	-0,008
-278,701	800,000	0,030	0,090
-277,686	800,000	0,015	-0,038
-276,672	-48,609	0,084	0,029
-275,657	-182,398	-0,083	0,001
-274,643	51,903	-0,175	0,121
-273,628	800,000	0,045	-0,142
-272,613	800,000	0,015	0,032
-271,599	12,907	-0,035	0,020
-270,584	219,638	-0,075	-0,088
-269,570	800,000	-0,007	-0,017
-268,555	800,000	-0,061	0,125
-267,540	5,694	0,058	-0,031
-266,526	-95,702	-0,050	-0,010
-265,511	-105,693	-0,030	-0,005
-264,497	390,306	-0,078	-0,119
-263,482	-79,628	0,107	0,026
-262,467	70,213	0,037	0,028
-261,453	180,434	0,082	0,088
-260,438	553,185	-0,024	0,042
-259,424	-95,463	0,130	-0,025
-258,409	-123,862	0,105	-0,012
-257,395	532,041	-0,059	0,103
-256,380	778,520	0,042	-0,085
-255,365	-200,000	0,002	-0,037
-254,351	146,632	-0,045	0,045
-253,336	-105,850	-0,134	0,022
-252,322	-200,000	0,013	-0,070
-251,307	-200,000	-0,047	0,160
-250,292	127,765	-0,045	-0,042
-249,278	800,000	-0,049	0,134
-248,263	800,000	0,029	0,090
-247,249	-83,404	0,172	-0,040
-246,234	-31,822	0,028	0,012
-245,219	16,372	-0,057	0,033
-244,205	-63,306	-0,161	0,048
-243,190	800,000	0,072	0,166
-242,176	168,866	-0,042	0,044
-241,161	47,074	0,131	0,089
-240,146	292,774	-0,038	-0,051
-239,132	281,256	-0,081	0,106
-238,117	14,798	-0,099	-0,057
-237,103	-92,879	-0,020	0,004
-236,088	5,523	-0,036	0,019
-235,073	-62,723	0,059	-0,018
-234,059	-200,000	0,017	0,239
-233,044	96,554	0,114	0,096
-232,030	94,432	-0,032	0,026
-231,015	475,355	0,064	-0,106
-230,000	309,252	0,008	-0,011
-228,986	53,107	0,017	0,012
-227,971	-200,000	-0,001	-0,072
-226,957	253,249	-0,046	-0,057
-225,942	83,807	0,126	0,100
-224,927	119,104	0,052	-0,047
-223,913	281,780	0,019	-0,025
-222,898	197,724	0,078	0,087
-221,884	17,086	-0,206	0,119
-220,869	288,537	-0,078	0,103
-219,855	-200,000	0,012	0,052
-218,840	-26,512	0,126	-0,054
-217,825	325,799	-0,046	0,064
-216,811	63,331	0,132	-0,097
-215,796	-36,706	-0,134	0,052
-214,782	234,020	-0,083	-0,099
-213,767	-200,000	0,015	-0,102
-212,752	236,172	-0,019	0,022
-211,738	-200,000	-0,022	0,091
-210,723	426,141	-0,024	0,038
-209,709	177,389	-0,125	-0,133
-208,694	-200,000	0,023	-0,171
-207,679	800,000	0,059	-0,125
-206,665	12,359	-0,115	0,065
-205,650	-71,647	-0,021	0,006
-204,636	800,000	0,063	0,147
-203,621	-23,328	-0,101	0,044
-202,606	-122,153	0,052	0,006
-201,592	800,000	-0,045	-0,131
-200,577	585,454	0,021	0,037
-199,563	-158,671	0,135	0,006
-198,548	-163,194	-0,075	-0,003
-197,533	-79,900	0,105	0,025
-196,519	600,884	0,064	0,116
-195,504	614,142	0,038	0,069
-194,490	800,000	0,022	-0,071
-193,475	800,000	-0,024	0,053
-192,460	239,092	-0,039	-0,047
-191,446	-6,431	-0,121	0,060
-190,431	800,000	-0,015	0,038
-189,417	-113,820	0,063	-0,009
-188,402	800,000	-0,040	0,101
-187,387	317,748	-0,052	0,072
-186,373	-37,263	0,064	-0,025
-185,358	35,997	-0,064	-0,041
-184,344	800,000	0,066	0,211
-183,329	127,119	-0,099	0,092
-182,315	33,576	0,086	-0,054
-181,300	24,777	-0,145	-0,087
-180,285	5,770	-0,101	-0,054
-179,271	-60,397	-0,108	0,033
-178,256	153,570	0,045	-0,044
-177,242	52,911	0,091	-0,064
-176,227	557,133	-0,025	0,045
-175,212	4,076	-0,098	-0,052
-174,198	-75,671	-0,034	-0,009
-173,183	-200,000	0,016	0,071
-172,169	15,243	0,079	-0,045
-171,154	305,441	-0,068	-0,092
-170,139	-95,932	0,234	0,045
-169,125	290,585	0,070	0,092
-168,110	-33,609	0,152	0,061
-167,096	-200,000	-0,003	0,057
-166,081	502,745	0,032	0,054
-165,066	62,626	-0,033	-0,024
-164,052	85,331	0,073	-0,058
-163,037	235,866	0,027	-0,033
-162,023	-200,000	0,003	0,010
-161,008	800,000	-0,055	-0,120
-159,993	-86,506	-0,087	0,019
-158,979	516,733	0,094	-0,160
-157,964	-200,000	-0,031	0,123
-156,950	-200,000	-0,024	0,127
-155,935	129,371	-0,016	-0,015
-154,920	-200,000	0,011	0,054
-153,906	-200,000	-0,048	0,000
-152,891	800,000	-0,029	-0,070
-151,877	280,142	-0,052	-0,068
-150,862	-54,277	-0,162	0,053
-149,847	800,000	0,023	0,054
-148,833	-26,791	0,045	0,019
-147,818	120,196	-0,100	0,091
-146,804	-200,000	0,038	0,136
-145,789	-200,000	0,005	0,140
-144,775	-24,621	-0,026	-0,011
-143,760	366,673	-0,102	-0,150
-142,745	-200,000	0,019	-0,095
-141,731	2,594	-0,125	-0,065
-140,716	57,156	0,091	-0,064
-139,702	-125,352	0,201	-0,022
-138,687	-119,858	0,189	-0,023
-137,672	800,000	-0,005	-0,017
-136,658	-102,238	0,070	-0,012
-135,643	42,747	0,078	0,052
-134,629	-134,318	-0,088	-0,008
-133,614	373,118	0,103	0,152
-132,599	238,365	0,120	0,145
-131,585	-166,683	-0,008	0,000
-130,570	-200,000	-0,004	-0,085
-129,556	-52,488	-0,059	-0,020
-128,541	1,993	-0,072	-0,038
-127,526	-200,000	-0,008	0,070
-126,512	-200,000	-0,003	-0,091
-125,497	22,910	0,119	0,071
-124,483	47,594	-0,073	0,049
-123,468	80,625	-0,070	0,055
-122,453	-26,054	-0,113	-0,048
-121,439	135,460	-0,031	-0,029
-120,424	-11,258	-0,023	0,011
-119,410	800,000	0,029	0,088
-118,395	-14,583	-0,025	0,012
-117,380	82,096	0,112	0,088
-116,366	133,632	-0,046	0,043
-115,351	-200,000	0,004	-0,045
-114,337	-42,415	-0,019	0,007
-113,322	194,463	-0,110	-0,121
-112,307	633,394	-0,077	-0,143
-111,293	210,966	0,075	0,085
-110,278	664,926	-0,039	0,073
-109,264	-119,816	-0,111	-0,014
-108,249	-93,031	0,155	0,031
-107,234	528,324	-0,011	-0,018
-106,220	800,000	-0,076	-0,225
-105,205	-66,984	-0,166	0,047
-104,191	11,184	-0,051	-0,028
-103,176	58,205	0,069	0,049
-102,162	96,292	-0,081	0,067
-101,147	-200,000	0,007	-0,037
-100,132	33,170	-0,125	-0,078
-99,118	-200,000	-0,026	0,108
-98,103	-100,072	0,071	0,013
-97,089	-200,000	0,055	0,179
-96,074	-200,000	0,025	0,106
-95,059	800,000	0,075	0,190
-94,045	-120,402	0,016	0,002
-93,030	494,592	-0,035	-0,058
-92,016	800,000	-0,061	-0,160
-91,001	13,250	0,071	0,040
-89,986	141,709	0,098	0,094
-88,972	-108,172	-0,169	0,026
-87,957	-76,966	-0,098	-0,025
-86,943	-200,000	-0,011	-0,081
-85,928	-75,911	0,096	-0,025
-84,913	451,448	-0,016	0,026
-83,899	-200,000	-0,018	0,069
-82,884	161,547	0,097	0,098
-81,870	-109,549	0,060	0,009
-80,855	800,000	0,040	-0,086
-79,840	-200,000	-0,000	0,077
-78,826	800,000	0,022	0,061
-77,811	322,301	0,007	0,010
-76,797	728,700	0,015	-0,029
-75,782	-36,065	0,248	0,097
-74,767	136,866	-0,030	-0,028
-73,753	23,904	-0,051	-0,030
-72,738	-117,363	0,032	0,004
-71,724	538,850	0,042	-0,073
-70,709	-76,943	-0,053	0,013
-69,694	71,144	0,120	0,090
-68,680	622,518	0,075	-0,138
-67,665	-71,363	0,150	-0,040
-66,651	682,926	-0,067	0,128
-65,636	297,103	0,085	0,114
-64,622	-110,020	0,242	0,036
-63,607	-200,000	-0,006	-0,099
-62,592	398,952	0,072	-0,109
-61,578	-200,000	-0,016	0,107
-60,563	2,172	-0,103	-0,054
-59,549	800,000	0,034	-0,073
-58,534	-63,667	-1,559	-0,460
-57,519	800,000	-0,615	-1,264
-56,505	-200,000	-1,097	-4,614
-55,490	-96,511	0,590	-0,112
-54,476	800,000	5,213	12,038
-53,461	-200,000	15,081	266,524
-52,446	-200,000	695,381	2229,804
-51,432	572,177	1616,755	2866,283
-50,417	121,103	1627,154	1467,775
-49,403	82,241	1284,446	1008,787
-48,388	37,797	1024,383	658,170
-47,373	22,433	984,941	582,139
-46,359	21,486	973,902	572,477
-45,344	20,037	969,684	565,221
-44,330	20,050	968,554	564,585
-43,315	19,816	966,907	562,837
-42,300	19,829	965,809	562,216
-41,286	19,828	964,780	561,594
-40,271	19,799	963,955	560,994
-39,257	19,876	962,841	560,576
-38,242	19,817	962,076	559,916
-37,227	19,854	961,258	559,538
-36,213	19,794	960,503	558,882
-35,198	19,750	959,591	558,187
-34,184	19,889	958,716	558,106
-33,169	19,766	957,881	557,197
-32,154	19,817	956,899	556,770
-31,140	19,848	956,046	556,351
-30,125	19,811	955,288	555,768
-29,111	19,806	954,513	555,282
-28,096	19,773	954,092	554,907
-27,082	19,816	953,176	554,489
-26,067	19,808	952,374	553,977
-25,052	19,749	951,702	553,373
-24,038	19,729	951,152	552,966
-23,023	19,742	950,459	552,584
-22,009	19,865	949,546	552,427
-20,994	19,766	949,178	551,873
-19,979	19,786	948,400	551,462
-18,965	19,782	947,904	551,141
-17,950	19,771	947,253	550,704
-16,936	19,703	946,541	550,051
-15,921	19,722	946,110	549,840
-14,906	19,637	945,126	548,973
-13,892	19,683	944,680	548,841
-12,877	19,614	943,914	548,154
-11,863	19,572	943,365	547,679
-10,848	19,597	942,802	547,409
-9,833	19,798	942,254	547,708
-8,819	19,760	941,566	547,166
-7,804	19,705	941,115	546,709
-6,790	19,651	940,585	546,208
-5,775	19,708	939,916	545,977
-4,760	19,714	939,212	545,565
-3,746	19,709	938,548	545,142
-2,731	19,535	937,844	544,162
-1,717	19,493	937,068	543,555
-0,702	19,552	936,449	543,361
0,313	19,332	935,848	543,138
1,327	22,355	934,103	551,624
2,342	31,525	794,034	493,322
3,356	28,730	449,063	274,771
4,371	-1,411	294,061	149,763
5,386	-5,526	275,463	136,372
6,400	-7,022	269,657	132,093
7,415	-7,443	267,498	130,635
8,429	-7,167	266,354	130,319
9,444	-7,234	265,239	129,701
10,459	-7,313	264,919	129,460
11,473	-7,257	264,166	129,132
12,488	-7,296	263,682	128,848
13,502	-7,394	263,269	128,545
14,517	-7,273	262,802	128,416
15,531	-7,040	262,341	128,390
16,546	-6,980	262,107	128,319
17,561	-6,865	261,551	128,139
18,575	-6,872	261,325	128,010
19,590	-7,111	261,053	127,650
20,604	-6,908	260,838	127,716
21,619	-6,873	260,379	127,512
22,634	-7,092	260,125	127,179
23,648	-6,941	259,655	127,074
24,663	-7,057	259,464	126,864
25,677	-6,940	259,435	126,944
26,692	-6,889	258,947	126,740
27,707	-6,984	258,868	126,605
28,721	-6,904	258,586	126,527
29,736	-7,090	258,360	126,239
30,750	-7,040	257,896	126,045
31,765	-7,321	257,802	125,739
32,780	-7,084	257,632	125,856
33,794	-7,121	257,446	125,721
34,809	-7,039	257,054	125,590
35,823	-7,038	256,976	125,542
36,838	-7,197	256,645	125,228
37,853	-7,263	256,362	125,021
38,867	-7,210	256,211	124,983
39,882	-7,034	255,725	124,889
40,896	-7,009	255,574	124,827
41,911	-7,068	255,589	124,771
42,926	-7,178	255,234	124,491
43,940	-7,153	254,934	124,355
44,955	-7,156	254,840	124,295
45,969	-7,161	254,672	124,198
46,984	-7,389	254,308	123,810
47,999	-7,735	254,182	123,434
49,013	-7,763	253,840	123,233
50,028	-7,701	253,583	123,151
51,042	-7,646	253,416	123,107
52,057	-7,833	253,130	122,794
53,071	-7,697	252,811	122,747
54,086	-7,650	252,772	122,758
55,101	-7,525	252,488	122,718
56,115	-7,585	252,483	122,652
57,130	-6,896	252,146	123,075
58,144	-6,878	252,207	123,110
59,159	-6,905	251,956	122,952
60,174	-6,988	251,787	122,787
61,188	-6,774	251,453	122,798
62,203	-6,902	251,313	122,608
63,217	-6,929	251,201	122,520
64,232	-6,938	250,919	122,364
65,247	-6,932	250,686	122,244
66,261	-7,203	250,547	121,932
67,276	-7,095	250,239	121,864
68,290	-7,192	250,032	121,669
69,305	-7,680	249,827	121,140
70,320	-7,609	249,633	121,096
71,334	-7,364	249,448	121,204
72,349	-7,008	249,384	121,467
73,363	-7,054	249,054	121,257
74,378	-7,022	248,899	121,198
75,393	-7,219	248,775	120,959
76,407	-6,962	248,434	121,001
77,422	-7,084	248,335	120,838
78,436	-6,917	248,175	120,892
79,451	-7,155	247,901	120,545
80,466	-7,054	247,681	120,513
81,480	-7,346	247,475	120,154
82,495	-7,162	247,347	120,238
83,509	-7,249	247,243	120,103
84,524	-7,286	246,955	119,921
85,539	-7,451	246,746	119,669
86,553	-7,419	246,446	119,540
87,568	-7,313	246,207	119,502
88,582	-7,294	246,076	119,444
89,597	-7,208	245,887	119,415
90,611	-7,127	245,745	119,403
91,626	-6,930	245,662	119,518
92,641	-7,031	245,578	119,382
93,655	-7,406	245,402	118,970
94,670	-7,278	245,050	118,896
95,684	-7,289	244,823	118,766
96,699	-7,440	244,709	118,573
97,714	-7,217	244,408	118,604
98,728	-7,504	244,381	118,341
99,743	-7,406	244,079	118,265
100,757	-7,398	243,681	118,068
101,772	-7,405	243,735	118,078
102,787	-7,426	243,602	117,986
103,801	-7,313	243,288	117,917
104,816	-7,271	243,198	117,898
105,830	-7,174	243,110	117,926
106,845	-6,972	242,853	117,959
107,860	-7,128	242,702	117,745
108,874	-7,219	242,440	117,532
109,889	-7,387	242,210	117,270
110,903	-7,244	242,016	117,285
111,918	-7,315	241,886	117,152
112,933	-7,186	241,691	117,154
113,947	-7,117	241,534	117,125
114,962	-7,324	241,311	116,835
115,976	-7,064	241,223	116,997
116,991	-7,163	241,121	116,855
118,006	-7,213	240,871	116,682
119,020	-7,177	240,762	116,649
120,035	-6,895	240,630	116,806
121,049	-6,999	240,519	116,657
122,064	-7,184	240,325	116,400
123,079	-7,078	240,063	116,350
124,093	-7,031	239,828	116,264
125,108	-7,412	239,700	115,879
126,122	-7,515	239,496	115,687
127,137	-7,464	239,246	115,597
128,151	-7,463	239,178	115,555
129,166	-7,383	239,082	115,564
130,181	-7,432	238,759	115,357
131,195	-7,487	238,458	115,156
132,210	-7,277	238,320	115,251
133,224	-7,150	238,336	115,352
134,239	-7,100	238,084	115,260
135,254	-7,139	238,013	115,183
136,268	-7,366	237,783	114,878
137,283	-7,608	237,576	114,571
138,297	-7,731	237,393	114,373
139,312	-7,569	237,102	114,354
140,327	-7,225	236,958	114,552
141,341	-7,019	236,920	114,690
142,356	-6,750	236,810	114,844
143,370	-6,958	236,712	114,618
144,385	-6,778	236,454	114,629
145,400	-6,762	236,421	114,615
146,414	-6,923	236,235	114,385
147,429	-6,929	235,859	114,188
148,443	-6,749	235,900	114,342
149,458	-6,953	235,591	114,018
150,473	-6,947	235,382	113,912
151,487	-7,056	235,189	113,721
152,502	-7,000	235,062	113,694
153,516	-6,658	235,046	113,950
154,531	-6,883	234,887	113,683
155,546	-6,997	234,515	113,402
156,560	-6,952	234,295	113,321
157,575	-7,103	234,247	113,168
158,589	-7,187	234,101	113,020
159,604	-6,885	233,865	113,137
160,619	-6,933	233,827	113,069
161,633	-6,879	233,670	113,026
162,648	-6,622	233,492	113,135
163,662	-6,707	233,309	112,969
164,677	-6,896	233,091	112,703
165,692	-6,923	233,054	112,653
166,706	-6,828	232,966	112,676
167,721	-6,841	232,739	112,546
168,735	-6,787	232,617	112,519
169,750	-6,803	232,397	112,391
170,764	-6,914	232,253	112,223
171,779	-6,867	232,092	112,172
172,794	-6,827	231,947	112,124
173,808	-6,832	231,735	112,008
174,823	-7,348	231,623	111,537
175,837	-7,357	231,220	111,326
176,852	-7,098	231,232	111,525
177,867	-6,775	231,008	111,661
178,881	-6,874	230,993	111,566
179,896	-6,820	230,868	111,539
180,910	-6,966	230,677	111,321
181,925	-6,668	230,524	111,471
182,940	-6,878	230,434	111,253
183,954	-6,775	230,270	111,245
184,969	-6,647	230,075	111,241
185,983	-6,588	229,998	111,240
186,998	-6,516	229,729	111,156
188,013	-6,651	229,706	111,030
189,027	-6,817	229,547	110,813
190,042	-6,484	229,326	110,956
191,056	-6,712	229,181	110,699
192,071	-6,696	229,013	110,619
193,086	-6,780	228,773	110,429
194,100	-6,816	228,655	110,334
195,115	-7,253	228,066	109,701
196,129	-7,697	228,103	109,366
197,144	-4,019	229,159	112,723
198,159	0,619	230,517	117,000
199,173	3,897	231,525	120,063
200,188	4,496	231,549	120,533
201,202	4,576	231,306	120,458
202,217	4,608	231,248	120,442
203,232	4,743	231,041	120,429
204,246	5,053	230,923	120,597
205,261	4,991	230,754	120,450
206,275	5,108	230,768	120,538
207,290	5,234	230,639	120,557
208,304	5,101	230,329	120,281
209,319	5,016	230,192	120,133
210,334	5,071	230,032	120,081
211,348	4,661	229,986	119,729
212,363	4,449	229,502	119,303
213,377	4,283	229,147	118,979
214,392	4,080	229,237	118,859
215,407	4,194	229,147	118,889
216,421	4,389	229,033	118,970
217,436	4,030	228,832	118,579
218,450	4,021	228,457	118,367
219,465	3,891	228,280	118,165
220,480	3,745	228,324	118,065
221,494	3,919	228,030	118,035
222,509	3,895	227,959	117,970
223,523	4,119	227,931	118,117
224,538	3,930	227,650	117,816
225,553	4,298	227,424	117,970
226,567	4,230	227,423	117,907
227,582	4,188	227,458	117,883
228,596	4,488	227,266	118,001
229,611	4,154	227,023	117,610
230,626	4,094	226,775	117,425
231,640	4,103	226,693	117,379
232,655	4,499	226,604	117,624
233,669	4,538	226,622	117,653
234,684	4,687	226,353	117,616
235,699	4,524	226,311	117,460
236,713	4,511	225,954	117,254
237,728	4,102	225,925	116,918
238,742	4,031	225,603	116,687
239,757	4,133	225,562	116,732
240,772	4,119	225,387	116,622
241,786	4,142	225,279	116,573
242,801	4,474	225,132	116,738
243,815	4,361	225,135	116,643
244,830	4,752	224,916	116,814
245,844	4,434	224,703	116,453
246,859	4,157	224,657	116,210
247,874	4,609	224,420	116,418
248,888	4,516	224,270	116,259
249,903	4,211	224,082	115,922
250,917	4,139	223,984	115,807
251,932	4,313	223,728	115,795
252,947	3,921	223,697	115,474
253,961	4,108	223,390	115,446
254,976	3,956	223,349	115,300
255,990	4,307	223,253	115,504
257,005	4,495	222,955	115,479
258,020	4,248	223,134	115,377
259,034	4,567	222,935	115,502
260,049	4,535	222,662	115,327
261,063	4,397	222,437	115,097
262,078	4,525	222,438	115,183
263,093	4,506	222,304	115,089
264,107	4,508	222,052	114,950
265,122	4,503	222,112	114,967
266,136	4,593	221,913	114,920
267,151	4,723	221,791	114,943
268,166	4,035	221,495	114,269
269,180	3,970	221,215	114,066
270,195	3,982	221,103	114,007
271,209	4,293	220,947	114,147
272,224	4,203	221,003	114,100
273,239	4,113	220,871	113,955
274,253	4,182	220,532	113,821
275,268	3,971	220,442	113,608
276,282	3,804	220,133	113,315
277,297	3,821	220,136	113,319
278,312	4,048	219,921	113,366
279,326	4,108	219,730	113,301
280,341	4,165	219,734	113,336
281,355	4,014	219,650	113,171
282,370	4,040	219,465	113,084
283,384	3,998	219,338	112,978
284,399	3,812	219,128	112,723
285,414	3,783	219,048	112,651
286,428	4,091	218,963	112,823
287,443	4,403	218,669	112,889
288,457	4,061	218,696	112,643
289,472	4,029	218,488	112,502
290,487	3,669	218,101	112,031
291,501	3,764	218,117	112,098
292,516	3,854	218,049	112,119
293,530	4,068	217,825	112,150
294,545	3,889	217,728	111,959
295,560	4,048	217,609	112,004
296,574	3,952	217,634	111,937
297,589	4,144	217,423	111,958
298,603	4,326	217,310	112,022
299,618	4,248	217,107	111,851
300,633	4,266	217,061	111,830
301,647	4,300	216,893	111,758
302,662	4,250	217,030	111,783
303,676	4,347	216,689	111,667
304,691	4,098	216,649	111,456
305,706	4,279	216,386	111,442
306,720	4,495	216,153	111,469
307,735	4,216	216,185	111,273
308,749	3,974	215,874	110,929
309,764	4,334	215,794	111,137
310,779	4,392	215,753	111,148
311,793	4,340	215,593	111,018
312,808	4,377	215,347	110,908
313,822	4,249	215,314	110,789
314,837	4,255	215,052	110,649
315,852	3,875	214,806	110,240
316,866	4,154	214,820	110,437
317,881	4,268	214,675	110,435
318,895	4,324	214,612	110,432
319,910	4,000	214,441	110,103
320,925	4,035	214,123	109,955
321,939	3,771	213,976	109,681
322,954	3,831	213,894	109,672
323,968	4,235	213,920	109,963
324,983	4,318	213,721	109,911
325,997	4,229	213,692	109,823
327,012	4,173	213,468	109,658
328,027	4,334	213,422	109,739
329,041	4,367	213,309	109,695
330,056	4,562	213,130	109,731
331,070	4,353	212,873	109,441
332,085	3,928	212,621	109,001
333,100	3,883	212,567	108,931
334,114	4,292	212,572	109,214
335,129	4,101	212,377	108,968
336,143	4,211	212,129	108,909
337,158	4,089	212,024	108,760
338,173	4,203	211,827	108,729
339,187	4,034	211,707	108,539
340,202	3,915	211,538	108,358
341,216	3,480	211,570	108,059
342,231	4,070	211,403	108,379
343,246	3,932	211,250	108,194
344,260	3,950	211,136	108,139
345,275	4,158	211,021	108,216
346,289	4,198	210,923	108,184
347,304	4,322	210,759	108,178
348,319	4,027	210,692	107,927
349,333	3,988	210,573	107,829
350,348	4,317	210,313	107,917
351,362	4,365	210,162	107,862
352,377	4,642	210,027	107,977
353,392	4,045	209,948	107,511
354,406	3,981	209,890	107,426
355,421	192,867	1343,434	1426,833
356,435	153,895	1481,599	1426,903
