DTS Sentinel unit serial number:	SN410029Multiplexer serial number:	ORYXHardware model number:	OX2-SRSoftware version number:	ORYX F/W v4,00 Oryx Data Collector v3.7.2.0data status	okinstallation	B6 Nyhavnadifferential loss correction	single-endedforward channel	channel 2reverse channel	N/Adate	2023/12/08time	03:15:08forward acquisition time	300,00reverse acquisition time	0,00gamma	499,1914k internal	0,3165k external	0,3165temperature offset calibration	1,0000default loss term (dB/km)	0,3820temperature slope calibration	1,0000multiplexer offset coefficient	1,0000multiplexer slope coefficient	1,0000fibre end	0,00T internal ref (°C)	13,12T ext. ref 1 (°C)	-3,72T ext. ref 2 (°C)	-3,71length (m)	temperature (°C)	Stokes	anti-Stokes-744,400	-67,278	0,062	-0,018
-743,385	-56,647	-0,405	-0,131
-742,371	112,650	0,173	0,154
-741,356	-0,524	-0,260	-0,136
-740,342	-167,656	0,079	0,002
-739,327	-88,017	-0,424	-0,093
-738,312	29,629	0,162	0,101
-737,298	-105,847	-0,377	-0,062
-736,283	800,000	0,049	0,101
-735,269	-151,964	-0,368	0,019
-734,254	-47,575	0,163	0,058
-733,239	7,193	-0,552	-0,302
-732,225	94,661	0,140	0,117
-731,210	800,000	-0,039	0,081
-730,196	32,110	-0,113	-0,071
-729,181	543,334	-0,007	0,012
-728,167	364,339	0,050	-0,075
-727,152	-200,000	0,042	-0,000
-726,137	441,455	-0,038	-0,061
-725,123	800,000	0,035	-0,090
-724,108	-200,000	0,005	-0,185
-723,094	-83,635	-0,151	-0,035
-722,079	800,000	-0,036	-0,080
-721,064	-20,462	-0,054	0,024
-720,050	175,173	-0,041	-0,044
-719,035	69,091	0,075	-0,057
-718,021	-164,769	-0,053	0,002
-717,006	-23,775	0,054	0,024
-715,991	621,287	-0,063	-0,117
-714,977	333,923	-0,027	-0,038
-713,962	800,000	-0,025	0,056
-712,948	74,660	0,036	-0,028
-711,933	6,861	-0,061	-0,033
-710,918	269,999	-0,009	0,011
-709,904	-200,000	-0,006	-0,128
-708,889	26,594	-0,138	-0,085
-707,875	131,001	0,038	-0,036
-706,860	-200,000	-0,080	-0,290
-705,845	263,172	0,068	0,087
-704,831	-200,000	0,003	-0,065
-703,816	800,000	0,038	-0,103
-702,802	-23,602	0,011	-0,005
-701,787	-128,700	0,084	-0,009
-700,772	-80,930	-0,042	-0,010
-699,758	-200,000	-0,008	-0,056
-698,743	-200,000	0,023	-0,084
-697,729	-12,266	0,105	-0,050
-696,714	-16,404	-0,101	0,047
-695,699	800,000	-0,028	-0,075
-694,685	361,011	0,047	-0,069
-693,670	-200,000	0,007	-0,066
-692,656	157,415	0,055	-0,056
-691,641	284,339	0,113	-0,150
-690,627	15,792	-0,076	0,044
-689,612	-165,944	-0,053	-0,002
-688,597	-67,889	-0,124	-0,035
-687,583	38,757	-0,099	0,065
-686,568	-200,000	0,008	-0,045
-685,554	-22,445	-0,072	-0,032
-684,539	-200,000	0,004	0,100
-683,524	800,000	-0,022	-0,047
-682,510	751,182	0,066	-0,131
-681,495	-39,074	-0,115	0,044
-680,481	29,796	-0,121	0,075
-679,466	487,750	-0,055	-0,092
-678,451	219,501	-0,058	0,069
-677,437	800,000	0,005	-0,011
-676,422	-200,000	-0,010	-0,076
-675,408	-119,096	0,040	0,005
-674,393	800,000	-0,020	0,048
-673,378	-200,000	-0,002	-0,006
-672,364	284,760	-0,110	-0,145
-671,349	290,241	0,020	0,027
-670,335	68,995	0,096	0,073
-669,320	39,545	-0,085	0,056
-668,305	102,640	0,057	-0,048
-667,291	264,952	-0,048	0,062
-666,276	-200,000	-0,032	0,139
-665,262	800,000	-0,021	-0,051
-664,247	-153,733	-0,070	-0,003
-663,232	800,000	-0,044	-0,102
-662,218	616,328	-0,072	-0,133
-661,203	505,067	-0,077	0,132
-660,189	-107,743	-0,082	0,013
-659,174	-40,382	0,078	-0,029
-658,159	266,027	-0,155	-0,198
-657,145	-53,903	0,041	0,013
-656,130	531,857	-0,037	0,064
-655,116	-162,918	0,059	0,002
-654,101	28,708	0,118	0,073
-653,086	-129,730	-0,131	-0,013
-652,072	-145,442	-0,106	0,007
-651,057	40,116	-0,042	-0,028
-650,043	136,209	0,150	-0,144
-649,028	-200,000	-0,004	0,029
-648,014	3,833	0,128	-0,068
-646,999	-200,000	-0,010	0,038
-645,984	44,262	-0,039	-0,026
-644,970	159,687	-0,139	0,142
-643,955	-200,000	0,041	-0,187
-642,941	232,939	-0,013	0,015
-641,926	800,000	0,019	0,046
-640,911	-200,000	-0,022	-0,133
-639,897	800,000	0,059	0,168
-638,882	106,130	0,032	-0,028
-637,868	-85,140	-0,043	-0,010
-636,853	-74,182	-0,094	0,025
-635,838	529,620	-0,067	0,117
-634,824	-200,000	-0,027	0,099
-633,809	-103,534	-0,091	0,015
-632,795	3,647	-0,028	0,015
-631,780	-63,845	-0,100	0,030
-630,765	731,476	-0,072	0,142
-629,751	-42,190	-0,042	-0,016
-628,736	-200,000	-0,021	-0,095
-627,722	800,000	-0,037	0,112
-626,707	-48,603	-0,015	0,005
-625,692	136,951	-0,125	-0,119
-624,678	800,000	-0,029	-0,065
-623,663	-136,318	0,072	0,006
-622,649	-200,000	-0,009	-0,047
-621,634	129,755	-0,125	-0,117
-620,619	104,500	-0,077	0,066
-619,605	279,253	0,027	0,035
-618,590	800,000	-0,050	-0,121
-617,576	-66,390	0,072	-0,021
-616,561	34,074	-0,114	0,073
-615,546	-200,000	0,004	0,088
-614,532	800,000	0,019	-0,051
-613,517	-17,498	0,072	-0,033
-612,503	-17,100	-0,055	0,025
-611,488	800,000	0,016	-0,039
-610,474	53,763	0,068	0,048
-609,459	-166,454	-0,021	0,001
-608,444	-147,946	-0,047	0,003
-607,430	245,384	-0,035	0,043
-606,415	-200,000	0,002	-0,134
-605,401	187,072	-0,058	-0,063
-604,386	-113,910	-0,101	0,014
-603,371	-87,434	0,107	-0,024
-602,357	-107,667	-0,051	0,008
-601,342	800,000	-0,077	-0,193
-600,328	800,000	-0,063	-0,144
-599,313	168,332	-0,060	-0,062
-598,298	-109,354	0,079	0,012
-597,284	46,257	0,089	0,060
-596,269	-58,442	0,094	-0,030
-595,255	703,551	0,058	0,113
-594,240	145,590	-0,032	0,032
-593,225	54,177	-0,051	0,036
-592,211	-115,160	0,039	0,005
-591,196	-200,000	-0,014	0,099
-590,182	800,000	-0,003	-0,008
-589,167	-135,156	0,143	-0,012
-588,152	-111,418	-0,074	0,011
-587,138	489,379	-0,037	0,062
-586,123	-200,000	-0,009	0,171
-585,109	267,979	-0,156	-0,200
-584,094	800,000	0,033	0,086
-583,079	170,206	0,068	-0,071
-582,065	-45,958	0,075	0,027
-581,050	-200,000	0,005	0,143
-580,036	-52,315	0,073	0,025
-579,021	615,863	-0,053	-0,097
-578,006	-80,370	-0,090	0,022
-576,992	65,846	0,064	0,048
-575,977	-45,506	0,156	-0,056
-574,963	-200,000	0,021	0,106
-573,948	-78,447	0,148	0,037
-572,934	-200,000	0,013	0,093
-571,919	-200,000	-0,005	0,049
-570,904	800,000	-0,039	-0,103
-569,890	-17,242	-0,056	-0,026
-568,875	-200,000	-0,004	-0,035
-567,861	-200,000	0,021	-0,165
-566,846	215,270	0,057	0,066
-565,831	294,075	0,060	-0,080
-564,817	-118,318	-0,129	0,017
-563,802	-200,000	0,003	-0,031
-562,788	-34,801	-0,143	-0,057
-561,773	-200,000	0,023	-0,090
-560,758	-64,763	0,116	0,034
-559,744	115,242	-0,044	-0,039
-558,729	-200,000	0,005	0,110
-557,715	-200,000	-0,003	0,023
-556,700	643,335	-0,042	0,078
-555,685	-91,192	-0,062	-0,013
-554,671	49,363	-0,080	0,055
-553,656	387,537	-0,025	-0,038
-552,642	85,840	-0,063	0,051
-551,627	294,008	0,064	-0,086
-550,612	-98,681	-0,134	0,025
-549,598	144,693	-0,134	-0,131
-548,583	5,862	-0,099	-0,053
-547,569	576,185	0,079	0,142
-546,554	9,480	0,149	0,082
-545,539	800,000	-0,026	-0,083
-544,525	800,000	0,037	0,098
-543,510	195,911	-0,057	0,063
-542,496	64,230	-0,094	0,069
-541,481	-124,617	-0,142	-0,016
-540,466	306,242	-0,026	0,036
-539,452	-200,000	0,053	-0,233
-538,437	-57,801	0,046	0,015
-537,423	129,565	-0,043	0,040
-536,408	-200,000	-0,016	-0,071
-535,393	-200,000	0,008	-0,081
-534,379	5,890	0,022	0,012
-533,364	-84,763	0,151	-0,034
-532,350	800,000	0,046	-0,114
-531,335	-146,571	0,081	0,005
-530,321	-200,000	0,026	0,113
-529,306	-139,583	0,175	-0,013
-528,291	-200,000	0,000	-0,056
-527,277	168,606	-0,035	-0,037
-526,262	4,887	-0,106	0,057
-525,248	-15,555	0,028	-0,013
-524,233	-200,000	0,007	0,032
-523,218	-200,000	0,013	0,101
-522,204	800,000	-0,025	-0,061
-521,189	215,710	-0,064	-0,074
-520,175	552,709	0,044	-0,078
-519,160	578,028	0,010	-0,019
-518,145	-200,000	-0,006	-0,031
-517,131	-105,972	0,144	-0,023
-516,116	25,925	-0,132	0,080
-515,102	106,547	0,087	0,075
-514,087	725,314	-0,005	0,010
-513,072	30,539	-0,081	-0,050
-512,058	524,488	0,033	0,056
-511,043	-44,801	-0,014	0,005
-510,029	440,558	-0,019	0,030
-509,014	428,572	-0,051	0,080
-507,999	800,000	-0,004	-0,012
-506,985	106,094	-0,069	0,060
-505,970	4,676	0,056	-0,030
-504,956	800,000	-0,046	-0,145
-503,941	-69,716	-0,023	-0,006
-502,926	800,000	-0,045	-0,115
-501,912	-87,540	0,080	0,017
-500,897	45,734	-0,035	-0,023
-499,883	-96,755	0,188	-0,036
-498,868	-200,000	-0,019	-0,108
-497,853	129,970	-0,023	0,022
-496,839	26,363	-0,014	-0,008
-495,824	460,147	0,105	0,171
-494,810	-200,000	-0,020	-0,103
-493,795	-103,780	0,010	0,002
-492,781	42,600	0,049	0,032
-491,766	-137,144	-0,116	0,009
-490,751	-200,000	0,034	-0,135
-489,737	87,461	-0,047	-0,038
-488,722	474,703	0,031	-0,052
-487,708	-200,000	0,018	0,102
-486,693	800,000	-0,033	-0,079
-485,678	316,744	-0,062	-0,085
-484,664	745,780	-0,006	-0,011
-483,649	800,000	0,043	-0,137
-482,635	-143,169	-0,069	-0,005
-481,620	-124,971	0,023	-0,003
-480,605	498,376	0,011	0,018
-479,591	105,074	0,068	-0,059
-478,576	-46,431	-0,071	0,025
-477,562	-40,774	0,164	-0,062
-476,547	-200,000	-0,007	-0,089
-475,532	103,099	-0,121	0,103
-474,518	372,866	0,086	-0,128
-473,503	-200,000	0,011	0,039
-472,489	-200,000	0,002	0,104
-471,474	-0,113	-0,080	0,041
-470,459	332,849	-0,051	-0,071
-469,445	74,250	-0,043	-0,033
-468,430	800,000	0,023	-0,062
-467,416	110,546	-0,026	0,022
-466,401	-49,532	-0,118	-0,041
-465,386	14,874	0,281	0,160
-464,372	260,274	-0,015	0,019
-463,357	404,810	-0,019	-0,029
-462,343	466,593	-0,009	0,014
-461,328	-180,052	0,021	0,000
-460,313	800,000	0,037	-0,077
-459,299	-200,000	0,032	0,159
-458,284	14,597	0,052	0,030
-457,270	93,202	-0,041	-0,034
-456,255	783,769	0,063	0,127
-455,241	-92,378	-0,095	0,019
-454,226	110,590	0,099	-0,087
-453,211	-140,505	-0,036	0,003
-452,197	-116,642	0,157	0,021
-451,182	-113,721	0,099	-0,014
-450,168	-200,000	0,003	0,068
-449,153	800,000	-0,061	-0,131
-448,138	-200,000	-0,025	-0,099
-447,124	-64,786	-0,135	-0,040
-446,109	253,031	0,039	-0,048
-445,095	235,486	0,054	0,066
-444,080	-65,422	-0,054	0,016
-443,065	8,870	0,110	0,060
-442,051	-200,000	0,023	0,087
-441,036	800,000	-0,049	-0,154
-440,022	269,487	-0,059	-0,076
-439,007	120,612	-0,089	-0,080
-437,992	-200,000	0,029	0,181
-436,978	53,302	0,061	-0,043
-435,963	-200,000	0,012	0,059
-434,949	-200,000	0,031	0,133
-433,934	-137,297	-0,024	-0,002
-432,919	-200,000	0,001	-0,091
-431,905	800,000	0,063	-0,130
-430,890	-200,000	0,003	-0,083
-429,876	-200,000	-0,011	-0,066
-428,861	-200,000	0,011	0,164
-427,846	-83,506	-0,024	0,006
-426,832	71,634	-0,141	-0,106
-425,817	151,280	0,023	0,023
-424,803	-37,704	0,092	0,036
-423,788	-200,000	-0,003	0,120
-422,773	-200,000	0,000	0,064
-421,759	46,257	-0,068	0,046
-420,744	145,926	-0,045	0,044
-419,730	59,715	-0,075	0,054
-418,715	-200,000	-0,009	-0,048
-417,701	-39,721	-0,094	-0,036
-416,686	-200,000	0,006	0,052
-415,671	-200,000	0,034	0,123
-414,657	-110,084	0,045	0,007
-413,642	-104,034	-0,115	-0,019
-412,628	-200,000	-0,005	-0,149
-411,613	83,350	-0,095	-0,075
-410,598	-200,000	-0,008	0,041
-409,584	-24,371	0,125	-0,054
-408,569	-94,411	-0,106	0,021
-407,555	-200,000	-0,000	0,161
-406,540	7,351	-0,073	0,040
-405,525	-91,813	-0,092	-0,019
-404,511	-79,997	-0,019	0,005
-403,496	-200,000	0,000	-0,165
-402,482	56,226	0,059	0,041
-401,467	-79,168	0,087	-0,021
-400,452	-0,044	0,042	-0,021
-399,438	173,693	-0,031	0,033
-398,423	-114,369	-0,079	-0,011
-397,409	63,099	0,057	-0,041
-396,394	800,000	-0,044	-0,109
-395,379	-200,000	0,003	-0,087
-394,365	-109,363	0,121	0,018
-393,350	800,000	-0,061	0,145
-392,336	42,721	0,093	0,061
-391,321	-200,000	-0,006	-0,147
-390,306	-57,531	-0,062	-0,020
-389,292	-149,636	0,040	0,002
-388,277	-145,408	0,097	0,006
-387,263	-32,315	0,013	-0,005
-386,248	155,816	-0,115	0,116
-385,233	773,409	0,066	0,131
-384,219	229,971	-0,031	-0,037
-383,204	-200,000	0,012	0,054
-382,190	179,133	-0,032	-0,034
-381,175	486,258	0,020	0,034
-380,160	500,538	0,070	0,118
-379,146	-200,000	0,026	0,163
-378,131	800,000	-0,031	-0,090
-377,117	127,906	0,075	0,069
-376,102	209,482	-0,087	0,099
-375,088	-140,305	-0,098	-0,007
-374,073	16,783	0,012	-0,007
-373,058	98,339	0,079	0,066
-372,044	-106,693	0,096	-0,015
-371,029	242,362	0,044	-0,053
-370,015	800,000	0,042	0,099
-369,000	-200,000	0,006	0,029
-367,985	32,911	-0,081	-0,051
-366,971	760,956	-0,024	-0,048
-365,956	-200,000	0,007	0,045
-364,942	5,456	0,111	0,059
-363,927	1,481	-0,102	0,053
-362,912	-132,492	-0,121	0,011
-361,898	-133,529	0,074	-0,007
-360,883	4,193	-0,107	-0,056
-359,869	163,315	0,064	-0,066
-358,854	-200,000	-0,017	-0,086
-357,839	-200,000	-0,044	0,185
-356,825	-88,464	0,099	-0,021
-355,810	-130,475	0,033	0,003
-354,796	486,834	0,045	0,075
-353,781	-200,000	-0,008	-0,109
-352,766	713,754	-0,015	-0,028
-351,752	-200,000	0,004	-0,016
-350,737	-69,074	-0,070	0,019
-349,723	395,220	-0,026	-0,040
-348,708	-28,830	0,052	-0,021
-347,693	-38,863	0,085	0,032
-346,679	39,033	-0,114	0,074
-345,664	135,940	0,124	0,117
-344,650	800,000	0,020	0,047
-343,635	254,717	0,076	0,094
-342,620	-69,640	-0,086	0,024
-341,606	800,000	0,017	-0,045
-340,591	800,000	0,026	-0,070
-339,577	263,990	0,022	-0,028
-338,562	224,284	-0,043	-0,050
-337,548	194,620	-0,071	-0,078
-336,533	65,039	0,093	0,068
-335,518	-24,434	-0,060	0,026
-334,504	216,187	-0,040	-0,046
-333,489	112,897	-0,055	-0,048
-332,475	23,719	-0,078	0,046
-331,460	-126,770	0,171	-0,018
-330,445	122,308	0,075	0,068
-329,431	151,319	0,111	0,110
-328,416	274,056	0,048	0,061
-327,402	-39,162	0,114	-0,043
-326,387	-132,108	0,055	-0,005
-325,372	-200,000	-0,031	-0,131
-324,358	-200,000	-0,032	-0,121
-323,343	800,000	0,015	0,039
-322,329	6,960	-0,102	-0,055
-321,314	16,079	0,137	0,078
-320,299	438,863	0,046	0,073
-319,285	32,263	-0,066	0,041
-318,270	439,416	0,022	-0,036
-317,256	-7,049	-0,043	-0,021
-316,241	-200,000	0,006	0,045
-315,226	-200,000	0,001	-0,147
-314,212	-194,394	0,056	0,000
-313,197	568,354	0,071	0,125
-312,183	-192,084	-0,063	0,000
-311,168	-53,462	0,054	-0,018
-310,153	186,553	0,084	0,091
-309,139	226,539	0,003	0,003
-308,124	191,515	-0,072	0,078
-307,110	800,000	0,034	-0,091
-306,095	797,622	0,020	0,040
-305,080	431,594	0,077	0,121
-304,066	-0,616	-0,010	0,005
-303,051	-200,000	-0,012	-0,073
-302,037	-200,000	-0,008	-0,053
-301,022	40,274	0,094	-0,061
-300,008	-169,202	0,111	-0,003
-298,993	63,125	0,150	0,108
-297,978	42,678	-0,116	0,076
-296,964	42,131	-0,085	-0,056
-295,949	-61,580	0,213	0,064
-294,935	63,114	-0,063	0,046
-293,920	-19,671	0,063	-0,028
-292,905	156,412	-0,040	0,040
-291,891	-200,000	-0,030	0,117
-290,876	163,117	0,064	-0,065
-289,862	68,214	-0,077	0,057
-288,847	185,053	-0,051	-0,055
-287,832	-200,000	0,006	-0,041
-286,818	106,326	-0,185	-0,158
-285,803	317,810	0,076	0,104
-284,789	-107,576	-0,088	0,014
-283,774	-83,961	0,121	-0,028
-282,759	-200,000	-0,016	-0,085
-281,745	800,000	-0,045	-0,125
-280,730	800,000	0,037	-0,100
-279,716	-50,134	-0,087	-0,029
-278,701	800,000	0,042	-0,135
-277,686	86,170	0,096	-0,077
-276,672	-63,233	0,069	0,020
-275,657	-157,921	-0,085	-0,004
-274,643	171,585	0,044	-0,046
-273,628	431,950	0,053	-0,083
-272,613	696,011	0,020	0,039
-271,599	21,641	0,054	-0,032
-270,584	575,902	0,052	0,092
-269,570	114,344	0,082	0,072
-268,555	181,492	-0,043	-0,046
-267,540	-200,000	0,003	0,138
-266,526	294,290	-0,052	0,069
-265,511	-63,946	0,013	0,004
-264,497	-103,288	-0,044	0,007
-263,482	138,670	0,101	0,096
-262,467	-75,861	-0,029	0,007
-261,453	-107,139	-0,192	0,030
-260,438	-1,063	-0,087	0,044
-259,424	-104,348	0,042	0,007
-258,409	584,453	-0,029	-0,051
-257,395	144,337	0,043	0,041
-256,380	-147,155	0,059	-0,004
-255,365	-200,000	-0,012	-0,081
-254,351	152,382	-0,035	0,035
-253,336	-8,281	-0,057	0,028
-252,322	-124,515	-0,052	0,006
-251,307	-94,117	0,190	-0,037
-250,292	-71,345	-0,089	0,024
-249,278	-200,000	-0,001	-0,091
-248,263	116,589	0,084	0,074
-247,249	-152,224	0,031	0,002
-246,234	-156,763	0,106	0,005
-245,219	376,389	0,086	-0,126
-244,205	271,421	0,136	0,173
-243,190	-43,702	-0,073	0,026
-242,176	-96,295	0,138	-0,026
-241,161	41,089	0,050	0,032
-240,146	142,508	-0,020	0,019
-239,132	2,582	0,102	0,053
-238,117	35,896	-0,201	-0,127
-237,103	-90,931	0,046	-0,009
-236,088	159,199	0,019	-0,019
-235,073	728,906	-0,047	0,092
-234,059	-74,862	0,138	-0,035
-233,044	800,000	0,006	0,015
-232,030	213,719	0,086	-0,098
-231,015	579,599	-0,028	0,050
-230,000	-144,714	0,023	-0,002
-228,986	-200,000	-0,002	-0,067
-227,971	800,000	0,017	0,046
-226,957	-78,543	-0,029	-0,007
-225,942	800,000	-0,057	0,146
-224,927	352,620	-0,029	-0,042
-223,913	-181,401	-0,093	0,001
-222,898	525,872	-0,054	-0,092
-221,884	-81,870	0,183	0,043
-220,869	57,653	-0,023	-0,016
-219,855	800,000	0,079	-0,164
-218,840	56,806	-0,128	0,090
-217,825	-182,010	-0,065	-0,001
-216,811	-42,538	-0,026	-0,010
-215,796	44,664	-0,103	-0,068
-214,782	-200,000	-0,010	0,054
-213,767	800,000	0,070	0,143
-212,752	39,300	-0,020	-0,013
-211,738	-160,071	0,101	0,004
-210,723	537,978	-0,048	0,082
-209,709	-200,000	0,001	-0,113
-208,694	705,331	0,042	0,081
-207,679	509,660	0,055	-0,093
-206,665	-54,577	-0,031	0,010
-205,650	-28,929	-0,106	0,044
-204,636	-24,323	0,111	0,047
-203,621	6,588	0,044	0,023
-202,606	-200,000	-0,028	-0,146
-201,592	800,000	-0,049	-0,122
-200,577	-131,430	-0,075	-0,007
-199,563	-200,000	0,034	-0,110
-198,548	-105,871	0,113	-0,018
-197,533	33,354	0,107	0,067
-196,519	800,000	-0,052	0,136
-195,504	77,520	-0,063	-0,048
-194,490	362,577	0,115	-0,167
-193,475	-162,544	-0,025	-0,001
-192,460	-200,000	-0,009	-0,029
-191,446	-200,000	0,026	-0,094
-190,431	800,000	0,026	0,081
-189,417	180,815	-0,043	0,046
-188,402	55,042	-0,028	0,019
-187,387	324,468	-0,076	-0,104
-186,373	-47,353	-0,065	0,023
-185,358	357,060	0,042	-0,060
-184,344	-200,000	-0,027	0,158
-183,329	-200,000	-0,020	0,110
-182,315	-200,000	-0,001	-0,092
-181,300	340,873	0,014	-0,020
-180,285	103,758	-0,045	-0,038
-179,271	-9,023	-0,083	0,040
-178,256	-57,415	-0,109	0,034
-177,242	-200,000	-0,008	0,040
-176,227	-59,901	-0,102	0,031
-175,212	800,000	-0,013	-0,040
-174,198	-115,210	0,083	-0,011
-173,183	-99,526	-0,111	0,020
-172,169	36,549	-0,097	-0,061
-171,154	217,885	-0,052	0,059
-170,139	5,054	0,059	0,031
-169,125	552,445	0,039	-0,068
-168,110	344,532	0,085	0,121
-167,096	-200,000	-0,036	-0,148
-166,081	-38,327	0,106	-0,040
-165,066	607,195	-0,029	-0,053
-164,052	-200,000	0,043	0,179
-163,037	-20,875	-0,071	0,031
-162,023	56,788	0,071	-0,050
-161,008	-99,198	-0,022	0,004
-159,993	65,853	-0,152	0,111
-158,979	302,297	-0,101	-0,135
-157,964	-171,964	0,118	0,003
-156,950	-200,000	-0,000	0,002
-155,935	800,000	0,019	-0,050
-154,920	-68,313	-0,100	0,028
-153,906	82,609	-0,088	0,069
-152,891	-127,071	0,099	0,010
-151,877	156,112	0,098	0,097
-150,862	-56,030	-0,069	-0,022
-149,847	12,139	0,062	-0,034
-148,833	225,522	0,022	0,025
-147,818	98,071	0,077	0,064
-146,804	-53,342	0,145	0,048
-145,789	57,518	-0,052	0,037
-144,775	-130,841	-0,078	-0,007
-143,760	255,843	-0,069	-0,085
-142,745	-200,000	0,000	0,013
-141,731	-200,000	-0,009	-0,042
-140,716	165,382	-0,029	0,030
-139,702	-200,000	-0,002	0,049
-138,687	-200,000	-0,000	0,032
-137,672	178,057	0,070	0,073
-136,658	13,218	-0,066	0,037
-135,643	13,369	0,139	-0,077
-134,629	-200,000	-0,025	-0,087
-133,614	-140,735	-0,013	-0,001
-132,599	42,702	0,055	0,036
-131,585	-161,921	-0,085	0,003
-130,570	-150,761	0,169	0,009
-129,556	120,478	0,067	0,060
-128,541	-67,297	-0,058	0,016
-127,526	-200,000	0,009	0,058
-126,512	-200,000	0,009	0,158
-125,497	-85,067	-0,152	-0,034
-124,483	-200,000	-0,014	-0,072
-123,468	-111,666	-0,049	0,007
-122,453	-24,907	0,088	0,037
-121,439	159,994	-0,021	-0,021
-120,424	24,620	0,111	0,066
-119,410	332,714	-0,031	-0,043
-118,395	-101,273	-0,083	0,014
-117,380	248,996	-0,055	-0,066
-116,366	-161,758	0,090	0,003
-115,351	-200,000	0,019	0,135
-114,337	-200,000	-0,004	-0,165
-113,322	-79,174	0,039	-0,009
-112,307	-68,416	0,093	-0,026
-111,293	-151,358	-0,090	0,005
-110,278	800,000	-0,028	-0,065
-109,264	-76,820	-0,126	-0,031
-108,249	414,843	-0,039	0,060
-107,234	-91,394	0,117	0,024
-106,220	434,394	0,126	-0,197
-105,205	-43,525	0,001	0,000
-104,191	-115,857	0,037	0,005
-103,176	211,782	0,057	-0,065
-102,162	69,874	0,018	-0,013
-101,147	800,000	-0,053	0,168
-100,132	541,958	0,038	0,065
-99,118	61,508	0,060	-0,043
-98,103	83,831	-0,071	0,056
-97,089	-200,000	-0,008	0,052
-96,074	-200,000	-0,008	0,150
-95,059	-200,000	0,022	0,139
-94,045	525,782	-0,040	-0,067
-93,030	-181,974	-0,106	-0,001
-92,016	72,602	0,062	-0,046
-91,001	800,000	0,058	0,136
-89,986	42,033	0,064	0,041
-88,972	31,030	0,175	0,108
-87,957	-200,000	0,018	0,091
-86,943	-54,313	-0,141	-0,045
-85,928	186,370	0,079	-0,084
-84,913	12,417	-0,010	-0,005
-83,899	-200,000	-0,001	0,062
-82,884	165,083	0,080	0,081
-81,870	-3,408	0,027	-0,013
-80,855	295,594	0,067	0,089
-79,840	238,326	-0,049	-0,059
-78,826	239,965	-0,018	0,022
-77,811	-111,775	0,096	0,014
-76,797	18,127	0,028	-0,016
-75,782	-200,000	0,009	-0,054
-74,767	8,664	0,139	0,075
-73,753	596,546	-0,059	0,104
-72,738	-200,000	0,020	0,096
-71,724	380,741	-0,060	-0,089
-70,709	800,000	-0,059	0,121
-69,694	59,451	0,158	0,112
-68,680	800,000	-0,062	0,143
-67,665	217,544	0,070	-0,080
-66,651	-1,633	0,100	0,050
-65,636	-84,389	-0,040	0,009
-64,622	49,941	0,083	0,056
-63,607	336,017	-0,057	-0,079
-62,592	-200,000	-0,012	-0,047
-61,578	469,139	0,062	-0,100
-60,563	-117,611	0,092	0,012
-59,549	170,550	0,043	0,044
-58,534	53,103	-2,140	-1,465
-57,519	-200,000	-0,148	-0,699
-56,505	-200,000	-1,405	-5,248
-55,490	73,043	1,017	0,760
-54,476	800,000	5,336	12,013
-53,461	-200,000	19,035	320,894
-52,446	800,000	741,730	2326,196
-51,432	548,840	1654,920	2850,284
-50,417	109,775	1637,354	1405,476
-49,403	73,438	1287,848	964,211
-48,388	29,481	1029,593	625,314
-47,373	19,601	992,491	570,119
-46,359	16,964	980,252	554,408
-45,344	13,468	976,425	540,753
-44,330	13,821	974,921	541,054
-43,315	13,160	973,023	537,816
-42,300	13,113	971,997	537,074
-41,286	13,134	971,025	536,584
-40,271	13,209	970,256	536,384
-39,257	13,188	969,133	535,673
-38,242	13,110	968,490	535,040
-37,227	13,163	967,549	534,673
-36,213	13,163	966,370	534,001
-35,198	13,104	965,722	533,429
-34,184	13,184	964,891	533,209
-33,169	13,083	964,098	532,423
-32,154	13,153	963,074	532,063
-31,140	13,147	962,240	531,560
-30,125	13,231	961,462	531,381
-29,111	13,141	960,646	530,620
-28,096	13,156	960,017	530,297
-27,082	13,154	959,457	529,963
-26,067	13,199	958,534	529,577
-25,052	13,169	957,816	529,062
-24,038	13,127	957,263	528,600
-23,023	13,147	956,533	528,239
-22,009	13,231	955,781	528,075
-20,994	13,197	955,219	527,633
-19,979	13,161	954,690	527,204
-18,965	13,144	954,164	526,838
-17,950	13,151	953,566	526,509
-16,936	13,064	952,948	525,868
-15,921	13,179	952,027	525,709
-14,906	13,062	951,305	524,916
-13,892	13,089	950,567	524,574
-12,877	13,052	950,136	524,197
-11,863	12,970	949,465	523,542
-10,848	13,052	948,857	523,449
-9,833	13,124	948,395	523,401
-8,819	13,113	947,768	523,000
-7,804	13,090	947,206	522,596
-6,790	13,053	946,371	521,997
-5,775	13,059	945,902	521,737
-4,760	13,051	945,311	521,365
-3,746	13,093	944,686	521,132
-2,731	12,883	944,098	520,120
-1,717	12,851	943,319	519,571
-0,702	12,922	942,573	519,363
0,313	12,645	942,229	519,082
1,327	16,141	939,825	528,755
2,342	25,300	790,075	468,635
3,356	21,292	444,978	257,975
4,371	-7,824	298,199	143,518
5,386	-11,683	280,112	131,110
6,400	-12,990	274,505	127,248
7,415	-13,004	272,048	126,084
8,429	-13,160	270,608	125,261
9,444	-13,240	269,661	124,738
10,459	-13,225	268,968	124,420
11,473	-13,454	268,394	123,934
12,488	-13,498	267,917	123,662
13,502	-13,505	267,311	123,365
14,517	-13,584	266,880	123,083
15,531	-13,468	266,472	122,990
16,546	-13,354	266,115	122,918
17,561	-13,468	265,748	122,634
18,575	-13,139	265,309	122,718
19,590	-13,443	264,982	122,280
20,604	-13,303	264,781	122,304
21,619	-13,542	264,481	121,938
22,634	-13,333	263,976	121,883
23,648	-13,499	263,846	121,662
24,663	-13,555	263,523	121,452
25,677	-13,325	263,078	121,443
26,692	-13,418	262,895	121,265
27,707	-13,611	262,748	121,013
28,721	-13,497	262,339	120,916
29,736	-13,511	262,220	120,838
30,750	-13,611	261,928	120,602
31,765	-13,472	261,616	120,572
32,780	-13,499	261,368	120,423
33,794	-13,520	261,136	120,287
34,809	-13,619	260,891	120,075
35,823	-13,680	260,546	119,852
36,838	-13,516	260,240	119,845
37,853	-13,308	260,010	119,913
38,867	-13,689	259,844	119,488
39,882	-13,415	259,417	119,524
40,896	-13,512	259,362	119,403
41,911	-13,621	259,086	119,168
42,926	-13,492	258,950	119,209
43,940	-13,600	258,724	118,999
44,955	-13,477	258,355	118,927
45,969	-13,708	258,211	118,647
46,984	-13,858	257,843	118,336
47,999	-14,114	257,601	117,989
49,013	-13,953	257,357	118,008
50,028	-14,409	257,176	117,515
51,042	-14,095	256,787	117,601
52,057	-14,409	256,552	117,209
53,071	-14,392	256,394	117,142
54,086	-14,128	256,177	117,262
55,101	-14,249	256,229	117,170
56,115	-13,913	255,939	117,320
57,130	-13,576	255,872	117,571
58,144	-13,394	255,650	117,618
59,159	-13,230	255,473	117,668
60,174	-13,252	255,121	117,477
61,188	-13,236	254,939	117,396
62,203	-13,297	254,720	117,232
63,217	-13,218	254,443	117,163
64,232	-13,461	254,422	116,932
65,247	-13,129	254,122	117,071
66,261	-13,356	253,761	116,698
67,276	-13,352	253,642	116,636
68,290	-13,824	253,328	116,075
69,305	-13,896	253,159	115,925
70,320	-13,950	252,880	115,740
71,334	-13,713	252,823	115,907
72,349	-13,396	252,693	116,110
73,363	-13,189	252,335	116,113
74,378	-13,445	252,206	115,824
75,393	-13,493	251,911	115,638
76,407	-13,286	251,658	115,688
77,422	-13,420	251,655	115,561
78,436	-13,301	251,223	115,454
79,451	-13,344	250,910	115,263
80,466	-13,321	250,631	115,144
81,480	-13,719	250,612	114,786
82,495	-14,014	250,613	114,526
83,509	-13,731	250,263	114,597
84,524	-13,798	250,002	114,409
85,539	-13,963	249,829	114,181
86,553	-13,948	249,559	114,059
87,568	-13,901	249,468	114,047
88,582	-13,632	249,146	114,117
89,597	-13,666	248,968	113,997
90,611	-13,627	248,820	113,952
91,626	-13,421	248,667	114,046
92,641	-13,346	248,547	114,044
93,655	-13,528	248,312	113,772
94,670	-13,585	248,089	113,612
95,684	-13,530	247,762	113,498
96,699	-13,623	247,719	113,391
97,714	-13,826	247,572	113,143
98,728	-13,764	247,361	113,088
99,743	-13,766	247,007	112,914
100,757	-13,848	246,856	112,767
101,772	-13,874	246,665	112,648
102,787	-13,787	246,460	112,617
103,801	-13,613	246,242	112,652
104,816	-13,614	246,225	112,634
105,830	-13,283	246,025	112,808
106,845	-13,356	245,813	112,640
107,860	-13,376	245,813	112,614
108,874	-13,356	245,271	112,372
109,889	-13,607	245,175	112,109
110,903	-13,738	245,058	111,937
111,918	-13,659	244,873	111,908
112,933	-13,763	244,868	111,810
113,947	-13,675	244,614	111,756
114,962	-13,464	244,330	111,792
115,976	-13,500	244,201	111,693
116,991	-13,430	244,026	111,660
118,006	-13,509	243,869	111,513
119,020	-13,688	243,732	111,293
120,035	-13,528	243,538	111,326
121,049	-13,474	243,341	111,271
122,064	-13,516	243,051	111,094
123,079	-13,486	243,040	111,104
124,093	-13,650	242,656	110,783
125,108	-13,669	242,398	110,640
126,122	-13,810	242,257	110,450
127,137	-13,917	241,819	110,153
128,151	-13,808	241,846	110,245
129,166	-13,806	241,650	110,148
130,181	-13,812	241,363	110,002
131,195	-14,088	241,353	109,763
132,210	-13,665	241,133	109,998
133,224	-13,437	241,018	110,121
134,239	-13,608	240,909	109,922
135,254	-13,674	240,628	109,730
136,268	-13,874	240,424	109,465
137,283	-13,878	240,123	109,315
138,297	-14,065	239,961	109,079
139,312	-14,183	239,651	108,833
140,327	-13,464	239,657	109,409
141,341	-13,278	239,567	109,508
142,356	-13,316	239,552	109,461
143,370	-13,099	239,241	109,485
144,385	-12,957	239,117	109,533
145,400	-13,148	238,905	109,272
146,414	-13,067	238,721	109,243
147,429	-13,160	238,531	109,072
148,443	-13,244	238,433	108,950
149,458	-13,305	238,273	108,818
150,473	-13,388	238,069	108,648
151,487	-13,241	237,799	108,633
152,502	-13,102	237,770	108,722
153,516	-13,092	237,554	108,621
154,531	-13,200	237,367	108,440
155,546	-13,267	237,175	108,289
156,560	-13,375	237,054	108,137
157,575	-13,564	236,793	107,858
158,589	-13,229	236,504	107,984
159,604	-13,258	236,568	107,980
160,619	-12,926	236,459	108,186
161,633	-13,109	236,320	107,966
162,648	-13,144	236,159	107,856
163,662	-13,279	235,925	107,631
164,677	-13,245	235,742	107,565
165,692	-13,483	235,659	107,328
166,706	-13,139	235,494	107,517
167,721	-13,011	235,194	107,472
168,735	-12,994	235,146	107,454
169,750	-13,075	235,108	107,363
170,764	-13,263	234,916	107,117
171,779	-13,287	234,653	106,969
172,794	-13,048	234,457	107,058
173,808	-13,345	234,226	106,709
174,823	-13,630	233,906	106,329
175,837	-13,862	233,843	106,108
176,852	-13,447	233,717	106,368
177,867	-13,272	233,663	106,472
178,881	-13,183	233,498	106,457
179,896	-13,200	233,336	106,361
180,910	-13,289	233,379	106,301
181,925	-13,101	233,102	106,313
182,940	-13,161	232,854	106,143
183,954	-13,297	232,925	106,059
184,969	-12,795	232,620	106,304
185,983	-12,909	232,441	106,124
186,998	-13,028	232,439	106,020
188,013	-12,884	232,049	105,945
189,027	-12,810	231,963	105,954
190,042	-12,928	231,851	105,802
191,056	-12,814	231,530	105,734
192,071	-13,087	231,568	105,530
193,086	-12,760	231,343	105,672
194,100	-12,974	231,154	105,410
195,115	-13,337	230,843	104,977
196,129	-13,006	230,973	105,284
197,144	-7,600	232,666	110,271
198,159	-2,349	234,239	115,128
199,173	1,978	235,694	119,240
200,188	3,019	235,633	120,016
201,202	2,811	235,513	119,781
202,217	2,734	235,490	119,698
203,232	3,113	235,204	119,839
204,246	3,400	234,985	119,941
205,261	3,131	235,022	119,739
206,275	3,497	234,852	119,928
207,290	3,135	234,815	119,615
208,304	3,262	234,549	119,568
209,319	3,249	234,426	119,485
210,334	3,112	234,161	119,232
211,348	3,243	233,919	119,201
212,363	2,782	233,644	118,691
213,377	2,361	233,552	118,306
214,392	2,250	233,429	118,148
215,407	2,714	233,100	118,330
216,421	2,809	233,008	118,346
217,436	2,711	232,945	118,228
218,450	2,106	232,726	117,637
219,465	2,092	232,499	117,502
220,480	2,266	232,413	117,582
221,494	2,307	232,320	117,557
222,509	2,556	232,238	117,697
223,523	2,681	232,016	117,670
224,538	2,426	231,864	117,386
225,553	2,651	231,577	117,404
226,567	2,601	231,557	117,344
227,582	2,897	231,433	117,499
228,596	2,892	231,263	117,399
229,611	2,707	231,175	117,201
230,626	2,539	230,716	116,829
231,640	2,418	230,785	116,761
232,655	2,729	230,626	116,908
233,669	2,918	230,635	117,047
234,684	2,936	230,513	116,989
235,699	2,877	230,344	116,847
236,713	2,723	229,993	116,541
237,728	2,649	229,813	116,383
238,742	2,390	229,646	116,091
239,757	2,608	229,584	116,215
240,772	2,511	229,249	115,961
241,786	2,590	229,311	116,043
242,801	2,691	229,172	116,039
243,815	2,967	229,103	116,203
244,830	3,199	229,012	116,323
245,844	2,754	228,639	115,786
246,859	2,528	228,518	115,543
247,874	2,800	228,297	115,627
248,888	2,876	228,255	115,653
249,903	2,631	228,266	115,463
250,917	2,427	228,040	115,183
251,932	2,380	227,893	115,063
252,947	2,431	227,475	114,880
253,961	2,302	227,432	114,751
254,976	2,679	227,231	114,924
255,990	2,791	227,187	114,975
257,005	2,932	227,232	115,095
258,020	2,672	226,989	114,765
259,034	2,914	226,800	114,841
260,049	2,814	226,728	114,720
261,063	2,600	226,640	114,504
262,078	2,960	226,414	114,650
263,093	3,095	226,251	114,659
264,107	2,734	226,179	114,341
265,122	2,943	225,956	114,374
266,136	3,173	225,797	114,456
267,151	3,178	225,625	114,362
268,166	2,730	225,503	113,956
269,180	2,371	225,279	113,564
270,195	2,499	225,028	113,523
271,209	2,440	224,890	113,400
272,224	2,744	224,899	113,620
273,239	2,547	224,753	113,390
274,253	2,609	224,641	113,369
275,268	2,471	224,349	113,109
276,282	2,032	224,355	112,776
277,297	2,214	223,935	112,690
278,312	2,499	224,034	112,941
279,326	2,672	223,871	112,977
280,341	2,672	223,715	112,888
281,355	2,572	223,691	112,791
282,370	2,621	223,468	112,706
283,384	2,458	223,226	112,453
284,399	2,236	223,111	112,222
285,414	2,484	222,947	112,312
286,428	2,435	223,048	112,316
287,443	2,478	222,800	112,213
288,457	2,619	222,676	112,245
289,472	2,579	222,333	112,033
290,487	2,325	222,138	111,737
291,501	2,228	221,946	111,560
292,516	2,389	221,954	111,672
293,530	2,254	221,921	111,546
294,545	2,260	221,585	111,372
295,560	2,606	221,574	111,610
296,574	2,626	221,422	111,538
297,589	2,560	221,202	111,369
298,603	2,745	221,173	111,479
299,618	2,710	221,019	111,367
300,633	2,627	221,038	111,305
301,647	2,967	220,876	111,462
302,662	3,011	220,685	111,388
303,676	2,843	220,497	111,161
304,691	2,941	220,272	111,109
305,706	2,807	220,193	110,962
306,720	2,620	220,125	110,781
307,735	2,489	219,673	110,449
308,749	2,308	219,733	110,337
309,764	2,552	219,695	110,486
310,779	3,013	219,403	110,663
311,793	2,936	219,351	110,572
312,808	2,844	219,147	110,392
313,822	2,684	218,940	110,162
314,837	2,458	218,917	109,978
315,852	2,354	218,701	109,785
316,866	2,664	218,630	109,963
317,881	2,828	218,513	110,012
318,895	2,866	218,378	109,962
319,910	2,476	218,083	109,523
320,925	2,288	217,924	109,298
321,939	1,968	217,791	108,991
322,954	2,264	217,737	109,167
323,968	2,447	217,800	109,321
324,983	2,915	217,521	109,507
325,997	2,829	217,433	109,391
327,012	2,838	217,250	109,296
328,027	2,655	217,140	109,100
329,041	3,042	217,079	109,336
330,056	3,008	216,924	109,224
331,070	2,457	216,849	108,783
332,085	2,274	216,575	108,505
333,100	2,424	216,502	108,566
334,114	2,433	216,408	108,515
335,129	2,869	216,185	108,704
336,143	2,535	215,806	108,266
337,158	2,469	215,700	108,157
338,173	2,421	215,576	108,051
339,187	2,473	215,429	108,004
340,202	2,554	215,514	108,095
341,216	2,600	215,334	108,028
342,231	2,763	215,017	107,975
343,246	2,478	215,009	107,759
344,260	2,482	215,009	107,752
345,275	2,707	214,916	107,856
346,289	2,842	214,703	107,834
347,304	2,731	214,577	107,683
348,319	2,260	214,472	107,288
349,333	2,492	214,192	107,302
350,348	2,661	214,210	107,420
351,362	2,959	214,068	107,549
352,377	2,874	214,003	107,448
353,392	2,647	213,795	107,173
354,406	2,792	213,642	107,190
355,421	197,335	1313,731	1392,510
356,435	157,899	1447,695	1392,432
