DTS Sentinel unit serial number:	SN410029Multiplexer serial number:	ORYXHardware model number:	OX2-SRSoftware version number:	ORYX F/W v4,00 Oryx Data Collector v3.7.2.0data status	okinstallation	B6 Nyhavnadifferential loss correction	single-endedforward channel	channel 2reverse channel	N/Adate	2023/12/11time	04:50:08forward acquisition time	300,00reverse acquisition time	0,00gamma	499,1914k internal	0,3126k external	0,3126temperature offset calibration	1,0000default loss term (dB/km)	0,3820temperature slope calibration	1,0000multiplexer offset coefficient	1,0000multiplexer slope coefficient	1,0000fibre end	0,00T internal ref (°C)	20,32T ext. ref 1 (°C)	3,13T ext. ref 2 (°C)	3,13length (m)	temperature (°C)	Stokes	anti-Stokes-744,400	-200,000	-0,028	-0,116
-743,385	-124,627	-0,266	0,030
-742,371	50,280	0,116	0,081
-741,356	-86,644	-0,181	-0,041
-740,342	9,686	0,035	0,020
-739,327	-72,675	-0,102	0,028
-738,312	-172,201	0,105	0,002
-737,298	-57,603	-0,253	0,082
-736,283	800,000	0,021	-0,058
-735,269	26,762	-0,129	0,080
-734,254	28,390	-0,062	-0,039
-733,239	-105,624	-0,407	-0,068
-732,225	-48,060	0,165	0,059
-731,210	-89,826	0,108	0,023
-730,196	13,817	0,054	-0,031
-729,181	800,000	0,086	0,181
-728,167	-45,140	-0,078	0,029
-727,152	-122,811	0,045	-0,005
-726,137	800,000	0,041	-0,116
-725,123	113,630	0,101	-0,091
-724,108	-200,000	0,005	-0,104
-723,094	-21,896	-0,136	-0,061
-722,079	-200,000	-0,035	-0,134
-721,064	-125,819	0,073	0,008
-720,050	800,000	-0,039	0,108
-719,035	-22,483	-0,034	0,015
-718,021	-133,978	-0,212	0,019
-717,006	-61,721	-0,115	-0,036
-715,991	6,982	-0,131	-0,072
-714,977	413,187	-0,062	-0,099
-713,962	105,311	-0,078	-0,068
-712,948	-72,882	-0,058	-0,016
-711,933	800,000	-0,019	0,046
-710,918	145,535	0,135	-0,134
-709,904	306,822	-0,040	-0,055
-708,889	-200,000	0,002	-0,029
-707,875	-120,098	-0,072	-0,009
-706,860	377,715	-0,027	-0,040
-705,845	358,984	-0,025	0,037
-704,831	102,124	0,089	0,078
-703,816	106,068	-0,104	0,092
-702,802	800,000	-0,040	0,085
-701,787	153,079	-0,044	0,045
-700,772	-200,000	0,008	-0,053
-699,758	266,041	-0,015	-0,019
-698,743	-6,396	-0,074	0,037
-697,729	800,000	0,034	0,083
-696,714	-101,977	0,100	-0,018
-695,699	-2,139	-0,106	-0,055
-694,685	-200,000	-0,002	-0,056
-693,670	673,827	0,045	-0,088
-692,656	588,729	-0,045	0,084
-691,641	800,000	0,010	0,021
-690,627	192,357	0,017	-0,019
-689,612	-200,000	0,034	0,141
-688,597	800,000	0,024	-0,076
-687,583	-200,000	-0,012	0,068
-686,568	-82,254	0,052	0,012
-685,554	274,260	-0,129	0,171
-684,539	-112,101	-0,022	0,003
-683,524	800,000	0,061	0,145
-682,510	256,921	0,065	0,083
-681,495	129,469	-0,113	0,107
-680,481	44,661	-0,007	0,005
-679,466	2,900	-0,100	-0,054
-678,451	654,433	-0,067	-0,128
-677,437	-200,000	-0,001	0,013
-676,422	-200,000	-0,018	-0,080
-675,408	800,000	0,025	0,055
-674,393	-143,423	0,046	0,003
-673,378	117,314	-0,107	0,097
-672,364	800,000	0,046	-0,117
-671,349	46,063	-0,095	-0,065
-670,335	-104,731	0,119	0,020
-669,320	35,380	0,033	-0,022
-668,305	46,713	0,092	0,063
-667,291	265,817	-0,068	-0,089
-666,276	61,028	0,054	-0,040
-665,262	11,825	-0,043	0,025
-664,247	800,000	0,012	-0,039
-663,232	770,413	-0,054	-0,110
-662,218	-200,000	-0,005	0,030
-661,203	-200,000	0,010	-0,059
-660,189	258,195	-0,036	-0,046
-659,174	11,561	-0,015	0,009
-658,159	150,099	-0,130	-0,131
-657,145	3,575	-0,047	-0,025
-656,130	78,220	0,064	-0,051
-655,116	24,132	-0,066	0,040
-654,101	-200,000	0,029	-0,118
-653,086	397,794	0,050	-0,077
-652,072	15,690	-0,088	-0,051
-651,057	-71,446	-0,121	-0,033
-650,043	800,000	0,046	-0,121
-649,028	800,000	-0,079	0,171
-648,014	-110,537	-0,104	0,016
-646,999	800,000	0,015	-0,036
-645,984	800,000	-0,007	-0,018
-644,970	-104,732	-0,048	0,008
-643,955	34,665	-0,163	-0,105
-642,941	134,960	0,052	0,050
-641,926	614,274	-0,054	-0,101
-640,911	20,488	0,064	-0,038
-639,897	84,453	-0,032	-0,026
-638,882	95,905	0,022	-0,019
-637,868	753,897	0,022	0,044
-636,853	119,874	-0,148	-0,136
-635,838	168,883	-0,026	0,028
-634,824	-70,316	0,033	-0,009
-633,809	-37,714	0,067	0,026
-632,795	317,445	-0,043	-0,061
-631,780	384,937	-0,020	0,030
-630,765	3,052	-0,107	-0,057
-629,751	59,504	-0,083	0,061
-628,736	585,765	-0,047	0,087
-627,722	800,000	0,055	0,122
-626,707	-132,723	-0,022	-0,002
-625,692	370,799	-0,030	-0,046
-624,678	-200,000	0,002	-0,107
-623,663	6,878	-0,072	-0,040
-622,649	8,758	0,073	-0,041
-621,634	371,467	-0,078	-0,117
-620,619	1,339	-0,090	-0,048
-619,605	116,106	-0,092	0,084
-618,590	140,263	0,035	-0,035
-617,576	-110,348	0,138	-0,021
-616,561	150,406	-0,055	-0,056
-615,546	460,999	-0,018	-0,030
-614,532	-189,150	0,077	-0,001
-613,517	140,336	-0,099	0,096
-612,503	17,164	0,023	0,013
-611,488	-200,000	0,004	-0,019
-610,474	800,000	0,012	-0,036
-609,459	-45,248	0,033	0,012
-608,444	-137,576	-0,043	-0,004
-607,430	543,622	0,035	-0,062
-606,415	-200,000	-0,005	-0,115
-605,401	-140,488	-0,033	0,002
-604,386	800,000	0,033	-0,097
-603,371	-138,052	0,065	-0,005
-602,357	445,673	0,059	-0,096
-601,342	-200,000	-0,044	-0,216
-600,328	-200,000	0,012	-0,070
-599,313	-62,332	-0,028	-0,009
-598,298	308,625	-0,057	0,079
-597,284	800,000	0,022	0,055
-596,269	282,475	-0,037	0,049
-595,255	-11,088	0,125	-0,061
-594,240	-98,751	-0,105	0,020
-593,225	-200,000	0,014	0,114
-592,211	355,266	-0,076	0,112
-591,196	-200,000	0,011	-0,062
-590,182	-200,000	-0,015	0,054
-589,167	653,801	0,026	0,049
-588,152	-35,133	-0,166	0,067
-587,138	-161,423	-0,072	0,003
-586,123	-48,182	-0,106	0,038
-585,109	-26,828	-0,114	-0,049
-584,094	800,000	-0,017	-0,054
-583,079	194,265	-0,023	-0,026
-582,065	800,000	0,036	0,101
-581,050	397,886	-0,034	0,053
-580,036	-200,000	-0,026	0,124
-579,021	-23,259	-0,111	-0,049
-578,006	57,345	-0,073	0,053
-576,992	-200,000	0,009	0,036
-575,977	555,703	-0,029	-0,052
-574,963	-200,000	0,029	-0,127
-573,948	-200,000	0,021	-0,101
-572,934	553,179	0,096	-0,171
-571,919	800,000	0,055	-0,136
-570,904	-90,733	-0,022	0,005
-569,890	-9,303	-0,059	-0,029
-568,875	227,074	0,003	0,004
-567,861	-135,581	0,058	0,005
-566,846	280,257	0,027	-0,036
-565,831	-53,052	0,001	-0,000
-564,817	800,000	-0,037	-0,088
-563,802	-3,634	-0,078	-0,040
-562,788	-91,222	-0,071	-0,015
-561,773	-13,309	0,084	-0,040
-560,758	800,000	-0,081	-0,193
-559,744	800,000	-0,068	-0,175
-558,729	-122,938	0,066	-0,008
-557,715	800,000	-0,046	-0,142
-556,700	694,396	0,007	-0,013
-555,685	800,000	-0,042	-0,098
-554,671	-196,068	-0,107	-0,001
-553,656	-200,000	0,005	0,095
-552,642	-55,459	0,103	0,034
-551,627	310,353	0,059	0,082
-550,612	-87,115	-0,064	0,014
-549,598	-200,000	0,010	-0,119
-548,583	-38,574	-0,041	0,016
-547,569	-12,169	0,041	0,020
-546,554	341,462	-0,050	0,072
-545,539	206,719	-0,036	0,042
-544,525	-200,000	-0,001	-0,127
-543,510	480,412	-0,084	-0,142
-542,496	800,000	0,018	0,040
-541,481	-200,000	-0,014	-0,050
-540,466	-41,013	0,075	-0,029
-539,452	183,380	0,017	0,018
-538,437	-200,000	0,007	0,080
-537,423	381,457	-0,018	-0,028
-536,408	274,376	0,068	0,090
-535,393	-110,661	-0,025	-0,004
-534,379	800,000	-0,035	0,085
-533,364	-174,701	-0,094	0,002
-532,350	-200,000	0,005	0,030
-531,335	4,727	0,030	0,016
-530,321	12,870	0,111	-0,063
-529,306	273,267	0,042	-0,055
-528,291	-200,000	0,012	0,083
-527,277	-200,000	-0,003	0,043
-526,262	558,326	-0,067	-0,120
-525,248	800,000	-0,022	0,051
-524,233	722,098	0,021	-0,042
-523,218	-200,000	-0,035	0,148
-522,204	-200,000	0,033	0,130
-521,189	186,982	-0,036	-0,039
-520,175	800,000	0,013	-0,029
-519,160	250,404	-0,076	-0,095
-518,145	-112,247	-0,116	-0,017
-517,131	-39,595	0,190	-0,073
-516,116	800,000	0,023	0,074
-515,102	-200,000	-0,003	0,065
-514,087	116,092	0,055	0,050
-513,072	-200,000	-0,002	-0,043
-512,058	202,681	-0,043	-0,049
-511,043	264,262	-0,094	0,121
-510,029	-70,072	0,091	-0,025
-509,014	264,984	-0,038	0,049
-507,999	-200,000	0,020	-0,101
-506,985	-200,000	0,042	-0,189
-505,970	-77,790	-0,036	-0,009
-504,956	62,057	-0,056	-0,041
-503,941	368,937	0,058	0,087
-502,926	-48,884	0,149	0,053
-501,912	-199,937	0,121	-0,000
-500,897	800,000	0,062	-0,129
-499,883	606,359	-0,047	-0,087
-498,868	-200,000	0,004	-0,049
-497,853	-200,000	-0,023	-0,104
-496,839	-31,376	0,120	0,049
-495,824	800,000	0,029	0,074
-494,810	800,000	0,026	0,053
-493,795	-36,300	0,056	0,022
-492,781	18,955	0,051	0,030
-491,766	361,638	-0,037	-0,055
-490,751	-200,000	0,010	-0,036
-489,737	-132,808	0,005	-0,000
-488,722	-200,000	0,036	0,133
-487,708	-89,150	-0,136	-0,029
-486,693	-200,000	-0,016	0,119
-485,678	-200,000	-0,029	0,117
-484,664	302,476	-0,022	-0,030
-483,649	-160,936	-0,094	-0,004
-482,635	-200,000	0,008	-0,027
-481,620	800,000	-0,066	0,197
-480,605	-93,651	0,025	0,005
-479,591	305,154	0,063	0,086
-478,576	43,723	-0,044	0,030
-477,562	-200,000	-0,010	-0,078
-476,547	-92,735	-0,058	-0,012
-475,532	76,138	-0,083	0,065
-474,518	-147,056	0,095	0,006
-473,503	179,022	-0,085	0,092
-472,489	251,070	0,050	-0,063
-471,474	800,000	-0,030	-0,090
-470,459	-3,021	-0,065	0,033
-469,445	-200,000	0,002	0,053
-468,430	800,000	-0,057	-0,147
-467,416	-157,519	-0,047	0,002
-466,401	245,226	0,062	-0,076
-465,386	6,130	0,138	-0,075
-464,372	-49,839	-0,081	-0,028
-463,357	21,906	-0,059	-0,035
-462,343	-200,000	-0,035	-0,137
-461,328	-13,259	0,085	0,040
-460,313	213,761	0,033	-0,038
-459,299	58,237	-0,075	0,054
-458,284	800,000	0,029	-0,085
-457,270	800,000	-0,072	-0,211
-456,255	286,821	-0,048	0,064
-455,241	-200,000	-0,031	-0,152
-454,226	-76,016	-0,073	0,019
-453,211	-200,000	0,013	0,051
-452,197	-200,000	0,049	0,242
-451,182	-67,610	-0,076	0,022
-450,168	-200,000	0,016	-0,055
-449,153	791,769	0,019	0,038
-448,138	-200,000	-0,015	-0,160
-447,124	800,000	0,024	0,073
-446,109	-200,000	-0,006	0,053
-445,095	-200,000	0,008	-0,043
-444,080	-200,000	-0,007	0,091
-443,065	-155,039	0,034	-0,002
-442,051	-4,143	-0,094	0,048
-441,036	-200,000	0,013	-0,052
-440,022	-16,837	0,050	0,023
-439,007	-23,318	0,127	-0,056
-437,992	65,192	0,067	-0,050
-436,978	-200,000	-0,004	0,111
-435,963	-111,617	0,056	-0,008
-434,949	232,486	-0,065	0,079
-433,934	-200,000	0,029	-0,105
-432,919	36,198	-0,175	-0,113
-431,905	-200,000	0,009	0,104
-430,890	800,000	-0,020	0,043
-429,876	-105,775	0,123	-0,020
-428,861	692,337	0,033	-0,063
-427,846	-155,441	-0,023	0,001
-426,832	280,272	-0,121	-0,160
-425,817	-200,000	0,004	-0,025
-424,803	-85,759	0,011	-0,003
-423,788	-200,000	-0,022	-0,175
-422,773	327,186	-0,045	-0,063
-421,759	-200,000	0,001	0,009
-420,744	-200,000	0,003	-0,064
-419,730	5,398	-0,157	0,085
-418,715	585,506	-0,072	0,130
-417,701	-55,205	-0,047	-0,016
-416,686	800,000	0,053	0,134
-415,671	800,000	0,034	0,088
-414,657	-178,514	-0,136	0,002
-413,642	36,768	0,079	0,051
-412,628	-153,402	-0,075	0,004
-411,613	-16,515	-0,107	-0,050
-410,598	119,886	0,040	-0,037
-409,584	-118,608	-0,151	-0,019
-408,569	-44,674	0,143	0,052
-407,555	-128,980	0,045	-0,005
-406,540	47,244	-0,074	0,051
-405,525	740,412	-0,035	0,069
-404,511	720,758	-0,083	-0,162
-403,496	10,402	-0,072	0,040
-402,482	750,054	-0,038	-0,075
-401,467	-29,462	0,098	0,041
-400,452	-200,000	-0,004	0,191
-399,438	-165,335	0,102	0,003
-398,423	193,597	-0,083	-0,092
-397,409	-72,793	-0,083	-0,022
-396,394	-200,000	0,036	-0,145
-395,379	-29,956	-0,066	-0,028
-394,365	-115,166	0,042	-0,006
-393,350	646,621	0,105	-0,197
-392,336	-200,000	0,026	0,172
-391,321	800,000	0,025	-0,062
-390,306	177,451	0,062	-0,067
-389,292	-200,000	-0,005	0,073
-388,277	800,000	0,015	-0,033
-387,263	556,100	-0,056	0,099
-386,248	-98,242	0,021	-0,004
-385,233	-123,944	-0,080	0,009
-384,219	-200,000	0,018	0,064
-383,204	-51,804	-0,125	-0,042
-382,190	-200,000	0,033	-0,142
-381,175	242,481	0,055	0,068
-380,160	293,679	0,006	-0,008
-379,146	50,727	0,108	-0,075
-378,131	-14,608	0,112	0,053
-377,117	246,366	-0,021	-0,026
-376,102	800,000	0,019	0,049
-375,088	179,292	0,012	0,013
-374,073	-16,581	0,104	0,048
-373,058	-147,373	0,164	0,010
-372,044	71,988	0,050	-0,038
-371,029	3,609	-0,116	0,062
-370,015	238,454	0,078	0,095
-369,000	745,617	-0,045	-0,089
-367,985	-91,271	-0,186	0,039
-366,971	800,000	0,029	-0,059
-365,956	244,342	0,066	-0,082
-364,942	800,000	-0,060	0,132
-363,927	10,325	-0,042	0,023
-362,912	800,000	0,031	0,064
-361,898	771,446	-0,052	0,104
-360,883	799,513	-0,014	0,029
-359,869	629,962	-0,021	-0,040
-358,854	690,453	-0,025	0,049
-357,839	-103,805	0,083	0,014
-356,825	800,000	0,047	0,102
-355,810	506,614	-0,018	-0,031
-354,796	10,537	-0,094	-0,052
-353,781	-49,470	-0,116	0,040
-352,766	-74,544	0,067	-0,018
-351,752	-200,000	0,056	0,186
-350,737	214,332	-0,046	0,053
-349,723	-24,450	0,133	0,058
-348,708	392,068	-0,011	0,016
-347,693	321,972	0,049	-0,068
-346,679	-11,439	-0,042	0,020
-345,664	-200,000	0,024	0,105
-344,650	800,000	-0,009	-0,019
-343,635	800,000	0,017	0,048
-342,620	530,317	0,147	0,255
-341,606	33,792	0,036	-0,023
-340,591	-8,297	0,049	0,024
-339,577	-200,000	0,005	0,026
-338,562	-200,000	0,008	-0,053
-337,548	-113,687	-0,074	0,010
-336,533	12,435	0,119	-0,067
-335,518	-200,000	-0,006	-0,039
-334,504	-37,184	0,079	-0,031
-333,489	-200,000	-0,017	-0,192
-332,475	-96,433	0,063	-0,012
-331,460	96,015	-0,067	-0,056
-330,445	-78,149	0,064	-0,016
-329,431	-183,506	0,096	0,001
-328,416	39,087	0,091	-0,060
-327,402	-200,000	0,010	-0,050
-326,387	-53,447	0,030	-0,010
-325,372	800,000	0,056	0,162
-324,358	140,128	0,192	0,186
-323,343	15,583	0,075	0,043
-322,329	-200,000	-0,053	0,211
-321,314	-200,000	0,000	0,101
-320,299	28,856	0,014	0,009
-319,285	-14,431	0,151	0,071
-318,270	292,760	-0,013	0,017
-317,256	-32,156	0,072	-0,029
-316,241	-107,412	-0,073	0,012
-315,226	247,591	0,075	0,093
-314,212	490,263	-0,025	0,042
-313,197	-163,922	-0,026	0,001
-312,183	-152,341	0,162	0,008
-311,168	800,000	0,014	-0,031
-310,153	-200,000	0,005	0,056
-309,139	126,390	0,058	-0,053
-308,124	-17,021	0,042	-0,019
-307,110	-200,000	0,013	0,058
-306,095	382,928	0,072	0,109
-305,080	67,895	-0,084	0,063
-304,066	242,434	-0,017	0,020
-303,051	-200,000	-0,016	0,093
-302,037	-22,074	0,049	0,021
-301,022	-200,000	-0,003	0,025
-300,008	-124,191	0,074	-0,008
-298,993	-200,000	0,007	-0,122
-297,978	493,499	-0,057	-0,097
-296,964	-121,730	-0,097	0,012
-295,949	800,000	0,048	-0,140
-294,935	-200,000	-0,014	-0,139
-293,920	800,000	-0,044	0,114
-292,905	-200,000	-0,010	0,170
-291,891	76,103	-0,023	0,018
-290,876	562,466	0,044	-0,078
-289,862	160,543	-0,090	0,092
-288,847	-200,000	-0,033	-0,216
-287,832	-200,000	-0,005	-0,019
-286,818	61,535	0,094	-0,069
-285,803	146,038	0,095	-0,094
-284,789	-200,000	0,003	0,109
-283,774	800,000	-0,021	0,059
-282,759	-200,000	-0,013	-0,047
-281,745	-70,527	-0,166	0,046
-280,730	-200,000	0,006	0,140
-279,716	31,395	-0,046	0,029
-278,701	-82,578	0,148	-0,035
-277,686	6,139	0,127	-0,068
-276,672	-200,000	0,002	0,151
-275,657	592,303	0,041	0,074
-274,643	800,000	0,046	-0,127
-273,628	-81,660	-0,087	0,021
-272,613	-200,000	-0,011	0,160
-271,599	-13,874	-0,052	0,024
-270,584	-200,000	-0,001	-0,028
-269,570	-55,730	0,114	0,037
-268,555	633,263	0,039	-0,072
-267,540	-200,000	0,005	-0,020
-266,526	53,052	-0,080	-0,056
-265,511	-200,000	0,018	-0,087
-264,497	800,000	-0,023	0,066
-263,482	373,061	-0,024	0,036
-262,467	-200,000	-0,006	0,127
-261,453	-130,954	0,108	-0,010
-260,438	50,511	-0,169	-0,117
-259,424	-130,404	-0,128	-0,013
-258,409	-200,000	0,010	-0,166
-257,395	-200,000	0,016	0,120
-256,380	800,000	0,044	0,129
-255,365	800,000	-0,013	0,028
-254,351	69,405	0,041	0,031
-253,336	800,000	0,015	-0,034
-252,322	-200,000	0,022	-0,185
-251,307	-200,000	0,015	-0,054
-250,292	187,222	-0,055	0,060
-249,278	223,066	0,144	-0,170
-248,263	-3,193	0,122	0,062
-247,249	111,537	-0,034	0,030
-246,234	37,479	-0,091	-0,059
-245,219	224,650	0,057	-0,068
-244,205	-200,000	0,000	-0,001
-243,190	168,975	-0,018	0,019
-242,176	-200,000	0,012	-0,039
-241,161	75,745	0,072	-0,055
-240,146	-200,000	-0,013	0,108
-239,132	283,110	0,033	0,044
-238,117	-200,000	0,037	-0,142
-237,103	-15,397	-0,106	0,049
-236,088	-63,243	-0,094	0,028
-235,073	592,236	0,044	0,080
-234,059	-200,000	-0,004	0,026
-233,044	-200,000	-0,005	-0,124
-232,030	-165,814	-0,081	0,002
-231,015	800,000	-0,041	0,093
-230,000	-200,000	0,015	-0,069
-228,986	-86,643	-0,047	-0,010
-227,971	-200,000	0,006	0,104
-226,957	58,618	-0,052	0,037
-225,942	-200,000	-0,011	0,139
-224,927	800,000	-0,031	-0,090
-223,913	-22,302	0,087	0,038
-222,898	-71,499	-0,090	0,024
-221,884	-200,000	-0,040	-0,152
-220,869	63,006	-0,034	-0,025
-219,855	302,066	0,084	0,113
-218,840	800,000	-0,014	-0,035
-217,825	-68,533	0,048	0,013
-216,811	434,653	0,042	0,067
-215,796	-200,000	0,003	-0,135
-214,782	-165,060	-0,089	-0,003
-213,767	-74,026	0,058	-0,015
-212,752	-22,426	-0,103	0,045
-211,738	-69,761	0,161	0,044
-210,723	800,000	-0,030	0,062
-209,709	616,853	-0,040	-0,074
-208,694	107,217	-0,056	-0,049
-207,679	800,000	0,007	-0,021
-206,665	-200,000	-0,005	-0,054
-205,650	77,368	0,049	-0,038
-204,636	-158,432	-0,033	0,001
-203,621	-65,246	-0,034	0,010
-202,606	-106,835	0,112	0,018
-201,592	-200,000	-0,008	-0,131
-200,577	-200,000	-0,012	-0,139
-199,563	62,214	-0,082	0,060
-198,548	800,000	0,037	-0,088
-197,533	-134,562	-0,053	0,005
-196,519	152,123	-0,106	0,105
-195,504	169,812	0,081	0,084
-194,490	-179,529	0,091	-0,001
-193,475	582,900	0,071	0,127
-192,460	88,694	0,121	-0,098
-191,446	230,732	0,031	-0,037
-190,431	800,000	-0,045	0,105
-189,417	270,389	0,018	-0,023
-188,402	126,653	0,058	-0,053
-187,387	-200,000	0,029	0,106
-186,373	800,000	-0,025	0,066
-185,358	-200,000	-0,020	-0,107
-184,344	120,306	0,099	0,089
-183,329	54,870	-0,084	0,059
-182,315	-200,000	0,007	0,104
-181,300	292,663	0,021	0,028
-180,285	51,426	0,012	-0,008
-179,271	-17,496	0,083	-0,038
-178,256	-47,896	-0,126	-0,044
-177,242	24,737	0,122	-0,073
-176,227	222,000	-0,027	-0,032
-175,212	-200,000	-0,004	0,097
-174,198	-97,580	0,039	0,007
-173,183	-200,000	-0,007	0,049
-172,169	-200,000	0,014	0,133
-171,154	-117,263	0,026	-0,003
-170,139	44,564	0,097	-0,065
-169,125	800,000	-0,028	-0,070
-168,110	-57,192	0,083	0,026
-167,096	-200,000	0,007	0,090
-166,081	784,584	0,046	0,092
-165,066	800,000	-0,011	0,030
-164,052	720,113	-0,030	0,059
-163,037	-180,211	-0,007	-0,000
-162,023	-86,515	0,175	0,039
-161,008	-50,398	-0,094	0,032
-159,993	800,000	-0,077	-0,166
-158,979	52,315	0,065	0,045
-157,964	-200,000	-0,007	0,151
-156,950	134,824	0,061	0,058
-155,935	-164,401	0,029	0,001
-154,920	800,000	-0,025	0,074
-153,906	-200,000	0,003	-0,012
-152,891	266,246	0,070	-0,089
-151,877	-200,000	0,014	0,088
-150,862	-200,000	-0,006	-0,069
-149,847	-200,000	0,032	-0,178
-148,833	-153,195	0,080	0,004
-147,818	-200,000	0,006	0,082
-146,804	800,000	-0,028	-0,073
-145,789	270,604	0,039	0,050
-144,775	240,791	-0,124	-0,150
-143,760	435,495	-0,015	0,023
-142,745	171,653	-0,064	0,067
-141,731	216,559	0,057	0,067
-140,716	93,041	0,119	0,098
-139,702	-24,206	0,020	0,009
-138,687	-126,488	0,075	-0,008
-137,672	-200,000	-0,011	-0,056
-136,658	13,551	-0,027	-0,015
-135,643	46,741	-0,043	-0,029
-134,629	-161,664	-0,092	-0,003
-133,614	-52,239	-0,139	0,046
-132,599	193,036	-0,029	-0,032
-131,585	9,313	-0,046	0,025
-130,570	189,806	0,019	0,020
-129,556	332,921	0,059	-0,083
-128,541	65,994	-0,123	-0,090
-127,526	11,085	-0,104	-0,058
-126,512	-200,000	-0,004	-0,061
-125,497	123,096	0,036	-0,033
-124,483	-44,310	0,075	0,027
-123,468	278,035	-0,034	-0,045
-122,453	31,620	0,104	-0,065
-121,439	800,000	0,017	0,040
-120,424	-200,000	-0,026	-0,155
-119,410	119,956	0,111	0,100
-118,395	445,905	0,080	0,128
-117,380	-200,000	-0,001	-0,108
-116,366	-147,966	0,056	-0,003
-115,351	-116,099	0,042	-0,006
-114,337	800,000	0,011	-0,033
-113,322	-200,000	-0,014	0,091
-112,307	92,990	0,093	0,077
-111,293	-200,000	0,023	0,117
-110,278	389,112	0,039	-0,059
-109,264	-21,407	-0,083	0,037
-108,249	-69,933	-0,062	0,017
-107,234	800,000	-0,024	-0,065
-106,220	-40,412	-0,115	0,043
-105,205	195,599	-0,049	-0,054
-104,191	-200,000	0,003	0,134
-103,176	480,677	-0,036	-0,059
-102,162	267,327	0,037	-0,047
-101,147	261,204	0,008	-0,010
-100,132	737,645	0,050	-0,098
-99,118	-200,000	0,034	0,173
-98,103	800,000	0,043	0,094
-97,089	-200,000	-0,008	0,071
-96,074	129,180	0,049	0,045
-95,059	40,645	0,083	0,054
-94,045	122,518	-0,076	-0,069
-93,030	-200,000	-0,018	-0,081
-92,016	-91,432	0,047	0,010
-91,001	-72,426	0,093	0,025
-89,986	-200,000	0,048	0,214
-88,972	-106,406	-0,070	-0,011
-87,957	-15,221	0,107	0,050
-86,943	84,247	0,024	0,019
-85,928	126,802	-0,056	-0,052
-84,913	-200,000	0,001	0,073
-83,899	-92,452	0,094	0,019
-82,884	485,048	0,132	0,218
-81,870	800,000	0,054	0,133
-80,855	-200,000	-0,003	0,028
-79,840	207,636	-0,075	-0,085
-78,826	596,573	-0,055	-0,100
-77,811	-200,000	0,017	-0,064
-76,797	-66,767	-0,069	-0,020
-75,782	-82,147	0,191	0,045
-74,767	-25,682	0,050	0,021
-73,753	292,261	-0,020	0,026
-72,738	-142,470	-0,062	-0,004
-71,724	-200,000	0,005	0,076
-70,709	800,000	-0,027	0,060
-69,694	-200,000	-0,047	-0,160
-68,680	719,252	0,035	0,068
-67,665	142,541	0,024	0,023
-66,651	-200,000	0,015	0,050
-65,636	107,300	-0,051	0,044
-64,622	-57,961	-0,058	0,018
-63,607	-177,557	-0,056	0,001
-62,592	29,176	0,091	0,056
-61,578	97,508	0,137	0,114
-60,563	-200,000	-0,003	-0,093
-59,549	103,408	-0,107	0,091
-58,534	-58,506	-1,464	-0,458
-57,519	541,788	-0,732	-1,271
-56,505	-200,000	-1,091	-4,515
-55,490	-183,041	0,661	0,008
-54,476	800,000	5,191	11,995
-53,461	-200,000	15,005	264,014
-52,446	-200,000	698,772	2240,383
-51,432	575,763	1622,040	2883,060
-50,417	121,024	1630,074	1470,148
-49,403	80,748	1284,982	1003,324
-48,388	38,070	1023,367	658,495
-47,373	22,793	983,843	582,731
-46,359	21,911	972,883	573,321
-45,344	20,558	968,816	566,469
-44,330	20,627	967,362	565,822
-43,315	20,408	965,966	564,266
-42,300	20,395	964,720	563,475
-41,286	20,366	963,892	562,873
-40,271	20,404	962,789	562,331
-39,257	20,339	962,152	561,726
-38,242	20,354	961,101	561,138
-37,227	20,388	960,247	560,727
-36,213	20,335	959,498	560,095
-35,198	20,305	958,485	559,385
-34,184	20,411	957,609	559,196
-33,169	20,327	956,951	558,516
-32,154	20,352	956,098	558,078
-31,140	20,417	955,050	557,653
-30,125	20,362	954,307	557,022
-29,111	20,362	953,472	556,511
-28,096	20,357	952,755	556,054
-27,082	20,338	952,170	555,630
-26,067	20,365	951,151	555,101
-25,052	20,317	950,470	554,527
-24,038	20,364	949,879	554,309
-23,023	20,333	949,248	553,822
-22,009	20,378	948,477	553,492
-20,994	20,381	948,011	553,210
-19,979	20,371	947,535	552,877
-18,965	20,385	946,730	552,429
-17,950	20,369	946,080	551,979
-16,936	20,359	945,453	551,558
-15,921	20,265	945,028	550,988
-14,906	20,266	944,256	550,518
-13,892	20,274	943,552	550,114
-12,877	20,234	942,857	549,556
-11,863	20,182	942,460	549,138
-10,848	20,218	941,852	548,876
-9,833	20,348	941,438	549,028
-8,819	20,323	940,670	548,480
-7,804	20,258	939,912	547,809
-6,790	20,202	939,477	547,356
-5,775	20,254	938,749	547,074
-4,760	20,297	938,332	546,948
-3,746	20,245	937,651	546,361
-2,731	20,076	936,862	545,348
-1,717	20,017	936,308	544,816
-0,702	20,058	935,690	544,564
0,313	19,880	934,883	544,353
1,327	22,839	933,218	552,667
2,342	32,205	794,798	495,639
3,356	29,391	451,061	277,013
4,371	-1,218	295,742	150,827
5,386	-5,287	277,017	137,381
6,400	-6,850	271,254	133,047
7,415	-7,306	268,945	131,480
8,429	-6,905	267,747	131,253
9,444	-6,857	266,857	130,848
10,459	-6,565	266,163	130,765
11,473	-6,789	265,660	130,301
12,488	-6,787	265,169	130,051
13,502	-6,885	264,522	129,632
14,517	-6,967	264,363	129,468
15,531	-6,613	263,960	129,581
16,546	-6,329	263,520	129,612
17,561	-6,489	263,290	129,342
18,575	-6,612	263,021	129,087
19,590	-6,493	262,474	128,914
20,604	-6,654	262,341	128,692
21,619	-6,566	261,967	128,576
22,634	-6,456	261,338	128,356
23,648	-6,578	261,228	128,180
24,663	-6,671	261,202	128,073
25,677	-6,462	260,754	128,030
26,692	-6,621	260,521	127,761
27,707	-6,510	260,279	127,730
28,721	-6,707	260,018	127,414
29,736	-6,610	259,870	127,417
30,750	-6,676	259,573	127,201
31,765	-6,595	259,289	127,123
32,780	-6,543	258,969	127,001
33,794	-6,750	258,909	126,776
34,809	-6,698	258,739	126,727
35,823	-6,751	258,429	126,517
36,838	-6,913	258,254	126,276
37,853	-6,647	257,959	126,357
38,867	-6,714	257,750	126,183
39,882	-6,731	257,429	126,000
40,896	-6,634	257,250	125,987
41,911	-6,581	256,948	125,875
42,926	-6,612	256,774	125,751
43,940	-6,721	256,597	125,557
44,955	-6,848	256,274	125,275
45,969	-6,730	256,101	125,284
46,984	-6,968	255,950	124,989
47,999	-7,105	255,526	124,651
49,013	-7,269	255,353	124,412
50,028	-7,247	255,015	124,255
51,042	-7,508	254,857	123,938
52,057	-7,564	254,560	123,733
53,071	-7,629	254,485	123,629
54,086	-7,188	254,207	123,868
55,101	-7,213	254,154	123,810
56,115	-7,071	254,067	123,881
57,130	-6,718	253,845	124,069
58,144	-6,566	253,721	124,130
59,159	-6,457	253,415	124,064
60,174	-6,510	253,111	123,859
61,188	-6,537	253,039	123,788
62,203	-6,656	252,795	123,554
63,217	-6,617	252,536	123,451
64,232	-6,593	252,394	123,391
65,247	-6,746	252,274	123,189
66,261	-6,653	251,898	123,075
67,276	-6,581	251,557	122,960
68,290	-6,968	251,537	122,605
69,305	-7,101	251,097	122,265
70,320	-7,094	251,122	122,271
71,334	-6,634	250,914	122,555
72,349	-6,844	250,901	122,357
73,363	-6,583	250,496	122,374
74,378	-6,533	250,520	122,418
75,393	-6,508	250,113	122,228
76,407	-6,701	250,115	122,054
77,422	-6,755	249,703	121,795
78,436	-6,573	249,597	121,889
79,451	-6,576	249,349	121,754
80,466	-6,680	249,079	121,523
81,480	-6,844	248,867	121,268
82,495	-6,825	248,687	121,186
83,509	-6,910	248,500	121,011
84,524	-6,718	248,267	121,051
85,539	-6,724	247,993	120,902
86,553	-6,999	247,989	120,654
87,568	-6,856	247,700	120,625
88,582	-6,934	247,583	120,490
89,597	-6,982	247,286	120,294
90,611	-6,731	247,214	120,462
91,626	-6,623	247,132	120,502
92,641	-6,600	246,717	120,309
93,655	-6,613	246,667	120,263
94,670	-6,808	246,382	119,949
95,684	-6,806	246,283	119,892
96,699	-6,766	246,001	119,777
97,714	-6,892	245,878	119,600
98,728	-7,154	245,796	119,329
99,743	-6,965	245,321	119,247
100,757	-7,063	245,285	119,137
101,772	-6,985	245,049	119,077
102,787	-7,042	244,967	118,979
103,801	-6,905	244,754	118,979
104,816	-6,773	244,585	118,997
105,830	-6,761	244,572	118,990
106,845	-6,768	244,262	118,823
107,860	-6,650	244,026	118,795
108,874	-6,930	243,790	118,437
109,889	-6,995	243,791	118,372
110,903	-6,898	243,434	118,269
111,918	-7,085	243,274	118,025
112,933	-6,968	243,143	118,049
113,947	-6,908	243,001	118,018
114,962	-6,697	242,777	118,075
115,976	-6,699	242,744	118,047
116,991	-6,843	242,521	117,809
118,006	-6,804	242,326	117,735
119,020	-6,976	242,242	117,541
120,035	-6,704	242,121	117,697
121,049	-6,808	241,838	117,463
122,064	-6,746	241,688	117,431
123,079	-6,863	241,464	117,215
124,093	-6,733	241,173	117,171
125,108	-6,953	241,027	116,909
126,122	-6,966	240,713	116,735
127,137	-7,201	240,682	116,516
128,151	-7,311	240,512	116,333
129,166	-7,086	240,294	116,402
130,181	-7,027	240,064	116,329
131,195	-6,853	239,823	116,344
132,210	-6,776	239,664	116,319
133,224	-6,914	239,719	116,223
134,239	-6,768	239,484	116,218
135,254	-6,891	239,350	116,042
136,268	-6,964	239,167	115,883
137,283	-7,142	238,952	115,624
138,297	-7,187	238,516	115,366
139,312	-7,148	238,426	115,343
140,327	-6,984	238,453	115,480
141,341	-6,610	238,354	115,726
142,356	-6,594	238,215	115,661
143,370	-6,675	238,080	115,519
144,385	-6,508	237,879	115,547
145,400	-6,462	237,775	115,523
146,414	-6,613	237,561	115,286
147,429	-6,677	237,355	115,125
148,443	-6,707	237,090	114,962
149,458	-6,725	236,952	114,870
150,473	-6,741	236,927	114,835
151,487	-6,539	236,582	114,820
152,502	-6,660	236,313	114,581
153,516	-6,512	236,235	114,653
154,531	-6,547	236,183	114,589
155,546	-6,608	235,970	114,427
156,560	-6,708	235,650	114,181
157,575	-6,673	235,515	114,134
158,589	-6,725	235,344	113,999
159,604	-6,481	235,310	114,168
160,619	-6,219	235,057	114,244
161,633	-6,128	235,034	114,296
162,648	-6,308	234,834	114,045
163,662	-6,527	234,592	113,742
164,677	-6,741	234,545	113,538
165,692	-6,644	234,275	113,475
166,706	-6,513	234,195	113,530
167,721	-6,262	234,088	113,668
168,735	-6,305	234,027	113,595
169,750	-6,489	233,736	113,297
170,764	-6,385	233,488	113,249
171,779	-6,354	233,477	113,258
172,794	-6,491	233,298	113,052
173,808	-6,630	232,955	112,766
174,823	-6,782	232,762	112,542
175,837	-7,018	232,650	112,291
176,852	-6,754	232,462	112,399
177,867	-6,428	232,420	112,627
178,881	-6,300	232,162	112,592
179,896	-6,539	232,251	112,437
180,910	-6,468	232,027	112,375
181,925	-6,520	231,906	112,265
182,940	-6,422	231,673	112,219
183,954	-6,605	231,706	112,081
184,969	-6,211	231,416	112,241
185,983	-6,315	231,217	112,053
186,998	-6,239	231,142	112,066
188,013	-6,460	231,094	111,859
189,027	-6,229	230,806	111,891
190,042	-6,424	230,551	111,605
191,056	-6,554	230,455	111,446
192,071	-6,415	230,293	111,467
193,086	-6,656	230,081	111,166
194,100	-6,458	229,881	111,214
195,115	-7,177	229,449	110,435
196,129	-7,456	229,428	110,198
197,144	-3,689	230,520	113,658
198,159	0,941	232,037	118,033
199,173	4,105	232,648	120,818
200,188	4,487	232,759	121,164
201,202	4,433	232,531	120,992
202,217	4,650	232,500	121,136
203,232	4,994	232,291	121,286
204,246	4,901	232,243	121,177
205,261	4,923	232,067	121,092
206,275	5,156	231,944	121,198
207,290	5,267	231,788	121,193
208,304	5,164	231,598	121,002
209,319	5,198	231,462	120,947
210,334	4,915	231,265	120,613
211,348	4,689	231,068	120,324
212,363	4,177	230,690	119,718
213,377	4,308	230,437	119,678
214,392	4,286	230,362	119,612
215,407	4,315	230,322	119,602
216,421	4,359	230,105	119,513
217,436	4,438	229,930	119,473
218,450	4,083	229,765	119,102
219,465	3,838	229,679	118,857
220,480	4,108	229,620	119,024
221,494	4,123	229,316	118,868
222,509	4,288	229,163	118,905
223,523	4,471	229,007	118,955
224,538	4,150	228,933	118,658
225,553	4,200	228,732	118,582
226,567	4,269	228,633	118,574
227,582	4,519	228,501	118,687
228,596	4,530	228,458	118,662
229,611	4,247	228,248	118,325
230,626	4,154	227,794	118,008
231,640	4,155	227,821	118,012
232,655	4,329	227,739	118,092
233,669	4,786	227,737	118,431
234,684	4,746	227,643	118,340
235,699	4,579	227,422	118,088
236,713	4,325	227,184	117,760
237,728	4,253	227,020	117,609
238,742	4,039	226,835	117,340
239,757	4,361	226,586	117,446
240,772	4,080	226,574	117,215
241,786	4,122	226,287	117,088
242,801	4,334	226,308	117,249
243,815	4,594	226,073	117,315
244,830	4,584	226,104	117,313
245,844	4,264	225,862	116,934
246,859	4,167	225,651	116,741
247,874	4,673	225,569	117,071
248,888	4,492	225,432	116,853
249,903	4,507	225,292	116,781
250,917	4,232	225,166	116,498
251,932	4,365	224,923	116,462
252,947	4,155	224,866	116,264
253,961	4,210	224,626	116,171
254,976	4,209	224,494	116,091
255,990	4,405	224,449	116,205
257,005	4,099	224,321	115,898
258,020	4,522	224,213	116,150
259,034	4,804	224,023	116,253
260,049	4,626	223,932	116,062
261,063	4,499	223,685	115,829
262,078	4,519	223,603	115,790
263,093	4,783	223,378	115,862
264,107	4,544	223,381	115,674
265,122	4,569	223,050	115,510
266,136	4,502	223,104	115,478
267,151	4,860	222,798	115,577
268,166	4,261	222,611	115,023
269,180	4,057	222,454	114,779
270,195	4,229	222,200	114,766
271,209	4,128	222,223	114,693
272,224	4,297	222,022	114,704
273,239	4,164	221,984	114,575
274,253	4,238	221,696	114,472
275,268	4,076	221,605	114,294
276,282	3,978	221,375	114,093
277,297	4,091	221,301	114,128
278,312	3,924	221,181	113,932
279,326	4,157	221,002	114,002
280,341	4,179	220,938	113,975
281,355	4,117	220,789	113,843
282,370	4,218	220,641	113,831
283,384	4,210	220,478	113,731
284,399	4,099	220,199	113,494
285,414	3,947	220,176	113,361
286,428	4,113	220,222	113,496
287,443	4,123	220,027	113,394
288,457	4,332	219,677	113,357
289,472	4,271	219,762	113,345
290,487	3,830	219,447	112,849
291,501	4,018	219,135	112,816
292,516	4,050	219,157	112,842
293,530	3,944	218,999	112,672
294,545	3,956	218,852	112,595
295,560	3,988	218,922	112,644
296,574	4,223	218,578	112,629
297,589	4,011	218,492	112,420
298,603	4,346	218,285	112,548
299,618	4,135	218,191	112,336
300,633	4,259	218,215	112,428
301,647	4,365	218,181	112,478
302,662	4,307	217,890	112,276
303,676	4,302	217,764	112,198
304,691	4,285	217,523	112,050
305,706	4,456	217,375	112,088
306,720	4,654	217,115	112,088
307,735	4,219	217,279	111,847
308,749	4,021	217,018	111,559
309,764	4,227	216,894	111,634
310,779	4,421	216,706	111,668
311,793	4,463	216,709	111,690
312,808	4,582	216,402	111,608
313,822	4,194	216,316	111,274
314,837	4,339	216,008	111,210
315,852	4,248	215,951	111,105
316,866	4,092	215,957	110,986
317,881	4,228	215,820	111,003
318,895	4,247	215,621	110,905
319,910	4,211	215,624	110,871
320,925	3,978	215,283	110,518
321,939	3,550	215,038	110,075
322,954	3,751	215,002	110,191
323,968	4,361	214,966	110,600
324,983	4,124	214,891	110,382
325,997	4,353	214,772	110,475
327,012	4,180	214,509	110,206
328,027	4,069	214,504	110,114
329,041	4,513	214,356	110,346
330,056	4,596	214,345	110,389
331,070	4,130	214,010	109,874
332,085	3,854	213,728	109,523
333,100	4,278	213,742	109,823
334,114	4,219	213,555	109,675
335,129	4,377	213,366	109,681
336,143	4,054	213,194	109,353
337,158	4,022	213,118	109,282
338,173	4,095	213,005	109,266
339,187	3,969	212,854	109,089
340,202	3,961	212,527	108,906
341,216	4,030	212,386	108,873
342,231	3,985	212,501	108,890
343,246	4,075	212,312	108,847
344,260	3,975	212,176	108,697
345,275	4,064	212,096	108,710
346,289	4,457	211,916	108,885
347,304	4,321	211,789	108,715
348,319	4,154	211,731	108,557
349,333	4,260	211,576	108,543
350,348	4,094	211,376	108,313
351,362	4,314	211,333	108,436
352,377	4,332	211,134	108,338
353,392	4,114	211,058	108,136
354,406	4,204	210,928	108,123
355,421	192,336	1344,566	1426,403
356,435	153,474	1482,762	1426,484
