DTS Sentinel unit serial number:	SN410029Multiplexer serial number:	ORYXHardware model number:	OX2-SRSoftware version number:	ORYX F/W v4,00 Oryx Data Collector v3.7.2.0data status	okinstallation	B6 Nyhavnadifferential loss correction	single-endedforward channel	channel 2reverse channel	N/Adate	2023/12/11time	07:15:08forward acquisition time	300,00reverse acquisition time	0,00gamma	499,1914k internal	0,3127k external	0,3127temperature offset calibration	1,0000default loss term (dB/km)	0,3820temperature slope calibration	1,0000multiplexer offset coefficient	1,0000multiplexer slope coefficient	1,0000fibre end	0,00T internal ref (°C)	19,19T ext. ref 1 (°C)	1,86T ext. ref 2 (°C)	1,91length (m)	temperature (°C)	Stokes	anti-Stokes-744,400	478,197	0,004	-0,007
-743,385	56,655	-0,134	0,097
-742,371	-98,891	0,195	-0,037
-741,356	-140,647	-0,419	0,032
-740,342	-165,541	-0,042	0,001
-739,327	-150,361	-0,269	0,015
-738,312	153,058	-0,034	-0,034
-737,298	-76,894	-0,232	0,060
-736,283	-156,541	0,116	-0,005
-735,269	-99,240	-0,180	0,033
-734,254	-128,522	0,058	-0,006
-733,239	-155,814	-0,424	-0,020
-732,225	-60,234	0,054	0,017
-731,210	-17,798	-0,151	0,070
-730,196	-120,338	0,136	-0,017
-729,181	-200,000	-0,044	-0,156
-728,167	-25,760	0,039	-0,017
-727,152	98,081	0,073	0,062
-726,137	-69,358	-0,074	-0,021
-725,123	63,144	-0,044	0,033
-724,108	-14,828	-0,192	-0,091
-723,094	136,888	-0,071	-0,069
-722,079	-9,453	0,081	-0,040
-721,064	349,019	-0,070	-0,103
-720,050	-90,683	0,092	-0,020
-719,035	-46,162	-0,081	-0,030
-718,021	800,000	-0,050	-0,105
-717,006	-36,182	-0,104	-0,042
-715,991	-70,169	-0,087	0,025
-714,977	-200,000	-0,004	-0,160
-713,962	341,972	0,026	0,038
-712,948	30,601	0,035	-0,022
-711,933	-19,190	0,075	-0,035
-710,918	300,325	-0,038	0,052
-709,904	114,419	-0,088	-0,080
-708,889	-12,717	-0,094	-0,045
-707,875	-200,000	-0,011	0,047
-706,860	104,452	0,065	0,057
-705,845	-200,000	-0,106	0,000
-704,831	396,113	0,044	0,069
-703,816	-200,000	0,003	-0,026
-702,802	50,920	0,042	0,030
-701,787	205,170	0,039	0,045
-700,772	-200,000	0,002	-0,042
-699,758	24,303	-0,062	-0,038
-698,743	3,232	0,077	0,042
-697,729	19,991	0,052	-0,031
-696,714	142,790	0,047	-0,047
-695,699	77,105	0,072	-0,057
-694,685	-178,639	-0,173	0,003
-693,670	217,099	-0,054	0,064
-692,656	170,824	-0,087	-0,092
-691,641	-29,348	-0,125	0,053
-690,627	0,830	-0,016	0,008
-689,612	105,294	0,135	-0,118
-688,597	199,156	0,003	-0,003
-687,583	173,384	-0,080	-0,086
-686,568	800,000	-0,039	-0,125
-685,554	-200,000	0,036	-0,131
-684,539	-2,046	0,043	-0,022
-683,524	-200,000	0,016	-0,073
-682,510	36,107	0,010	-0,007
-681,495	31,960	-0,214	-0,137
-680,481	169,492	-0,080	-0,085
-679,466	113,450	-0,155	-0,140
-678,451	-200,000	-0,021	-0,131
-677,437	111,223	0,023	0,021
-676,422	-54,968	0,029	0,010
-675,408	327,047	-0,039	-0,055
-674,393	504,840	0,037	0,063
-673,378	-37,873	-0,152	-0,060
-672,364	580,757	-0,025	-0,045
-671,349	-200,000	0,015	-0,093
-670,335	800,000	0,037	-0,078
-669,320	-28,113	0,068	-0,029
-668,305	433,934	-0,041	0,066
-667,291	800,000	-0,050	-0,124
-666,276	135,556	0,074	-0,072
-665,262	177,091	-0,019	0,021
-664,247	-200,000	-0,024	0,113
-663,232	112,935	-0,049	0,044
-662,218	800,000	0,055	0,122
-661,203	288,787	0,015	-0,020
-660,189	47,304	-0,080	-0,055
-659,174	-200,000	0,016	-0,153
-658,159	800,000	-0,035	-0,087
-657,145	-200,000	0,003	-0,134
-656,130	-200,000	0,023	-0,124
-655,116	54,959	-0,045	-0,032
-654,101	-33,386	0,083	0,034
-653,086	400,858	-0,038	0,059
-652,072	-101,586	-0,128	-0,023
-651,057	21,528	0,061	-0,037
-650,043	115,206	-0,067	-0,060
-649,028	800,000	-0,086	-0,185
-648,014	410,311	-0,051	-0,080
-646,999	482,780	0,081	0,137
-645,984	62,482	-0,071	-0,053
-644,970	213,930	-0,090	-0,106
-643,955	492,982	-0,060	-0,102
-642,941	549,001	0,049	-0,087
-641,926	118,345	0,083	-0,076
-640,911	800,000	0,010	-0,026
-639,897	-130,726	-0,054	-0,005
-638,882	-200,000	-0,025	0,121
-637,868	86,854	-0,072	-0,059
-636,853	-93,362	-0,114	0,023
-635,838	-90,658	0,111	-0,023
-634,824	360,101	0,032	0,047
-633,809	465,609	-0,076	-0,126
-632,795	-200,000	-0,030	0,104
-631,780	26,822	-0,088	-0,054
-630,765	715,847	-0,062	-0,123
-629,751	-72,702	-0,055	0,015
-628,736	-200,000	0,014	-0,089
-627,722	-37,380	-0,026	-0,010
-626,707	85,896	-0,044	-0,036
-625,692	255,039	0,138	0,175
-624,678	-200,000	0,003	-0,071
-623,663	16,808	-0,057	-0,034
-622,649	800,000	-0,021	-0,049
-621,634	-94,138	0,136	0,027
-620,619	-54,956	0,142	0,047
-619,605	-200,000	-0,015	0,087
-618,590	-177,462	0,071	-0,001
-617,576	-64,533	-0,067	0,020
-616,561	-192,030	0,057	-0,000
-615,546	-200,000	-0,005	0,087
-614,532	370,238	-0,042	0,063
-613,517	-109,828	0,097	0,015
-612,503	-139,920	0,118	0,009
-611,488	316,901	0,027	-0,038
-610,474	-38,132	-0,081	0,032
-609,459	-200,000	0,000	-0,119
-608,444	800,000	-0,020	-0,064
-607,430	1,910	-0,168	-0,089
-606,415	271,808	-0,058	0,075
-605,401	-146,022	-0,025	0,002
-604,386	-200,000	-0,007	0,111
-603,371	128,567	-0,065	0,061
-602,357	43,932	-0,066	-0,045
-601,342	800,000	-0,062	-0,133
-600,328	-136,285	0,049	0,004
-599,313	-3,751	-0,087	-0,045
-598,298	166,839	0,074	0,078
-597,284	385,445	-0,027	0,041
-596,269	-65,083	0,084	-0,025
-595,255	8,623	0,111	0,062
-594,240	59,544	0,079	-0,058
-593,225	188,826	0,076	-0,084
-592,211	800,000	-0,067	-0,154
-591,196	800,000	0,005	-0,016
-590,182	-29,992	0,010	0,004
-589,167	131,025	0,050	-0,048
-588,152	-106,648	-0,181	-0,029
-587,138	800,000	-0,037	0,109
-586,123	-75,987	0,084	-0,022
-585,109	26,870	-0,100	-0,062
-584,094	2,823	-0,042	-0,023
-583,079	259,240	0,051	0,065
-582,065	-200,000	-0,004	-0,016
-581,050	800,000	0,020	0,047
-580,036	219,414	0,053	-0,062
-579,021	-200,000	-0,003	-0,077
-578,006	-200,000	-0,010	-0,077
-576,992	-35,674	0,081	-0,032
-575,977	-200,000	-0,024	-0,140
-574,963	-200,000	0,038	0,161
-573,948	62,917	-0,066	0,049
-572,934	800,000	-0,010	-0,030
-571,919	-200,000	0,001	0,009
-570,904	-84,068	-0,122	-0,029
-569,890	-200,000	-0,009	-0,127
-568,875	-200,000	0,005	-0,135
-567,861	-176,524	-0,108	-0,002
-566,846	-3,315	0,015	0,008
-565,831	232,193	0,056	-0,068
-564,817	-122,853	-0,111	-0,013
-563,802	216,529	0,061	0,072
-562,788	-115,500	-0,159	-0,022
-561,773	20,300	0,074	0,044
-560,758	-29,192	0,075	0,031
-559,744	-155,586	0,115	-0,005
-558,729	-46,044	0,251	-0,091
-557,715	-200,000	0,019	-0,166
-556,700	-51,216	-0,097	0,034
-555,685	82,868	-0,098	0,079
-554,671	606,792	-0,041	0,077
-553,656	-200,000	-0,018	-0,151
-552,642	-47,345	0,095	0,034
-551,627	-18,433	-0,042	-0,019
-550,612	-123,268	-0,039	0,005
-549,598	-200,000	0,017	-0,097
-548,583	-49,967	0,068	0,024
-547,569	-53,588	-0,103	-0,035
-546,554	-32,927	0,078	0,032
-545,539	-132,202	-0,130	-0,012
-544,525	800,000	-0,024	-0,049
-543,510	-97,064	-0,026	0,005
-542,496	-200,000	-0,030	0,168
-541,481	-200,000	-0,032	0,136
-540,466	78,811	-0,024	-0,019
-539,452	-200,000	0,022	0,091
-538,437	695,573	-0,036	0,070
-537,423	18,431	0,097	0,057
-536,408	139,295	-0,035	-0,034
-535,393	142,548	-0,180	-0,176
-534,379	-200,000	0,002	-0,064
-533,364	-200,000	-0,004	-0,133
-532,350	-200,000	0,016	0,192
-531,335	-200,000	-0,015	0,060
-530,321	476,402	0,124	0,208
-529,306	-117,960	-0,081	-0,011
-528,291	159,652	0,061	0,063
-527,277	-200,000	-0,011	0,052
-526,262	-200,000	-0,017	-0,061
-525,248	-200,000	0,010	0,047
-524,233	-200,000	-0,028	-0,131
-523,218	-200,000	0,022	0,191
-522,204	800,000	-0,048	0,111
-521,189	800,000	-0,051	0,110
-520,175	-166,192	-0,083	0,003
-519,160	553,005	-0,063	-0,112
-518,145	-72,088	0,045	-0,012
-517,131	28,296	0,082	-0,051
-516,116	643,724	0,047	-0,089
-515,102	-40,455	-0,125	-0,048
-514,087	513,904	-0,027	0,046
-513,072	16,383	0,156	-0,091
-512,058	-63,733	0,080	-0,024
-511,043	800,000	0,008	0,024
-510,029	800,000	-0,014	0,044
-509,014	-200,000	-0,011	0,080
-507,999	157,396	-0,026	0,026
-506,985	16,726	0,098	0,057
-505,970	-64,772	0,033	0,010
-504,956	9,899	-0,005	0,003
-503,941	195,993	-0,086	-0,097
-502,926	800,000	-0,028	0,087
-501,912	-200,000	0,002	0,034
-500,897	266,427	0,097	0,125
-499,883	800,000	-0,046	0,140
-498,868	462,345	0,034	-0,056
-497,853	21,353	-0,047	-0,028
-496,839	-200,000	-0,009	0,115
-495,824	-200,000	0,000	0,043
-494,810	94,197	0,084	-0,070
-493,795	-82,330	-0,094	0,022
-492,781	-200,000	-0,005	-0,019
-491,766	-200,000	-0,019	-0,198
-490,751	460,669	0,080	-0,132
-489,737	-200,000	-0,017	-0,074
-488,722	-200,000	0,019	0,082
-487,708	-200,000	-0,009	0,030
-486,693	52,660	0,061	0,043
-485,678	-200,000	-0,003	-0,119
-484,664	307,256	-0,030	-0,042
-483,649	-200,000	-0,014	0,104
-482,635	84,965	-0,025	0,021
-481,620	-200,000	0,033	-0,111
-480,605	143,441	0,094	0,092
-479,591	225,101	-0,080	0,096
-478,576	72,437	-0,061	0,046
-477,562	-86,093	-0,089	-0,020
-476,547	-37,882	-0,054	-0,021
-475,532	129,198	-0,097	-0,091
-474,518	-24,839	0,069	-0,030
-473,503	-97,222	0,085	0,016
-472,489	-200,000	-0,013	0,122
-471,474	303,233	0,080	0,109
-470,459	91,426	-0,083	0,069
-469,445	-200,000	0,034	-0,179
-468,430	-65,357	-0,028	-0,008
-467,416	-107,045	0,075	-0,012
-466,401	-200,000	0,000	0,018
-465,386	498,041	-0,063	0,108
-464,372	-200,000	-0,004	0,082
-463,357	-45,722	0,043	0,016
-462,343	-48,457	-0,045	-0,016
-461,328	-40,501	-0,149	-0,057
-460,313	-90,059	-0,038	-0,008
-459,299	605,928	-0,050	-0,092
-458,284	-200,000	0,008	-0,056
-457,270	-200,000	-0,037	0,126
-456,255	-168,475	-0,099	0,003
-455,241	-200,000	-0,011	-0,054
-454,226	395,032	0,096	0,148
-453,211	-28,461	0,039	-0,016
-452,197	800,000	-0,059	-0,122
-451,182	196,704	-0,026	0,029
-450,168	-110,960	0,100	-0,015
-449,153	478,398	-0,033	-0,056
-448,138	295,623	-0,075	-0,101
-447,124	800,000	0,018	0,043
-446,109	-64,150	-0,119	0,035
-445,095	-58,498	-0,031	0,010
-444,080	113,508	0,049	0,043
-443,065	93,525	0,012	-0,010
-442,051	148,896	-0,052	-0,052
-441,036	-200,000	0,004	-0,144
-440,022	-200,000	-0,023	-0,226
-439,007	-37,740	-0,062	-0,024
-437,992	47,129	0,206	0,141
-436,978	-145,148	0,100	0,007
-435,963	79,639	0,034	0,027
-434,949	-200,000	-0,028	-0,141
-433,934	412,466	0,032	-0,050
-432,919	-130,600	-0,047	-0,005
-431,905	38,514	-0,103	0,067
-430,890	80,434	0,044	0,035
-429,876	-200,000	0,033	0,120
-428,861	7,138	-0,145	-0,079
-427,846	342,379	-0,012	-0,018
-426,832	9,060	-0,100	0,056
-425,817	-200,000	0,018	-0,069
-424,803	184,138	0,041	0,045
-423,788	-200,000	0,020	-0,078
-422,773	-42,247	0,090	-0,034
-421,759	-88,674	0,172	-0,037
-420,744	115,765	0,064	0,058
-419,730	-200,000	-0,006	-0,035
-418,715	68,219	-0,067	0,050
-417,701	713,579	-0,070	-0,138
-416,686	516,130	0,073	-0,125
-415,671	-45,637	0,077	0,028
-414,657	-142,871	0,044	0,003
-413,642	521,260	0,035	0,060
-412,628	213,232	-0,054	-0,062
-411,613	-200,000	0,015	-0,147
-410,598	179,370	-0,083	-0,089
-409,584	-200,000	-0,001	0,035
-408,569	-97,182	0,069	0,013
-407,555	800,000	-0,041	0,121
-406,540	800,000	0,031	0,067
-405,525	800,000	0,020	-0,041
-404,511	284,733	-0,053	-0,070
-403,496	800,000	0,008	-0,022
-402,482	-200,000	-0,009	-0,063
-401,467	-200,000	-0,006	-0,074
-400,452	34,653	0,067	0,043
-399,438	382,325	-0,042	0,064
-398,423	-44,042	-0,104	0,038
-397,409	-5,638	-0,027	0,014
-396,394	-200,000	-0,030	-0,171
-395,379	800,000	0,046	-0,108
-394,365	-200,000	-0,011	0,095
-393,350	-127,552	0,074	-0,008
-392,336	-54,167	0,152	-0,050
-391,321	-200,000	-0,013	-0,050
-390,306	-38,346	-0,067	0,026
-389,292	70,710	-0,082	0,062
-388,277	-200,000	0,035	0,141
-387,263	-73,021	0,149	-0,040
-386,248	800,000	-0,029	0,064
-385,233	217,823	0,072	-0,085
-384,219	-200,000	-0,014	-0,064
-383,204	53,248	-0,093	-0,066
-382,190	800,000	-0,020	0,057
-381,175	800,000	-0,054	0,141
-380,160	-200,000	-0,014	0,187
-379,146	-200,000	-0,006	0,170
-378,131	-175,443	-0,059	0,001
-377,117	180,819	0,074	0,080
-376,102	216,747	-0,056	-0,065
-375,088	146,498	-0,019	0,019
-374,073	-200,000	-0,006	-0,041
-373,058	-200,000	-0,000	0,057
-372,044	395,112	0,140	0,215
-371,029	-200,000	-0,009	0,061
-370,015	191,480	0,081	-0,090
-369,000	240,442	0,055	0,068
-367,985	-13,883	0,056	-0,027
-366,971	-157,162	-0,031	-0,001
-365,956	17,979	0,067	0,039
-364,942	-200,000	-0,000	-0,016
-363,927	-16,719	-0,116	-0,054
-362,912	98,916	-0,065	0,055
-361,898	344,834	-0,066	-0,096
-360,883	-124,677	-0,148	-0,017
-359,869	-73,297	-0,004	0,001
-358,854	-200,000	0,001	0,073
-357,839	-200,000	0,024	0,114
-356,825	-70,544	-0,061	-0,017
-355,810	-200,000	-0,001	0,061
-354,796	-138,330	0,121	0,010
-353,781	-198,353	0,123	0,001
-352,766	-200,000	-0,017	-0,113
-351,752	254,204	-0,035	0,043
-350,737	-24,839	0,137	-0,060
-349,723	32,631	0,040	0,025
-348,708	134,288	-0,059	-0,057
-347,693	63,510	-0,021	0,016
-346,679	173,637	-0,039	0,042
-345,664	244,529	0,110	-0,135
-344,650	-127,188	-0,043	-0,005
-343,635	-141,495	0,038	0,003
-342,620	692,457	0,043	0,083
-341,606	376,949	0,029	0,044
-340,591	800,000	-0,025	0,068
-339,577	-29,498	-0,096	0,040
-338,562	-200,000	0,008	-0,076
-337,548	165,548	-0,044	0,046
-336,533	289,496	0,104	0,139
-335,518	800,000	0,040	-0,083
-334,504	40,535	0,025	0,016
-333,489	731,185	0,008	0,015
-332,475	800,000	0,019	0,048
-331,460	298,745	-0,008	-0,011
-330,445	87,656	-0,015	0,012
-329,431	800,000	-0,025	0,071
-328,416	-200,000	0,014	0,061
-327,402	-200,000	-0,001	-0,064
-326,387	263,619	-0,027	-0,034
-325,372	58,806	-0,081	0,058
-324,358	-200,000	0,004	-0,087
-323,343	347,767	-0,047	0,069
-322,329	-73,324	0,104	0,028
-321,314	-56,030	-0,047	0,015
-320,299	62,130	-0,098	0,071
-319,285	-200,000	-0,013	0,096
-318,270	1,544	-0,107	0,056
-317,256	-76,817	0,057	0,015
-316,241	227,676	-0,075	-0,089
-315,226	-53,846	0,088	-0,029
-314,212	-23,135	0,102	0,045
-313,197	-200,000	-0,011	-0,062
-312,183	-200,000	-0,013	0,064
-311,168	-68,512	0,030	0,008
-310,153	451,885	-0,058	-0,095
-309,139	-21,847	0,159	0,071
-308,124	-200,000	0,037	0,142
-307,110	18,153	0,117	-0,068
-306,095	650,611	0,053	0,100
-305,080	-179,292	0,050	-0,001
-304,066	234,314	-0,042	0,050
-303,051	505,778	-0,045	-0,076
-302,037	-200,000	0,013	-0,096
-301,022	426,069	-0,031	-0,049
-300,008	-170,552	0,068	-0,002
-298,993	-10,014	-0,050	0,024
-297,978	405,874	0,036	-0,056
-296,964	-82,736	0,101	0,024
-295,949	11,946	-0,011	-0,006
-294,935	-200,000	-0,017	-0,056
-293,920	427,585	-0,050	0,080
-292,905	-67,103	0,051	-0,015
-291,891	-200,000	-0,012	0,045
-290,876	53,191	0,099	0,070
-289,862	260,386	0,038	0,049
-288,847	800,000	-0,033	-0,079
-287,832	-28,416	-0,077	-0,032
-286,818	66,255	-0,106	0,079
-285,803	-200,000	-0,012	-0,149
-284,789	-200,000	-0,010	0,037
-283,774	-69,359	0,144	-0,040
-282,759	-26,689	0,072	-0,031
-281,745	-200,000	-0,028	0,114
-280,730	207,800	0,068	0,078
-279,716	633,176	0,015	-0,027
-278,701	180,665	0,068	0,073
-277,686	-120,701	0,090	-0,011
-276,672	69,167	0,091	0,069
-275,657	-200,000	-0,012	0,145
-274,643	-78,019	0,082	-0,020
-273,628	6,229	-0,062	0,034
-272,613	-200,000	-0,002	-0,025
-271,599	380,430	0,001	0,002
-270,584	-52,103	-0,085	0,029
-269,570	-66,283	0,063	-0,018
-268,555	800,000	0,057	0,162
-267,540	239,338	-0,063	-0,077
-266,526	800,000	0,057	-0,129
-265,511	-37,113	-0,108	0,042
-264,497	106,789	0,064	0,056
-263,482	-64,678	0,110	-0,032
-262,467	28,496	-0,187	-0,115
-261,453	-58,876	0,106	-0,033
-260,438	-200,000	-0,008	0,037
-259,424	20,409	-0,124	-0,073
-258,409	-200,000	-0,012	0,126
-257,395	-200,000	-0,017	0,215
-256,380	192,138	0,045	0,050
-255,365	324,797	-0,037	0,052
-254,351	515,754	-0,042	-0,073
-253,336	239,383	0,035	0,042
-252,322	765,814	-0,047	0,093
-251,307	-200,000	-0,006	-0,030
-250,292	702,378	-0,046	0,088
-249,278	331,569	0,062	0,087
-248,263	-200,000	0,030	-0,133
-247,249	-40,974	0,152	0,057
-246,234	9,037	0,003	0,002
-245,219	800,000	-0,027	-0,083
-244,205	-97,390	-0,114	-0,022
-243,190	653,579	0,020	-0,037
-242,176	-74,691	0,181	-0,047
-241,161	5,420	0,117	0,063
-240,146	28,255	-0,068	0,042
-239,132	-82,737	-0,095	-0,022
-238,117	-200,000	-0,003	-0,148
-237,103	800,000	-0,050	-0,127
-236,088	-111,713	-0,147	0,022
-235,073	-144,819	0,052	-0,003
-234,059	-80,947	0,127	-0,031
-233,044	800,000	-0,019	0,049
-232,030	113,081	0,053	-0,047
-231,015	-83,255	-0,113	-0,026
-230,000	470,055	0,053	-0,087
-228,986	-200,000	-0,024	-0,190
-227,971	-200,000	0,006	-0,098
-226,957	-200,000	0,008	-0,078
-225,942	-102,888	0,177	0,030
-224,927	-190,030	-0,118	-0,001
-223,913	-200,000	-0,006	0,054
-222,898	-29,311	0,057	-0,024
-221,884	800,000	0,036	-0,102
-220,869	-106,680	-0,096	0,015
-219,855	82,782	-0,086	0,068
-218,840	-200,000	-0,039	-0,163
-217,825	172,979	-0,091	-0,096
-216,811	17,252	0,026	0,015
-215,796	-200,000	0,002	-0,026
-214,782	17,551	-0,098	-0,057
-213,767	64,582	0,071	0,052
-212,752	141,274	0,077	-0,074
-211,738	-200,000	-0,021	-0,070
-210,723	93,431	-0,060	-0,049
-209,709	553,186	-0,136	-0,240
-208,694	-200,000	-0,015	0,089
-207,679	434,517	0,031	-0,049
-206,665	-161,679	0,096	-0,004
-205,650	-37,830	0,114	0,044
-204,636	-50,130	-0,055	0,019
-203,621	371,056	-0,012	-0,018
-202,606	800,000	-0,036	-0,101
-201,592	800,000	-0,032	-0,075
-200,577	73,328	0,027	-0,021
-199,563	800,000	-0,032	0,088
-198,548	800,000	-0,015	-0,046
-197,533	-200,000	0,022	0,157
-196,519	18,897	-0,177	0,103
-195,504	-94,774	-0,031	-0,006
-194,490	800,000	0,020	-0,064
-193,475	163,649	-0,024	-0,025
-192,460	254,593	-0,016	-0,019
-191,446	-29,718	0,069	-0,029
-190,431	-24,984	0,092	0,040
-189,417	-200,000	-0,009	0,032
-188,402	-162,910	0,045	0,002
-187,387	800,000	0,022	0,069
-186,373	-200,000	0,007	0,076
-185,358	-21,271	0,101	0,045
-184,344	-22,556	0,063	-0,028
-183,329	-200,000	0,024	-0,096
-182,315	491,431	0,097	0,163
-181,300	-82,659	-0,036	-0,008
-180,285	-119,917	-0,007	-0,001
-179,271	372,196	-0,046	-0,068
-178,256	163,418	-0,072	0,074
-177,242	-200,000	0,010	0,114
-176,227	-200,000	0,036	0,157
-175,212	800,000	0,056	0,155
-174,198	-28,206	-0,054	0,023
-173,183	218,282	-0,040	0,047
-172,169	-61,000	-0,097	-0,030
-171,154	-79,219	0,012	-0,003
-170,139	114,880	0,038	-0,034
-169,125	-117,748	-0,048	0,006
-168,110	185,982	0,098	0,106
-167,096	-54,373	-0,087	-0,029
-166,081	-114,460	0,091	0,013
-165,066	800,000	-0,008	0,018
-164,052	-200,000	0,007	-0,055
-163,037	-200,000	0,017	0,146
-162,023	800,000	0,022	-0,049
-161,008	-200,000	-0,004	0,214
-159,993	-1,636	0,085	0,044
-158,979	-3,782	0,072	0,036
-157,964	373,608	-0,136	-0,202
-156,950	-200,000	0,007	-0,091
-155,935	800,000	0,016	0,041
-154,920	-200,000	-0,006	0,063
-153,906	800,000	-0,028	0,063
-152,891	440,826	0,057	-0,091
-151,877	29,231	-0,068	-0,042
-150,862	221,772	-0,121	-0,141
-149,847	41,547	-0,104	0,068
-148,833	-92,426	0,169	-0,034
-147,818	546,419	0,041	0,072
-146,804	-200,000	0,001	0,080
-145,789	-121,367	0,130	0,016
-144,775	-69,412	0,081	0,022
-143,760	-141,768	-0,091	0,007
-142,745	22,306	-0,023	-0,014
-141,731	-200,000	0,017	-0,105
-140,716	-87,345	-0,075	0,016
-139,702	37,733	0,149	-0,096
-138,687	8,398	-0,013	-0,007
-137,672	256,700	0,007	0,009
-136,658	-183,404	-0,152	-0,002
-135,643	560,401	-0,051	0,090
-134,629	-59,154	-0,060	-0,019
-133,614	165,385	0,100	0,103
-132,599	-1,415	-0,082	-0,042
-131,585	11,685	-0,175	0,098
-130,570	59,978	-0,031	-0,022
-129,556	800,000	-0,008	-0,021
-128,541	110,895	-0,140	0,122
-127,526	57,224	0,047	0,034
-126,512	-63,441	0,006	0,002
-125,497	13,671	0,159	-0,090
-124,483	-200,000	0,006	0,085
-123,468	-20,583	0,085	-0,038
-122,453	-5,991	-0,021	-0,010
-121,439	-53,238	-0,111	0,037
-120,424	204,946	-0,112	0,127
-119,410	-91,256	0,113	0,023
-118,395	-200,000	-0,001	-0,119
-117,380	334,589	-0,078	0,110
-116,366	463,266	0,024	-0,039
-115,351	408,447	-0,056	-0,087
-114,337	266,064	0,118	-0,149
-113,322	-16,452	0,002	0,001
-112,307	6,088	0,047	0,025
-111,293	-130,601	-0,043	-0,004
-110,278	-35,810	-0,098	0,038
-109,264	-72,358	0,072	0,019
-108,249	800,000	-0,070	-0,160
-107,234	-200,000	-0,012	-0,112
-106,220	-200,000	0,015	-0,119
-105,205	107,660	0,060	-0,052
-104,191	-99,347	0,040	0,007
-103,176	-200,000	0,013	0,056
-102,162	-123,695	-0,031	0,004
-101,147	-26,910	0,090	0,038
-100,132	125,623	-0,026	0,024
-99,118	-200,000	-0,005	-0,097
-98,103	56,482	-0,065	0,046
-97,089	-44,153	0,100	0,036
-96,074	-200,000	0,022	0,117
-95,059	-26,431	0,100	-0,042
-94,045	-56,459	-0,012	-0,004
-93,030	394,927	-0,062	-0,095
-92,016	-200,000	0,006	-0,021
-91,001	515,278	-0,088	-0,150
-89,986	-53,469	0,077	0,025
-88,972	628,879	-0,056	0,104
-87,957	-84,955	0,080	0,018
-86,943	0,255	0,121	-0,062
-85,928	-200,000	-0,019	-0,125
-84,913	424,717	0,053	0,082
-83,899	113,607	-0,025	0,022
-82,884	48,165	-0,058	0,039
-81,870	264,898	-0,029	0,037
-80,855	-45,347	-0,070	0,025
-79,840	-38,095	-0,186	0,071
-78,826	516,275	0,079	-0,134
-77,811	112,808	-0,052	-0,045
-76,797	394,518	0,048	-0,073
-75,782	12,926	0,062	0,035
-74,767	-200,000	-0,029	0,110
-73,753	-200,000	-0,006	0,121
-72,738	737,769	-0,027	0,052
-71,724	-200,000	-0,025	-0,099
-70,709	141,313	0,100	0,096
-69,694	-200,000	-0,001	0,096
-68,680	-200,000	-0,004	0,156
-67,665	-200,000	0,022	0,124
-66,651	-200,000	-0,011	0,151
-65,636	554,197	-0,079	0,138
-64,622	800,000	-0,050	0,107
-63,607	-200,000	-0,005	0,073
-62,592	8,723	0,031	0,017
-61,578	-200,000	0,009	0,075
-60,563	800,000	0,017	0,045
-59,549	-200,000	0,002	0,187
-58,534	-51,189	-1,672	-0,565
-57,519	800,000	-0,502	-1,109
-56,505	-200,000	-1,137	-4,660
-55,490	-179,654	0,776	-0,012
-54,476	800,000	5,147	12,116
-53,461	-200,000	15,581	278,576
-52,446	-200,000	697,245	2274,412
-51,432	588,394	1615,599	2895,952
-50,417	122,969	1623,305	1472,914
-49,403	83,892	1282,577	1013,779
-48,388	37,540	1025,251	657,787
-47,373	22,102	986,785	582,067
-46,359	21,031	975,449	571,827
-45,344	19,434	971,431	564,198
-44,330	19,489	970,190	563,636
-43,315	19,317	968,352	561,982
-42,300	19,272	967,254	561,177
-41,286	19,220	966,510	560,552
-40,271	19,251	965,306	559,932
-39,257	19,285	964,514	559,561
-38,242	19,242	963,758	558,959
-37,227	19,196	963,020	558,360
-36,213	19,221	961,922	557,783
-35,198	19,170	961,262	557,213
-34,184	19,261	960,555	557,077
-33,169	19,189	959,551	556,239
-32,154	19,278	958,616	555,962
-31,140	19,259	957,761	555,383
-30,125	19,278	956,967	554,964
-29,111	19,274	956,153	554,456
-28,096	19,208	955,661	553,935
-27,082	19,236	954,944	553,588
-26,067	19,263	954,072	553,145
-25,052	19,194	953,448	552,541
-24,038	19,263	952,550	552,220
-23,023	19,234	951,799	551,669
-22,009	19,232	951,323	551,366
-20,994	19,262	950,621	551,035
-19,979	19,264	950,119	550,729
-18,965	19,220	949,311	550,096
-17,950	19,222	948,876	549,827
-16,936	19,119	948,246	549,111
-15,921	19,164	947,434	548,763
-14,906	19,107	946,764	548,169
-13,892	19,101	946,115	547,753
-12,877	19,134	945,414	547,433
-11,863	19,073	944,657	546,777
-10,848	19,081	944,456	546,666
-9,833	19,210	943,897	546,732
-8,819	19,153	943,307	546,185
-7,804	19,095	942,536	545,533
-6,790	19,042	942,085	545,079
-5,775	19,097	941,565	544,933
-4,760	19,152	940,806	544,647
-3,746	19,139	940,224	544,247
-2,731	18,948	939,292	543,078
-1,717	18,887	938,737	542,544
-0,702	18,883	938,153	542,173
0,313	18,691	937,659	542,095
1,327	21,688	935,765	550,441
2,342	30,781	794,524	491,598
3,356	27,571	449,443	273,229
4,371	-2,825	295,339	148,960
5,386	-7,036	276,906	135,629
6,400	-8,452	271,086	131,442
7,415	-8,834	268,890	130,010
8,429	-8,444	267,708	129,787
9,444	-8,362	267,092	129,553
10,459	-8,054	266,371	129,475
11,473	-8,209	265,689	128,990
12,488	-8,049	265,223	128,899
13,502	-8,404	264,764	128,339
14,517	-7,938	264,364	128,560
15,531	-7,806	264,126	128,553
16,546	-7,526	263,842	128,657
17,561	-7,617	263,393	128,344
18,575	-7,609	263,225	128,258
19,590	-7,616	262,774	128,021
20,604	-7,404	262,465	128,051
21,619	-7,663	262,258	127,705
22,634	-7,497	261,809	127,624
23,648	-7,656	261,682	127,408
24,663	-7,581	261,164	127,211
25,677	-7,618	261,021	127,097
26,692	-7,729	260,787	126,872
27,707	-7,579	260,557	126,883
28,721	-7,655	260,246	126,652
29,736	-7,716	260,052	126,492
30,750	-7,794	259,774	126,276
31,765	-7,548	259,486	126,345
32,780	-7,653	259,272	126,136
33,794	-7,670	258,974	125,964
34,809	-8,009	258,924	125,626
35,823	-7,872	258,497	125,529
36,838	-7,674	258,251	125,575
37,853	-7,783	258,213	125,448
38,867	-7,767	257,873	125,286
39,882	-7,712	257,596	125,190
40,896	-7,871	257,490	124,985
41,911	-7,779	257,234	124,932
42,926	-7,829	256,992	124,758
43,940	-7,842	256,743	124,615
44,955	-7,758	256,620	124,618
45,969	-7,866	256,110	124,265
46,984	-8,102	256,028	124,005
47,999	-8,161	255,901	123,881
49,013	-8,100	255,269	123,618
50,028	-8,316	255,340	123,452
51,042	-8,459	255,076	123,187
52,057	-8,350	254,669	123,076
53,071	-8,274	254,650	123,121
54,086	-7,982	254,302	123,198
55,101	-8,404	254,394	122,862
56,115	-8,115	254,164	122,993
57,130	-7,780	254,024	123,206
58,144	-7,808	253,841	123,083
59,159	-7,508	253,539	123,186
60,174	-7,622	253,309	122,965
61,188	-7,783	253,260	122,790
62,203	-7,863	252,862	122,516
63,217	-7,851	252,832	122,501
64,232	-7,945	252,615	122,304
65,247	-7,665	252,361	122,413
66,261	-7,906	252,069	122,052
67,276	-7,918	251,880	121,938
68,290	-8,099	251,562	121,617
69,305	-7,948	251,317	121,618
70,320	-8,156	251,223	121,382
71,334	-7,863	251,058	121,544
72,349	-7,797	250,890	121,509
73,363	-7,628	250,607	121,507
74,378	-7,877	250,660	121,308
75,393	-7,686	250,338	121,305
76,407	-7,862	250,161	121,057
77,422	-7,775	249,950	121,019
78,436	-7,965	249,706	120,728
79,451	-7,698	249,376	120,785
80,466	-7,843	249,190	120,561
81,480	-7,732	248,957	120,532
82,495	-8,193	248,989	120,143
83,509	-7,962	248,825	120,250
84,524	-7,930	248,626	120,170
85,539	-8,038	248,193	119,859
86,553	-8,202	248,062	119,645
87,568	-8,059	247,829	119,644
88,582	-8,145	247,737	119,515
89,597	-8,229	247,487	119,313
90,611	-7,911	247,288	119,476
91,626	-7,778	247,173	119,523
92,641	-7,865	246,950	119,331
93,655	-7,754	246,808	119,345
94,670	-7,863	246,526	119,106
95,684	-7,846	246,494	119,094
96,699	-7,982	246,284	118,867
97,714	-7,989	246,075	118,750
98,728	-8,043	245,773	118,548
99,743	-7,827	245,556	118,614
100,757	-8,189	245,459	118,252
101,772	-8,153	245,305	118,198
102,787	-8,276	245,096	117,984
103,801	-8,154	244,848	117,956
104,816	-8,001	244,819	118,060
105,830	-7,919	244,506	117,967
106,845	-7,833	244,562	118,055
107,860	-7,988	244,211	117,746
108,874	-8,098	243,974	117,529
109,889	-8,111	243,663	117,358
110,903	-8,196	243,355	117,129
111,918	-8,270	243,460	117,107
112,933	-8,188	243,215	117,047
113,947	-7,806	243,033	117,267
114,962	-8,044	243,016	117,050
115,976	-8,133	242,830	116,877
116,991	-8,021	242,475	116,787
118,006	-8,077	242,443	116,716
119,020	-8,079	242,248	116,610
120,035	-7,719	242,120	116,835
121,049	-7,759	241,906	116,689
122,064	-7,974	241,732	116,417
123,079	-7,970	241,646	116,369
124,093	-8,085	241,479	116,183
125,108	-7,974	241,100	116,082
126,122	-8,201	240,865	115,771
127,137	-8,126	240,754	115,769
128,151	-8,091	240,678	115,751
129,166	-8,351	240,531	115,457
130,181	-8,063	240,226	115,536
131,195	-8,362	240,104	115,221
132,210	-8,256	239,996	115,247
133,224	-8,094	239,721	115,237
134,239	-8,001	239,459	115,176
135,254	-8,147	239,453	115,044
136,268	-8,145	239,187	114,908
137,283	-8,424	239,049	114,603
138,297	-8,280	238,718	114,552
139,312	-8,450	238,594	114,344
140,327	-8,343	238,498	114,374
141,341	-7,634	238,342	114,866
142,356	-7,593	238,199	114,821
143,370	-7,841	237,981	114,503
144,385	-7,811	237,922	114,489
145,400	-7,689	237,910	114,573
146,414	-7,428	237,538	114,595
147,429	-7,773	237,381	114,230
148,443	-7,726	237,213	114,176
149,458	-7,833	237,124	114,037
150,473	-7,685	236,740	113,962
151,487	-8,011	236,544	113,594
152,502	-7,845	236,533	113,713
153,516	-7,620	236,372	113,806
154,531	-7,655	236,161	113,667
155,546	-7,616	235,882	113,553
156,560	-7,863	235,985	113,394
157,575	-8,205	235,667	112,957
158,589	-8,078	235,443	112,941
159,604	-7,487	235,287	113,330
160,619	-7,609	235,251	113,205
161,633	-7,468	235,042	113,207
162,648	-7,637	235,050	113,066
163,662	-7,821	234,681	112,731
164,677	-7,806	234,513	112,652
165,692	-7,743	234,344	112,611
166,706	-7,539	234,374	112,778
167,721	-7,363	234,075	112,764
168,735	-7,393	234,010	112,699
169,750	-7,684	233,888	112,399
170,764	-7,688	233,569	112,232
171,779	-7,875	233,562	112,070
172,794	-7,702	233,350	112,096
173,808	-7,841	233,059	111,836
174,823	-8,188	232,821	111,437
175,837	-8,249	232,688	111,314
176,852	-8,030	232,634	111,453
177,867	-7,795	232,543	111,585
178,881	-7,618	232,372	111,633
179,896	-7,559	232,216	111,595
180,910	-7,801	232,102	111,339
181,925	-7,569	231,863	111,397
182,940	-7,577	231,588	111,249
183,954	-7,688	231,538	111,128
184,969	-7,403	231,462	111,305
185,983	-7,460	231,349	111,196
186,998	-7,465	231,199	111,110
188,013	-7,397	230,891	111,005
189,027	-7,524	230,886	110,893
190,042	-7,444	230,669	110,842
191,056	-7,646	230,441	110,565
192,071	-7,692	230,348	110,474
193,086	-7,942	230,155	110,176
194,100	-8,376	229,558	109,542
195,115	-10,033	228,845	107,903
196,129	-10,130	228,981	107,883
197,144	-5,436	230,300	112,165
198,159	-0,247	231,890	117,005
199,173	3,135	232,852	120,140
200,188	3,742	232,956	120,661
201,202	3,901	232,880	120,735
202,217	4,212	232,714	120,882
203,232	4,279	232,595	120,862
204,246	4,545	232,548	121,035
205,261	4,302	232,497	120,808
206,275	4,568	232,094	120,795
207,290	4,569	232,060	120,767
208,304	4,639	231,777	120,665
209,319	4,487	231,654	120,471
210,334	4,325	231,534	120,272
211,348	4,207	231,181	119,985
212,363	3,811	231,086	119,617
213,377	3,490	230,813	119,216
214,392	3,131	230,592	118,812
215,407	3,369	230,342	118,857
216,421	3,372	230,133	118,741
217,436	3,153	230,107	118,548
218,450	3,182	229,752	118,376
219,465	3,070	229,643	118,223
220,480	3,072	229,574	118,179
221,494	3,057	229,487	118,111
222,509	3,335	229,310	118,225
223,523	3,304	229,228	118,148
224,538	3,252	229,105	118,034
225,553	3,307	228,867	117,943
226,567	3,329	228,652	117,839
227,582	3,272	228,641	117,778
228,596	3,488	228,596	117,911
229,611	3,341	228,347	117,659
230,626	3,187	228,031	117,368
231,640	3,269	227,928	117,367
232,655	3,464	227,833	117,458
233,669	3,228	227,822	117,260
234,684	3,406	227,623	117,284
235,699	3,467	227,437	117,224
236,713	3,659	227,187	117,231
237,728	3,374	227,120	116,969
238,742	3,564	227,021	117,053
239,757	3,322	226,924	116,807
240,772	3,473	226,726	116,810
241,786	3,589	226,632	116,839
242,801	3,895	226,472	116,979
243,815	3,902	226,432	116,953
244,830	4,032	226,329	116,988
245,844	3,765	226,070	116,642
246,859	3,646	225,846	116,425
247,874	3,596	225,725	116,315
248,888	3,789	225,535	116,353
249,903	3,549	225,405	116,093
250,917	3,347	225,410	115,933
251,932	3,704	225,068	116,017
252,947	3,637	224,892	115,864
253,961	3,376	224,976	115,700
254,976	3,358	224,776	115,574
255,990	3,620	224,514	115,627
257,005	3,707	224,258	115,550
258,020	3,890	224,223	115,659
259,034	3,924	224,164	115,644
260,049	3,853	223,989	115,490
261,063	3,857	223,802	115,386
262,078	3,624	223,690	115,143
263,093	3,932	223,479	115,256
264,107	3,545	223,426	114,928
265,122	3,521	223,302	114,836
266,136	3,576	223,208	114,818
267,151	3,889	223,010	114,940
268,166	3,577	222,814	114,596
269,180	3,399	222,517	114,300
270,195	3,301	222,544	114,231
271,209	3,722	222,142	114,328
272,224	3,440	222,185	114,130
273,239	3,364	222,022	113,979
274,253	3,366	221,896	113,906
275,268	3,324	221,625	113,725
276,282	3,150	221,539	113,542
277,297	3,051	221,371	113,372
278,312	3,206	221,322	113,452
279,326	3,365	221,299	113,547
280,341	3,576	221,021	113,551
281,355	3,408	221,029	113,421
282,370	3,347	220,805	113,251
283,384	3,328	220,631	113,138
284,399	3,170	220,527	112,957
285,414	3,327	220,389	112,993
286,428	3,671	220,159	113,118
287,443	3,857	220,141	113,236
288,457	3,681	220,016	113,032
289,472	3,428	219,729	112,688
290,487	3,313	219,591	112,523
291,501	3,168	219,370	112,293
292,516	3,218	219,358	112,313
293,530	3,310	219,196	112,288
294,545	3,306	219,090	112,220
295,560	3,677	218,995	112,434
296,574	3,572	218,968	112,333
297,589	3,765	218,758	112,356
298,603	3,708	218,647	112,248
299,618	3,556	218,417	112,009
300,633	3,820	218,365	112,165
301,647	3,676	218,237	111,984
302,662	3,937	217,990	112,038
303,676	3,717	217,991	111,868
304,691	3,594	217,843	111,692
305,706	3,840	217,583	111,728
306,720	3,804	217,488	111,642
307,735	3,480	217,358	111,330
308,749	3,708	217,186	111,399
309,764	3,670	217,063	111,298
310,779	3,626	216,894	111,169
311,793	3,475	216,824	111,015
312,808	3,693	216,602	111,048
313,822	3,595	216,308	110,817
314,837	3,389	216,327	110,668
315,852	3,412	216,201	110,610
316,866	3,577	216,062	110,648
317,881	3,595	215,907	110,572
318,895	3,444	215,796	110,396
319,910	3,362	215,569	110,212
320,925	3,226	215,500	110,069
321,939	3,082	215,267	109,836
322,954	3,260	215,218	109,929
323,968	3,298	215,083	109,878
324,983	3,457	214,970	109,924
325,997	3,525	214,791	109,872
327,012	3,530	214,566	109,750
328,027	3,529	214,380	109,645
329,041	3,587	214,445	109,710
330,056	3,688	214,282	109,689
331,070	3,424	214,101	109,398
332,085	3,370	213,957	109,276
333,100	3,698	213,758	109,398
334,114	3,360	213,778	109,158
335,129	3,339	213,562	109,023
336,143	3,643	213,362	109,127
337,158	3,359	213,395	108,933
338,173	3,503	213,097	108,873
339,187	3,306	213,081	108,716
340,202	3,437	212,788	108,649
341,216	3,319	212,628	108,474
342,231	3,445	212,590	108,534
343,246	3,364	212,407	108,373
344,260	3,402	212,267	108,319
345,275	3,370	212,290	108,298
346,289	3,499	212,122	108,294
347,304	3,353	212,149	108,196
348,319	3,614	211,859	108,222
349,333	3,223	211,735	107,873
350,348	3,389	211,522	107,872
351,362	3,456	211,417	107,857
352,377	3,470	211,303	107,799
353,392	3,280	211,249	107,628
354,406	3,549	211,051	107,706
355,421	192,917	1342,127	1425,462
356,435	153,978	1479,982	1425,520
