DTS Sentinel unit serial number:	SN410029Multiplexer serial number:	ORYXHardware model number:	OX2-SRSoftware version number:	ORYX F/W v4,00 Oryx Data Collector v3.7.2.0data status	okinstallation	B6 Nyhavnadifferential loss correction	single-endedforward channel	channel 2reverse channel	N/Adate	2023/12/10time	21:10:08forward acquisition time	300,00reverse acquisition time	0,00gamma	499,1914k internal	0,3123k external	0,3123temperature offset calibration	1,0000default loss term (dB/km)	0,3820temperature slope calibration	1,0000multiplexer offset coefficient	1,0000multiplexer slope coefficient	1,0000fibre end	0,00T internal ref (°C)	22,25T ext. ref 1 (°C)	5,98T ext. ref 2 (°C)	5,99length (m)	temperature (°C)	Stokes	anti-Stokes-744,400	800,000	0,080	-0,174
-743,385	194,587	-0,147	0,167
-742,371	-10,672	0,093	-0,046
-741,356	-36,209	-0,242	0,097
-740,342	800,000	-0,022	-0,066
-739,327	-4,465	-0,182	0,094
-738,312	319,705	-0,012	0,017
-737,298	-85,076	-0,312	0,072
-736,283	-20,021	0,094	0,043
-735,269	-113,555	-0,258	0,037
-734,254	800,000	-0,019	-0,048
-733,239	-9,394	-0,401	-0,199
-732,225	800,000	-0,023	-0,058
-731,210	0,446	-0,064	0,034
-730,196	-90,808	0,124	0,026
-729,181	800,000	-0,018	0,055
-728,167	60,673	-0,093	0,068
-727,152	417,681	0,043	-0,068
-726,137	-200,000	-0,034	-0,165
-725,123	800,000	0,043	-0,102
-724,108	-23,007	0,029	-0,013
-723,094	392,965	-0,041	-0,064
-722,079	106,944	-0,112	-0,099
-721,064	-24,647	0,134	0,059
-720,050	-200,000	0,007	-0,060
-719,035	-200,000	-0,004	0,028
-718,021	131,112	0,053	-0,051
-717,006	-171,836	-0,149	0,004
-715,991	623,604	0,029	-0,054
-714,977	215,174	-0,057	0,067
-713,962	-197,289	0,055	0,000
-712,948	-177,640	-0,048	0,001
-711,933	12,832	-0,022	-0,012
-710,918	10,349	-0,066	0,037
-709,904	-8,266	-0,039	-0,019
-708,889	25,907	-0,178	-0,110
-707,875	-200,000	-0,010	-0,040
-706,860	-200,000	-0,028	0,096
-705,845	-48,289	0,058	0,021
-704,831	289,770	-0,043	0,058
-703,816	800,000	-0,040	-0,092
-702,802	-94,832	-0,096	-0,019
-701,787	-72,899	0,056	0,015
-700,772	-17,683	-0,143	0,066
-699,758	-200,000	0,014	0,078
-698,743	516,758	0,065	0,113
-697,729	-32,600	-0,088	0,036
-696,714	239,412	-0,113	0,140
-695,699	226,164	0,086	-0,103
-694,685	-36,776	-0,228	-0,091
-693,670	-200,000	-0,007	-0,133
-692,656	-200,000	-0,015	-0,108
-691,641	-200,000	0,031	-0,157
-690,627	-200,000	0,006	-0,136
-689,612	46,166	-0,075	0,052
-688,597	64,338	-0,050	0,037
-687,583	-75,620	-0,073	0,019
-686,568	-142,582	0,054	0,004
-685,554	-200,000	-0,010	-0,123
-684,539	95,149	0,088	0,074
-683,524	-131,779	0,003	0,000
-682,510	-200,000	-0,029	-0,113
-681,495	496,687	0,052	-0,090
-680,481	253,662	-0,027	-0,035
-679,466	-200,000	0,026	-0,093
-678,451	24,852	0,090	-0,055
-677,437	213,617	0,039	-0,046
-676,422	-44,168	-0,045	-0,017
-675,408	194,347	0,073	-0,082
-674,393	-114,743	-0,052	-0,007
-673,378	-102,123	-0,056	0,010
-672,364	-156,869	-0,072	-0,003
-671,349	-94,975	-0,153	0,030
-670,335	-200,000	-0,026	0,109
-669,320	800,000	-0,031	0,080
-668,305	738,540	-0,022	0,043
-667,291	99,782	-0,096	0,082
-666,276	155,282	-0,030	-0,031
-665,262	-185,036	0,060	0,001
-664,247	-200,000	-0,009	0,052
-663,232	-152,430	-0,043	-0,002
-662,218	211,264	-0,063	0,074
-661,203	-200,000	0,014	0,096
-660,189	-200,000	-0,014	0,056
-659,174	628,687	-0,049	-0,093
-658,159	-106,005	-0,177	0,029
-657,145	26,705	0,075	-0,046
-656,130	800,000	0,029	-0,082
-655,116	-200,000	-0,004	-0,125
-654,101	-200,000	0,014	-0,080
-653,086	-94,244	-0,039	-0,008
-652,072	-122,923	0,064	0,008
-651,057	253,646	0,021	-0,027
-650,043	372,199	0,064	0,097
-649,028	303,365	0,066	-0,092
-648,014	-129,681	-0,072	-0,007
-646,999	338,067	0,039	0,057
-645,984	-200,000	-0,007	0,035
-644,970	302,528	-0,088	0,122
-643,955	800,000	-0,044	-0,109
-642,941	-200,000	-0,006	-0,054
-641,926	404,042	-0,057	0,089
-640,911	76,399	0,065	0,051
-639,897	-200,000	-0,023	0,079
-638,882	-200,000	-0,001	-0,030
-637,868	-77,900	0,040	0,010
-636,853	-143,003	-0,039	0,003
-635,838	29,887	0,067	-0,042
-634,824	-200,000	-0,005	-0,057
-633,809	800,000	-0,038	-0,082
-632,795	800,000	-0,029	0,060
-631,780	-40,288	-0,053	0,020
-630,765	544,281	0,034	-0,060
-629,751	-130,478	0,123	-0,012
-628,736	-144,926	-0,197	-0,013
-627,722	223,678	0,066	0,079
-626,707	-200,000	-0,004	0,119
-625,692	-200,000	-0,038	0,136
-624,678	-200,000	-0,009	0,202
-623,663	-102,641	0,102	-0,018
-622,649	34,991	-0,082	-0,053
-621,634	-71,093	-0,031	0,009
-620,619	24,276	0,118	0,072
-619,605	169,498	0,167	0,177
-618,590	223,461	0,058	0,070
-617,576	282,730	0,077	0,103
-616,561	-200,000	-0,008	0,076
-615,546	-6,163	0,041	-0,021
-614,532	-50,720	0,127	-0,044
-613,517	-200,000	0,027	-0,102
-612,503	241,913	-0,101	-0,126
-611,488	-109,368	0,006	0,001
-610,474	-104,675	0,135	0,023
-609,459	13,815	0,069	0,040
-608,444	29,039	-0,151	-0,095
-607,430	150,506	-0,118	-0,119
-606,415	66,805	-0,076	-0,057
-605,401	132,011	0,059	0,056
-604,386	-46,218	-0,072	-0,026
-603,371	800,000	-0,011	0,030
-602,357	487,675	-0,074	-0,127
-601,342	62,313	-0,057	0,042
-600,328	-200,000	0,013	-0,053
-599,313	224,431	0,096	-0,115
-598,298	563,613	0,056	0,100
-597,284	240,635	0,075	0,093
-596,269	714,142	0,044	-0,087
-595,255	-200,000	-0,004	0,111
-594,240	-15,804	-0,095	0,045
-593,225	-7,727	0,029	0,015
-592,211	-200,000	0,005	-0,091
-591,196	1,002	0,080	-0,042
-590,182	-87,715	-0,118	-0,026
-589,167	134,184	-0,048	0,047
-588,152	-200,000	0,012	0,040
-587,138	0,129	-0,064	-0,034
-586,123	-80,001	-0,143	-0,035
-585,109	800,000	0,027	-0,075
-584,094	-200,000	0,009	0,065
-583,079	229,873	-0,031	0,038
-582,065	-117,429	0,077	-0,010
-581,050	730,253	-0,012	0,024
-580,036	-200,000	-0,015	-0,085
-579,021	51,354	-0,038	0,027
-578,006	-200,000	-0,004	-0,041
-576,992	-126,820	-0,143	0,015
-575,977	402,089	0,068	0,106
-574,963	-200,000	0,028	0,149
-573,948	-32,668	-0,080	-0,033
-572,934	94,356	-0,076	0,064
-571,919	1,698	0,079	0,042
-570,904	82,785	0,081	0,065
-569,890	64,701	0,033	-0,024
-568,875	-18,098	-0,051	-0,024
-567,861	-110,114	-0,151	0,023
-566,846	185,969	0,124	0,137
-565,831	-200,000	-0,024	-0,184
-564,817	459,768	-0,039	-0,065
-563,802	185,303	0,060	-0,066
-562,788	46,726	0,039	-0,027
-561,773	76,100	-0,030	0,023
-560,758	171,355	0,042	0,045
-559,744	800,000	-0,022	-0,068
-558,729	-64,046	-0,064	0,019
-557,715	-200,000	-0,003	0,031
-556,700	-80,892	0,078	0,019
-555,685	-200,000	-0,006	-0,058
-554,671	-38,433	0,062	0,024
-553,656	232,977	0,054	-0,066
-552,642	192,886	0,085	0,095
-551,627	681,923	0,046	0,090
-550,612	-6,553	-0,037	-0,019
-549,598	270,633	-0,101	-0,132
-548,583	19,266	-0,016	-0,009
-547,569	800,000	0,051	-0,122
-546,554	800,000	-0,090	-0,195
-545,539	800,000	0,035	0,113
-544,525	800,000	-0,008	0,017
-543,510	93,927	0,062	-0,052
-542,496	275,090	-0,024	-0,032
-541,481	800,000	-0,074	-0,161
-540,466	428,561	0,027	-0,044
-539,452	-79,112	0,177	0,044
-538,437	71,349	-0,055	0,042
-537,423	-200,000	0,016	0,149
-536,408	167,865	0,116	0,122
-535,393	-200,000	-0,016	0,066
-534,379	-49,862	0,149	0,052
-533,364	267,849	-0,074	-0,096
-532,350	-60,450	0,107	0,033
-531,335	154,167	0,023	0,023
-530,321	89,631	-0,093	-0,076
-529,306	-200,000	-0,016	-0,063
-528,291	-200,000	-0,014	-0,086
-527,277	-200,000	-0,023	-0,142
-526,262	-200,000	-0,003	-0,103
-525,248	-200,000	-0,027	0,091
-524,233	-2,872	0,113	-0,058
-523,218	-6,240	-0,073	0,037
-522,204	78,868	0,052	-0,041
-521,189	-15,016	0,105	-0,050
-520,175	800,000	-0,023	-0,056
-519,160	122,056	-0,080	-0,074
-518,145	36,422	-0,060	-0,039
-517,131	62,234	-0,098	0,072
-516,116	-197,137	0,139	0,001
-515,102	-200,000	-0,007	0,083
-514,087	-200,000	0,026	0,107
-513,072	800,000	-0,034	0,089
-512,058	-51,379	-0,075	0,026
-511,043	285,199	0,069	-0,093
-510,029	800,000	0,001	-0,004
-509,014	286,887	0,045	0,061
-507,999	93,894	-0,090	-0,075
-506,985	-102,203	0,031	-0,005
-505,970	204,839	-0,057	-0,066
-504,956	-200,000	-0,034	-0,112
-503,941	-116,531	0,056	0,008
-502,926	800,000	0,072	0,159
-501,912	800,000	0,046	0,136
-500,897	312,332	-0,067	0,093
-499,883	-39,009	-0,037	0,014
-498,868	47,434	-0,159	-0,110
-497,853	-4,823	-0,041	-0,021
-496,839	295,304	0,036	-0,049
-495,824	298,620	-0,028	-0,038
-494,810	4,603	-0,098	-0,053
-493,795	74,430	0,039	-0,030
-492,781	6,135	-0,083	-0,046
-491,766	-153,996	-0,046	0,002
-490,751	-149,972	0,028	-0,002
-489,737	-200,000	-0,020	0,088
-488,722	-200,000	-0,015	-0,109
-487,708	196,930	-0,039	-0,044
-486,693	616,530	0,029	0,054
-485,678	-104,422	-0,155	-0,026
-484,664	322,976	0,042	-0,060
-483,649	102,269	-0,060	0,052
-482,635	-200,000	0,007	0,104
-481,620	-200,000	0,027	0,101
-480,605	-54,222	0,045	0,015
-479,591	368,660	0,039	0,058
-478,576	-123,712	-0,152	-0,018
-477,562	-80,266	-0,070	-0,017
-476,547	-200,000	-0,016	-0,256
-475,532	93,570	-0,093	-0,078
-474,518	484,031	0,034	-0,058
-473,503	-140,883	-0,103	-0,008
-472,489	800,000	0,015	-0,043
-471,474	84,999	0,087	-0,071
-470,459	-48,464	-0,108	0,038
-469,445	-18,119	-0,038	-0,018
-468,430	119,062	-0,079	-0,072
-467,416	160,932	0,134	-0,139
-466,401	732,821	0,035	-0,069
-465,386	-44,830	0,161	-0,059
-464,372	383,642	-0,057	-0,087
-463,357	66,737	-0,086	-0,064
-462,343	42,195	0,052	-0,035
-461,328	114,209	0,103	-0,093
-460,313	-200,000	0,013	-0,075
-459,299	22,697	0,148	0,089
-458,284	-200,000	-0,006	-0,077
-457,270	-200,000	0,015	0,085
-456,255	-159,135	-0,166	-0,007
-455,241	-115,841	-0,229	-0,031
-454,226	-200,000	0,005	-0,157
-453,211	23,917	-0,023	0,014
-452,197	-200,000	-0,004	0,158
-451,182	-200,000	0,000	-0,062
-450,168	-200,000	-0,013	0,058
-449,153	-83,865	-0,149	0,035
-448,138	412,037	0,123	-0,193
-447,124	800,000	-0,012	-0,032
-446,109	240,256	-0,039	0,048
-445,095	800,000	0,014	0,035
-444,080	87,008	-0,019	-0,016
-443,065	349,882	0,092	-0,134
-442,051	800,000	0,024	-0,070
-441,036	452,747	0,043	-0,071
-440,022	-200,000	-0,014	-0,051
-439,007	119,561	-0,051	0,047
-437,992	541,578	0,074	0,131
-436,978	213,338	0,145	0,169
-435,963	800,000	0,016	-0,045
-434,949	566,504	-0,051	0,091
-433,934	-1,108	-0,087	0,045
-432,919	148,869	0,040	-0,039
-431,905	102,036	-0,117	0,100
-430,890	-200,000	0,003	0,013
-429,876	619,661	0,028	0,053
-428,861	43,414	-0,096	0,064
-427,846	-138,889	0,103	0,008
-426,832	800,000	0,031	0,089
-425,817	128,301	-0,159	-0,149
-424,803	-149,196	0,015	-0,001
-423,788	458,438	0,048	0,080
-422,773	-138,854	-0,117	0,009
-421,759	111,906	0,073	-0,065
-420,744	-200,000	0,001	-0,051
-419,730	-200,000	-0,006	0,031
-418,715	183,827	0,112	-0,122
-417,701	-200,000	0,000	-0,058
-416,686	-96,263	-0,113	-0,022
-415,671	-33,941	0,096	0,039
-414,657	119,402	0,100	0,091
-413,642	-151,310	0,015	-0,001
-412,628	-36,514	-0,128	-0,050
-411,613	-14,485	-0,164	0,077
-410,598	591,385	-0,032	0,058
-409,584	-200,000	0,004	-0,015
-408,569	81,373	0,058	-0,046
-407,555	800,000	0,034	0,081
-406,540	-168,087	0,050	0,001
-405,525	126,628	0,096	-0,089
-404,511	267,898	-0,070	-0,090
-403,496	82,644	0,018	-0,015
-402,482	452,832	-0,037	-0,061
-401,467	-200,000	0,003	-0,123
-400,452	467,041	0,025	0,041
-399,438	24,953	0,128	-0,078
-398,423	800,000	-0,045	-0,147
-397,409	-200,000	-0,047	-0,164
-396,394	-100,718	-0,067	-0,012
-395,379	48,377	-0,110	-0,076
-394,365	107,590	-0,032	0,028
-393,350	-50,740	0,136	0,047
-392,336	25,426	-0,109	-0,067
-391,321	-51,798	0,106	-0,036
-390,306	214,840	-0,186	-0,217
-389,292	60,032	-0,060	0,044
-388,277	143,334	-0,034	-0,033
-387,263	133,434	0,092	0,088
-386,248	-200,000	0,009	-0,051
-385,233	-200,000	0,001	-0,020
-384,219	544,529	0,059	-0,103
-383,204	-90,228	-0,090	-0,019
-382,190	13,224	-0,073	0,041
-381,175	-200,000	0,036	-0,123
-380,160	800,000	0,028	-0,083
-379,146	-57,655	0,168	0,054
-378,131	-200,000	-0,004	0,021
-377,117	-200,000	-0,003	-0,063
-376,102	205,783	0,096	-0,109
-375,088	-127,303	-0,082	0,009
-374,073	437,046	0,041	-0,065
-373,058	112,937	-0,033	0,029
-372,044	-129,383	0,147	0,015
-371,029	-200,000	0,005	0,062
-370,015	-4,161	-0,118	-0,060
-369,000	-1,293	0,073	-0,038
-367,985	-21,586	-0,185	-0,083
-366,971	46,778	0,024	0,016
-365,956	150,216	0,058	-0,057
-364,942	73,013	0,116	-0,089
-363,927	-26,131	0,149	0,064
-362,912	345,841	0,036	-0,053
-361,898	-45,877	-0,107	0,039
-360,883	-183,944	-0,096	-0,001
-359,869	-62,844	-0,120	0,036
-358,854	800,000	-0,061	0,136
-357,839	800,000	-0,026	-0,063
-356,825	-19,494	0,101	-0,046
-355,810	467,164	0,058	-0,096
-354,796	484,533	0,024	-0,040
-353,781	800,000	0,070	-0,145
-352,766	-200,000	-0,014	-0,056
-351,752	68,556	0,077	-0,058
-350,737	472,298	0,004	-0,006
-349,723	-79,229	0,101	-0,025
-348,708	800,000	-0,028	0,088
-347,693	448,175	-0,065	-0,105
-346,679	110,823	-0,022	-0,020
-345,664	3,166	-0,108	-0,058
-344,650	-200,000	0,006	-0,024
-343,635	-200,000	-0,016	0,137
-342,620	199,706	0,082	0,093
-341,606	8,628	0,087	0,048
-340,591	-180,403	-0,068	0,001
-339,577	5,586	-0,129	-0,070
-338,562	-28,404	0,207	-0,087
-337,548	-169,957	0,172	0,004
-336,533	-200,000	0,031	0,199
-335,518	-3,570	0,022	0,011
-334,504	800,000	-0,067	0,142
-333,489	338,129	-0,030	0,043
-332,475	28,755	0,136	0,084
-331,460	-200,000	0,004	0,030
-330,445	104,375	0,063	-0,054
-329,431	-200,000	0,008	0,151
-328,416	-200,000	-0,004	-0,022
-327,402	-200,000	-0,029	0,159
-326,387	800,000	-0,055	0,145
-325,372	-46,262	-0,097	0,035
-324,358	-145,607	0,047	0,003
-323,343	800,000	-0,046	-0,126
-322,329	-93,051	0,019	-0,004
-321,314	-91,584	-0,040	0,008
-320,299	-200,000	0,002	0,097
-319,285	50,800	-0,122	0,085
-318,270	383,425	-0,023	-0,035
-317,256	164,260	0,021	0,021
-316,241	-39,384	-0,067	-0,026
-315,226	-77,354	-0,048	0,012
-314,212	25,229	0,107	0,065
-313,197	74,176	0,097	-0,075
-312,183	342,522	0,112	0,161
-311,168	800,000	-0,014	-0,038
-310,153	-142,495	-0,216	-0,015
-309,139	-41,669	0,127	-0,047
-308,124	-52,309	0,127	0,043
-307,110	-200,000	0,018	0,112
-306,095	623,192	-0,028	0,051
-305,080	-200,000	-0,034	0,119
-304,066	-200,000	-0,001	0,087
-303,051	-53,149	0,098	0,033
-302,037	752,480	-0,047	-0,093
-301,022	233,738	0,083	-0,100
-300,008	194,394	0,017	-0,019
-298,993	34,641	0,023	0,015
-297,978	38,785	0,082	-0,053
-296,964	96,731	-0,093	-0,078
-295,949	181,026	0,073	0,078
-294,935	55,114	0,066	-0,046
-293,920	129,840	-0,067	-0,063
-292,905	-200,000	0,043	-0,179
-291,891	-200,000	-0,004	-0,078
-290,876	-23,572	-0,089	-0,039
-289,862	-200,000	-0,004	0,035
-288,847	48,116	0,053	0,036
-287,832	-200,000	0,003	-0,034
-286,818	99,808	0,059	0,050
-285,803	-200,000	-0,040	-0,164
-284,789	-200,000	-0,020	0,134
-283,774	74,907	0,080	-0,061
-282,759	-200,000	0,020	0,112
-281,745	64,526	0,103	0,076
-280,730	-86,313	-0,044	-0,010
-279,716	-200,000	0,003	-0,070
-278,701	-200,000	-0,004	0,063
-277,686	-200,000	0,034	0,245
-276,672	-140,691	0,159	0,012
-275,657	-200,000	-0,003	0,058
-274,643	-72,069	-0,092	-0,025
-273,628	-5,695	-0,164	-0,082
-272,613	-35,049	-0,056	0,022
-271,599	81,743	0,055	-0,043
-270,584	155,024	-0,097	0,098
-269,570	-200,000	0,023	0,107
-268,555	-200,000	-0,000	0,004
-267,540	-200,000	0,025	-0,085
-266,526	247,610	-0,078	-0,097
-265,511	-150,512	0,029	-0,002
-264,497	200,649	-0,032	-0,036
-263,482	800,000	-0,038	0,091
-262,467	127,838	0,060	0,055
-261,453	-30,202	0,077	0,032
-260,438	-52,797	-0,061	0,020
-259,424	-200,000	0,022	0,126
-258,409	-200,000	0,011	-0,048
-257,395	96,911	0,042	0,035
-256,380	401,669	0,060	0,092
-255,365	505,256	0,066	0,112
-254,351	-200,000	-0,012	0,129
-253,336	-200,000	0,009	-0,108
-252,322	-150,551	0,059	-0,003
-251,307	-200,000	-0,010	-0,057
-250,292	46,722	-0,022	-0,015
-249,278	-104,152	-0,067	-0,011
-248,263	-75,982	0,045	0,012
-247,249	800,000	-0,009	0,020
-246,234	432,087	0,036	-0,058
-245,219	-92,814	0,174	0,035
-244,205	298,300	0,065	-0,087
-243,190	-148,610	-0,111	0,007
-242,176	-200,000	0,003	0,035
-241,161	-200,000	0,038	0,134
-240,146	-64,551	-0,012	-0,004
-239,132	-101,426	-0,156	0,028
-238,117	-26,613	-0,075	0,032
-237,103	618,253	0,069	-0,128
-236,088	37,586	-0,146	0,094
-235,073	800,000	-0,014	-0,040
-234,059	-118,489	0,073	0,009
-233,044	-27,625	-0,117	-0,050
-232,030	112,293	0,026	-0,023
-231,015	18,740	0,110	0,064
-230,000	-200,000	-0,006	-0,119
-228,986	-200,000	-0,013	0,073
-227,971	-93,602	0,060	0,012
-226,957	-200,000	-0,034	0,152
-225,942	-200,000	-0,002	-0,042
-224,927	154,098	-0,034	-0,034
-223,913	-200,000	0,012	-0,085
-222,898	800,000	-0,027	-0,084
-221,884	369,067	0,129	-0,191
-220,869	101,816	-0,078	0,066
-219,855	8,065	0,102	0,055
-218,840	800,000	0,043	0,132
-217,825	-200,000	-0,007	-0,123
-216,811	95,478	0,095	0,079
-215,796	800,000	-0,028	-0,071
-214,782	800,000	-0,024	0,053
-213,767	800,000	-0,038	0,082
-212,752	800,000	-0,037	0,111
-211,738	695,703	0,036	0,070
-210,723	-200,000	-0,005	-0,106
-209,709	-79,889	-0,029	0,007
-208,694	-200,000	0,005	0,045
-207,679	71,573	-0,086	0,065
-206,665	-200,000	-0,006	0,032
-205,650	800,000	0,033	-0,078
-204,636	7,346	-0,102	0,056
-203,621	800,000	0,072	0,195
-202,606	800,000	0,020	0,053
-201,592	236,694	-0,066	0,080
-200,577	-200,000	0,009	0,030
-199,563	400,576	0,053	0,082
-198,548	-200,000	-0,017	0,114
-197,533	-200,000	-0,014	0,129
-196,519	-133,711	0,041	0,004
-195,504	-200,000	0,016	-0,148
-194,490	-193,521	-0,006	0,000
-193,475	-61,949	0,026	-0,008
-192,460	39,823	-0,157	-0,102
-191,446	800,000	-0,054	0,169
-190,431	-200,000	0,003	0,087
-189,417	-200,000	0,010	0,038
-188,402	-200,000	0,026	-0,129
-187,387	136,859	-0,089	0,085
-186,373	203,641	-0,064	-0,073
-185,358	-200,000	-0,002	-0,064
-184,344	-200,000	0,007	-0,031
-183,329	-22,712	-0,036	0,016
-182,315	-200,000	0,010	0,036
-181,300	71,660	0,106	0,080
-180,285	-200,000	-0,019	0,085
-179,271	67,559	-0,112	-0,084
-178,256	517,091	0,073	0,124
-177,242	-200,000	0,022	-0,129
-176,227	-77,852	0,158	0,040
-175,212	-163,292	0,139	0,005
-174,198	160,533	-0,068	0,069
-173,183	224,107	-0,118	-0,139
-172,169	288,532	0,013	0,018
-171,154	-34,995	-0,089	-0,035
-170,139	-200,000	0,010	0,040
-169,125	-50,657	0,104	0,036
-168,110	-116,619	0,144	-0,019
-167,096	594,811	-0,055	0,100
-166,081	574,284	0,058	0,103
-165,066	-142,313	-0,067	0,005
-164,052	-200,000	-0,006	0,023
-163,037	65,973	0,037	-0,027
-162,023	456,535	0,004	0,007
-161,008	157,817	0,100	0,101
-159,993	95,110	-0,065	-0,054
-158,979	-200,000	-0,029	0,102
-157,964	170,442	-0,068	-0,071
-156,950	-74,918	-0,105	0,027
-155,935	319,216	-0,051	0,070
-154,920	-119,548	0,103	0,013
-153,906	-200,000	0,004	-0,073
-152,891	-126,636	-0,114	-0,012
-151,877	800,000	-0,003	0,009
-150,862	-10,972	-0,043	0,021
-149,847	23,056	-0,069	-0,041
-148,833	112,679	-0,123	-0,108
-147,818	-175,209	-0,168	-0,003
-146,804	329,007	0,023	0,032
-145,789	-2,873	-0,044	0,022
-144,775	-56,453	-0,091	0,029
-143,760	-200,000	-0,014	-0,130
-142,745	396,604	-0,050	0,077
-141,731	-100,576	0,051	-0,009
-140,716	-91,737	0,046	-0,009
-139,702	-200,000	0,016	0,082
-138,687	800,000	0,026	-0,061
-137,672	33,371	0,122	0,077
-136,658	369,170	-0,047	-0,070
-135,643	137,900	0,035	0,033
-134,629	-2,548	0,099	-0,050
-133,614	106,435	0,035	-0,030
-132,599	-200,000	0,022	-0,111
-131,585	-83,543	-0,060	0,014
-130,570	800,000	-0,013	-0,038
-129,556	687,839	-0,020	0,038
-128,541	-200,000	0,013	-0,085
-127,526	12,763	-0,042	-0,024
-126,512	67,624	0,072	-0,054
-125,497	100,627	0,053	-0,044
-124,483	68,226	0,034	-0,025
-123,468	107,924	-0,076	-0,066
-122,453	-5,902	-0,025	0,012
-121,439	-200,000	-0,040	-0,149
-120,424	800,000	-0,042	-0,114
-119,410	503,246	0,026	0,045
-118,395	-3,891	-0,098	-0,049
-117,380	339,902	-0,057	-0,082
-116,366	136,801	-0,162	-0,154
-115,351	-200,000	-0,034	-0,120
-114,337	800,000	0,036	-0,100
-113,322	-104,619	0,068	0,011
-112,307	-30,419	-0,104	0,043
-111,293	800,000	0,032	0,075
-110,278	-124,427	-0,114	0,013
-109,264	-200,000	0,003	-0,017
-108,249	800,000	-0,064	-0,156
-107,234	46,882	-0,112	-0,076
-106,220	-70,344	0,100	0,027
-105,205	-200,000	0,009	0,087
-104,191	-200,000	0,009	0,105
-103,176	-200,000	-0,008	-0,078
-102,162	265,537	0,093	-0,118
-101,147	73,920	-0,132	0,101
-100,132	525,949	-0,016	0,027
-99,118	205,474	0,038	0,043
-98,103	103,380	-0,066	-0,056
-97,089	-200,000	0,004	0,019
-96,074	800,000	-0,007	-0,020
-95,059	-200,000	0,022	0,133
-94,045	800,000	0,052	0,121
-93,030	-31,733	-0,044	0,018
-92,016	-31,295	-0,116	-0,047
-91,001	271,503	0,061	0,078
-89,986	-200,000	-0,018	0,123
-88,972	-35,877	-0,143	0,056
-87,957	733,946	0,052	0,101
-86,943	9,096	0,060	0,033
-85,928	-200,000	-0,003	-0,069
-84,913	-200,000	0,001	-0,083
-83,899	52,121	0,066	0,045
-82,884	527,956	0,049	0,084
-81,870	-99,694	0,113	-0,020
-80,855	-7,745	0,077	-0,038
-79,840	95,649	-0,128	0,106
-78,826	-45,447	-0,042	-0,015
-77,811	-200,000	0,003	-0,117
-76,797	229,241	-0,032	-0,038
-75,782	264,732	-0,080	-0,102
-74,767	800,000	0,046	0,100
-73,753	14,336	-0,070	-0,039
-72,738	-45,160	0,098	-0,035
-71,724	-200,000	-0,043	0,148
-70,709	-200,000	0,003	-0,042
-69,694	114,493	-0,074	0,066
-68,680	77,584	0,151	0,116
-67,665	-200,000	0,012	0,071
-66,651	800,000	0,074	0,189
-65,636	-200,000	0,001	0,047
-64,622	-200,000	-0,017	-0,076
-63,607	0,658	-0,179	-0,093
-62,592	-200,000	-0,037	-0,182
-61,578	-52,296	-0,095	-0,032
-60,563	-58,292	0,050	0,016
-59,549	416,029	-0,138	0,215
-58,534	-107,300	-1,258	-0,199
-57,519	646,951	-0,859	-1,600
-56,505	-200,000	-0,863	-4,352
-55,490	2,350	0,626	-0,328
-54,476	800,000	4,945	11,823
-53,461	-200,000	13,744	252,980
-52,446	-200,000	690,223	2255,642
-51,432	589,280	1622,452	2913,638
-50,417	118,828	1634,692	1465,476
-49,403	73,004	1288,637	975,973
-48,388	37,917	1024,121	659,169
-47,373	24,289	981,808	587,115
-46,359	23,458	971,585	578,253
-45,344	22,484	967,131	572,397
-44,330	22,463	965,679	571,446
-43,315	22,314	964,294	570,119
-42,300	22,285	963,192	569,349
-41,286	22,286	962,304	568,805
-40,271	22,270	961,306	568,143
-39,257	22,277	960,337	567,571
-38,242	22,234	959,573	566,955
-37,227	22,268	958,543	566,436
-36,213	22,250	957,693	565,850
-35,198	22,215	956,902	565,248
-34,184	22,329	956,297	565,238
-33,169	22,183	955,282	564,144
-32,154	22,294	954,352	563,931
-31,140	22,342	953,536	563,581
-30,125	22,316	952,819	563,050
-29,111	22,337	951,871	562,536
-28,096	22,325	951,364	562,176
-27,082	22,276	950,586	561,536
-26,067	22,276	949,875	561,093
-25,052	22,265	949,065	560,558
-24,038	22,353	948,277	560,352
-23,023	22,240	947,901	559,747
-22,009	22,330	947,183	559,586
-20,994	22,359	946,307	559,140
-19,979	22,337	945,840	558,772
-18,965	22,331	945,271	558,394
-17,950	22,287	944,675	557,879
-16,936	22,231	943,931	557,240
-15,921	22,263	943,182	556,876
-14,906	22,186	942,595	556,263
-13,892	22,143	941,921	555,706
-12,877	22,174	941,284	555,409
-11,863	22,178	940,679	555,040
-10,848	22,182	940,056	554,664
-9,833	22,260	939,804	554,742
-8,819	22,276	938,978	554,283
-7,804	22,174	938,329	553,554
-6,790	22,105	937,864	553,040
-5,775	22,175	937,330	552,925
-4,760	22,200	936,473	552,476
-3,746	22,166	935,998	552,065
-2,731	22,018	935,405	551,226
-1,717	21,994	934,628	550,672
-0,702	22,039	933,756	550,276
0,313	21,816	933,245	550,104
1,327	24,898	931,344	558,626
2,342	34,702	795,826	503,447
3,356	32,808	451,666	282,849
4,371	1,661	294,107	153,071
5,386	-2,783	274,958	138,883
6,400	-4,169	269,104	134,627
7,415	-4,766	266,745	132,885
8,429	-4,556	265,542	132,467
9,444	-4,472	264,406	131,965
10,459	-4,534	263,951	131,670
11,473	-4,573	263,424	131,359
12,488	-4,803	262,874	130,865
13,502	-4,783	262,205	130,538
14,517	-4,673	261,742	130,396
15,531	-4,766	261,487	130,173
16,546	-4,670	261,171	130,091
17,561	-4,736	260,779	129,824
18,575	-4,784	260,483	129,623
19,590	-4,784	260,033	129,387
20,604	-4,785	259,786	129,252
21,619	-5,024	259,580	128,923
22,634	-4,745	259,030	128,889
23,648	-4,886	258,861	128,667
24,663	-4,884	258,519	128,487
25,677	-4,630	258,289	128,587
26,692	-4,822	258,018	128,271
27,707	-4,878	258,000	128,200
28,721	-4,852	257,658	128,042
29,736	-4,878	257,354	127,856
30,750	-4,747	256,949	127,759
31,765	-4,929	256,882	127,554
32,780	-4,775	256,566	127,522
33,794	-4,898	256,378	127,309
34,809	-4,944	256,183	127,160
35,823	-4,864	255,908	127,082
36,838	-4,985	255,703	126,863
37,853	-5,002	255,520	126,745
38,867	-4,952	255,208	126,624
39,882	-4,987	254,927	126,442
40,896	-4,989	254,739	126,336
41,911	-4,861	254,480	126,309
42,926	-4,947	254,230	126,097
43,940	-4,833	253,996	126,070
44,955	-5,062	253,782	125,753
45,969	-4,980	253,693	125,768
46,984	-5,314	253,370	125,306
47,999	-5,461	253,099	125,033
49,013	-5,415	252,848	124,938
50,028	-5,558	252,498	124,629
51,042	-5,792	252,428	124,381
52,057	-5,577	252,071	124,380
53,071	-5,739	251,873	124,130
54,086	-5,518	251,827	124,288
55,101	-5,535	251,605	124,153
56,115	-5,279	251,515	124,319
57,130	-4,801	251,399	124,664
58,144	-4,464	251,190	124,840
59,159	-4,565	251,145	124,719
60,174	-4,835	251,008	124,407
61,188	-4,675	250,567	124,315
62,203	-4,788	250,398	124,123
63,217	-4,875	250,097	123,888
64,232	-4,679	249,888	123,942
65,247	-4,685	249,644	123,805
66,261	-4,835	249,552	123,619
67,276	-4,930	249,086	123,296
68,290	-5,167	249,067	123,073
69,305	-5,352	248,750	122,748
70,320	-5,267	248,694	122,782
71,334	-4,798	248,390	123,021
72,349	-4,554	248,394	123,219
73,363	-4,782	248,247	122,942
74,378	-4,594	248,028	122,982
75,393	-4,655	247,724	122,768
76,407	-4,610	247,563	122,716
77,422	-4,819	247,436	122,465
78,436	-4,875	247,142	122,260
79,451	-4,717	246,887	122,258
80,466	-4,918	246,506	121,888
81,480	-4,994	246,401	121,761
82,495	-5,092	246,200	121,568
83,509	-4,726	246,167	121,850
84,524	-5,090	245,977	121,438
85,539	-5,144	245,648	121,219
86,553	-5,264	245,598	121,082
87,568	-5,045	245,256	121,087
88,582	-5,180	245,191	120,931
89,597	-5,160	244,956	120,821
90,611	-4,974	244,823	120,901
91,626	-4,812	244,838	121,033
92,641	-4,628	244,584	121,051
93,655	-4,937	244,400	120,691
94,670	-4,749	244,082	120,680
95,684	-5,001	243,968	120,402
96,699	-4,871	243,726	120,381
97,714	-4,811	243,278	120,199
98,728	-5,298	243,332	119,809
99,743	-5,067	242,953	119,803
100,757	-5,121	242,917	119,730
101,772	-5,155	242,723	119,596
102,787	-5,085	242,629	119,597
103,801	-5,157	242,387	119,407
104,816	-4,959	242,242	119,489
105,830	-4,952	242,210	119,468
106,845	-4,914	241,949	119,360
107,860	-4,931	241,857	119,291
108,874	-5,089	241,438	118,943
109,889	-4,838	241,354	119,098
110,903	-4,899	241,075	118,900
111,918	-5,188	241,065	118,646
112,933	-4,988	240,849	118,694
113,947	-4,818	240,686	118,743
114,962	-4,826	240,479	118,623
115,976	-4,691	240,300	118,635
116,991	-4,863	240,203	118,435
118,006	-4,813	239,905	118,319
119,020	-4,831	239,782	118,233
120,035	-4,849	239,644	118,140
121,049	-4,799	239,685	118,191
122,064	-4,526	239,315	118,220
123,079	-4,794	239,189	117,929
124,093	-4,977	238,994	117,673
125,108	-5,093	238,749	117,447
126,122	-5,285	238,387	117,102
127,137	-5,479	238,338	116,910
128,151	-5,259	238,005	116,915
129,166	-5,146	237,938	116,963
130,181	-5,317	237,855	116,773
131,195	-5,268	237,733	116,743
132,210	-5,173	237,472	116,680
133,224	-4,907	237,247	116,776
134,239	-5,069	237,175	116,598
135,254	-4,843	236,996	116,683
136,268	-5,054	236,764	116,387
137,283	-5,303	236,554	116,073
138,297	-5,316	236,243	115,899
139,312	-5,434	236,205	115,775
140,327	-4,977	236,069	116,067
141,341	-4,642	236,135	116,359
142,356	-4,425	235,950	116,432
143,370	-4,551	235,707	116,200
144,385	-4,639	235,761	116,146
145,400	-4,539	235,574	116,124
146,414	-4,716	235,320	115,846
147,429	-4,469	235,080	115,916
148,443	-4,556	234,907	115,751
149,458	-4,696	234,876	115,613
150,473	-4,646	234,686	115,549
151,487	-4,484	234,430	115,542
152,502	-4,762	234,321	115,256
153,516	-4,535	234,104	115,320
154,531	-4,559	234,058	115,268
155,546	-4,618	233,815	115,090
156,560	-4,713	233,477	114,838
157,575	-4,824	233,350	114,677
158,589	-4,807	233,194	114,604
159,604	-4,721	233,015	114,575
160,619	-4,533	232,969	114,690
161,633	-4,273	232,738	114,773
162,648	-4,574	232,632	114,472
163,662	-4,666	232,419	114,283
164,677	-4,818	232,398	114,143
165,692	-4,558	232,238	114,260
166,706	-4,593	232,053	114,131
167,721	-4,356	231,865	114,215
168,735	-4,663	231,753	113,908
169,750	-4,428	231,647	114,031
170,764	-4,481	231,386	113,851
171,779	-4,375	231,182	113,824
172,794	-4,524	231,249	113,729
173,808	-4,572	230,972	113,545
174,823	-5,027	230,614	113,002
175,837	-4,892	230,328	112,957
176,852	-5,035	230,460	112,900
177,867	-4,559	230,350	113,210
178,881	-4,420	230,156	113,212
179,896	-4,420	230,137	113,193
180,910	-4,570	229,909	112,954
181,925	-4,264	229,784	113,121
182,940	-4,340	229,625	112,973
183,954	-4,274	229,246	112,828
184,969	-4,422	229,318	112,738
185,983	-4,378	229,224	112,716
186,998	-4,032	229,036	112,883
188,013	-4,335	228,911	112,576
189,027	-4,328	228,656	112,445
190,042	-4,584	228,559	112,190
191,056	-4,348	228,311	112,240
192,071	-4,447	228,219	112,108
193,086	-4,341	228,040	112,093
194,100	-4,380	227,930	111,998
195,115	-4,545	227,565	111,681
196,129	-5,053	227,260	111,130
197,144	-1,767	228,375	114,211
198,159	2,536	229,467	118,090
199,173	4,301	229,960	119,704
200,188	4,299	229,926	119,673
201,202	4,223	229,722	119,498
202,217	4,864	229,573	119,906
203,232	4,886	229,332	119,787
204,246	4,962	229,451	119,897
205,261	5,057	229,121	119,787
206,275	5,262	229,064	119,904
207,290	5,113	229,030	119,761
208,304	5,046	228,887	119,624
209,319	5,033	228,601	119,454
210,334	5,028	228,291	119,277
211,348	4,514	228,239	118,845
212,363	4,324	227,924	118,524
213,377	4,071	227,662	118,183
214,392	4,087	227,683	118,195
215,407	4,078	227,501	118,084
216,421	4,432	227,374	118,278
217,436	4,305	227,165	118,062
218,450	3,792	226,890	117,516
219,465	3,666	226,849	117,388
220,480	3,966	226,688	117,523
221,494	4,012	226,558	117,481
222,509	4,126	226,528	117,542
223,523	4,247	226,188	117,447
224,538	4,031	226,014	117,182
225,553	3,973	226,022	117,131
226,567	4,270	225,833	117,248
227,582	4,138	225,805	117,123
228,596	4,615	225,592	117,365
229,611	4,070	225,451	116,867
230,626	4,060	225,237	116,738
231,640	4,174	224,999	116,691
232,655	4,316	225,079	116,829
233,669	4,585	225,065	117,016
234,684	4,747	224,881	117,032
235,699	4,540	224,539	116,688
236,713	4,341	224,419	116,464
237,728	4,124	224,272	116,214
238,742	4,070	224,119	116,084
239,757	4,095	223,916	115,987
240,772	4,332	223,558	115,969
241,786	4,071	223,610	115,789
242,801	4,194	223,714	115,926
243,815	4,341	223,516	115,923
244,830	4,312	223,374	115,817
245,844	4,237	223,136	115,628
246,859	4,102	223,061	115,477
247,874	4,333	222,813	115,511
248,888	4,449	222,661	115,509
249,903	4,128	222,578	115,216
250,917	4,249	222,360	115,183
251,932	4,057	222,302	114,999
252,947	4,072	222,053	114,871
253,961	3,997	221,883	114,717
254,976	4,181	221,690	114,744
255,990	4,282	221,601	114,763
257,005	4,357	221,587	114,801
258,020	4,211	221,447	114,610
259,034	4,676	221,335	114,888
260,049	4,570	221,200	114,729
261,063	4,294	221,082	114,452
262,078	4,523	220,761	114,446
263,093	4,461	220,709	114,363
264,107	4,504	220,610	114,333
265,122	4,537	220,527	114,303
266,136	4,631	220,435	114,315
267,151	4,542	220,259	114,148
268,166	4,282	219,979	113,801
269,180	3,856	219,804	113,387
270,195	3,725	219,565	113,157
271,209	4,141	219,478	113,408
272,224	4,047	219,370	113,273
273,239	4,381	219,233	113,437
274,253	3,993	219,075	113,060
275,268	3,928	218,800	112,860
276,282	3,861	218,721	112,760
277,297	3,749	218,443	112,525
278,312	3,962	218,478	112,689
279,326	4,105	218,335	112,710
280,341	4,067	218,200	112,603
281,355	4,214	218,006	112,600
282,370	4,291	217,869	112,575
283,384	4,016	217,728	112,292
284,399	3,836	217,641	112,105
285,414	3,787	217,541	112,008
286,428	3,811	217,512	112,001
287,443	4,153	217,417	112,192
288,457	4,231	217,202	112,127
289,472	4,304	216,988	112,059
290,487	3,897	216,681	111,596
291,501	3,960	216,428	111,502
292,516	3,770	216,525	111,403
293,530	3,799	216,455	111,378
294,545	3,783	216,149	111,199
295,560	3,997	216,059	111,298
296,574	4,265	215,785	111,341
297,589	4,103	215,772	111,207
298,603	4,210	215,706	111,240
299,618	4,350	215,499	111,224
300,633	4,159	215,398	111,025
301,647	4,317	215,398	111,128
302,662	4,280	215,424	111,106
303,676	4,238	215,256	110,979
304,691	4,235	214,940	110,804
305,706	4,281	214,785	110,747
306,720	4,329	214,760	110,758
307,735	4,133	214,504	110,476
308,749	3,900	214,407	110,250
309,764	4,233	214,367	110,458
310,779	4,429	214,152	110,477
311,793	4,326	213,959	110,295
312,808	4,488	213,748	110,292
313,822	4,194	213,695	110,044
314,837	4,451	213,369	110,050
315,852	3,808	213,435	109,615
316,866	4,001	213,323	109,686
317,881	4,233	213,214	109,785
318,895	3,990	213,199	109,595
319,910	3,953	212,834	109,371
320,925	3,918	212,657	109,246
321,939	3,539	212,467	108,870
322,954	3,787	212,339	108,970
323,968	4,050	212,479	109,218
324,983	4,335	212,237	109,286
325,997	4,253	212,147	109,172
327,012	4,475	211,956	109,221
328,027	4,312	211,748	108,989
329,041	4,138	211,763	108,864
330,056	4,498	211,703	109,078
331,070	4,131	211,286	108,594
332,085	3,676	211,209	108,224
333,100	4,199	210,839	108,393
334,114	4,049	210,873	108,295
335,129	4,093	210,801	108,279
336,143	4,088	210,501	108,113
337,158	4,136	210,473	108,122
338,173	3,845	210,458	107,900
339,187	3,802	210,229	107,743
340,202	3,890	210,010	107,683
341,216	3,677	209,904	107,470
342,231	3,758	209,965	107,548
343,246	3,675	209,769	107,380
344,260	3,892	209,569	107,420
345,275	4,183	209,505	107,581
346,289	4,153	209,456	107,525
347,304	4,196	209,335	107,483
348,319	4,016	209,148	107,253
349,333	3,993	209,024	107,163
350,348	3,920	208,884	107,031
351,362	4,179	208,717	107,115
352,377	4,293	208,599	107,125
353,392	4,079	208,386	106,858
354,406	4,081	208,458	106,886
355,421	194,817	1346,206	1437,839
356,435	155,478	1484,928	1437,959
