DTS Sentinel unit serial number:	SN410029Multiplexer serial number:	ORYXHardware model number:	OX2-SRSoftware version number:	ORYX F/W v4,00 Oryx Data Collector v3.7.2.0data status	okinstallation	B6 Nyhavnadifferential loss correction	single-endedforward channel	channel 2reverse channel	N/Adate	2023/12/08time	07:30:08forward acquisition time	300,00reverse acquisition time	0,00gamma	499,1914k internal	0,3166k external	0,3166temperature offset calibration	1,0000default loss term (dB/km)	0,3820temperature slope calibration	1,0000multiplexer offset coefficient	1,0000multiplexer slope coefficient	1,0000fibre end	0,00T internal ref (°C)	13,19T ext. ref 1 (°C)	-3,21T ext. ref 2 (°C)	-3,22length (m)	temperature (°C)	Stokes	anti-Stokes-744,400	-11,146	0,171	0,083
-743,385	-98,295	-0,253	0,047
-742,371	-57,252	0,050	0,016
-741,356	-167,072	-0,315	-0,009
-740,342	123,879	0,117	0,108
-739,327	-156,009	-0,296	0,014
-738,312	-69,202	0,162	0,045
-737,298	-87,076	-0,401	-0,089
-736,283	54,269	0,106	0,075
-735,269	-62,027	-0,356	0,109
-734,254	14,558	0,113	0,065
-733,239	-17,295	-0,552	-0,254
-732,225	283,993	0,089	0,118
-731,210	418,127	0,092	0,145
-730,196	-200,000	0,003	0,068
-729,181	799,921	-0,035	-0,072
-728,167	181,672	-0,107	-0,116
-727,152	20,564	0,053	-0,031
-726,137	-82,399	-0,080	-0,019
-725,123	131,492	-0,060	-0,056
-724,108	800,000	-0,068	-0,205
-723,094	-200,000	-0,022	-0,184
-722,079	-200,000	-0,008	-0,049
-721,064	-53,101	-0,199	0,067
-720,050	-200,000	0,001	-0,095
-719,035	-152,268	-0,142	-0,007
-718,021	800,000	-0,021	0,050
-717,006	8,905	-0,107	-0,059
-715,991	-44,936	-0,100	-0,037
-714,977	596,359	0,013	-0,024
-713,962	800,000	0,057	-0,183
-712,948	-57,589	0,187	0,060
-711,933	-200,000	0,001	0,149
-710,918	115,347	-0,117	-0,105
-709,904	800,000	0,021	0,050
-708,889	-65,734	-0,125	-0,037
-707,875	239,807	0,051	-0,063
-706,860	52,428	0,034	0,024
-705,845	-200,000	-0,018	-0,059
-704,831	-87,332	0,113	0,025
-703,816	278,291	-0,051	0,067
-702,802	-200,000	-0,019	-0,128
-701,787	-108,591	-0,106	-0,016
-700,772	206,298	0,027	0,030
-699,758	-137,496	0,048	0,004
-698,743	800,000	-0,018	-0,037
-697,729	-200,000	0,002	0,012
-696,714	675,922	-0,045	-0,087
-695,699	-200,000	-0,006	-0,072
-694,685	-200,000	0,001	-0,191
-693,670	-18,548	-0,045	-0,020
-692,656	-105,504	-0,068	0,011
-691,641	201,213	-0,036	0,040
-690,627	-118,949	-0,074	-0,009
-689,612	354,215	-0,048	-0,071
-688,597	-44,917	-0,045	-0,016
-687,583	551,405	0,035	-0,062
-686,568	776,845	0,029	0,058
-685,554	-174,182	0,089	0,002
-684,539	113,026	0,096	-0,085
-683,524	-107,567	0,106	-0,017
-682,510	49,828	0,044	0,030
-681,495	66,702	0,021	-0,016
-680,481	800,000	0,073	-0,169
-679,466	295,171	-0,025	0,033
-678,451	337,685	0,092	-0,132
-677,437	151,407	-0,091	0,091
-676,422	-200,000	-0,008	-0,219
-675,408	108,173	-0,046	-0,040
-674,393	-200,000	0,002	0,116
-673,378	-79,937	-0,150	-0,037
-672,364	800,000	-0,048	-0,147
-671,349	-149,936	-0,162	-0,009
-670,335	198,025	0,029	-0,033
-669,320	-155,674	0,052	0,002
-668,305	61,289	-0,068	0,050
-667,291	0,110	-0,146	0,076
-666,276	-200,000	0,002	-0,082
-665,262	117,526	-0,147	-0,132
-664,247	-200,000	0,013	0,049
-663,232	-102,637	-0,090	-0,016
-662,218	-144,408	0,182	-0,012
-661,203	-200,000	0,034	-0,111
-660,189	160,170	-0,069	-0,071
-659,174	173,722	0,028	0,029
-658,159	-62,722	0,044	-0,013
-657,145	-32,232	-0,019	0,008
-656,130	-53,748	-0,051	-0,017
-655,116	-23,158	0,074	0,032
-654,101	-200,000	-0,002	0,064
-653,086	159,920	0,038	-0,039
-652,072	-131,913	0,104	-0,010
-651,057	4,527	-0,046	-0,025
-650,043	49,956	-0,126	-0,087
-649,028	115,299	-0,029	0,026
-648,014	295,549	0,028	-0,037
-646,999	-200,000	-0,030	0,106
-645,984	-200,000	0,005	-0,081
-644,970	135,289	-0,046	-0,044
-643,955	-38,111	-0,052	0,020
-642,941	-87,291	-0,057	0,013
-641,926	348,470	-0,046	0,067
-640,911	-22,776	-0,102	-0,045
-639,897	-200,000	0,044	0,170
-638,882	450,337	-0,091	0,148
-637,868	92,946	0,039	-0,033
-636,853	130,147	-0,127	-0,119
-635,838	-200,000	0,027	-0,186
-634,824	-200,000	0,013	-0,089
-633,809	720,436	0,039	-0,077
-632,795	-43,255	0,037	0,014
-631,780	521,489	-0,032	0,056
-630,765	84,465	-0,046	0,037
-629,751	800,000	0,040	-0,088
-628,736	-200,000	-0,016	-0,138
-627,722	-127,428	-0,115	0,012
-626,707	68,511	0,082	0,061
-625,692	284,061	-0,010	0,013
-624,678	-200,000	-0,017	0,118
-623,663	-200,000	0,012	-0,069
-622,649	262,057	-0,060	-0,076
-621,634	225,122	-0,106	-0,125
-620,619	318,880	-0,084	-0,117
-619,605	-4,513	-0,086	-0,043
-618,590	248,705	0,066	0,082
-617,576	118,128	-0,079	-0,071
-616,561	800,000	-0,019	0,040
-615,546	82,364	-0,023	0,019
-614,532	-200,000	0,016	-0,073
-613,517	-27,325	-0,069	-0,029
-612,503	-17,616	0,070	-0,032
-611,488	755,489	0,082	-0,163
-610,474	-141,116	-0,157	0,012
-609,459	-153,310	0,122	-0,006
-608,444	-59,394	-0,066	0,021
-607,430	211,765	-0,030	0,034
-606,415	800,000	-0,060	-0,165
-605,401	694,201	-0,027	0,052
-604,386	-34,968	0,093	-0,037
-603,371	275,100	-0,054	-0,071
-602,357	-121,076	-0,067	0,008
-601,342	800,000	-0,026	-0,068
-600,328	-200,000	0,007	0,032
-599,313	673,648	-0,020	-0,039
-598,298	800,000	-0,035	-0,077
-597,284	800,000	0,032	-0,084
-596,269	137,980	0,086	0,082
-595,255	-200,000	-0,016	-0,060
-594,240	139,446	-0,023	-0,022
-593,225	-122,887	-0,107	0,012
-592,211	-200,000	-0,003	0,018
-591,196	223,961	-0,089	-0,105
-590,182	355,065	0,039	0,056
-589,167	-200,000	-0,019	0,063
-588,152	800,000	0,049	-0,099
-587,138	800,000	-0,034	-0,108
-586,123	95,207	-0,060	0,050
-585,109	-155,517	-0,122	0,006
-584,094	157,998	0,079	0,080
-583,079	69,009	0,075	-0,056
-582,065	-200,000	-0,021	0,081
-581,050	27,839	0,062	0,038
-580,036	173,017	0,078	0,083
-579,021	800,000	-0,038	-0,102
-578,006	568,756	-0,064	-0,114
-576,992	306,264	0,013	0,018
-575,977	-60,538	-0,009	-0,003
-574,963	198,109	0,068	-0,076
-573,948	-200,000	-0,021	0,112
-572,934	-7,159	0,090	-0,045
-571,919	3,269	-0,030	-0,016
-570,904	70,711	-0,058	-0,044
-569,890	417,265	0,022	0,035
-568,875	-200,000	0,005	0,044
-567,861	-79,710	-0,158	0,038
-566,846	-26,287	0,109	0,047
-565,831	295,623	0,030	0,040
-564,817	131,679	0,066	-0,062
-563,802	74,075	-0,075	0,057
-562,788	-200,000	-0,001	0,002
-561,773	89,109	-0,096	-0,078
-560,758	-32,860	0,114	-0,046
-559,744	122,900	0,071	0,065
-558,729	84,383	-0,033	0,026
-557,715	-200,000	-0,007	-0,098
-556,700	29,139	0,013	0,008
-555,685	330,031	-0,079	-0,111
-554,671	126,335	-0,081	-0,075
-553,656	-200,000	0,006	-0,043
-552,642	118,801	0,040	-0,036
-551,627	131,900	-0,080	0,075
-550,612	-48,549	0,098	0,034
-549,598	371,334	-0,087	-0,130
-548,583	332,197	-0,088	-0,124
-547,569	-160,194	0,094	-0,004
-546,554	800,000	0,008	-0,025
-545,539	24,554	0,132	0,080
-544,525	118,267	0,050	0,045
-543,510	-200,000	0,009	-0,084
-542,496	-200,000	-0,002	-0,024
-541,481	800,000	-0,016	0,042
-540,466	502,487	-0,077	0,130
-539,452	16,800	-0,103	0,059
-538,437	-200,000	-0,002	0,095
-537,423	-114,490	-0,080	-0,011
-536,408	-136,004	0,050	0,004
-535,393	-16,698	0,063	-0,029
-534,379	-200,000	-0,008	-0,029
-533,364	274,050	-0,086	0,111
-532,350	-200,000	0,012	-0,052
-531,335	-73,692	-0,084	-0,022
-530,321	-163,968	0,115	0,004
-529,306	800,000	-0,062	-0,144
-528,291	-200,000	-0,007	-0,061
-527,277	-133,187	-0,120	-0,011
-526,262	51,055	-0,088	-0,061
-525,248	62,284	0,180	0,131
-524,233	219,098	0,074	0,086
-523,218	-181,128	0,086	0,001
-522,204	-166,350	-0,092	-0,003
-521,189	300,642	-0,048	0,065
-520,175	-49,273	0,110	0,038
-519,160	-200,000	0,034	-0,197
-518,145	213,540	0,056	0,065
-517,131	-200,000	-0,011	0,085
-516,116	-123,198	0,070	-0,008
-515,102	156,178	0,019	0,019
-514,087	445,974	-0,036	-0,057
-513,072	-33,511	-0,131	0,053
-512,058	-10,549	0,113	0,054
-511,043	-200,000	0,002	0,061
-510,029	388,419	-0,037	-0,056
-509,014	256,300	-0,024	0,031
-507,999	166,038	-0,024	0,025
-506,985	518,310	-0,045	-0,078
-505,970	-131,561	-0,073	0,007
-504,956	111,599	-0,046	-0,041
-503,941	-200,000	0,034	0,205
-502,926	17,118	0,148	0,086
-501,912	-62,316	-0,076	0,023
-500,897	184,308	0,052	-0,056
-499,883	800,000	-0,024	-0,068
-498,868	49,165	-0,072	-0,049
-497,853	-147,151	0,154	0,009
-496,839	800,000	-0,041	-0,102
-495,824	8,314	0,075	0,041
-494,810	-46,509	0,194	0,069
-493,795	194,092	0,067	-0,074
-492,781	-13,570	0,100	-0,047
-491,766	-76,239	-0,056	0,014
-490,751	298,409	0,104	0,139
-489,737	-15,383	0,037	0,017
-488,722	-48,534	0,051	-0,018
-487,708	233,677	-0,061	0,074
-486,693	-200,000	-0,008	-0,089
-485,678	-200,000	-0,007	-0,088
-484,664	-200,000	-0,022	-0,152
-483,649	176,213	-0,051	-0,054
-482,635	99,685	0,009	0,007
-481,620	-59,117	0,151	-0,047
-480,605	-200,000	-0,008	0,091
-479,591	285,393	0,060	-0,079
-478,576	-56,199	-0,126	0,041
-477,562	392,657	0,012	-0,018
-476,547	-136,439	-0,157	0,013
-475,532	92,284	0,045	0,037
-474,518	617,630	0,037	0,068
-473,503	-200,000	0,018	0,078
-472,489	52,394	-0,100	0,069
-471,474	143,105	0,090	0,087
-470,459	192,210	-0,035	0,039
-469,445	701,613	-0,049	0,094
-468,430	58,646	-0,014	-0,010
-467,416	136,247	0,186	-0,177
-466,401	-200,000	-0,009	0,050
-465,386	139,390	0,101	0,097
-464,372	126,639	0,055	0,051
-463,357	187,787	0,042	-0,046
-462,343	101,256	-0,063	-0,054
-461,328	229,041	-0,055	0,065
-460,313	215,162	-0,122	0,141
-459,299	308,555	0,053	-0,072
-458,284	398,382	0,014	-0,021
-457,270	800,000	-0,088	0,203
-456,255	-105,074	0,153	-0,025
-455,241	-200,000	-0,003	-0,015
-454,226	-145,336	0,076	-0,005
-453,211	760,714	0,069	0,137
-452,197	528,253	0,031	-0,053
-451,182	189,346	0,042	0,046
-450,168	47,801	-0,087	-0,059
-449,153	-200,000	-0,006	0,106
-448,138	179,318	-0,063	-0,067
-447,124	-159,909	-0,059	0,002
-446,109	-92,647	-0,086	-0,017
-445,095	-200,000	-0,015	0,083
-444,080	-20,711	0,029	0,013
-443,065	-143,456	0,143	-0,010
-442,051	391,901	-0,044	-0,067
-441,036	-89,097	0,102	-0,022
-440,022	-31,327	0,157	-0,064
-439,007	45,814	-0,032	-0,022
-437,992	408,671	0,054	-0,084
-436,978	800,000	-0,036	0,089
-435,963	-107,279	-0,056	-0,009
-434,949	21,401	0,069	-0,041
-433,934	645,324	0,022	-0,040
-432,919	-200,000	-0,009	-0,149
-431,905	800,000	-0,047	0,099
-430,890	-200,000	-0,001	0,047
-429,876	800,000	0,034	-0,108
-428,861	83,071	-0,123	0,097
-427,846	-18,680	0,081	-0,037
-426,832	-39,196	-0,049	0,018
-425,817	-6,481	0,110	-0,054
-424,803	457,382	0,030	0,049
-423,788	-44,974	0,114	0,041
-422,773	-200,000	0,030	0,113
-421,759	-92,339	0,099	-0,020
-420,744	800,000	-0,014	0,042
-419,730	54,714	-0,096	0,067
-418,715	-10,641	0,072	0,034
-417,701	-97,817	-0,012	0,002
-416,686	-144,032	0,044	0,003
-415,671	11,293	0,063	0,035
-414,657	351,706	0,030	-0,043
-413,642	390,828	-0,029	0,044
-412,628	62,247	-0,042	0,030
-411,613	103,861	-0,080	0,068
-410,598	-166,319	0,121	-0,004
-409,584	147,087	-0,024	-0,023
-408,569	-68,195	0,079	0,022
-407,555	-166,629	-0,050	-0,001
-406,540	-1,762	-0,079	0,040
-405,525	1,045	-0,082	-0,043
-404,511	54,884	0,111	-0,078
-403,496	-200,000	0,009	0,045
-402,482	63,980	0,033	-0,024
-401,467	-86,542	0,012	-0,003
-400,452	-200,000	0,003	0,099
-399,438	483,533	-0,044	-0,073
-398,423	-94,469	-0,106	0,021
-397,409	-157,818	0,148	-0,006
-396,394	109,761	-0,151	0,131
-395,379	-200,000	0,018	-0,115
-394,365	-200,000	0,020	-0,075
-393,350	-200,000	-0,003	-0,026
-392,336	133,997	-0,057	0,054
-391,321	-200,000	0,024	-0,082
-390,306	42,828	-0,053	-0,035
-389,292	138,604	-0,033	0,032
-388,277	-115,753	0,120	0,016
-387,263	63,740	-0,125	0,091
-386,248	800,000	0,056	0,136
-385,233	35,425	-0,045	0,029
-384,219	-200,000	0,020	0,103
-383,204	-132,397	0,190	0,018
-382,190	800,000	0,045	-0,101
-381,175	307,470	-0,083	-0,113
-380,160	-200,000	0,010	0,104
-379,146	-138,595	0,046	0,004
-378,131	10,074	-0,099	-0,054
-377,117	89,462	-0,038	0,031
-376,102	800,000	0,028	-0,083
-375,088	-30,332	-0,108	-0,044
-374,073	-200,000	0,029	0,146
-373,058	-16,449	0,125	0,057
-372,044	-200,000	-0,025	0,123
-371,029	800,000	-0,047	0,097
-370,015	-96,789	-0,095	0,018
-369,000	6,039	0,074	-0,040
-367,985	-136,089	0,065	-0,005
-366,971	102,167	0,022	-0,019
-365,956	-200,000	-0,016	-0,117
-364,942	574,129	-0,040	0,072
-363,927	-200,000	-0,035	0,127
-362,912	0,866	0,054	0,028
-361,898	581,505	0,046	0,082
-360,883	-200,000	-0,025	-0,087
-359,869	-106,131	-0,100	0,016
-358,854	-51,996	-0,039	-0,013
-357,839	-200,000	-0,029	0,120
-356,825	0,525	0,058	0,030
-355,810	-173,477	0,044	-0,001
-354,796	-54,859	0,059	-0,019
-353,781	-200,000	-0,011	0,146
-352,766	-200,000	-0,008	0,122
-351,752	800,000	-0,033	-0,086
-350,737	-32,694	0,162	0,065
-349,723	-200,000	-0,006	0,104
-348,708	375,935	-0,062	-0,091
-347,693	58,971	0,059	0,042
-346,679	-100,959	-0,101	0,018
-345,664	-200,000	0,024	-0,129
-344,650	-146,129	0,024	-0,001
-343,635	41,578	0,070	0,045
-342,620	-0,742	0,082	0,042
-341,606	800,000	0,059	0,155
-340,591	-174,919	-0,064	-0,001
-339,577	-200,000	-0,019	-0,080
-338,562	-200,000	0,015	-0,073
-337,548	-144,586	-0,065	-0,004
-336,533	268,504	0,084	0,107
-335,518	800,000	0,031	-0,094
-334,504	499,458	-0,062	0,104
-333,489	-200,000	-0,020	0,075
-332,475	-200,000	-0,018	0,061
-331,460	-75,493	-0,046	-0,012
-330,445	-72,837	-0,089	0,023
-329,431	479,776	0,055	-0,090
-328,416	800,000	0,038	0,099
-327,402	-200,000	0,024	0,156
-326,387	768,576	-0,086	0,170
-325,372	-29,656	0,089	0,037
-324,358	-156,358	-0,065	-0,003
-323,343	273,326	0,019	-0,024
-322,329	-200,000	0,042	0,138
-321,314	-200,000	0,028	-0,106
-320,299	-200,000	0,019	0,137
-319,285	-200,000	-0,023	-0,161
-318,270	-200,000	-0,028	-0,098
-317,256	800,000	-0,008	0,018
-316,241	-150,008	-0,069	0,004
-315,226	311,472	-0,028	-0,038
-314,212	2,926	0,106	0,056
-313,197	365,819	-0,125	0,183
-312,183	1,055	0,090	-0,047
-311,168	-143,095	-0,036	-0,002
-310,153	766,049	-0,048	0,096
-309,139	321,886	0,034	-0,047
-308,124	-48,908	0,151	-0,052
-307,110	179,155	-0,041	-0,044
-306,095	800,000	-0,069	0,214
-305,080	300,213	0,083	-0,111
-304,066	-11,282	-0,076	-0,036
-303,051	-90,271	-0,098	0,020
-302,037	291,848	0,026	-0,035
-301,022	-98,822	0,024	0,004
-300,008	-200,000	-0,005	-0,034
-298,993	-200,000	0,010	0,101
-297,978	115,583	-0,089	0,079
-296,964	81,957	-0,019	-0,015
-295,949	256,395	-0,065	-0,081
-294,935	-200,000	0,003	0,088
-293,920	-200,000	0,011	-0,064
-292,905	145,183	0,124	0,120
-291,891	800,000	0,020	-0,048
-290,876	-200,000	0,015	-0,086
-289,862	-200,000	-0,010	-0,119
-288,847	-129,990	-0,090	-0,009
-287,832	-143,827	-0,065	0,004
-286,818	800,000	0,025	-0,069
-285,803	-196,868	0,089	-0,000
-284,789	-200,000	0,020	0,126
-283,774	12,027	-0,058	0,032
-282,759	167,492	-0,060	0,062
-281,745	140,901	-0,087	-0,083
-280,730	-26,078	0,015	-0,006
-279,716	-200,000	-0,012	0,042
-278,701	-57,964	0,097	0,030
-277,686	598,822	-0,037	-0,067
-276,672	-22,885	-0,031	0,014
-275,657	800,000	0,029	0,086
-274,643	-200,000	-0,026	-0,103
-273,628	138,077	-0,047	-0,044
-272,613	-57,815	-0,159	0,050
-271,599	-200,000	0,002	0,021
-270,584	800,000	-0,016	0,038
-269,570	141,954	0,035	0,034
-268,555	18,172	0,088	0,050
-267,540	800,000	-0,008	-0,016
-266,526	-200,000	0,016	0,060
-265,511	118,481	0,119	0,106
-264,497	38,526	-0,103	0,066
-263,482	-200,000	0,016	0,065
-262,467	-200,000	-0,009	-0,165
-261,453	-200,000	0,009	-0,128
-260,438	800,000	-0,019	0,059
-259,424	286,410	-0,070	-0,091
-258,409	-200,000	-0,012	0,050
-257,395	-5,912	0,133	0,065
-256,380	-138,610	0,148	-0,012
-255,365	800,000	-0,064	0,167
-254,351	52,024	0,052	0,036
-253,336	135,282	-0,022	0,021
-252,322	-6,096	-0,091	-0,045
-251,307	296,317	0,033	0,043
-250,292	-200,000	-0,008	0,092
-249,278	105,970	0,083	0,071
-248,263	62,143	-0,050	-0,036
-247,249	-112,458	0,071	0,010
-246,234	42,151	-0,121	0,079
-245,219	-56,065	0,038	-0,012
-244,205	194,572	-0,071	-0,078
-243,190	-147,238	-0,049	0,003
-242,176	433,782	-0,023	-0,035
-241,161	-39,499	0,114	-0,043
-240,146	800,000	-0,014	-0,043
-239,132	-4,954	-0,089	0,044
-238,117	60,248	-0,075	-0,053
-237,103	-139,492	0,029	-0,002
-236,088	800,000	-0,039	0,091
-235,073	260,570	0,061	-0,077
-234,059	800,000	0,038	-0,119
-233,044	18,120	0,108	0,062
-232,030	117,864	0,043	0,038
-231,015	-200,000	0,003	-0,031
-230,000	-200,000	-0,008	0,046
-228,986	-32,968	0,066	-0,026
-227,971	-160,070	-0,077	0,003
-226,957	-25,829	0,162	0,068
-225,942	275,263	-0,058	-0,074
-224,927	236,666	-0,056	0,067
-223,913	542,244	0,066	0,114
-222,898	-128,142	-0,067	-0,007
-221,884	-21,655	0,109	-0,048
-220,869	137,609	0,052	-0,050
-219,855	617,507	0,078	0,141
-218,840	-19,542	0,087	-0,039
-217,825	-5,031	-0,052	0,026
-216,811	717,954	-0,054	-0,104
-215,796	-200,000	-0,019	-0,074
-214,782	19,677	-0,020	-0,012
-213,767	-103,857	0,053	0,009
-212,752	11,346	0,067	0,037
-211,738	-200,000	-0,020	-0,078
-210,723	-200,000	-0,022	-0,119
-209,709	-200,000	-0,001	-0,061
-208,694	-200,000	0,004	-0,070
-207,679	249,779	-0,056	-0,069
-206,665	-200,000	-0,016	-0,103
-205,650	-23,167	-0,110	0,048
-204,636	121,380	0,051	-0,046
-203,621	-100,056	0,116	-0,021
-202,606	46,820	0,084	-0,056
-201,592	800,000	0,033	-0,097
-200,577	-200,000	-0,073	-0,254
-199,563	15,969	0,078	-0,044
-198,548	-21,789	0,034	0,015
-197,533	-200,000	0,001	-0,049
-196,519	-200,000	-0,002	0,018
-195,504	85,933	-0,119	-0,094
-194,490	93,382	-0,055	-0,044
-193,475	-4,068	-0,163	-0,081
-192,460	131,100	0,080	-0,074
-191,446	548,612	0,049	-0,085
-190,431	800,000	-0,036	0,082
-189,417	351,089	-0,020	0,029
-188,402	-200,000	0,009	0,145
-187,387	202,009	-0,039	0,043
-186,373	-4,998	0,049	-0,024
-185,358	-200,000	0,043	0,143
-184,344	-90,073	0,112	-0,023
-183,329	-200,000	0,001	0,044
-182,315	23,356	0,109	0,065
-181,300	800,000	-0,033	0,083
-180,285	31,030	0,126	-0,078
-179,271	72,775	-0,107	0,080
-178,256	-49,988	0,084	0,028
-177,242	42,515	-0,143	0,093
-176,227	29,917	0,109	0,067
-175,212	-200,000	0,011	0,076
-174,198	191,280	0,092	-0,100
-173,183	800,000	0,005	-0,012
-172,169	-200,000	-0,004	-0,024
-171,154	352,163	-0,012	0,017
-170,139	-29,638	-0,047	-0,019
-169,125	416,554	0,046	-0,071
-168,110	-200,000	-0,017	0,106
-167,096	-85,984	-0,063	-0,014
-166,081	-175,087	-0,087	-0,002
-165,066	554,541	-0,070	-0,121
-164,052	-57,974	-0,060	-0,019
-163,037	-200,000	0,010	-0,141
-162,023	171,098	0,070	-0,072
-161,008	-48,890	-0,042	-0,014
-159,993	-200,000	0,008	-0,146
-158,979	800,000	-0,091	-0,185
-157,964	41,158	-0,053	0,034
-156,950	225,448	0,040	-0,047
-155,935	-53,412	-0,101	0,033
-154,920	800,000	-0,053	-0,119
-153,906	-29,414	-0,050	-0,020
-152,891	800,000	0,056	-0,142
-151,877	-119,587	-0,078	0,010
-150,862	-163,797	-0,187	0,006
-149,847	59,469	0,136	-0,096
-148,833	-151,788	-0,068	-0,004
-147,818	186,639	0,056	0,060
-146,804	185,179	0,139	-0,149
-145,789	-9,016	0,077	-0,037
-144,775	208,944	-0,045	0,051
-143,760	22,348	0,031	-0,018
-142,745	156,437	0,098	-0,098
-141,731	73,527	0,046	0,034
-140,716	-200,000	0,029	0,155
-139,702	-200,000	0,012	0,103
-138,687	28,668	0,145	0,088
-137,672	-200,000	0,007	0,107
-136,658	800,000	-0,038	-0,115
-135,643	-71,432	-0,005	-0,001
-134,629	-32,118	0,066	0,026
-133,614	28,544	0,159	0,097
-132,599	-200,000	0,013	0,094
-131,585	549,110	0,051	-0,087
-130,570	104,891	-0,069	0,058
-129,556	-64,758	0,005	-0,001
-128,541	-200,000	-0,005	0,079
-127,526	80,439	0,057	-0,044
-126,512	97,102	0,172	0,142
-125,497	-193,255	0,075	0,000
-124,483	-200,000	0,007	0,063
-123,468	13,572	0,026	0,014
-122,453	88,793	0,049	-0,039
-121,439	279,703	-0,027	-0,034
-120,424	800,000	-0,045	-0,093
-119,410	365,645	-0,092	0,134
-118,395	-35,302	0,088	-0,034
-117,380	370,929	-0,073	0,107
-116,366	-146,278	-0,099	-0,006
-115,351	55,372	0,076	0,053
-114,337	183,267	-0,094	-0,100
-113,322	-200,000	-0,004	-0,061
-112,307	17,173	0,088	0,050
-111,293	323,773	0,078	0,107
-110,278	-167,521	-0,080	-0,002
-109,264	195,317	0,139	-0,152
-108,249	474,056	0,067	-0,109
-107,234	731,412	-0,023	-0,045
-106,220	-200,000	0,025	-0,079
-105,205	-200,000	0,004	0,022
-104,191	-56,384	0,120	-0,038
-103,176	-200,000	0,015	-0,060
-102,162	-54,058	-0,134	0,043
-101,147	800,000	-0,062	0,153
-100,132	-25,325	-0,087	-0,037
-99,118	76,192	-0,040	-0,031
-98,103	237,515	0,008	-0,010
-97,089	75,134	-0,104	-0,078
-96,074	-61,327	-0,067	-0,020
-95,059	-160,074	-0,075	-0,003
-94,045	-142,441	0,048	-0,003
-93,030	-122,915	-0,037	0,004
-92,016	677,648	-0,076	-0,142
-91,001	-200,000	-0,010	0,119
-89,986	-200,000	-0,009	-0,091
-88,972	800,000	-0,044	0,092
-87,957	-163,149	0,056	-0,002
-86,943	522,911	-0,050	0,084
-85,928	7,821	-0,055	-0,030
-84,913	542,381	0,046	-0,079
-83,899	-164,453	0,038	0,001
-82,884	193,843	0,028	0,030
-81,870	800,000	-0,062	0,148
-80,855	265,263	-0,029	-0,036
-79,840	-154,416	0,126	0,006
-78,826	-2,830	-0,076	-0,038
-77,811	302,734	-0,034	-0,046
-76,797	93,109	-0,150	0,121
-75,782	-200,000	0,022	0,078
-74,767	800,000	0,030	0,071
-73,753	193,109	-0,096	0,104
-72,738	714,240	0,015	0,029
-71,724	800,000	-0,142	-0,302
-70,709	241,895	0,028	-0,034
-69,694	-152,831	0,056	-0,003
-68,680	-200,000	-0,010	0,079
-67,665	795,161	0,006	-0,011
-66,651	26,343	0,018	0,011
-65,636	101,312	0,113	-0,094
-64,622	227,298	-0,034	-0,039
-63,607	800,000	0,034	-0,077
-62,592	800,000	0,076	0,164
-61,578	-200,000	0,013	0,066
-60,563	21,066	0,125	0,073
-59,549	800,000	0,009	-0,020
-58,534	27,391	-2,286	-1,372
-57,519	-200,000	0,031	-0,740
-56,505	-200,000	-1,328	-5,076
-55,490	117,394	0,740	0,652
-54,476	800,000	5,543	12,204
-53,461	-200,000	18,858	317,907
-52,446	800,000	740,322	2321,584
-51,432	550,155	1654,033	2850,501
-50,417	110,104	1637,404	1406,592
-49,403	73,597	1287,991	964,609
-48,388	29,683	1029,518	625,734
-47,373	19,569	992,440	569,781
-46,359	16,998	979,839	554,087
-45,344	13,591	976,175	540,825
-44,330	13,940	974,442	540,985
-43,315	13,275	972,649	537,795
-42,300	13,207	971,588	536,964
-41,286	13,178	970,801	536,413
-40,271	13,198	969,757	535,881
-39,257	13,205	969,093	535,513
-38,242	13,200	968,155	534,958
-37,227	13,239	967,174	534,522
-36,213	13,237	966,262	533,990
-35,198	13,151	965,433	533,232
-34,184	13,241	964,646	533,067
-33,169	13,162	963,819	532,335
-32,154	13,195	962,859	531,888
-31,140	13,196	961,881	531,331
-30,125	13,257	960,997	531,019
-29,111	13,213	960,258	530,449
-28,096	13,288	959,599	530,306
-27,082	13,229	959,042	529,784
-26,067	13,266	958,206	529,421
-25,052	13,245	957,394	528,885
-24,038	13,203	956,858	528,432
-23,023	13,142	956,451	527,990
-22,009	13,209	955,590	527,709
-20,994	13,245	954,859	527,399
-19,979	13,222	954,378	527,038
-18,965	13,229	953,652	526,640
-17,950	13,283	953,127	526,502
-16,936	13,193	952,459	525,826
-15,921	13,237	951,623	525,484
-14,906	13,084	951,096	524,683
-13,892	13,169	950,302	524,494
-12,877	13,090	949,708	523,894
-11,863	13,113	949,081	523,601
-10,848	13,154	948,520	523,401
-9,833	13,211	948,245	523,410
-8,819	13,089	947,583	522,635
-7,804	13,104	946,660	522,154
-6,790	13,171	946,175	522,078
-5,775	13,153	945,616	521,692
-4,760	13,142	945,010	521,302
-3,746	13,165	944,406	521,022
-2,731	13,027	943,596	520,117
-1,717	12,948	942,990	519,512
-0,702	12,920	942,424	519,090
0,313	12,719	941,789	518,888
1,327	16,205	939,466	528,565
2,342	25,379	790,463	468,903
3,356	21,618	445,379	258,601
4,371	-7,480	298,312	143,871
5,386	-10,987	280,080	131,714
6,400	-12,225	274,414	127,877
7,415	-12,511	271,924	126,440
8,429	-12,774	270,580	125,561
9,444	-12,827	269,673	125,080
10,459	-12,778	268,805	124,711
11,473	-12,832	268,223	124,380
12,488	-12,897	267,753	124,093
13,502	-13,014	267,017	123,633
14,517	-13,165	266,616	123,298
15,531	-13,281	266,453	123,107
16,546	-12,992	265,804	123,059
17,561	-13,195	265,364	122,659
18,575	-13,070	265,187	122,680
19,590	-13,196	264,828	122,389
20,604	-12,987	264,579	122,452
21,619	-13,171	264,128	122,067
22,634	-13,296	263,722	121,755
23,648	-13,435	263,482	121,509
24,663	-13,320	263,240	121,490
25,677	-13,198	262,855	121,411
26,692	-13,167	262,711	121,361
27,707	-13,217	262,477	121,198
28,721	-13,296	262,061	120,924
29,736	-13,380	261,868	120,749
30,750	-13,407	261,710	120,642
31,765	-13,406	261,330	120,457
32,780	-13,456	261,110	120,299
33,794	-13,324	260,739	120,236
34,809	-13,454	260,586	120,039
35,823	-13,458	260,291	119,888
36,838	-13,359	260,016	119,839
37,853	-13,289	259,847	119,812
38,867	-13,260	259,503	119,669
39,882	-13,697	259,524	119,281
40,896	-13,575	259,206	119,232
41,911	-13,481	258,965	119,194
42,926	-13,437	258,649	119,076
43,940	-13,290	258,458	119,107
44,955	-13,406	258,067	118,815
45,969	-13,538	257,845	118,586
46,984	-13,637	257,630	118,389
47,999	-13,870	257,303	118,024
49,013	-14,030	257,101	117,781
50,028	-13,999	256,761	117,642
51,042	-14,183	256,705	117,445
52,057	-14,253	256,341	117,207
53,071	-14,384	256,248	117,039
54,086	-14,180	256,070	117,126
55,101	-14,137	255,957	117,101
56,115	-14,000	255,737	117,110
57,130	-13,427	255,664	117,564
58,144	-13,042	255,494	117,809
59,159	-13,017	255,272	117,719
60,174	-13,023	254,886	117,524
61,188	-12,941	254,698	117,499
62,203	-13,087	254,588	117,311
63,217	-13,290	254,460	117,066
64,232	-13,197	254,164	117,000
65,247	-12,991	254,053	117,116
66,261	-13,337	253,759	116,672
67,276	-13,605	253,426	116,277
68,290	-13,744	253,089	115,993
69,305	-13,697	252,977	115,972
70,320	-13,568	252,729	115,959
71,334	-13,419	252,423	115,936
72,349	-13,056	252,491	116,268
73,363	-13,109	252,285	116,117
74,378	-13,048	251,942	116,001
75,393	-13,259	251,773	115,733
76,407	-13,167	251,636	115,738
77,422	-13,199	251,407	115,595
78,436	-13,233	251,194	115,457
79,451	-13,173	250,826	115,330
80,466	-13,337	250,684	115,114
81,480	-13,503	250,378	114,822
82,495	-13,643	250,193	114,608
83,509	-13,470	250,118	114,710
84,524	-13,578	249,933	114,524
85,539	-13,719	249,490	114,192
86,553	-13,869	249,456	114,039
87,568	-13,626	249,213	114,123
88,582	-13,577	249,170	114,135
89,597	-13,561	248,811	113,973
90,611	-13,435	248,776	114,053
91,626	-13,399	248,798	114,084
92,641	-13,346	248,402	113,936
93,655	-13,409	248,105	113,737
94,670	-13,400	247,932	113,655
95,684	-13,564	247,786	113,440
96,699	-13,601	247,687	113,353
97,714	-13,447	247,420	113,351
98,728	-13,696	247,127	112,998
99,743	-13,766	247,002	112,872
100,757	-13,725	246,701	112,759
101,772	-13,774	246,542	112,635
102,787	-13,575	246,480	112,763
103,801	-13,720	246,222	112,514
104,816	-13,417	246,052	112,678
105,830	-13,254	245,996	112,779
106,845	-13,368	245,775	112,572
107,860	-13,351	245,689	112,537
108,874	-13,422	245,344	112,310
109,889	-13,457	245,075	112,148
110,903	-13,495	244,845	112,002
111,918	-13,573	244,620	111,824
112,933	-13,449	244,566	111,892
113,947	-13,514	244,468	111,783
114,962	-13,187	244,182	111,913
115,976	-13,250	244,068	111,798
116,991	-13,293	243,838	111,647
118,006	-13,532	243,700	111,377
119,020	-13,420	243,639	111,432
120,035	-13,351	243,533	111,430
121,049	-13,369	243,245	111,274
122,064	-13,209	243,102	111,330
123,079	-13,332	242,705	111,037
124,093	-13,493	242,670	110,879
125,108	-13,448	242,220	110,701
126,122	-13,665	242,069	110,444
127,137	-13,887	241,898	110,175
128,151	-13,844	241,733	110,124
129,166	-13,768	241,619	110,125
130,181	-13,684	241,325	110,050
131,195	-13,797	241,111	109,850
132,210	-13,532	240,970	109,992
133,224	-13,214	240,787	110,157
134,239	-13,378	240,831	110,035
135,254	-13,415	240,678	109,925
136,268	-13,484	240,428	109,744
137,283	-13,683	240,031	109,392
138,297	-13,996	239,871	109,056
139,312	-13,773	239,715	109,155
140,327	-13,473	239,758	109,409
141,341	-12,986	239,576	109,710
142,356	-12,947	239,360	109,632
143,370	-12,964	239,416	109,635
144,385	-12,961	239,206	109,532
145,400	-13,053	238,957	109,333
146,414	-13,056	238,671	109,190
147,429	-13,137	238,677	109,118
148,443	-13,082	238,436	109,043
149,458	-13,001	238,220	108,999
150,473	-13,011	238,007	108,884
151,487	-13,189	237,830	108,650
152,502	-12,887	237,707	108,827
153,516	-12,877	237,505	108,732
154,531	-12,908	237,424	108,661
155,546	-13,012	237,170	108,452
156,560	-13,158	236,981	108,239
157,575	-13,126	236,718	108,135
158,589	-13,045	236,661	108,163
159,604	-12,966	236,576	108,178
160,619	-12,888	236,310	108,109
161,633	-12,980	236,231	107,990
162,648	-12,689	235,983	108,098
163,662	-13,108	235,788	107,666
164,677	-13,058	235,738	107,673
165,692	-13,024	235,540	107,601
166,706	-13,032	235,508	107,570
167,721	-12,900	235,275	107,558
168,735	-13,024	235,157	107,397
169,750	-12,930	235,078	107,425
170,764	-12,904	234,859	107,337
171,779	-13,012	234,670	107,155
172,794	-12,694	234,588	107,360
173,808	-12,975	234,266	106,981
174,823	-13,636	234,034	106,344
175,837	-13,784	233,757	106,093
176,852	-13,446	233,826	106,381
177,867	-12,921	233,680	106,718
178,881	-12,970	233,649	106,655
179,896	-12,879	233,338	106,576
180,910	-12,775	233,151	106,562
181,925	-12,799	233,007	106,468
182,940	-12,916	232,948	106,340
183,954	-12,895	232,765	106,263
184,969	-12,846	232,625	106,228
185,983	-12,712	232,384	106,214
186,998	-12,962	232,295	105,968
188,013	-12,781	232,267	106,087
189,027	-12,524	231,872	106,097
190,042	-12,799	231,764	105,825
191,056	-12,780	231,771	105,833
192,071	-12,729	231,483	105,732
193,086	-12,720	231,402	105,693
194,100	-12,724	231,251	105,611
195,115	-12,695	231,063	105,538
196,129	-12,110	231,251	106,069
197,144	-6,251	233,179	111,529
198,159	-0,126	234,829	117,121
199,173	2,678	235,634	119,716
200,188	3,042	235,419	119,882
201,202	2,844	235,427	119,720
202,217	2,913	235,273	119,685
203,232	3,087	235,179	119,763
204,246	3,381	235,112	119,949
205,261	3,131	235,033	119,702
206,275	3,670	234,715	119,951
207,290	3,500	234,701	119,800
208,304	3,416	234,500	119,620
209,319	3,325	234,330	119,453
210,334	3,480	233,999	119,394
211,348	3,105	233,868	119,024
212,363	2,964	233,580	118,758
213,377	2,459	233,438	118,282
214,392	2,458	233,368	118,236
215,407	2,708	233,306	118,388
216,421	2,838	233,083	118,365
217,436	2,873	232,743	118,209
218,450	2,550	232,557	117,854
219,465	2,455	232,610	117,796
220,480	2,684	232,283	117,797
221,494	2,572	232,201	117,659
222,509	2,763	232,063	117,726
223,523	2,786	231,892	117,646
224,538	2,774	231,763	117,561
225,553	2,668	231,619	117,396
226,567	2,751	231,493	117,386
227,582	3,170	231,377	117,639
228,596	3,148	231,342	117,593
229,611	2,751	231,105	117,157
230,626	2,448	230,867	116,794
231,640	2,350	230,804	116,676
232,655	2,607	230,599	116,760
233,669	2,864	230,767	117,031
234,684	3,274	230,475	117,187
235,699	3,179	230,401	117,066
236,713	2,884	230,084	116,669
237,728	2,695	229,941	116,442
238,742	2,725	229,616	116,289
239,757	2,575	229,613	116,164
240,772	2,703	229,332	116,108
241,786	2,751	229,150	116,042
242,801	2,961	229,013	116,122
243,815	3,247	229,049	116,347
244,830	3,067	228,922	116,136
245,844	2,806	228,514	115,720
246,859	2,899	228,355	115,700
247,874	2,846	228,465	115,705
248,888	2,840	228,384	115,649
249,903	2,980	228,163	115,633
250,917	2,829	227,851	115,350
251,932	2,617	227,690	115,099
252,947	2,522	227,564	114,953
253,961	2,657	227,443	114,984
254,976	2,608	227,209	114,818
255,990	2,984	227,214	115,093
257,005	2,871	227,141	114,961
258,020	2,970	227,079	114,994
259,034	3,060	226,741	114,881
260,049	2,878	226,752	114,739
261,063	3,028	226,374	114,651
262,078	3,234	226,436	114,826
263,093	3,085	226,194	114,581
264,107	3,157	226,067	114,560
265,122	3,023	225,959	114,395
266,136	3,129	225,796	114,382
267,151	2,933	225,785	114,219
268,166	2,805	225,426	113,932
269,180	2,406	225,404	113,613
270,195	2,453	225,092	113,480
271,209	2,603	224,906	113,489
272,224	2,739	224,956	113,605
273,239	2,943	224,601	113,567
274,253	2,748	224,498	113,360
275,268	2,541	224,232	113,061
276,282	2,383	224,198	112,917
277,297	2,664	224,144	113,088
278,312	2,581	223,968	112,928
279,326	2,761	223,909	113,022
280,341	2,737	223,660	112,868
281,355	2,747	223,636	112,854
282,370	2,810	223,298	112,719
283,384	2,575	223,139	112,456
284,399	2,579	222,985	112,371
285,414	2,588	222,836	112,292
286,428	2,567	222,873	112,285
287,443	2,803	222,808	112,416
288,457	2,761	222,705	112,324
289,472	2,785	222,273	112,114
290,487	2,205	222,121	111,601
291,501	2,182	221,930	111,478
292,516	2,251	221,826	111,466
293,530	2,340	221,726	111,472
294,545	2,359	221,579	111,401
295,560	2,519	221,584	111,511
296,574	2,798	221,397	111,611
297,589	2,878	221,135	111,528
298,603	2,607	221,169	111,337
299,618	2,751	220,927	111,311
300,633	2,936	220,796	111,369
301,647	2,898	220,851	111,359
302,662	2,940	220,731	111,320
303,676	3,011	220,479	111,234
304,691	3,162	220,345	111,267
305,706	2,905	220,263	111,028
306,720	3,180	219,948	111,059
307,735	2,437	219,932	110,502
308,749	2,663	219,710	110,544
309,764	2,841	219,661	110,639
310,779	2,957	219,531	110,648
311,793	2,912	219,436	110,558
312,808	2,789	219,289	110,384
313,822	2,723	218,980	110,171
314,837	2,693	218,861	110,080
315,852	2,612	218,643	109,902
316,866	2,763	218,600	109,980
317,881	3,279	218,445	110,263
318,895	2,819	218,439	109,919
319,910	2,681	218,196	109,688
320,925	2,400	217,918	109,336
321,939	2,244	217,705	109,108
322,954	2,459	217,683	109,241
323,968	2,787	217,657	109,454
324,983	2,880	217,638	109,502
325,997	2,844	217,507	109,400
327,012	2,980	217,236	109,351
328,027	2,921	217,132	109,247
329,041	3,104	216,944	109,273
330,056	3,165	216,903	109,287
331,070	2,997	216,590	108,999
332,085	2,568	216,396	108,586
333,100	2,396	216,357	108,435
334,114	2,462	216,224	108,405
335,129	3,257	215,951	108,824
336,143	2,820	216,078	108,567
337,158	2,944	215,797	108,505
338,173	2,876	215,675	108,385
339,187	2,595	215,557	108,117
340,202	2,565	215,358	107,986
341,216	2,316	215,218	107,730
342,231	2,740	215,061	107,942
343,246	2,550	214,992	107,762
344,260	2,678	214,913	107,804
345,275	2,562	214,866	107,689
346,289	2,753	214,720	107,741
347,304	2,974	214,410	107,732
348,319	2,783	214,336	107,550
349,333	2,831	214,132	107,473
350,348	2,636	214,113	107,316
351,362	3,092	214,010	107,575
352,377	2,995	213,908	107,446
353,392	2,875	213,642	107,219
354,406	2,724	213,608	107,086
355,421	197,048	1314,820	1392,267
356,435	157,653	1448,930	1392,200
