DTS Sentinel unit serial number:	SN410029Multiplexer serial number:	ORYXHardware model number:	OX2-SRSoftware version number:	ORYX F/W v4,00 Oryx Data Collector v3.7.2.0data status	okinstallation	B6 Nyhavnadifferential loss correction	single-endedforward channel	channel 2reverse channel	N/Adate	2023/12/07time	18:40:08forward acquisition time	300,00reverse acquisition time	0,00gamma	499,1914k internal	0,3164k external	0,3164temperature offset calibration	1,0000default loss term (dB/km)	0,3820temperature slope calibration	1,0000multiplexer offset coefficient	1,0000multiplexer slope coefficient	1,0000fibre end	0,00T internal ref (°C)	14,20T ext. ref 1 (°C)	-2,79T ext. ref 2 (°C)	-2,80length (m)	temperature (°C)	Stokes	anti-Stokes-744,400	800,000	0,049	0,144
-743,385	-82,779	-0,276	0,065
-742,371	-81,903	0,069	0,017
-741,356	-117,677	-0,167	-0,022
-740,342	-200,000	0,105	0,000
-739,327	-133,150	-0,437	-0,040
-738,312	37,987	0,097	-0,063
-737,298	-78,276	-0,281	0,070
-736,283	545,283	0,047	0,083
-735,269	-3,492	-0,261	0,133
-734,254	-114,413	0,132	-0,018
-733,239	-9,210	-0,428	-0,210
-732,225	-182,559	0,151	0,002
-731,210	-200,000	-0,014	0,103
-730,196	-50,696	0,030	-0,010
-729,181	133,620	-0,030	0,028
-728,167	476,339	-0,053	-0,088
-727,152	-155,247	-0,194	-0,009
-726,137	774,630	-0,055	-0,112
-725,123	-84,592	-0,016	0,004
-724,108	244,396	-0,169	-0,209
-723,094	295,461	0,027	0,036
-722,079	800,000	-0,006	0,019
-721,064	313,510	-0,089	0,124
-720,050	285,447	0,109	-0,144
-719,035	-30,865	-0,172	0,071
-718,021	350,780	0,017	-0,025
-717,006	82,202	-0,060	-0,048
-715,991	595,864	-0,108	-0,197
-714,977	-200,000	0,032	0,153
-713,962	308,470	-0,072	-0,099
-712,948	-55,321	-0,061	0,020
-711,933	-65,620	0,111	-0,032
-710,918	36,022	0,046	-0,029
-709,904	148,488	0,072	0,071
-708,889	800,000	-0,071	-0,154
-707,875	766,267	-0,075	0,151
-706,860	-200,000	0,008	0,075
-705,845	-151,691	-0,066	0,003
-704,831	87,173	0,045	0,036
-703,816	282,932	-0,031	0,040
-702,802	440,708	-0,067	0,109
-701,787	72,657	0,041	-0,032
-700,772	101,062	-0,086	0,073
-699,758	35,453	0,035	0,023
-698,743	-200,000	0,005	-0,068
-697,729	-60,525	-0,097	-0,030
-696,714	-6,336	0,084	0,042
-695,699	28,488	0,004	0,003
-694,685	-6,758	0,049	-0,024
-693,670	-21,795	-0,142	0,063
-692,656	800,000	-0,018	-0,044
-691,641	-200,000	-0,021	-0,179
-690,627	134,651	0,048	-0,046
-689,612	-79,948	-0,015	0,004
-688,597	-200,000	0,006	0,073
-687,583	553,934	-0,043	-0,076
-686,568	800,000	-0,012	0,039
-685,554	-122,009	-0,093	-0,011
-684,539	-69,994	-0,053	0,015
-683,524	-196,513	-0,172	-0,001
-682,510	127,338	-0,025	-0,023
-681,495	-72,664	-0,012	-0,003
-680,481	138,797	-0,104	-0,100
-679,466	138,387	-0,105	-0,101
-678,451	71,269	-0,122	-0,093
-677,437	-200,000	-0,008	-0,087
-676,422	-200,000	-0,007	-0,093
-675,408	-100,911	-0,104	0,019
-674,393	-200,000	-0,002	0,052
-673,378	-123,157	-0,148	-0,017
-672,364	203,093	0,114	-0,129
-671,349	-150,925	-0,104	0,006
-670,335	-51,778	-0,062	0,021
-669,320	-1,562	0,099	-0,051
-668,305	774,845	0,030	0,061
-667,291	800,000	-0,005	0,010
-666,276	800,000	-0,039	-0,083
-665,262	-123,101	-0,184	0,021
-664,247	-200,000	0,016	0,143
-663,232	-200,000	0,015	-0,153
-662,218	-163,551	0,059	-0,002
-661,203	-73,682	-0,152	0,040
-660,189	35,755	0,129	0,083
-659,174	-122,305	-0,103	0,012
-658,159	-200,000	0,007	-0,027
-657,145	800,000	-0,014	0,040
-656,130	106,911	-0,078	-0,068
-655,116	80,632	0,006	0,005
-654,101	5,802	-0,140	0,076
-653,086	29,029	0,072	0,045
-652,072	-119,133	-0,159	0,020
-651,057	226,433	-0,068	0,081
-650,043	-178,926	0,085	-0,001
-649,028	50,312	0,094	0,065
-648,014	-200,000	0,021	-0,090
-646,999	730,577	0,029	0,057
-645,984	800,000	0,020	0,055
-644,970	-47,585	-0,083	-0,030
-643,955	405,642	-0,035	-0,054
-642,941	-113,434	-0,114	-0,016
-641,926	-130,318	0,121	0,012
-640,911	-99,388	0,050	0,009
-639,897	800,000	-0,070	0,147
-638,882	178,030	-0,057	0,061
-637,868	-200,000	-0,000	0,033
-636,853	-29,280	0,093	-0,039
-635,838	-90,060	0,085	-0,018
-634,824	-200,000	0,014	0,138
-633,809	30,882	0,144	0,090
-632,795	-51,999	-0,179	0,061
-631,780	-76,698	0,136	0,035
-630,765	110,664	-0,143	-0,126
-629,751	-23,761	-0,091	0,040
-628,736	73,496	-0,053	-0,041
-627,722	121,992	0,056	0,051
-626,707	800,000	-0,050	-0,127
-625,692	-51,988	-0,082	-0,028
-624,678	3,465	-0,061	0,033
-623,663	-160,771	-0,128	0,005
-622,649	-200,000	-0,031	-0,103
-621,634	-150,292	0,137	-0,008
-620,619	-169,684	-0,055	0,001
-619,605	126,473	-0,066	-0,062
-618,590	800,000	0,061	-0,134
-617,576	64,735	0,043	-0,032
-616,561	751,278	-0,007	0,015
-615,546	-57,473	0,133	-0,042
-614,532	-142,931	-0,050	0,003
-613,517	128,865	-0,108	-0,100
-612,503	-57,322	0,056	0,018
-611,488	699,386	0,098	-0,189
-610,474	-136,924	-0,107	0,009
-609,459	56,998	-0,060	-0,043
-608,444	800,000	-0,042	0,127
-607,430	-200,000	-0,009	-0,082
-606,415	462,708	0,019	-0,032
-605,401	-86,515	0,088	-0,020
-604,386	585,548	0,021	0,039
-603,371	284,157	0,078	0,103
-602,357	-139,630	-0,118	0,009
-601,342	-3,879	-0,061	0,031
-600,328	111,830	-0,085	-0,075
-599,313	-200,000	0,017	-0,185
-598,298	800,000	-0,045	-0,092
-597,284	-200,000	-0,007	0,043
-596,269	-200,000	-0,018	0,183
-595,255	-200,000	-0,004	-0,082
-594,240	83,853	-0,076	-0,060
-593,225	-200,000	0,016	-0,076
-592,211	162,727	-0,069	-0,070
-591,196	226,128	0,035	-0,042
-590,182	254,875	0,058	-0,073
-589,167	800,000	0,035	0,071
-588,152	-116,916	-0,049	-0,006
-587,138	253,561	0,059	-0,074
-586,123	146,465	-0,109	-0,108
-585,109	166,802	0,071	-0,074
-584,094	590,551	-0,084	-0,152
-583,079	-65,642	0,114	0,033
-582,065	-200,000	0,015	0,075
-581,050	800,000	0,015	0,034
-580,036	-35,495	-0,160	-0,063
-579,021	525,291	-0,063	-0,109
-578,006	-200,000	0,004	-0,035
-576,992	800,000	-0,047	-0,123
-575,977	-59,844	-0,053	-0,016
-574,963	-200,000	0,014	0,186
-573,948	-27,394	0,083	-0,035
-572,934	-72,075	-0,100	0,027
-571,919	-131,019	0,082	-0,008
-570,904	-102,194	-0,031	-0,005
-569,890	-178,276	-0,062	-0,001
-568,875	369,896	0,035	-0,052
-567,861	-142,919	-0,061	-0,004
-566,846	550,230	0,052	0,092
-565,831	-200,000	0,006	-0,022
-564,817	800,000	-0,038	-0,095
-563,802	-79,635	-0,052	-0,013
-562,788	-141,760	0,127	-0,009
-561,773	-30,968	-0,086	0,035
-560,758	51,727	-0,075	0,052
-559,744	-200,000	0,025	0,212
-558,729	-200,000	-0,015	-0,070
-557,715	-39,218	-0,036	-0,014
-556,700	800,000	-0,040	0,090
-555,685	-200,000	0,027	-0,137
-554,671	-200,000	0,008	0,059
-553,656	795,323	-0,056	0,113
-552,642	68,251	0,013	-0,010
-551,627	156,775	-0,068	0,069
-550,612	520,815	-0,047	-0,081
-549,598	414,183	-0,054	-0,084
-548,583	107,684	-0,069	-0,060
-547,569	800,000	-0,059	0,136
-546,554	-151,111	-0,120	-0,006
-545,539	330,831	0,027	0,038
-544,525	800,000	0,021	-0,046
-543,510	21,188	-0,060	-0,035
-542,496	800,000	-0,015	-0,036
-541,481	115,404	0,050	0,044
-540,466	487,238	0,066	0,110
-539,452	-85,579	0,087	-0,020
-538,437	-16,134	-0,039	0,018
-537,423	-185,440	0,066	-0,001
-536,408	405,974	-0,039	-0,060
-535,393	-200,000	-0,015	0,063
-534,379	55,405	-0,072	0,051
-533,364	-200,000	-0,008	-0,149
-532,350	125,815	-0,128	0,118
-531,335	-15,555	0,128	-0,060
-530,321	-3,960	-0,073	-0,037
-529,306	800,000	0,025	0,072
-528,291	-86,580	-0,135	0,030
-527,277	553,774	0,062	-0,109
-526,262	-73,479	-0,100	-0,026
-525,248	-200,000	-0,001	0,053
-524,233	131,040	0,048	0,045
-523,218	101,015	0,045	-0,038
-522,204	-200,000	-0,013	0,126
-521,189	-97,307	0,056	0,011
-520,175	-63,641	0,015	-0,005
-519,160	-200,000	0,076	-0,304
-518,145	6,678	0,086	0,046
-517,131	-200,000	0,025	0,217
-516,116	31,674	0,090	0,056
-515,102	12,200	-0,075	-0,042
-514,087	-200,000	0,013	-0,134
-513,072	800,000	-0,036	0,104
-512,058	355,678	-0,076	-0,110
-511,043	-151,449	0,110	0,006
-510,029	60,534	0,116	0,084
-509,014	-157,998	-0,093	0,004
-507,999	139,062	-0,031	-0,030
-506,985	-106,715	-0,072	0,012
-505,970	181,352	0,088	0,095
-504,956	-46,003	0,046	0,017
-503,941	-30,380	0,106	-0,044
-502,926	-198,085	0,112	0,000
-501,912	780,086	0,099	0,198
-500,897	-55,478	-0,124	0,040
-499,883	-122,049	-0,093	0,011
-498,868	800,000	0,016	-0,033
-497,853	-35,485	0,080	0,032
-496,839	304,472	0,012	0,016
-495,824	261,287	0,059	-0,075
-494,810	783,284	-0,072	0,145
-493,795	795,102	-0,066	0,134
-492,781	800,000	-0,019	0,055
-491,766	-148,622	-0,075	-0,004
-490,751	-44,483	0,073	0,026
-489,737	-35,278	0,052	-0,020
-488,722	797,761	-0,049	-0,099
-487,708	11,487	0,095	-0,053
-486,693	-107,505	0,035	0,006
-485,678	800,000	0,003	-0,008
-484,664	26,399	0,139	0,084
-483,649	3,119	-0,112	0,059
-482,635	800,000	-0,051	-0,145
-481,620	93,634	-0,048	0,040
-480,605	-133,083	-0,073	0,007
-479,591	-200,000	-0,003	0,139
-478,576	561,848	-0,076	-0,135
-477,562	-43,368	-0,049	-0,018
-476,547	-200,000	-0,030	-0,108
-475,532	229,911	0,075	-0,089
-474,518	-200,000	0,001	0,033
-473,503	-200,000	0,004	0,107
-472,489	421,463	0,028	0,044
-471,474	-200,000	0,030	0,110
-470,459	-69,024	-0,096	0,027
-469,445	258,936	-0,102	0,128
-468,430	-200,000	-0,013	0,100
-467,416	-200,000	-0,068	0,253
-466,401	334,890	0,113	0,160
-465,386	300,734	0,089	0,119
-464,372	-83,804	0,089	0,021
-463,357	-106,212	-0,219	-0,035
-462,343	-200,000	-0,015	-0,166
-461,328	46,333	-0,073	-0,049
-460,313	-66,351	0,126	0,036
-459,299	-200,000	0,032	0,109
-458,284	740,040	0,066	0,129
-457,270	224,985	-0,051	-0,060
-456,255	-129,863	0,201	-0,020
-455,241	-93,435	-0,129	0,026
-454,226	800,000	-0,032	-0,084
-453,211	105,304	-0,024	-0,020
-452,197	209,290	0,050	0,057
-451,182	-200,000	0,032	-0,162
-450,168	116,272	0,087	-0,077
-449,153	-19,012	-0,072	-0,032
-448,138	58,965	0,039	-0,028
-447,124	800,000	-0,035	0,082
-446,109	800,000	0,038	0,112
-445,095	691,482	-0,035	0,067
-444,080	11,080	0,052	0,029
-443,065	800,000	-0,010	-0,024
-442,051	212,320	0,037	0,043
-441,036	-172,647	0,030	0,001
-440,022	-200,000	0,001	-0,116
-439,007	97,797	-0,032	0,027
-437,992	-200,000	-0,009	-0,033
-436,978	-118,319	0,106	0,014
-435,963	-113,938	-0,127	0,018
-434,949	247,271	0,036	0,044
-433,934	14,038	-0,076	0,043
-432,919	-99,028	-0,179	0,033
-431,905	133,244	0,095	-0,090
-430,890	82,875	0,013	-0,010
-429,876	190,210	-0,059	-0,064
-428,861	88,186	0,044	0,035
-427,846	-138,256	-0,125	-0,010
-426,832	128,380	0,027	-0,025
-425,817	395,044	-0,037	-0,056
-424,803	800,000	0,015	0,039
-423,788	800,000	-0,029	-0,077
-422,773	389,103	0,088	0,133
-421,759	-200,000	0,004	-0,072
-420,744	-200,000	0,011	-0,244
-419,730	-0,752	0,051	-0,026
-418,715	-200,000	0,033	-0,130
-417,701	356,552	-0,045	-0,065
-416,686	-114,036	0,071	0,010
-415,671	-44,768	0,044	0,016
-414,657	-168,400	0,141	-0,004
-413,642	-200,000	0,016	-0,098
-412,628	0,878	0,132	0,069
-411,613	-68,598	-0,015	0,004
-410,598	28,313	-0,106	0,065
-409,584	-29,708	0,070	0,029
-408,569	-61,251	0,131	-0,040
-407,555	104,578	0,028	-0,024
-406,540	197,141	-0,013	-0,014
-405,525	-200,000	0,014	-0,114
-404,511	-200,000	-0,014	-0,166
-403,496	800,000	0,021	-0,045
-402,482	-26,760	-0,114	0,048
-401,467	-200,000	-0,008	0,079
-400,452	25,630	0,121	0,073
-399,438	-200,000	-0,004	-0,173
-398,423	-44,178	-0,101	0,037
-397,409	187,819	0,126	-0,137
-396,394	-200,000	-0,025	-0,138
-395,379	56,189	0,044	0,031
-394,365	-200,000	0,015	-0,094
-393,350	-2,991	-0,101	0,051
-392,336	232,056	0,051	0,061
-391,321	-122,501	-0,065	-0,008
-390,306	444,793	-0,015	-0,023
-389,292	252,054	0,029	0,036
-388,277	515,856	-0,052	-0,089
-387,263	459,981	0,032	0,053
-386,248	-200,000	0,001	-0,008
-385,233	-78,483	-0,083	-0,020
-384,219	800,000	0,031	-0,086
-383,204	-49,976	-0,093	-0,032
-382,190	800,000	0,030	-0,075
-381,175	-200,000	-0,017	0,147
-380,160	379,920	0,050	0,074
-379,146	-56,507	-0,067	0,021
-378,131	800,000	0,020	0,044
-377,117	-200,000	0,006	0,115
-376,102	144,072	0,018	0,017
-375,088	800,000	0,004	-0,012
-374,073	176,332	-0,051	0,053
-373,058	-200,000	0,016	0,069
-372,044	699,638	0,037	0,071
-371,029	101,496	0,167	0,141
-370,015	-75,492	0,037	0,010
-369,000	-20,727	-0,153	-0,068
-367,985	433,840	-0,050	-0,079
-366,971	114,277	-0,068	-0,060
-365,956	109,266	0,034	-0,030
-364,942	16,529	0,100	0,057
-363,927	253,090	0,059	-0,073
-362,912	19,553	-0,062	-0,036
-361,898	-200,000	-0,002	-0,029
-360,883	62,572	-0,104	-0,075
-359,869	58,976	0,120	0,085
-358,854	800,000	0,033	-0,090
-357,839	21,754	0,030	-0,018
-356,825	676,858	0,026	-0,049
-355,810	164,243	0,094	-0,096
-354,796	-200,000	0,034	0,169
-353,781	22,914	-0,069	-0,041
-352,766	-200,000	0,001	-0,074
-351,752	-200,000	-0,055	-0,252
-350,737	186,244	-0,114	0,124
-349,723	23,649	-0,058	-0,034
-348,708	82,693	0,116	-0,091
-347,693	800,000	-0,030	-0,078
-346,679	659,633	-0,087	-0,162
-345,664	800,000	-0,051	-0,122
-344,650	6,699	0,041	-0,022
-343,635	-200,000	0,006	-0,094
-342,620	-101,784	0,095	-0,016
-341,606	-23,709	0,051	0,022
-340,591	67,962	0,075	0,056
-339,577	-200,000	0,000	0,001
-338,562	92,476	-0,097	0,079
-337,548	-200,000	0,003	0,047
-336,533	-65,643	0,140	-0,040
-335,518	-200,000	0,019	0,067
-334,504	800,000	0,018	-0,043
-333,489	-200,000	-0,003	-0,089
-332,475	3,863	0,059	0,031
-331,460	800,000	-0,070	0,157
-330,445	-200,000	0,021	0,161
-329,431	297,256	0,021	-0,027
-328,416	297,240	0,018	0,024
-327,402	113,688	-0,094	0,083
-326,387	274,618	0,054	0,069
-325,372	-143,992	-0,025	0,002
-324,358	-200,000	-0,009	-0,034
-323,343	9,137	-0,107	0,058
-322,329	800,000	0,034	-0,096
-321,314	350,215	0,065	0,093
-320,299	800,000	0,015	0,042
-319,285	-38,005	-0,029	0,011
-318,270	-69,377	-0,054	-0,015
-317,256	-117,875	0,092	-0,012
-316,241	243,838	-0,088	0,107
-315,226	-200,000	0,030	0,186
-314,212	-200,000	0,001	-0,016
-313,197	800,000	-0,024	0,049
-312,183	139,417	0,062	-0,059
-311,168	-138,802	-0,141	-0,011
-310,153	-80,559	0,033	-0,008
-309,139	-200,000	0,022	-0,081
-308,124	-147,206	0,091	0,006
-307,110	-174,087	0,090	0,002
-306,095	-175,305	-0,082	-0,002
-305,080	-19,604	0,085	0,038
-304,066	189,295	-0,016	-0,017
-303,051	800,000	0,055	-0,154
-302,037	800,000	-0,025	-0,063
-301,022	556,819	-0,025	-0,044
-300,008	-200,000	-0,018	0,184
-298,993	42,731	0,156	-0,102
-297,978	-106,625	0,042	0,007
-296,964	-200,000	-0,002	-0,181
-295,949	-194,119	-0,144	-0,001
-294,935	200,998	0,135	-0,150
-293,920	-200,000	-0,008	-0,033
-292,905	14,035	-0,076	0,042
-291,891	-200,000	0,038	0,132
-290,876	-200,000	0,006	-0,059
-289,862	74,939	-0,018	-0,014
-288,847	90,143	-0,069	0,056
-287,832	245,131	-0,086	-0,105
-286,818	-200,000	0,004	-0,052
-285,803	-200,000	0,023	0,082
-284,789	62,858	-0,079	-0,057
-283,774	800,000	-0,028	0,086
-282,759	122,512	-0,083	0,075
-281,745	738,001	-0,031	0,060
-280,730	65,480	-0,097	0,071
-279,716	-88,348	0,074	0,016
-278,701	-54,637	0,086	-0,028
-277,686	39,658	0,143	0,092
-276,672	-4,799	0,030	-0,015
-275,657	-200,000	-0,002	0,019
-274,643	182,933	-0,075	-0,080
-273,628	603,515	0,045	-0,082
-272,613	-116,060	0,106	-0,014
-271,599	800,000	0,030	0,080
-270,584	800,000	0,041	0,097
-269,570	-200,000	-0,009	0,056
-268,555	-25,194	-0,085	-0,036
-267,540	800,000	-0,028	-0,064
-266,526	70,009	-0,023	0,017
-265,511	-75,356	0,067	-0,017
-264,497	-54,880	0,016	-0,005
-263,482	-97,278	0,172	-0,032
-262,467	-200,000	-0,011	0,075
-261,453	4,801	0,060	-0,032
-260,438	-200,000	0,014	-0,101
-259,424	294,015	-0,037	-0,049
-258,409	0,792	-0,035	0,018
-257,395	73,117	0,091	0,068
-256,380	-6,641	0,106	0,052
-255,365	-200,000	-0,004	0,034
-254,351	372,759	-0,086	0,127
-253,336	800,000	-0,049	-0,105
-252,322	325,729	-0,042	-0,058
-251,307	105,233	-0,088	-0,075
-250,292	-200,000	-0,002	0,107
-249,278	115,828	-0,092	-0,081
-248,263	-125,441	-0,039	0,004
-247,249	800,000	-0,008	-0,020
-246,234	-157,699	-0,216	0,009
-245,219	78,789	-0,097	0,075
-244,205	-200,000	0,001	0,018
-243,190	-154,640	0,056	-0,003
-242,176	-200,000	0,001	0,040
-241,161	800,000	-0,072	0,146
-240,146	-200,000	0,019	0,128
-239,132	800,000	0,005	-0,013
-238,117	116,507	-0,126	-0,112
-237,103	-200,000	0,009	-0,067
-236,088	359,324	0,057	0,082
-235,073	-172,276	-0,061	-0,001
-234,059	4,861	-0,004	-0,002
-233,044	60,221	-0,026	-0,018
-232,030	-31,059	-0,081	0,033
-231,015	800,000	0,059	-0,140
-230,000	-200,000	0,004	-0,111
-228,986	-113,812	0,035	-0,005
-227,971	-82,918	0,037	-0,009
-226,957	-200,000	0,023	0,094
-225,942	800,000	-0,031	-0,073
-224,927	-200,000	0,004	0,084
-223,913	423,415	-0,061	-0,094
-222,898	-66,526	-0,053	0,015
-221,884	72,781	-0,058	0,044
-220,869	103,678	0,128	0,108
-219,855	45,502	0,053	0,035
-218,840	-25,894	0,185	0,078
-217,825	69,000	-0,031	-0,023
-216,811	-126,101	0,071	-0,008
-215,796	23,064	0,079	0,046
-214,782	800,000	-0,035	0,080
-213,767	171,120	-0,041	-0,043
-212,752	36,929	0,146	0,093
-211,738	256,325	0,029	-0,036
-210,723	408,218	0,018	0,028
-209,709	336,304	0,045	-0,063
-208,694	-117,865	-0,030	-0,004
-207,679	-200,000	0,026	-0,104
-206,665	258,317	-0,009	-0,011
-205,650	10,730	0,099	-0,054
-204,636	-200,000	0,034	-0,114
-203,621	-200,000	-0,006	0,099
-202,606	20,153	0,056	-0,033
-201,592	800,000	-0,057	-0,119
-200,577	7,525	0,019	0,010
-199,563	210,614	0,035	0,040
-198,548	-200,000	-0,007	0,042
-197,533	800,000	-0,046	0,113
-196,519	-124,497	-0,118	0,013
-195,504	-200,000	-0,026	-0,088
-194,490	312,371	0,072	-0,097
-193,475	-200,000	-0,004	0,130
-192,460	-200,000	0,038	-0,136
-191,446	-66,583	-0,007	-0,002
-190,431	258,239	0,086	0,107
-189,417	-131,871	-0,071	0,007
-188,402	138,326	0,088	0,083
-187,387	-13,546	0,110	0,051
-186,373	-49,001	-0,045	-0,015
-185,358	-130,658	0,080	-0,008
-184,344	545,486	0,065	0,112
-183,329	-46,707	0,110	-0,039
-182,315	84,279	0,070	0,055
-181,300	88,118	-0,122	0,097
-180,285	-200,000	0,009	-0,064
-179,271	155,724	-0,047	0,047
-178,256	10,066	-0,045	-0,025
-177,242	-9,384	-0,008	-0,004
-176,227	-54,474	-0,138	0,045
-175,212	-68,080	-0,028	-0,008
-174,198	-26,405	-0,145	-0,061
-173,183	-200,000	-0,012	-0,160
-172,169	227,035	-0,044	-0,051
-171,154	590,111	0,032	0,057
-170,139	-137,757	0,059	-0,005
-169,125	800,000	0,037	0,083
-168,110	306,163	0,093	-0,125
-167,096	-200,000	0,015	0,146
-166,081	-101,026	0,056	0,010
-165,066	563,127	-0,040	-0,069
-164,052	-142,933	0,075	-0,005
-163,037	800,000	-0,051	0,112
-162,023	800,000	-0,049	0,112
-161,008	293,902	-0,038	0,051
-159,993	181,069	0,040	0,042
-158,979	212,553	0,020	0,023
-157,964	51,205	-0,016	-0,011
-156,950	-32,349	0,026	0,010
-155,935	40,988	-0,053	0,034
-154,920	-96,110	-0,038	-0,007
-153,906	-200,000	-0,018	0,063
-152,891	-166,520	0,098	-0,003
-151,877	800,000	0,020	-0,042
-150,862	-200,000	0,003	0,102
-149,847	-111,804	-0,092	0,013
-148,833	234,823	0,107	0,127
-147,818	800,000	-0,062	-0,143
-146,804	800,000	0,061	0,139
-145,789	-117,174	-0,076	0,010
-144,775	61,896	-0,069	0,049
-143,760	-56,551	0,084	-0,027
-142,745	-81,365	-0,089	-0,021
-141,731	14,728	-0,083	-0,047
-140,716	-200,000	0,024	0,115
-139,702	94,484	0,031	0,025
-138,687	214,011	-0,063	-0,072
-137,672	144,870	-0,065	-0,063
-136,658	603,361	0,048	0,087
-135,643	-111,304	-0,050	-0,007
-134,629	-131,715	-0,082	-0,008
-133,614	-200,000	-0,007	-0,088
-132,599	-124,640	0,075	-0,008
-131,585	-104,669	-0,125	0,021
-130,570	-13,679	0,070	0,033
-129,556	800,000	-0,053	-0,119
-128,541	17,875	-0,082	-0,047
-127,526	285,800	-0,051	-0,066
-126,512	-106,465	0,075	-0,012
-125,497	-69,591	-0,152	-0,041
-124,483	50,131	-0,023	0,015
-123,468	-13,378	0,072	-0,033
-122,453	310,858	0,024	-0,033
-121,439	-200,000	-0,003	-0,053
-120,424	-200,000	0,015	0,096
-119,410	800,000	-0,015	-0,039
-118,395	-200,000	0,004	-0,039
-117,380	-200,000	0,006	-0,069
-116,366	452,554	-0,021	0,034
-115,351	148,070	-0,059	0,057
-114,337	-9,080	0,122	-0,058
-113,322	20,860	0,064	0,037
-112,307	68,361	-0,055	-0,040
-111,293	-200,000	0,009	0,057
-110,278	-27,692	0,034	-0,014
-109,264	98,678	-0,064	-0,053
-108,249	-65,586	-0,170	-0,049
-107,234	-106,265	0,050	-0,008
-106,220	51,995	0,037	-0,025
-105,205	65,461	-0,061	0,044
-104,191	608,388	0,065	0,117
-103,176	800,000	0,017	0,052
-102,162	88,382	-0,078	-0,063
-101,147	-85,623	0,042	-0,009
-100,132	-46,486	-0,131	-0,046
-99,118	-123,446	-0,135	-0,015
-98,103	162,540	0,019	-0,019
-97,089	-200,000	0,126	0,000
-96,074	-200,000	-0,016	-0,088
-95,059	-165,763	0,163	-0,005
-94,045	232,606	-0,028	0,033
-93,030	674,263	0,013	-0,023
-92,016	-200,000	0,008	-0,028
-91,001	-50,538	-0,105	0,035
-89,986	-105,339	0,029	0,005
-88,972	497,836	0,025	-0,041
-87,957	-113,205	-0,089	-0,013
-86,943	-34,711	-0,087	-0,034
-85,928	162,700	-0,017	-0,017
-84,913	-200,000	0,027	-0,165
-83,899	800,000	-0,008	0,022
-82,884	-200,000	0,015	0,082
-81,870	-200,000	-0,002	-0,085
-80,855	800,000	-0,038	0,093
-79,840	-33,499	-0,057	0,022
-78,826	-135,504	0,033	-0,003
-77,811	100,636	0,018	0,015
-76,797	650,411	-0,061	-0,113
-75,782	341,649	0,073	0,103
-74,767	7,872	0,027	0,014
-73,753	800,000	-0,058	-0,134
-72,738	-200,000	0,007	-0,034
-71,724	-200,000	0,020	-0,193
-70,709	-16,064	0,087	-0,040
-69,694	800,000	-0,024	0,049
-68,680	-46,119	0,073	0,026
-67,665	-154,613	0,134	0,006
-66,651	-75,031	0,103	-0,026
-65,636	110,476	-0,093	-0,080
-64,622	29,194	-0,092	-0,056
-63,607	59,178	-0,088	0,062
-62,592	800,000	-0,018	0,042
-61,578	193,810	0,057	0,062
-60,563	-200,000	-0,012	0,042
-59,549	-200,000	-0,012	0,154
-58,534	34,354	-1,979	-1,235
-57,519	-200,000	-0,160	-0,789
-56,505	-200,000	-1,416	-5,186
-55,490	31,727	0,932	0,573
-54,476	800,000	5,386	11,988
-53,461	-200,000	18,160	296,808
-52,446	800,000	731,366	2237,322
-51,432	528,759	1644,877	2791,238
-50,417	107,191	1633,204	1390,058
-49,403	71,104	1284,269	952,531
-48,388	30,141	1025,196	625,110
-47,373	19,794	986,990	567,804
-46,359	17,730	974,748	553,999
-45,344	14,518	970,960	541,350
-44,330	14,835	969,219	541,393
-43,315	14,290	967,268	538,509
-42,300	14,252	966,377	537,866
-41,286	14,227	965,499	537,275
-40,271	14,240	964,287	536,621
-39,257	14,220	963,616	536,163
-38,242	14,216	962,626	535,578
-37,227	14,262	961,810	535,250
-36,213	14,230	961,188	534,780
-35,198	14,189	960,234	534,096
-34,184	14,259	959,428	533,851
-33,169	14,186	958,559	533,110
-32,154	14,231	957,582	532,692
-31,140	14,291	956,504	532,265
-30,125	14,217	956,082	531,771
-29,111	14,280	954,960	531,328
-28,096	14,268	954,432	530,975
-27,082	14,277	953,588	530,511
-26,067	14,263	952,856	530,039
-25,052	14,247	952,269	529,640
-24,038	14,257	951,581	529,269
-23,023	14,180	951,001	528,680
-22,009	14,256	950,395	528,564
-20,994	14,296	949,613	528,235
-19,979	14,226	949,036	527,671
-18,965	14,236	948,287	527,265
-17,950	14,210	947,891	526,942
-16,936	14,202	947,147	526,480
-15,921	14,183	946,428	526,000
-14,906	14,111	945,778	525,390
-13,892	14,147	945,237	525,181
-12,877	14,091	944,516	524,582
-11,863	14,084	943,907	524,201
-10,848	14,122	943,382	524,010
-9,833	14,182	942,905	523,913
-8,819	14,169	942,181	523,451
-7,804	14,136	941,593	522,998
-6,790	14,140	940,970	522,644
-5,775	14,188	940,398	522,456
-4,760	14,152	939,826	522,006
-3,746	14,077	939,257	521,430
-2,731	14,019	938,386	520,745
-1,717	13,948	937,687	520,112
-0,702	13,981	937,183	519,916
0,313	13,787	936,659	519,800
1,327	17,157	934,390	529,071
2,342	26,344	786,855	469,623
3,356	22,644	442,792	258,797
4,371	-7,045	295,423	143,019
5,386	-10,940	277,227	130,510
6,400	-12,370	271,563	126,505
7,415	-12,342	269,185	125,412
8,429	-12,320	267,763	124,759
9,444	-12,344	266,782	124,268
10,459	-12,645	266,435	123,821
11,473	-12,507	265,729	123,608
12,488	-12,562	265,072	123,241
13,502	-12,724	264,585	122,857
14,517	-12,903	264,160	122,487
15,531	-12,776	263,869	122,456
16,546	-12,483	263,472	122,525
17,561	-12,658	262,991	122,133
18,575	-12,646	262,735	122,014
19,590	-12,565	262,322	121,884
20,604	-12,639	262,116	121,711
21,619	-12,701	261,689	121,447
22,634	-12,727	261,318	121,240
23,648	-12,698	261,093	121,151
24,663	-12,725	260,773	120,968
25,677	-12,769	260,556	120,817
26,692	-12,536	260,133	120,817
27,707	-12,746	259,953	120,536
28,721	-12,791	259,676	120,357
29,736	-12,698	259,378	120,291
30,750	-12,773	259,099	120,085
31,765	-12,758	258,749	119,925
32,780	-12,612	258,619	119,983
33,794	-12,608	258,358	119,854
34,809	-12,653	258,251	119,755
35,823	-12,587	257,892	119,635
36,838	-12,713	257,658	119,406
37,853	-12,759	257,486	119,275
38,867	-12,803	257,117	119,055
39,882	-12,813	257,063	119,011
40,896	-12,803	256,747	118,862
41,911	-12,662	256,419	118,823
42,926	-12,954	256,253	118,480
43,940	-12,664	255,955	118,585
44,955	-12,925	255,741	118,247
45,969	-12,757	255,556	118,298
46,984	-12,933	255,200	117,970
47,999	-13,113	255,098	117,755
49,013	-13,085	254,779	117,622
50,028	-13,356	254,658	117,321
51,042	-13,422	254,276	117,076
52,057	-13,580	254,043	116,822
53,071	-13,399	253,872	116,890
54,086	-13,340	253,668	116,836
55,101	-13,176	253,580	116,927
56,115	-13,071	253,272	116,865
57,130	-12,666	253,361	117,246
58,144	-12,509	253,043	117,222
59,159	-12,575	252,788	117,038
60,174	-12,712	252,636	116,839
61,188	-12,590	252,419	116,832
62,203	-12,610	252,269	116,736
63,217	-12,778	251,739	116,336
64,232	-12,801	251,987	116,421
65,247	-12,652	251,655	116,384
66,261	-12,535	251,080	116,208
67,276	-12,863	251,092	115,923
68,290	-12,904	250,804	115,745
69,305	-13,094	250,642	115,498
70,320	-13,023	250,493	115,479
71,334	-12,756	250,270	115,594
72,349	-12,698	250,016	115,516
73,363	-12,473	249,883	115,634
74,378	-12,615	249,702	115,420
75,393	-12,668	249,389	115,221
76,407	-12,656	249,175	115,121
77,422	-12,755	249,137	115,010
78,436	-12,648	248,903	114,981
79,451	-12,714	248,622	114,786
80,466	-12,762	248,302	114,588
81,480	-12,992	248,132	114,305
82,495	-12,784	247,920	114,373
83,509	-12,888	247,851	114,243
84,524	-12,738	247,587	114,236
85,539	-12,793	247,254	114,027
86,553	-13,035	247,145	113,764
87,568	-12,928	247,099	113,821
88,582	-12,867	246,849	113,747
89,597	-12,875	246,747	113,684
90,611	-13,088	246,457	113,361
91,626	-12,700	246,290	113,600
92,641	-12,575	246,156	113,631
93,655	-12,545	245,814	113,489
94,670	-12,728	245,658	113,254
95,684	-12,917	245,628	113,073
96,699	-12,819	245,389	113,034
97,714	-12,656	245,080	113,018
98,728	-13,029	244,910	112,618
99,743	-13,120	244,818	112,491
100,757	-12,934	244,349	112,419
101,772	-12,989	244,237	112,312
102,787	-13,087	244,101	112,158
103,801	-12,888	243,924	112,232
104,816	-12,775	243,769	112,244
105,830	-12,765	243,672	112,198
106,845	-12,419	243,416	112,355
107,860	-12,628	243,383	112,158
108,874	-12,781	243,174	111,925
109,889	-12,952	242,880	111,639
110,903	-12,799	242,654	111,651
111,918	-12,996	242,527	111,421
112,933	-12,737	242,431	111,580
113,947	-12,663	242,153	111,502
114,962	-12,580	242,021	111,500
115,976	-12,846	241,922	111,226
116,991	-12,691	241,542	111,168
118,006	-12,872	241,467	110,976
119,020	-12,744	241,449	111,062
120,035	-12,706	241,156	110,949
121,049	-12,629	241,011	110,935
122,064	-12,611	240,797	110,842
123,079	-12,698	240,711	110,721
124,093	-12,768	240,350	110,488
125,108	-12,898	240,085	110,251
126,122	-12,976	239,840	110,065
127,137	-13,316	239,850	109,784
128,151	-12,980	239,531	109,900
129,166	-12,979	239,390	109,827
130,181	-12,963	239,328	109,802
131,195	-13,027	239,129	109,649
132,210	-13,011	238,876	109,535
133,224	-12,951	238,747	109,515
134,239	-12,822	238,577	109,532
135,254	-12,640	238,376	109,576
136,268	-12,780	238,251	109,396
137,283	-13,144	237,906	108,935
138,297	-13,200	237,815	108,839
139,312	-13,128	237,560	108,770
140,327	-13,010	237,467	108,813
141,341	-12,373	237,375	109,272
142,356	-12,255	237,139	109,248
143,370	-12,555	237,099	108,980
144,385	-12,495	236,877	108,916
145,400	-12,510	236,733	108,828
146,414	-12,495	236,548	108,745
147,429	-12,523	236,307	108,602
148,443	-12,610	236,206	108,477
149,458	-12,633	236,002	108,354
150,473	-12,705	235,871	108,228
151,487	-12,589	235,669	108,218
152,502	-12,424	235,520	108,271
153,516	-12,562	235,276	108,039
154,531	-12,525	235,175	108,013
155,546	-12,634	234,935	107,806
156,560	-12,630	234,939	107,802
157,575	-12,677	234,592	107,596
158,589	-12,574	234,473	107,613
159,604	-12,401	234,274	107,649
160,619	-12,469	234,183	107,544
161,633	-12,385	234,044	107,536
162,648	-12,244	233,873	107,560
163,662	-12,464	233,700	107,297
164,677	-12,666	233,390	106,986
165,692	-12,479	233,231	107,052
166,706	-12,451	233,190	107,045
167,721	-12,506	233,190	106,992
168,735	-12,235	232,954	107,087
169,750	-12,401	232,816	106,884
170,764	-12,477	232,668	106,746
171,779	-12,352	232,454	106,737
172,794	-12,434	232,301	106,593
173,808	-12,513	232,015	106,390
174,823	-13,049	231,765	105,848
175,837	-13,079	231,654	105,764
176,852	-12,690	231,570	106,020
177,867	-12,649	231,448	105,986
178,881	-12,558	231,437	106,043
179,896	-12,481	231,128	105,952
180,910	-12,634	231,046	105,786
181,925	-12,624	230,930	105,731
182,940	-12,415	230,764	105,808
183,954	-12,766	230,729	105,510
184,969	-12,431	230,515	105,663
185,983	-12,008	230,342	105,901
186,998	-12,184	230,137	105,662
188,013	-12,200	229,968	105,563
189,027	-12,473	229,783	105,257
190,042	-12,305	229,650	105,316
191,056	-12,268	229,392	105,218
192,071	-12,382	229,405	105,126
193,086	-12,288	229,124	105,060
194,100	-12,252	228,995	105,020
195,115	-12,884	228,653	104,367
196,129	-12,888	228,602	104,332
197,144	-7,556	230,357	109,250
198,159	-1,815	231,886	114,426
199,173	1,491	232,835	117,457
200,188	2,178	232,935	118,031
201,202	1,849	232,819	117,706
202,217	1,834	232,666	117,607
203,232	1,938	232,419	117,552
204,246	2,253	232,342	117,747
205,261	1,972	232,248	117,471
206,275	2,263	232,088	117,605
207,290	2,444	231,829	117,603
208,304	2,235	231,728	117,380
209,319	2,416	231,570	117,429
210,334	2,257	231,354	117,186
211,348	2,090	231,220	116,979
212,363	1,747	230,947	116,566
213,377	1,624	230,846	116,411
214,392	1,689	230,623	116,338
215,407	1,839	230,522	116,391
216,421	1,574	230,492	116,162
217,436	2,008	230,095	116,285
218,450	1,368	230,023	115,748
219,465	1,437	229,810	115,683
220,480	1,498	229,567	115,597
221,494	1,509	229,620	115,622
222,509	2,009	229,485	115,926
223,523	1,922	229,328	115,770
224,538	1,594	229,225	115,457
225,553	1,697	229,084	115,454
226,567	1,643	228,978	115,350
227,582	2,080	228,705	115,534
228,596	2,212	228,804	115,675
229,611	1,868	228,431	115,214
230,626	1,477	228,261	114,820
231,640	1,773	227,936	114,872
232,655	1,993	228,048	115,085
233,669	2,325	227,852	115,228
234,684	2,388	227,711	115,194
235,699	2,350	227,628	115,113
236,713	1,918	227,459	114,690
237,728	1,706	227,314	114,446
238,742	1,763	226,781	114,211
239,757	1,821	226,942	114,325
240,772	1,696	226,706	114,102
241,786	1,921	226,566	114,191
242,801	1,934	226,544	114,179
243,815	2,197	226,560	114,376
244,830	2,181	226,334	114,239
245,844	1,665	226,088	113,717
246,859	1,696	225,906	113,639
247,874	2,234	225,557	113,856
248,888	1,921	225,742	113,705
249,903	2,119	225,506	113,724
250,917	1,903	225,335	113,466
251,932	1,600	225,180	113,151
252,947	1,621	224,924	113,028
253,961	1,554	224,839	112,925
254,976	1,399	224,761	112,760
255,990	1,816	224,733	113,047
257,005	2,089	224,432	113,089
258,020	1,982	224,390	112,978
259,034	2,005	224,243	112,911
260,049	1,934	224,176	112,814
261,063	1,997	223,998	112,762
262,078	2,063	223,858	112,730
263,093	2,359	223,708	112,864
264,107	2,253	223,371	112,606
265,122	2,081	223,396	112,481
266,136	2,289	223,320	112,587
267,151	2,122	223,106	112,345
268,166	1,829	222,845	111,987
269,180	1,421	222,692	111,599
270,195	1,667	222,556	111,703
271,209	1,696	222,336	111,604
272,224	1,968	222,346	111,799
273,239	1,796	222,146	111,562
274,253	1,560	222,040	111,325
275,268	1,680	221,658	111,212
276,282	1,594	221,603	111,111
277,297	1,562	221,399	110,975
278,312	1,851	221,422	111,189
279,326	1,544	221,448	110,967
280,341	2,013	221,105	111,129
281,355	1,868	221,045	110,982
282,370	1,747	221,001	110,862
283,384	1,675	220,726	110,661
284,399	1,678	220,480	110,530
285,414	1,655	220,286	110,407
286,428	1,822	220,203	110,476
287,443	2,062	220,354	110,718
288,457	2,246	220,107	110,718
289,472	1,534	219,794	110,032
290,487	1,480	219,508	109,840
291,501	1,661	219,345	109,880
292,516	1,800	219,214	109,906
293,530	1,526	219,217	109,699
294,545	1,369	219,126	109,530
295,560	1,820	219,014	109,791
296,574	1,652	218,944	109,624
297,589	1,873	218,744	109,674
298,603	1,772	218,553	109,495
299,618	1,761	218,476	109,439
300,633	1,940	218,364	109,503
301,647	2,102	218,251	109,553
302,662	2,088	218,096	109,456
303,676	2,262	217,868	109,456
304,691	2,087	217,880	109,327
305,706	2,073	217,762	109,248
306,720	2,237	217,504	109,227
307,735	1,808	217,309	108,811
308,749	1,648	217,226	108,645
309,764	1,929	216,980	108,713
310,779	2,018	216,885	108,720
311,793	2,038	216,826	108,695
312,808	2,095	216,734	108,680
313,822	2,125	216,509	108,579
314,837	1,945	216,363	108,368
315,852	1,869	216,067	108,155
316,866	1,921	216,090	108,194
317,881	1,968	215,955	108,150
318,895	2,064	215,688	108,075
319,910	1,806	215,529	107,803
320,925	1,562	215,262	107,486
321,939	1,281	215,174	107,232
322,954	1,477	215,111	107,331
323,968	1,936	215,111	107,647
324,983	2,091	214,992	107,689
325,997	2,192	214,969	107,739
327,012	1,955	214,689	107,421
328,027	1,862	214,745	107,374
329,041	2,123	214,537	107,445
330,056	2,243	214,439	107,471
331,070	2,100	214,224	107,253
332,085	2,044	213,931	107,057
333,100	1,878	213,961	106,945
334,114	2,014	213,880	106,991
335,129	2,035	213,604	106,858
336,143	1,875	213,500	106,684
337,158	1,752	213,434	106,555
338,173	1,843	213,129	106,457
339,187	1,917	212,972	106,421
340,202	1,893	212,836	106,326
341,216	1,191	212,710	105,762
342,231	1,554	212,516	105,910
343,246	1,571	212,439	105,875
344,260	2,086	212,356	106,184
345,275	2,273	212,414	106,334
346,289	2,135	212,412	106,228
347,304	2,086	212,152	106,053
348,319	1,942	211,981	105,859
349,333	1,836	211,759	105,664
350,348	1,843	211,685	105,623
351,362	2,160	211,625	105,804
352,377	2,390	211,395	105,840
353,392	1,983	211,327	105,513
354,406	2,283	211,068	105,583
355,421	197,361	1315,173	1394,625
356,435	157,836	1449,657	1394,586
