DTS Sentinel unit serial number:	SN410029Multiplexer serial number:	ORYXHardware model number:	OX2-SRSoftware version number:	ORYX F/W v4,00 Oryx Data Collector v3.7.2.0data status	okinstallation	B6 Nyhavnadifferential loss correction	single-endedforward channel	channel 2reverse channel	N/Adate	2023/12/10time	22:20:08forward acquisition time	300,00reverse acquisition time	0,00gamma	499,1914k internal	0,3123k external	0,3123temperature offset calibration	1,0000default loss term (dB/km)	0,3820temperature slope calibration	1,0000multiplexer offset coefficient	1,0000multiplexer slope coefficient	1,0000fibre end	0,00T internal ref (°C)	22,36T ext. ref 1 (°C)	6,11T ext. ref 2 (°C)	6,11length (m)	temperature (°C)	Stokes	anti-Stokes-744,400	-200,000	-0,023	0,108
-743,385	53,085	-0,091	0,065
-742,371	51,794	0,100	0,071
-741,356	800,000	-0,116	0,286
-740,342	-117,211	0,041	-0,005
-739,327	-161,098	-0,320	0,012
-738,312	-116,299	-0,033	-0,005
-737,298	-1,617	-0,290	0,152
-736,283	800,000	0,023	0,075
-735,269	-50,726	-0,243	0,085
-734,254	-200,000	-0,033	-0,111
-733,239	-47,693	-0,321	-0,115
-732,225	-141,845	0,065	0,005
-731,210	800,000	-0,069	0,151
-730,196	-105,813	-0,074	-0,012
-729,181	-146,933	-0,070	-0,004
-728,167	405,677	0,038	-0,060
-727,152	-79,702	-0,109	0,027
-726,137	-65,716	-0,087	-0,026
-725,123	-105,991	-0,165	0,027
-724,108	-200,000	-0,015	-0,079
-723,094	-200,000	0,015	-0,072
-722,079	-200,000	0,024	-0,133
-721,064	124,297	-0,117	-0,110
-720,050	-200,000	0,011	-0,152
-719,035	-200,000	-0,001	-0,122
-718,021	289,917	-0,128	-0,174
-717,006	-149,128	-0,089	0,005
-715,991	-121,222	-0,053	-0,007
-714,977	783,797	-0,016	-0,034
-713,962	66,870	0,100	0,075
-712,948	-48,117	-0,115	-0,041
-711,933	-73,529	-0,076	-0,020
-710,918	93,721	-0,099	0,083
-709,904	-200,000	-0,017	-0,102
-708,889	-56,780	-0,063	0,021
-707,875	244,715	-0,035	0,044
-706,860	126,418	0,028	0,027
-705,845	-200,000	-0,008	-0,036
-704,831	596,103	0,043	0,080
-703,816	-200,000	-0,002	-0,068
-702,802	-130,616	-0,120	0,012
-701,787	26,527	-0,157	-0,098
-700,772	104,175	-0,081	-0,071
-699,758	800,000	0,032	-0,080
-698,743	28,884	-0,096	0,060
-697,729	531,291	-0,086	0,152
-696,714	98,372	0,064	0,055
-695,699	-64,435	-0,097	-0,029
-694,685	-110,968	-0,064	0,010
-693,670	-200,000	0,030	0,105
-692,656	-93,950	-0,104	0,021
-691,641	114,191	0,070	0,064
-690,627	-200,000	0,010	0,062
-689,612	-113,661	-0,091	-0,013
-688,597	-200,000	0,008	0,039
-687,583	-200,000	0,015	-0,211
-686,568	-200,000	-0,007	0,042
-685,554	-200,000	-0,009	-0,088
-684,539	742,921	0,028	0,055
-683,524	-90,947	0,020	0,004
-682,510	455,451	-0,022	0,036
-681,495	221,992	-0,081	0,097
-680,481	7,680	-0,130	0,072
-679,466	44,199	0,032	0,022
-678,451	60,078	0,075	0,055
-677,437	609,009	-0,036	0,068
-676,422	-59,593	0,070	0,022
-675,408	-200,000	-0,012	-0,073
-674,393	181,114	-0,107	0,117
-673,378	-83,797	-0,138	-0,032
-672,364	34,976	-0,046	-0,030
-671,349	417,453	-0,045	-0,072
-670,335	64,142	0,116	0,087
-669,320	81,766	-0,063	0,051
-668,305	-13,998	0,044	0,021
-667,291	174,085	-0,111	-0,119
-666,276	-14,537	-0,107	0,051
-665,262	88,508	-0,130	0,107
-664,247	-43,281	-0,120	0,045
-663,232	191,358	-0,057	-0,064
-662,218	486,638	-0,039	-0,067
-661,203	-40,866	-0,105	0,040
-660,189	-101,258	0,066	-0,012
-659,174	31,086	-0,134	-0,085
-658,159	-140,504	-0,113	-0,009
-657,145	-1,683	0,061	0,032
-656,130	-200,000	-0,005	-0,066
-655,116	-200,000	-0,024	0,093
-654,101	-200,000	0,013	0,085
-653,086	-59,696	0,118	-0,037
-652,072	-200,000	-0,003	0,110
-651,057	314,363	-0,054	-0,076
-650,043	800,000	-0,044	-0,118
-649,028	408,347	-0,019	0,029
-648,014	48,490	-0,009	0,006
-646,999	-200,000	-0,006	0,069
-645,984	154,777	0,091	0,093
-644,970	142,089	-0,017	-0,017
-643,955	373,957	-0,105	-0,159
-642,941	-200,000	0,025	-0,113
-641,926	800,000	0,016	-0,051
-640,911	-200,000	-0,025	0,165
-639,897	11,799	0,017	0,009
-638,882	263,078	-0,074	-0,096
-637,868	544,413	0,035	-0,062
-636,853	21,533	-0,142	-0,085
-635,838	195,255	-0,067	0,075
-634,824	-200,000	0,001	0,002
-633,809	245,601	0,118	-0,147
-632,795	47,228	0,020	0,014
-631,780	-200,000	0,018	0,127
-630,765	-200,000	0,011	0,064
-629,751	117,439	-0,123	0,112
-628,736	-49,291	-0,144	-0,051
-627,722	-14,923	0,071	-0,034
-626,707	-35,027	-0,056	0,023
-625,692	13,249	-0,069	0,040
-624,678	-193,384	-0,056	0,000
-623,663	-77,374	-0,080	-0,021
-622,649	-200,000	0,038	-0,134
-621,634	220,875	-0,026	0,031
-620,619	135,607	-0,010	-0,010
-619,605	-147,694	0,215	0,013
-618,590	19,496	-0,094	0,056
-617,576	800,000	0,011	-0,033
-616,561	-91,691	-0,077	-0,016
-615,546	343,253	0,041	-0,060
-614,532	-9,423	-0,028	-0,014
-613,517	-118,715	-0,068	-0,009
-612,503	-63,375	-0,046	-0,014
-611,488	-200,000	-0,028	-0,111
-610,474	185,922	0,117	0,129
-609,459	-33,207	0,033	0,013
-608,444	474,043	0,032	-0,054
-607,430	-89,889	-0,069	-0,015
-606,415	581,199	0,046	-0,084
-605,401	177,795	0,090	-0,097
-604,386	-200,000	-0,017	0,095
-603,371	302,358	-0,026	0,036
-602,357	13,209	0,145	0,083
-601,342	-200,000	-0,003	0,103
-600,328	37,860	0,085	-0,056
-599,313	151,092	-0,098	-0,099
-598,298	472,784	0,056	-0,094
-597,284	-200,000	0,011	0,107
-596,269	-110,195	0,099	0,015
-595,255	-39,522	-0,141	0,055
-594,240	14,226	-0,132	0,076
-593,225	-200,000	-0,000	0,024
-592,211	-200,000	-0,002	-0,149
-591,196	152,757	-0,058	-0,059
-590,182	-200,000	-0,001	0,112
-589,167	800,000	0,049	-0,114
-588,152	-121,036	-0,143	0,018
-587,138	-63,796	-0,089	-0,027
-586,123	-36,439	-0,119	-0,047
-585,109	-117,808	-0,036	-0,005
-584,094	246,474	-0,079	0,098
-583,079	800,000	0,061	-0,148
-582,065	-200,000	-0,027	0,105
-581,050	800,000	0,006	0,016
-580,036	-149,583	-0,045	-0,003
-579,021	-27,073	-0,106	-0,046
-578,006	177,687	0,099	-0,107
-576,992	800,000	0,013	0,038
-575,977	-200,000	0,005	-0,024
-574,963	80,599	0,100	-0,080
-573,948	254,884	-0,005	-0,006
-572,934	-14,565	-0,154	0,073
-571,919	28,739	-0,121	-0,076
-570,904	-127,358	-0,023	-0,002
-569,890	-129,206	-0,068	0,007
-568,875	124,882	0,053	0,050
-567,861	-186,083	-0,079	-0,001
-566,846	67,020	0,075	0,056
-565,831	27,799	0,048	-0,030
-564,817	243,683	-0,036	-0,045
-563,802	800,000	0,048	-0,150
-562,788	90,544	0,075	-0,062
-561,773	800,000	-0,014	-0,042
-560,758	64,219	0,090	-0,067
-559,744	800,000	0,035	-0,109
-558,729	-6,176	-0,072	-0,036
-557,715	800,000	0,030	-0,087
-556,700	800,000	0,043	-0,109
-555,685	-200,000	0,042	-0,156
-554,671	-103,810	0,031	-0,005
-553,656	-200,000	-0,048	0,181
-552,642	357,603	-0,003	-0,005
-551,627	-200,000	-0,005	0,025
-550,612	-200,000	0,018	-0,067
-549,598	-180,294	-0,052	0,001
-548,583	56,511	0,084	-0,060
-547,569	-49,188	-0,162	-0,057
-546,554	147,535	0,080	0,079
-545,539	345,496	-0,012	0,018
-544,525	148,308	-0,035	0,035
-543,510	-124,867	-0,075	0,008
-542,496	-139,328	-0,066	-0,005
-541,481	-126,345	0,110	0,012
-540,466	-200,000	0,019	0,069
-539,452	-61,722	0,036	-0,011
-538,437	-52,522	-0,156	0,053
-537,423	250,222	0,052	0,065
-536,408	800,000	-0,027	0,078
-535,393	184,329	-0,059	-0,065
-534,379	800,000	-0,022	-0,057
-533,364	132,551	-0,019	-0,018
-532,350	800,000	-0,022	0,070
-531,335	-200,000	-0,016	0,131
-530,321	-200,000	-0,005	0,032
-529,306	800,000	-0,035	-0,088
-528,291	45,489	0,032	0,022
-527,277	800,000	-0,042	-0,094
-526,262	630,978	-0,016	-0,031
-525,248	-200,000	0,025	0,156
-524,233	-200,000	0,009	0,039
-523,218	-200,000	0,000	0,047
-522,204	-159,041	-0,035	0,001
-521,189	-7,186	-0,058	0,029
-520,175	209,341	-0,038	0,045
-519,160	-200,000	0,025	-0,139
-518,145	-200,000	-0,004	-0,152
-517,131	239,158	0,089	0,110
-516,116	-200,000	-0,003	-0,097
-515,102	800,000	-0,035	0,095
-514,087	-21,684	-0,087	-0,039
-513,072	-200,000	-0,013	-0,051
-512,058	-200,000	0,017	-0,141
-511,043	192,117	0,042	0,047
-510,029	74,343	0,038	-0,029
-509,014	6,066	0,149	0,082
-507,999	245,784	-0,070	0,088
-506,985	182,639	0,106	0,116
-505,970	-126,029	0,069	-0,008
-504,956	-200,000	-0,002	-0,022
-503,941	-79,684	-0,059	-0,015
-502,926	-200,000	0,002	0,153
-501,912	-138,940	0,085	0,007
-500,897	319,811	-0,056	0,079
-499,883	-20,571	-0,138	0,062
-498,868	30,930	-0,086	0,054
-497,853	236,597	-0,077	-0,094
-496,839	-191,514	-0,093	0,001
-495,824	188,931	0,032	-0,035
-494,810	-200,000	-0,037	0,139
-493,795	554,918	0,054	0,097
-492,781	-200,000	0,041	-0,264
-491,766	-5,073	-0,034	0,017
-490,751	194,586	-0,071	-0,080
-489,737	10,318	-0,076	-0,043
-488,722	-152,740	0,026	0,001
-487,708	-12,045	0,044	0,021
-486,693	-150,582	0,192	-0,011
-485,678	-200,000	-0,006	-0,118
-484,664	184,776	0,020	-0,022
-483,649	19,030	0,042	0,025
-482,635	441,156	-0,040	-0,065
-481,620	-92,742	0,056	-0,011
-480,605	98,348	0,024	0,020
-479,591	-56,571	0,046	0,015
-478,576	-84,808	0,043	-0,010
-477,562	34,359	0,052	0,034
-476,547	-200,000	0,008	0,028
-475,532	-22,373	0,088	-0,039
-474,518	800,000	-0,031	-0,085
-473,503	382,444	0,016	-0,024
-472,489	185,658	-0,098	-0,107
-471,474	-200,000	0,001	-0,090
-470,459	522,752	0,044	-0,076
-469,445	800,000	-0,028	-0,087
-468,430	560,890	0,014	-0,025
-467,416	-77,201	0,147	-0,038
-466,401	800,000	0,055	0,123
-465,386	-200,000	0,011	0,072
-464,372	-7,054	-0,027	0,013
-463,357	-86,255	0,055	-0,012
-462,343	98,355	0,049	0,042
-461,328	32,465	-0,097	0,061
-460,313	-200,000	-0,017	-0,103
-459,299	800,000	0,035	-0,076
-458,284	-24,531	-0,091	-0,040
-457,270	-134,641	0,094	-0,008
-456,255	-200,000	0,001	0,097
-455,241	614,841	-0,093	-0,173
-454,226	-43,472	-0,087	0,032
-453,211	-28,477	-0,064	0,027
-452,197	521,916	0,065	0,113
-451,182	175,535	-0,046	0,049
-450,168	800,000	0,039	0,110
-449,153	-200,000	0,006	0,094
-448,138	-200,000	-0,009	0,141
-447,124	-200,000	-0,005	0,137
-446,109	-107,978	0,093	0,015
-445,095	22,946	0,109	0,066
-444,080	-3,252	0,131	0,067
-443,065	183,988	0,053	0,058
-442,051	182,065	0,046	-0,050
-441,036	-200,000	-0,046	0,156
-440,022	-61,078	0,072	-0,022
-439,007	252,319	0,064	-0,081
-437,992	800,000	0,040	-0,088
-436,978	800,000	-0,016	0,033
-435,963	-200,000	-0,003	-0,069
-434,949	292,511	0,072	-0,097
-433,934	-200,000	-0,013	-0,211
-432,919	-176,386	-0,048	0,001
-431,905	177,195	-0,083	0,089
-430,890	140,151	-0,018	-0,018
-429,876	-38,498	0,043	-0,017
-428,861	-200,000	-0,002	0,114
-427,846	800,000	0,052	0,120
-426,832	156,743	-0,046	0,047
-425,817	-200,000	0,022	-0,165
-424,803	-14,687	-0,047	-0,022
-423,788	7,121	-0,080	0,044
-422,773	249,071	0,104	-0,130
-421,759	-200,000	-0,002	0,110
-420,744	-127,796	-0,137	-0,014
-419,730	-69,460	-0,109	0,030
-418,715	7,289	0,055	-0,030
-417,701	-87,960	-0,051	-0,011
-416,686	226,453	0,125	0,149
-415,671	-200,000	-0,006	0,107
-414,657	-200,000	-0,018	0,107
-413,642	800,000	-0,068	0,143
-412,628	266,079	0,006	0,008
-411,613	-102,342	-0,143	-0,025
-410,598	800,000	-0,047	0,149
-409,584	-88,647	-0,092	-0,020
-408,569	800,000	-0,075	-0,166
-407,555	305,413	-0,030	-0,041
-406,540	281,362	-0,015	0,020
-405,525	152,347	0,084	-0,084
-404,511	-11,089	-0,134	-0,065
-403,496	291,941	-0,020	-0,027
-402,482	-50,394	-0,087	0,030
-401,467	757,372	0,046	0,091
-400,452	-49,951	0,039	-0,014
-399,438	800,000	-0,020	-0,044
-398,423	243,229	-0,046	-0,057
-397,409	-200,000	0,039	-0,147
-396,394	-48,466	0,092	-0,032
-395,379	-33,526	0,106	0,043
-394,365	449,703	0,048	-0,078
-393,350	23,372	0,118	0,071
-392,336	-200,000	-0,011	0,120
-391,321	800,000	-0,031	0,092
-390,306	563,436	-0,074	0,132
-389,292	40,794	0,093	0,061
-388,277	-0,471	-0,119	-0,062
-387,263	800,000	0,016	0,051
-386,248	-200,000	-0,022	0,119
-385,233	-200,000	0,033	0,122
-384,219	800,000	0,027	-0,087
-383,204	-68,215	-0,199	0,056
-382,190	-200,000	-0,054	0,000
-381,175	-10,477	-0,122	0,059
-380,160	800,000	0,032	-0,098
-379,146	57,436	-0,106	0,076
-378,131	-200,000	-0,003	0,094
-377,117	13,982	-0,109	-0,062
-376,102	-200,000	0,022	-0,172
-375,088	559,140	-0,054	-0,096
-374,073	97,020	-0,092	-0,078
-373,058	-200,000	-0,018	0,075
-372,044	-200,000	0,013	0,092
-371,029	-134,861	0,145	0,013
-370,015	5,977	0,047	-0,026
-369,000	-39,170	0,011	-0,004
-367,985	152,857	0,095	-0,096
-366,971	-200,000	0,000	-0,077
-365,956	-109,107	-0,103	0,016
-364,942	-200,000	0,026	0,135
-363,927	142,783	0,033	0,032
-362,912	-200,000	0,019	0,076
-361,898	-200,000	0,012	0,132
-360,883	103,497	0,031	0,027
-359,869	-150,677	0,140	0,008
-358,854	800,000	-0,021	0,045
-357,839	-10,819	0,157	0,076
-356,825	-200,000	0,015	-0,088
-355,810	208,250	-0,173	-0,199
-354,796	143,081	0,020	-0,019
-353,781	253,916	0,058	0,073
-352,766	93,506	0,049	-0,041
-351,752	-200,000	-0,002	-0,051
-350,737	193,377	-0,027	-0,030
-349,723	-197,707	0,143	-0,001
-348,708	56,545	0,066	-0,047
-347,693	108,965	0,076	-0,067
-346,679	-200,000	-0,004	-0,131
-345,664	-200,000	0,002	0,032
-344,650	800,000	0,012	-0,032
-343,635	-34,546	0,058	-0,023
-342,620	-148,876	0,097	0,006
-341,606	-200,000	0,014	-0,070
-340,591	150,515	0,087	-0,086
-339,577	284,933	0,033	0,044
-338,562	-200,000	-0,029	0,250
-337,548	-85,845	0,029	-0,007
-336,533	-200,000	0,006	-0,105
-335,518	-200,000	-0,005	-0,038
-334,504	800,000	-0,030	0,064
-333,489	95,607	0,029	-0,024
-332,475	800,000	-0,034	-0,111
-331,460	-200,000	0,030	-0,104
-330,445	800,000	-0,038	-0,087
-329,431	-9,825	0,091	0,045
-328,416	425,381	0,045	-0,071
-327,402	161,806	-0,011	0,011
-326,387	-200,000	-0,005	-0,045
-325,372	-67,092	-0,095	-0,027
-324,358	295,900	0,040	0,054
-323,343	415,677	-0,075	-0,118
-322,329	-200,000	-0,034	-0,119
-321,314	91,849	0,082	0,068
-320,299	800,000	0,050	0,103
-319,285	-200,000	0,015	-0,106
-318,270	9,266	-0,099	-0,055
-317,256	-200,000	-0,000	0,005
-316,241	-124,211	-0,105	-0,012
-315,226	-83,984	-0,065	0,015
-314,212	800,000	0,033	0,081
-313,197	-78,737	0,054	0,013
-312,183	406,236	-0,031	0,049
-311,168	-200,000	-0,001	0,055
-310,153	-48,760	-0,062	0,022
-309,139	-31,032	0,100	0,041
-308,124	599,095	-0,019	-0,034
-307,110	12,267	0,153	0,086
-306,095	35,759	0,114	0,073
-305,080	45,169	-0,104	-0,070
-304,066	52,356	0,111	-0,077
-303,051	-159,019	-0,124	-0,005
-302,037	14,395	0,038	-0,022
-301,022	800,000	-0,034	0,103
-300,008	-200,000	-0,012	0,054
-298,993	165,767	0,066	0,068
-297,978	306,792	-0,064	0,088
-296,964	-19,460	-0,098	-0,044
-295,949	343,842	-0,075	-0,107
-294,935	419,559	-0,040	0,064
-293,920	-90,293	-0,035	-0,007
-292,905	-82,788	0,049	-0,012
-291,891	176,817	-0,012	0,012
-290,876	800,000	-0,055	0,175
-289,862	71,887	0,085	-0,064
-288,847	800,000	-0,027	0,066
-287,832	619,512	0,024	-0,045
-286,818	-33,671	-0,027	-0,011
-285,803	41,106	0,077	-0,051
-284,789	-200,000	0,004	0,043
-283,774	69,861	0,208	0,157
-282,759	195,439	-0,093	0,104
-281,745	16,251	0,049	-0,028
-280,730	800,000	-0,051	0,113
-279,716	708,264	0,015	0,029
-278,701	-33,221	0,163	-0,066
-277,686	-11,603	-0,072	-0,034
-276,672	-200,000	-0,005	-0,086
-275,657	800,000	0,039	-0,089
-274,643	256,599	0,085	-0,107
-273,628	50,302	-0,052	0,036
-272,613	-16,042	-0,024	0,011
-271,599	88,582	-0,065	0,053
-270,584	7,507	0,030	-0,016
-269,570	800,000	-0,035	-0,112
-268,555	-185,442	-0,062	0,001
-267,540	370,525	0,080	-0,119
-266,526	206,523	-0,123	-0,140
-265,511	173,342	0,054	-0,057
-264,497	-200,000	0,000	0,095
-263,482	24,295	0,030	0,018
-262,467	-200,000	-0,034	0,201
-261,453	238,146	0,083	0,101
-260,438	454,207	0,056	-0,091
-259,424	359,038	0,068	-0,099
-258,409	20,135	0,038	-0,022
-257,395	-41,641	0,058	0,022
-256,380	800,000	0,035	0,078
-255,365	-200,000	-0,000	-0,022
-254,351	-5,950	-0,076	0,038
-253,336	-155,954	-0,083	0,004
-252,322	79,832	-0,026	0,020
-251,307	-41,192	0,059	-0,022
-250,292	361,374	-0,029	0,043
-249,278	553,151	0,017	0,030
-248,263	321,846	-0,060	0,083
-247,249	-200,000	-0,012	0,067
-246,234	-200,000	-0,015	0,135
-245,219	43,508	-0,099	0,066
-244,205	57,264	0,179	-0,127
-243,190	-99,106	0,127	-0,023
-242,176	-119,431	-0,072	0,009
-241,161	58,019	0,078	0,056
-240,146	-126,797	0,098	0,010
-239,132	-200,000	-0,000	-0,046
-238,117	538,708	-0,041	-0,072
-237,103	800,000	-0,052	-0,123
-236,088	745,289	0,042	-0,083
-235,073	-8,625	0,065	-0,032
-234,059	800,000	-0,006	0,018
-233,044	131,949	0,022	-0,021
-232,030	-200,000	-0,014	-0,055
-231,015	17,939	0,001	-0,001
-230,000	239,192	-0,058	-0,071
-228,986	800,000	-0,022	-0,046
-227,971	-63,503	0,066	-0,020
-226,957	4,264	0,099	-0,053
-225,942	-200,000	-0,003	-0,016
-224,927	22,127	0,007	0,004
-223,913	-91,319	0,117	0,024
-222,898	81,992	-0,079	-0,062
-221,884	104,253	0,031	0,026
-220,869	-132,410	0,027	0,003
-219,855	0,828	0,071	0,037
-218,840	1,440	-0,072	0,038
-217,825	-200,000	0,031	0,150
-216,811	-184,944	-0,104	-0,001
-215,796	-200,000	-0,014	-0,092
-214,782	308,040	-0,077	-0,105
-213,767	-48,017	-0,060	-0,021
-212,752	-112,409	-0,102	-0,015
-211,738	-43,925	0,052	-0,019
-210,723	60,327	-0,063	-0,045
-209,709	800,000	0,022	0,056
-208,694	-93,798	-0,060	0,012
-207,679	-18,763	0,062	-0,028
-206,665	-16,038	0,029	0,014
-205,650	-84,855	0,089	-0,020
-204,636	514,428	0,055	-0,095
-203,621	375,280	-0,050	0,075
-202,606	126,300	0,048	-0,045
-201,592	353,503	-0,072	-0,105
-200,577	800,000	0,058	0,171
-199,563	109,112	-0,046	-0,040
-198,548	31,489	0,080	0,050
-197,533	126,582	-0,066	0,061
-196,519	539,798	0,057	0,099
-195,504	-30,421	-0,063	0,026
-194,490	534,368	-0,065	-0,112
-193,475	-30,559	-0,099	-0,041
-192,460	-200,000	0,009	-0,046
-191,446	-200,000	0,017	0,174
-190,431	-28,537	0,063	0,026
-189,417	213,129	0,065	-0,076
-188,402	-37,853	-0,138	-0,053
-187,387	-200,000	0,020	0,078
-186,373	-145,599	-0,166	-0,011
-185,358	153,284	-0,076	-0,076
-184,344	362,099	0,037	-0,054
-183,329	-200,000	-0,006	0,057
-182,315	290,466	0,041	0,055
-181,300	-200,000	-0,005	0,093
-180,285	591,605	0,029	-0,053
-179,271	-200,000	-0,018	-0,069
-178,256	-143,370	-0,080	0,006
-177,242	-200,000	-0,001	0,026
-176,227	332,407	0,136	0,192
-175,212	-200,000	-0,018	0,095
-174,198	800,000	0,032	-0,073
-173,183	-199,111	-0,107	-0,000
-172,169	-200,000	0,031	0,127
-171,154	-48,812	0,102	-0,035
-170,139	85,122	0,040	-0,032
-169,125	118,934	0,051	0,046
-168,110	480,847	0,085	0,142
-167,096	-135,065	-0,040	-0,003
-166,081	376,454	-0,088	-0,131
-165,066	-200,000	0,014	-0,054
-164,052	151,533	-0,093	0,092
-163,037	215,059	-0,093	0,108
-162,023	-41,342	0,151	0,056
-161,008	-200,000	-0,009	0,087
-159,993	105,426	0,039	-0,033
-158,979	290,562	-0,014	0,018
-157,964	800,000	0,061	0,142
-156,950	800,000	0,044	-0,099
-155,935	-85,390	0,086	-0,019
-154,920	-200,000	-0,001	-0,018
-153,906	469,244	-0,035	-0,057
-152,891	208,082	0,045	0,052
-151,877	77,904	0,060	0,046
-150,862	800,000	-0,011	-0,029
-149,847	800,000	-0,032	-0,088
-148,833	-200,000	0,011	0,049
-147,818	77,470	0,090	0,070
-146,804	-137,569	-0,142	0,011
-145,789	141,876	0,082	-0,080
-144,775	189,362	-0,049	-0,054
-143,760	73,035	0,188	-0,143
-142,745	1,023	-0,134	-0,070
-141,731	800,000	0,035	0,093
-140,716	-200,000	0,040	-0,135
-139,702	-63,236	-0,084	0,025
-138,687	-117,414	-0,107	-0,014
-137,672	12,463	0,080	0,045
-136,658	-59,066	-0,101	-0,031
-135,643	57,657	0,027	-0,019
-134,629	775,213	-0,025	0,050
-133,614	-200,000	0,017	0,131
-132,599	401,189	0,010	0,015
-131,585	800,000	0,037	0,110
-130,570	-88,995	0,109	0,023
-129,556	-64,530	-0,075	-0,022
-128,541	800,000	-0,088	-0,217
-127,526	800,000	0,021	0,049
-126,512	34,886	-0,062	-0,039
-125,497	224,272	0,050	0,059
-124,483	255,503	0,087	0,109
-123,468	140,083	-0,129	0,124
-122,453	164,778	0,050	0,052
-121,439	347,947	-0,042	-0,061
-120,424	105,243	-0,092	0,079
-119,410	115,938	-0,115	0,102
-118,395	348,736	0,006	0,009
-117,380	82,182	-0,101	-0,080
-116,366	-200,000	-0,006	-0,035
-115,351	94,572	-0,017	-0,014
-114,337	-174,323	-0,159	0,003
-113,322	-200,000	0,006	0,031
-112,307	-200,000	0,037	0,184
-111,293	800,000	0,029	0,069
-110,278	441,586	0,031	0,050
-109,264	-200,000	-0,036	0,175
-108,249	281,098	-0,136	-0,177
-107,234	-2,267	-0,105	-0,054
-106,220	118,836	-0,044	-0,040
-105,205	-200,000	-0,034	0,126
-104,191	770,497	-0,072	0,143
-103,176	53,791	0,128	0,089
-102,162	-52,964	0,080	0,027
-101,147	-7,389	-0,055	0,027
-100,132	-144,040	0,060	0,004
-99,118	-128,579	0,043	0,004
-98,103	800,000	-0,035	0,090
-97,089	-23,026	-0,009	0,004
-96,074	800,000	0,028	-0,058
-95,059	-125,396	-0,050	-0,005
-94,045	-200,000	0,020	-0,098
-93,030	-33,715	-0,064	-0,026
-92,016	38,161	-0,068	-0,044
-91,001	-200,000	-0,002	-0,057
-89,986	-10,093	0,082	0,040
-88,972	0,485	0,036	-0,018
-87,957	-200,000	-0,005	0,028
-86,943	-200,000	0,012	0,087
-85,928	367,982	0,047	-0,069
-84,913	70,458	-0,077	-0,058
-83,899	-39,509	0,032	-0,012
-82,884	187,189	-0,088	0,096
-81,870	-31,349	0,100	0,041
-80,855	91,888	-0,100	0,082
-79,840	331,800	-0,085	0,119
-78,826	-200,000	-0,012	-0,141
-77,811	-84,400	0,082	-0,019
-76,797	-148,239	-0,163	-0,010
-75,782	251,076	-0,099	0,123
-74,767	800,000	-0,013	-0,036
-73,753	85,730	-0,069	0,055
-72,738	-65,665	-0,137	0,040
-71,724	-147,313	-0,021	-0,001
-70,709	-200,000	0,003	0,099
-69,694	-200,000	-0,004	-0,057
-68,680	76,778	-0,139	0,107
-67,665	189,075	0,007	0,008
-66,651	-46,895	-0,083	-0,029
-65,636	41,294	-0,045	0,030
-64,622	-200,000	0,003	0,199
-63,607	32,772	-0,140	0,088
-62,592	-45,181	-0,084	0,030
-61,578	268,107	0,076	-0,097
-60,563	616,631	-0,020	0,037
-59,549	-75,693	-0,218	0,056
-58,534	-128,000	-1,324	-0,136
-57,519	494,386	-0,853	-1,426
-56,505	-200,000	-0,983	-4,457
-55,490	90,670	0,397	-0,322
-54,476	800,000	4,998	11,846
-53,461	-200,000	13,680	253,190
-52,446	-200,000	689,575	2259,496
-51,432	591,951	1622,202	2918,283
-50,417	119,369	1635,206	1468,452
-49,403	73,236	1289,115	977,241
-48,388	38,035	1024,527	659,806
-47,373	24,371	981,770	587,341
-46,359	23,564	971,618	578,597
-45,344	22,549	967,412	572,753
-44,330	22,500	965,780	571,604
-43,315	22,407	964,476	570,509
-42,300	22,437	963,390	569,940
-41,286	22,385	962,533	569,242
-40,271	22,338	961,545	568,481
-39,257	22,329	960,726	567,946
-38,242	22,359	959,694	567,411
-37,227	22,410	958,551	566,878
-36,213	22,329	957,836	566,169
-35,198	22,341	957,106	565,754
-34,184	22,376	956,485	565,477
-33,169	22,364	955,638	564,915
-32,154	22,387	954,699	564,413
-31,140	22,376	953,809	563,830
-30,125	22,408	952,904	563,374
-29,111	22,401	952,102	562,854
-28,096	22,384	951,548	562,452
-27,082	22,410	950,839	562,092
-26,067	22,420	949,943	561,575
-25,052	22,384	949,390	561,108
-24,038	22,364	948,602	560,556
-23,023	22,344	948,047	560,142
-22,009	22,455	947,209	559,980
-20,994	22,476	946,601	559,664
-19,979	22,476	946,148	559,374
-18,965	22,480	945,462	558,962
-17,950	22,381	944,980	558,338
-16,936	22,395	944,109	557,845
-15,921	22,330	943,477	557,243
-14,906	22,304	942,818	556,747
-13,892	22,294	942,200	556,331
-12,877	22,219	941,835	555,853
-11,863	22,274	940,858	555,429
-10,848	22,298	940,250	555,125
-9,833	22,348	939,869	555,035
-8,819	22,343	939,364	554,701
-7,804	22,289	938,604	554,059
-6,790	22,260	938,099	553,647
-5,775	22,268	937,535	553,317
-4,760	22,303	936,779	552,960
-3,746	22,321	936,146	552,621
-2,731	22,164	935,525	551,737
-1,717	22,097	934,758	551,050
-0,702	22,071	934,146	550,586
0,313	21,857	933,521	550,373
1,327	25,104	931,595	559,400
2,342	34,808	796,341	504,036
3,356	33,001	451,713	283,159
4,371	1,900	294,017	153,261
5,386	-2,540	274,923	139,091
6,400	-4,267	269,124	134,541
7,415	-4,737	266,553	132,811
8,429	-4,334	265,235	132,512
9,444	-4,398	264,495	132,072
10,459	-4,490	263,936	131,697
11,473	-4,423	263,208	131,383
12,488	-4,622	262,785	130,980
13,502	-4,661	262,269	130,675
14,517	-4,705	261,790	130,385
15,531	-4,536	261,450	130,357
16,546	-4,487	261,006	130,167
17,561	-4,663	260,818	129,904
18,575	-4,498	260,478	129,871
19,590	-4,622	260,066	129,544
20,604	-4,551	259,823	129,475
21,619	-4,528	259,513	129,329
22,634	-4,624	259,163	129,057
23,648	-4,657	258,747	128,809
24,663	-4,685	258,544	128,672
25,677	-4,525	258,176	128,619
26,692	-4,815	258,057	128,291
27,707	-4,670	257,689	128,226
28,721	-4,618	257,488	128,160
29,736	-4,848	257,170	127,787
30,750	-4,697	257,067	127,858
31,765	-4,843	256,780	127,574
32,780	-4,782	256,553	127,504
33,794	-4,733	256,324	127,422
34,809	-4,724	256,183	127,349
35,823	-4,934	255,956	127,039
36,838	-4,841	255,547	126,906
37,853	-4,798	255,222	126,772
38,867	-4,766	255,067	126,712
39,882	-5,015	254,936	126,417
40,896	-4,784	254,644	126,463
41,911	-4,783	254,503	126,383
42,926	-4,810	254,172	126,183
43,940	-4,921	253,974	125,977
44,955	-4,950	253,679	125,794
45,969	-4,830	253,479	125,788
46,984	-5,062	253,252	125,462
47,999	-5,384	253,076	125,084
49,013	-5,469	252,665	124,795
50,028	-5,663	252,630	124,598
51,042	-5,630	252,183	124,395
52,057	-5,678	251,950	124,228
53,071	-5,474	251,753	124,297
54,086	-5,366	251,690	124,347
55,101	-5,466	251,646	124,229
56,115	-5,204	251,481	124,362
57,130	-4,847	251,393	124,616
58,144	-4,567	251,215	124,758
59,159	-4,457	250,914	124,693
60,174	-4,609	250,752	124,470
61,188	-4,548	250,641	124,457
62,203	-4,582	250,328	124,261
63,217	-4,727	250,161	124,042
64,232	-4,728	250,034	123,967
65,247	-4,680	249,686	123,825
66,261	-4,854	249,520	123,582
67,276	-4,953	249,162	123,309
68,290	-4,935	248,910	123,189
69,305	-5,236	248,711	122,822
70,320	-5,065	248,499	122,852
71,334	-5,049	248,466	122,839
72,349	-4,664	248,350	123,100
73,363	-4,591	248,124	123,038
74,378	-4,587	247,862	122,901
75,393	-4,487	247,681	122,885
76,407	-4,498	247,458	122,754
77,422	-4,848	247,449	122,442
78,436	-4,709	247,199	122,424
79,451	-4,722	246,908	122,259
80,466	-4,872	246,744	122,040
81,480	-5,008	246,464	121,776
82,495	-5,215	246,292	121,504
83,509	-5,012	246,063	121,552
84,524	-4,798	245,738	121,561
85,539	-5,212	245,680	121,173
86,553	-5,034	245,444	121,195
87,568	-5,082	245,355	121,100
88,582	-4,971	245,121	121,067
89,597	-4,872	244,954	121,057
90,611	-4,928	244,818	120,932
91,626	-4,856	244,684	120,915
92,641	-4,753	244,551	120,926
93,655	-4,851	244,189	120,654
94,670	-4,722	243,926	120,621
95,684	-4,826	243,861	120,491
96,699	-4,738	243,731	120,490
97,714	-4,932	243,422	120,164
98,728	-5,159	243,316	119,912
99,743	-5,078	243,076	119,850
100,757	-5,249	242,951	119,635
101,772	-5,184	242,645	119,528
102,787	-4,894	242,354	119,615
103,801	-4,954	242,288	119,522
104,816	-4,878	242,247	119,554
105,830	-4,692	242,137	119,643
106,845	-4,671	241,852	119,509
107,860	-4,693	241,632	119,371
108,874	-4,768	241,387	119,177
109,889	-4,951	241,330	118,988
110,903	-4,974	241,177	118,883
111,918	-4,964	241,057	118,822
112,933	-4,804	240,765	118,798
113,947	-4,826	240,725	118,751
114,962	-4,878	240,513	118,593
115,976	-4,696	240,262	118,607
116,991	-4,754	240,226	118,532
118,006	-4,807	239,954	118,343
119,020	-4,619	239,849	118,435
120,035	-4,763	239,613	118,190
121,049	-4,634	239,492	118,225
122,064	-4,700	239,401	118,116
123,079	-4,593	239,114	118,051
124,093	-4,679	238,900	117,865
125,108	-4,948	238,704	117,538
126,122	-5,340	238,457	117,086
127,137	-5,308	238,314	117,032
128,151	-5,085	238,254	117,174
129,166	-5,111	238,059	117,046
130,181	-5,252	237,900	116,843
131,195	-5,059	237,485	116,785
132,210	-5,102	237,506	116,751
133,224	-4,877	237,348	116,845
134,239	-4,802	237,252	116,847
135,254	-4,730	237,094	116,818
136,268	-4,839	236,675	116,513
137,283	-5,198	236,526	116,139
138,297	-5,159	236,296	116,048
139,312	-5,216	236,010	115,851
140,327	-5,123	236,002	115,912
141,341	-4,558	236,134	116,421
142,356	-4,412	235,831	116,379
143,370	-4,406	235,695	116,306
144,385	-4,204	235,509	116,366
145,400	-4,442	235,505	116,162
146,414	-4,479	235,212	115,978
147,429	-4,298	235,109	116,062
148,443	-4,624	235,019	115,746
149,458	-4,448	234,726	115,732
150,473	-4,399	234,472	115,637
151,487	-4,649	234,421	115,401
152,502	-4,523	234,362	115,462
153,516	-4,438	234,007	115,344
154,531	-4,626	233,859	115,112
155,546	-4,425	233,740	115,203
156,560	-4,699	233,417	114,816
157,575	-4,697	233,325	114,762
158,589	-4,705	233,126	114,647
159,604	-4,412	233,045	114,830
160,619	-4,421	232,966	114,773
161,633	-4,440	232,852	114,692
162,648	-4,383	232,553	114,579
163,662	-4,623	232,535	114,371
164,677	-4,567	232,198	114,239
165,692	-4,617	232,152	114,166
166,706	-4,468	232,056	114,227
167,721	-4,325	231,888	114,247
168,735	-4,333	231,682	114,129
169,750	-4,432	231,625	114,013
170,764	-4,224	231,384	114,048
171,779	-4,301	231,332	113,951
172,794	-4,316	231,191	113,859
173,808	-4,298	230,831	113,686
174,823	-5,181	230,628	112,883
175,837	-5,291	230,498	112,724
176,852	-4,878	230,562	113,069
177,867	-4,466	230,309	113,258
178,881	-4,633	230,235	113,080
179,896	-4,415	230,072	113,160
180,910	-4,436	229,841	113,020
181,925	-4,334	229,707	113,024
182,940	-4,316	229,560	112,955
183,954	-4,068	229,353	113,037
184,969	-4,037	229,298	113,023
185,983	-4,167	229,131	112,831
186,998	-4,108	228,911	112,757
188,013	-4,191	228,758	112,608
189,027	-4,109	228,676	112,621
190,042	-4,213	228,486	112,437
191,056	-4,094	228,245	112,400
192,071	-4,091	228,220	112,381
193,086	-4,145	228,009	112,224
194,100	-4,166	227,890	112,140
195,115	-4,409	227,399	111,701
196,129	-5,420	227,190	110,808
197,144	-2,225	228,241	113,785
198,159	2,047	229,500	117,722
199,173	4,032	229,919	119,468
200,188	4,378	229,699	119,611
201,202	4,122	229,767	119,438
202,217	4,617	229,556	119,701
203,232	4,745	229,458	119,739
204,246	4,880	229,320	119,760
205,261	4,899	229,197	119,700
206,275	5,057	229,083	119,751
207,290	5,091	229,023	119,736
208,304	5,267	228,767	119,727
209,319	4,819	228,677	119,325
210,334	4,970	228,377	119,273
211,348	4,577	228,224	118,880
212,363	4,450	227,894	118,600
213,377	4,149	227,754	118,286
214,392	4,207	227,556	118,217
215,407	4,332	227,518	118,282
216,421	4,123	227,413	118,057
217,436	4,225	227,252	118,041
218,450	3,916	226,881	117,602
219,465	3,836	226,827	117,502
220,480	3,830	226,715	117,429
221,494	3,787	226,564	117,307
222,509	4,049	226,400	117,412
223,523	4,071	226,285	117,359
224,538	4,007	226,055	117,180
225,553	4,137	225,755	117,113
226,567	4,297	225,872	117,285
227,582	4,659	225,757	117,490
228,596	4,559	225,647	117,346
229,611	4,266	225,487	117,030
230,626	4,108	225,197	116,749
231,640	3,874	225,128	116,526
232,655	4,270	225,001	116,749
233,669	4,398	224,973	116,822
234,684	4,719	224,756	116,942
235,699	4,562	224,706	116,786
236,713	4,316	224,501	116,483
237,728	4,099	224,222	116,164
238,742	3,985	224,083	115,996
239,757	4,250	223,865	116,072
240,772	4,155	223,603	115,855
241,786	4,028	223,564	115,729
242,801	4,225	223,562	115,865
243,815	4,374	223,597	115,985
244,830	4,600	223,189	115,933
245,844	4,254	223,057	115,595
246,859	4,382	222,872	115,584
247,874	4,219	222,739	115,383
248,888	4,483	222,761	115,582
249,903	4,219	222,539	115,259
250,917	4,219	222,360	115,156
251,932	4,197	222,169	115,030
252,947	3,978	221,933	114,735
253,961	4,223	221,742	114,808
254,976	4,058	221,673	114,639
255,990	4,137	221,677	114,690
257,005	4,339	221,452	114,713
258,020	4,129	221,495	114,569
259,034	4,421	221,390	114,721
260,049	4,672	221,071	114,733
261,063	4,299	221,050	114,434
262,078	4,489	220,952	114,515
263,093	4,548	220,760	114,449
264,107	4,318	220,524	114,146
265,122	4,483	220,506	114,248
266,136	4,554	220,379	114,225
267,151	4,643	220,297	114,239
268,166	4,161	219,863	113,647
269,180	4,157	219,648	113,523
270,195	3,866	219,549	113,248
271,209	4,001	219,452	113,287
272,224	4,197	219,357	113,372
273,239	4,416	219,155	113,418
274,253	4,070	219,146	113,149
275,268	4,002	218,888	112,956
276,282	3,888	218,668	112,749
277,297	3,708	218,530	112,536
278,312	3,958	218,477	112,681
279,326	4,014	218,364	112,654
280,341	4,272	218,187	112,741
281,355	4,388	217,977	112,707
282,370	4,346	217,851	112,602
283,384	3,968	217,774	112,276
284,399	3,922	217,501	112,091
285,414	3,943	217,342	112,015
286,428	4,105	217,467	112,187
287,443	4,037	217,430	112,109
288,457	4,443	217,066	112,206
289,472	4,178	216,954	111,946
290,487	3,691	216,725	111,464
291,501	3,565	216,601	111,300
292,516	3,710	216,457	111,321
293,530	4,081	216,269	111,482
294,545	3,896	216,148	111,276
295,560	4,107	216,158	111,424
296,574	4,098	216,100	111,378
297,589	4,009	215,918	111,210
298,603	4,345	215,705	111,333
299,618	4,056	215,719	111,121
300,633	4,219	215,520	111,126
301,647	4,436	215,443	111,233
302,662	4,372	215,266	111,086
303,676	4,254	215,082	110,896
304,691	4,340	214,976	110,894
305,706	4,312	214,944	110,847
306,720	4,276	214,769	110,720
307,735	4,135	214,526	110,484
308,749	4,114	214,337	110,362
309,764	4,260	214,286	110,431
310,779	4,399	214,163	110,457
311,793	4,359	214,022	110,346
312,808	4,482	213,755	110,286
313,822	4,474	213,721	110,253
314,837	4,125	213,517	109,889
315,852	4,047	213,330	109,728
316,866	4,118	213,322	109,764
317,881	4,245	213,246	109,806
318,895	4,625	212,903	109,890
319,910	4,025	212,953	109,479
320,925	3,939	212,662	109,258
321,939	3,529	212,497	108,872
322,954	3,730	212,354	108,932
323,968	4,220	212,292	109,238
324,983	4,296	212,293	109,283
325,997	4,424	212,124	109,277
327,012	4,341	211,857	109,071
328,027	4,174	211,763	108,895
329,041	4,688	211,707	109,219
330,056	4,652	211,789	109,226
331,070	4,122	211,452	108,669
332,085	4,063	210,966	108,368
333,100	3,923	211,056	108,305
334,114	4,029	210,897	108,290
335,129	3,946	210,716	108,128
336,143	3,746	210,726	107,983
337,158	3,856	210,481	107,925
338,173	3,995	210,333	107,938
339,187	3,889	210,273	107,822
340,202	3,979	210,047	107,760
341,216	3,736	209,884	107,497
342,231	4,252	209,690	107,748
343,246	3,895	209,662	107,475
344,260	4,161	209,492	107,564
345,275	4,058	209,517	107,495
346,289	4,293	209,392	107,586
347,304	4,461	209,164	107,576
348,319	4,225	208,995	107,315
349,333	4,046	208,902	107,133
350,348	4,227	208,766	107,180
351,362	4,176	208,838	107,172
352,377	4,274	208,674	107,146
353,392	4,109	208,315	106,838
354,406	4,119	208,322	106,839
355,421	193,900	1346,292	1434,863
356,435	154,702	1485,044	1434,981
