DTS Sentinel unit serial number:	SN410029Multiplexer serial number:	ORYXHardware model number:	OX2-SRSoftware version number:	ORYX F/W v4,00 Oryx Data Collector v3.7.2.0data status	okinstallation	B6 Nyhavnadifferential loss correction	single-endedforward channel	channel 2reverse channel	N/Adate	2023/12/07time	20:45:08forward acquisition time	300,00reverse acquisition time	0,00gamma	499,1914k internal	0,3164k external	0,3164temperature offset calibration	1,0000default loss term (dB/km)	0,3820temperature slope calibration	1,0000multiplexer offset coefficient	1,0000multiplexer slope coefficient	1,0000fibre end	0,00T internal ref (°C)	13,79T ext. ref 1 (°C)	-3,13T ext. ref 2 (°C)	-3,15length (m)	temperature (°C)	Stokes	anti-Stokes-744,400	146,680	0,074	0,073
-743,385	-73,921	-0,271	-0,072
-742,371	800,000	0,040	-0,092
-741,356	-72,061	-0,282	0,076
-740,342	60,151	0,234	0,170
-739,327	-157,318	-0,342	0,015
-738,312	22,775	0,055	0,033
-737,298	-41,432	-0,371	-0,140
-736,283	-120,224	0,154	-0,019
-735,269	-31,781	-0,234	0,096
-734,254	728,800	0,033	-0,065
-733,239	-17,980	-0,594	-0,273
-732,225	-50,096	0,206	-0,071
-731,210	-200,000	-0,029	0,099
-730,196	430,519	0,019	0,031
-729,181	-22,350	-0,111	-0,049
-728,167	186,902	0,020	0,022
-727,152	-95,521	-0,072	-0,014
-726,137	800,000	-0,054	0,166
-725,123	12,842	-0,059	-0,033
-724,108	-66,327	-0,166	-0,048
-723,094	23,082	-0,004	-0,003
-722,079	-28,718	-0,142	-0,060
-721,064	335,253	-0,020	0,029
-720,050	176,972	-0,100	-0,107
-719,035	-8,466	0,086	0,042
-718,021	606,462	-0,021	0,039
-717,006	211,289	-0,117	-0,135
-715,991	478,454	0,022	-0,037
-714,977	-30,706	0,040	-0,017
-713,962	-200,000	0,015	-0,066
-712,948	-171,590	0,140	-0,003
-711,933	257,525	-0,068	-0,086
-710,918	105,287	-0,034	0,030
-709,904	287,532	-0,114	-0,152
-708,889	-180,539	0,071	-0,001
-707,875	152,603	-0,060	0,060
-706,860	-200,000	0,019	0,095
-705,845	577,197	-0,087	0,157
-704,831	28,565	0,122	0,076
-703,816	-200,000	0,009	0,041
-702,802	159,279	0,014	-0,014
-701,787	-27,006	-0,058	-0,025
-700,772	1,421	0,042	-0,022
-699,758	98,224	-0,040	-0,034
-698,743	43,900	-0,069	0,046
-697,729	613,452	-0,054	0,100
-696,714	-200,000	0,003	-0,025
-695,699	176,093	0,067	-0,071
-694,685	50,447	0,083	-0,058
-693,670	420,860	-0,068	-0,107
-692,656	241,588	-0,054	0,067
-691,641	-98,174	-0,132	-0,025
-690,627	115,063	-0,049	0,044
-689,612	-147,607	-0,020	0,001
-688,597	-158,444	-0,179	0,007
-687,583	170,712	-0,007	0,007
-686,568	-30,965	-0,015	0,006
-685,554	680,287	0,073	-0,141
-684,539	-117,770	-0,056	0,007
-683,524	800,000	0,017	-0,049
-682,510	-200,000	0,014	-0,066
-681,495	-62,247	-0,128	0,039
-680,481	800,000	0,030	0,077
-679,466	281,109	-0,081	-0,107
-678,451	-200,000	0,000	-0,036
-677,437	220,699	0,075	-0,089
-676,422	20,232	0,085	0,050
-675,408	462,047	-0,018	-0,030
-674,393	800,000	0,028	0,077
-673,378	100,230	-0,157	0,133
-672,364	553,113	0,053	0,094
-671,349	-144,555	0,120	-0,008
-670,335	376,056	0,037	0,055
-669,320	13,366	0,088	0,050
-668,305	-129,914	0,092	-0,009
-667,291	100,381	-0,199	0,169
-666,276	-15,385	0,082	-0,038
-665,262	800,000	-0,015	0,039
-664,247	-200,000	0,007	-0,068
-663,232	-71,025	-0,088	-0,024
-662,218	253,762	-0,064	0,081
-661,203	-200,000	0,006	-0,102
-660,189	546,735	-0,019	-0,034
-659,174	23,624	-0,151	0,091
-658,159	-17,296	-0,087	-0,040
-657,145	227,750	-0,044	-0,053
-656,130	228,211	0,011	0,013
-655,116	191,660	-0,065	-0,071
-654,101	-26,886	0,072	-0,031
-653,086	95,035	-0,066	0,055
-652,072	-200,000	-0,015	-0,169
-651,057	800,000	0,019	-0,057
-650,043	212,120	0,057	0,066
-649,028	308,570	-0,061	-0,084
-648,014	229,799	-0,069	0,083
-646,999	-84,249	0,059	-0,014
-645,984	-13,156	-0,111	0,053
-644,970	381,593	-0,060	-0,090
-643,955	183,036	0,118	-0,128
-642,941	-72,215	-0,113	0,031
-641,926	-152,002	0,020	-0,001
-640,911	355,434	0,021	0,031
-639,897	251,633	0,024	0,030
-638,882	-200,000	0,003	0,107
-637,868	800,000	0,024	-0,075
-636,853	-172,618	-0,136	0,003
-635,838	-200,000	0,003	0,129
-634,824	-200,000	0,005	-0,018
-633,809	-94,317	0,041	-0,008
-632,795	-32,220	-0,101	0,041
-631,780	450,359	-0,079	0,128
-630,765	800,000	-0,042	-0,090
-629,751	-200,000	0,006	-0,064
-628,736	338,655	0,059	-0,085
-627,722	800,000	0,002	-0,004
-626,707	38,143	-0,026	0,017
-625,692	-129,120	0,061	-0,006
-624,678	800,000	0,056	0,123
-623,663	800,000	0,040	0,091
-622,649	-9,956	-0,179	-0,087
-621,634	-200,000	-0,069	-0,264
-620,619	-156,801	-0,043	0,002
-619,605	-94,400	0,142	-0,028
-618,590	0,440	0,096	0,050
-617,576	70,943	-0,048	0,036
-616,561	108,418	0,081	-0,070
-615,546	-200,000	0,013	0,043
-614,532	9,881	-0,054	-0,030
-613,517	1,991	-0,126	-0,067
-612,503	-109,126	0,144	-0,022
-611,488	266,172	-0,091	0,116
-610,474	-33,244	-0,218	-0,088
-609,459	72,642	0,024	0,018
-608,444	325,773	-0,136	0,191
-607,430	-109,420	-0,145	-0,022
-606,415	-200,000	0,007	0,030
-605,401	139,126	-0,027	-0,026
-604,386	-90,059	-0,080	0,017
-603,371	189,876	0,023	-0,025
-602,357	-200,000	0,040	0,165
-601,342	-200,000	-0,020	-0,082
-600,328	-200,000	0,010	0,106
-599,313	-200,000	-0,021	-0,166
-598,298	800,000	0,015	0,045
-597,284	-200,000	0,002	0,026
-596,269	10,978	-0,066	-0,037
-595,255	-200,000	-0,002	0,017
-594,240	-158,868	0,160	0,007
-593,225	620,982	-0,070	-0,129
-592,211	800,000	-0,033	-0,075
-591,196	59,529	0,091	0,065
-590,182	442,936	-0,052	-0,084
-589,167	-200,000	-0,001	0,168
-588,152	-200,000	0,007	0,073
-587,138	-200,000	0,008	0,068
-586,123	-122,330	-0,152	0,018
-585,109	-171,779	0,139	0,003
-584,094	-200,000	-0,036	-0,127
-583,079	-109,301	-0,170	-0,026
-582,065	-166,140	-0,076	-0,002
-581,050	366,726	0,018	-0,027
-580,036	199,448	0,036	-0,040
-579,021	-200,000	-0,006	-0,162
-578,006	-200,000	0,006	-0,038
-576,992	-200,000	-0,031	0,132
-575,977	-38,517	0,091	-0,035
-574,963	202,470	-0,050	0,056
-573,948	-7,085	-0,011	0,005
-572,934	-200,000	-0,007	-0,026
-571,919	-88,166	-0,104	0,023
-570,904	116,272	0,052	-0,046
-569,890	800,000	-0,033	-0,079
-568,875	198,187	0,079	0,089
-567,861	-200,000	0,005	-0,025
-566,846	-93,237	0,160	-0,032
-565,831	-169,234	0,112	-0,003
-564,817	-43,898	0,112	-0,041
-563,802	-200,000	0,004	-0,036
-562,788	-164,065	0,055	-0,002
-561,773	110,640	0,059	0,052
-560,758	251,821	0,045	0,056
-559,744	104,755	0,031	-0,027
-558,729	-200,000	-0,008	0,052
-557,715	40,152	0,123	0,080
-556,700	800,000	-0,031	0,080
-555,685	110,617	-0,044	-0,039
-554,671	230,307	-0,051	0,061
-553,656	611,304	0,019	0,035
-552,642	135,892	0,193	0,183
-551,627	-200,000	-0,006	-0,116
-550,612	-200,000	-0,002	0,051
-549,598	-68,879	-0,079	-0,022
-548,583	800,000	-0,019	-0,055
-547,569	-200,000	0,018	0,112
-546,554	-200,000	-0,010	0,052
-545,539	-103,264	-0,067	0,011
-544,525	-79,606	0,077	0,019
-543,510	100,928	-0,075	-0,063
-542,496	250,355	-0,137	-0,170
-541,481	709,162	0,020	0,038
-540,466	-7,484	0,093	-0,046
-539,452	366,737	0,093	0,138
-538,437	256,735	0,052	-0,065
-537,423	-200,000	0,008	-0,027
-536,408	-132,565	0,061	0,006
-535,393	800,000	-0,041	-0,100
-534,379	183,257	-0,011	0,012
-533,364	-135,062	-0,053	-0,005
-532,350	-163,802	0,168	0,006
-531,335	-32,588	-0,064	0,026
-530,321	694,065	-0,102	0,196
-529,306	-200,000	0,036	-0,122
-528,291	299,610	-0,097	-0,130
-527,277	216,574	-0,048	-0,056
-526,262	800,000	0,023	0,058
-525,248	-155,747	-0,098	-0,004
-524,233	433,647	0,072	0,114
-523,218	212,957	0,039	0,045
-522,204	800,000	-0,035	0,085
-521,189	51,445	-0,109	-0,076
-520,175	-23,647	-0,069	-0,030
-519,160	-141,262	-0,109	0,008
-518,145	-200,000	-0,037	0,138
-517,131	800,000	-0,040	0,089
-516,116	501,123	-0,085	-0,144
-515,102	800,000	-0,028	0,082
-514,087	113,727	-0,125	0,111
-513,072	800,000	0,047	0,099
-512,058	-200,000	0,012	-0,052
-511,043	-22,393	0,114	0,050
-510,029	-1,812	0,022	0,011
-509,014	28,594	0,057	-0,035
-507,999	297,195	-0,010	0,013
-506,985	-138,503	0,111	-0,009
-505,970	-200,000	0,016	0,080
-504,956	-93,666	0,086	0,017
-503,941	-200,000	-0,003	-0,025
-502,926	-89,303	0,069	0,015
-501,912	-65,571	0,032	0,009
-500,897	-40,540	0,151	-0,057
-499,883	-164,801	0,129	0,004
-498,868	-80,718	-0,146	0,035
-497,853	306,350	0,093	-0,127
-496,839	128,026	0,040	-0,038
-495,824	117,205	-0,088	-0,079
-494,810	-200,000	-0,005	0,048
-493,795	56,515	0,036	0,026
-492,781	-141,559	0,132	0,010
-491,766	26,903	-0,084	-0,051
-490,751	-200,000	-0,021	0,095
-489,737	236,697	-0,046	0,055
-488,722	-200,000	0,030	-0,103
-487,708	-200,000	-0,010	0,137
-486,693	-200,000	0,018	0,160
-485,678	262,444	0,041	0,052
-484,664	-77,421	-0,107	0,027
-483,649	-156,858	-0,052	0,002
-482,635	800,000	-0,028	-0,057
-481,620	44,050	0,141	0,094
-480,605	-134,725	-0,124	0,011
-479,591	588,603	0,056	0,100
-478,576	-67,516	-0,075	0,021
-477,562	800,000	0,045	-0,107
-476,547	-200,000	0,044	-0,157
-475,532	800,000	-0,012	-0,036
-474,518	185,133	-0,032	-0,035
-473,503	800,000	0,035	0,088
-472,489	-200,000	-0,003	0,085
-471,474	800,000	-0,019	-0,054
-470,459	-200,000	-0,013	0,182
-469,445	296,065	-0,046	-0,062
-468,430	139,055	-0,072	-0,069
-467,416	-200,000	-0,025	0,100
-466,401	485,829	-0,002	-0,003
-465,386	800,000	0,015	-0,036
-464,372	-23,214	0,033	0,014
-463,357	800,000	-0,053	-0,134
-462,343	-55,358	-0,090	0,029
-461,328	-127,513	-0,069	-0,007
-460,313	-200,000	0,055	-0,196
-459,299	26,738	-0,044	-0,027
-458,284	-200,000	0,002	-0,008
-457,270	330,453	0,057	-0,081
-456,255	210,008	0,034	0,038
-455,241	167,038	-0,038	-0,039
-454,226	600,961	0,049	-0,089
-453,211	-194,154	-0,108	-0,001
-452,197	168,466	-0,039	0,040
-451,182	-143,354	-0,086	-0,006
-450,168	57,022	-0,018	0,012
-449,153	800,000	-0,044	-0,101
-448,138	-75,415	-0,109	-0,028
-447,124	18,173	0,153	-0,088
-446,109	114,192	-0,044	-0,039
-445,095	800,000	-0,069	0,143
-444,080	800,000	-0,056	0,132
-443,065	71,933	0,050	0,038
-442,051	800,000	0,059	-0,145
-441,036	124,988	-0,088	-0,081
-440,022	160,987	0,076	0,077
-439,007	500,569	0,051	-0,085
-437,992	184,131	0,076	-0,082
-436,978	85,908	0,044	-0,035
-435,963	-16,652	-0,069	0,032
-434,949	800,000	-0,083	0,180
-433,934	255,480	0,021	0,026
-432,919	139,524	0,061	-0,058
-431,905	-69,558	-0,119	-0,033
-430,890	-138,823	0,059	-0,005
-429,876	-200,000	-0,000	0,034
-428,861	800,000	0,020	0,060
-427,846	16,538	-0,013	-0,007
-426,832	417,237	-0,046	0,071
-425,817	800,000	0,029	0,075
-424,803	-200,000	-0,000	-0,036
-423,788	800,000	-0,012	-0,034
-422,773	83,646	0,057	-0,045
-421,759	-200,000	-0,018	0,129
-420,744	71,590	-0,045	0,034
-419,730	-143,030	-0,055	-0,004
-418,715	734,666	0,107	-0,208
-417,701	275,614	-0,115	-0,149
-416,686	-200,000	0,020	-0,162
-415,671	-200,000	0,028	-0,101
-414,657	488,060	0,057	0,096
-413,642	264,144	-0,067	-0,084
-412,628	22,362	0,061	0,036
-411,613	-82,445	-0,142	0,033
-410,598	-200,000	-0,003	-0,101
-409,584	800,000	0,030	0,072
-408,569	-150,457	0,087	0,005
-407,555	-156,796	-0,119	0,005
-406,540	-45,303	0,108	-0,039
-405,525	259,150	-0,051	-0,064
-404,511	122,272	-0,034	-0,031
-403,496	83,598	0,086	-0,068
-402,482	184,383	0,065	-0,070
-401,467	9,371	0,195	0,107
-400,452	-152,243	-0,210	0,011
-399,438	146,686	-0,043	-0,042
-398,423	9,297	-0,119	-0,065
-397,409	-72,378	-0,060	0,016
-396,394	102,397	0,089	-0,075
-395,379	-46,663	0,049	0,017
-394,365	210,776	0,056	-0,064
-393,350	-32,759	0,061	0,025
-392,336	400,908	-0,086	0,131
-391,321	-28,009	0,059	0,025
-390,306	-5,351	0,089	0,044
-389,292	-89,625	-0,124	-0,026
-388,277	-200,000	-0,009	-0,031
-387,263	282,354	-0,006	0,008
-386,248	-200,000	0,001	0,153
-385,233	39,327	0,046	-0,030
-384,219	-42,470	-0,129	0,047
-383,204	67,024	-0,015	0,011
-382,190	-167,945	0,026	-0,001
-381,175	-118,511	0,071	-0,009
-380,160	800,000	0,034	-0,078
-379,146	198,729	0,079	0,088
-378,131	167,122	-0,053	0,055
-377,117	607,634	-0,041	-0,074
-376,102	-27,011	-0,046	0,020
-375,088	-200,000	0,013	-0,061
-374,073	-200,000	-0,022	-0,081
-373,058	46,056	0,018	0,012
-372,044	-24,861	0,104	0,045
-371,029	-34,638	0,130	-0,051
-370,015	-83,364	-0,045	-0,010
-369,000	465,138	-0,029	0,047
-367,985	14,259	-0,117	-0,066
-366,971	800,000	0,010	-0,023
-365,956	147,578	0,038	-0,037
-364,942	109,426	0,072	0,063
-363,927	513,280	0,037	0,062
-362,912	-36,423	0,047	-0,018
-361,898	48,142	-0,057	-0,039
-360,883	-200,000	0,012	-0,103
-359,869	-104,688	0,095	-0,016
-358,854	226,478	-0,067	-0,080
-357,839	-50,009	0,182	0,062
-356,825	-200,000	0,007	0,141
-355,810	800,000	0,024	0,075
-354,796	-200,000	0,017	-0,136
-353,781	207,568	-0,073	-0,083
-352,766	-117,967	0,021	-0,003
-351,752	158,084	-0,002	0,002
-350,737	-200,000	-0,023	0,155
-349,723	-200,000	0,016	0,068
-348,708	800,000	0,016	0,050
-347,693	112,779	0,062	0,055
-346,679	-200,000	-0,038	-0,132
-345,664	-30,771	0,144	-0,059
-344,650	12,795	0,090	0,050
-343,635	-171,322	0,097	0,002
-342,620	81,648	0,066	0,052
-341,606	355,805	0,056	-0,081
-340,591	83,232	0,039	0,031
-339,577	463,479	-0,057	-0,093
-338,562	81,248	0,159	0,125
-337,548	-115,041	-0,130	0,018
-336,533	262,765	0,053	0,066
-335,518	431,951	-0,027	0,042
-334,504	795,779	0,047	0,095
-333,489	-147,326	0,126	-0,008
-332,475	62,636	-0,043	0,031
-331,460	609,066	0,032	-0,057
-330,445	800,000	-0,058	-0,120
-329,431	-16,151	0,057	0,026
-328,416	87,947	0,031	0,025
-327,402	-71,715	0,025	0,007
-326,387	201,960	-0,049	-0,055
-325,372	6,309	0,051	-0,027
-324,358	-66,462	-0,136	-0,039
-323,343	39,036	-0,131	-0,085
-322,329	-93,248	0,157	0,031
-321,314	-200,000	-0,003	-0,033
-320,299	21,566	-0,087	0,051
-319,285	333,253	-0,026	0,037
-318,270	159,183	-0,069	0,069
-317,256	-177,172	-0,106	0,002
-316,241	-144,436	-0,045	0,003
-315,226	-46,110	0,121	0,043
-314,212	-200,000	-0,032	-0,126
-313,197	-4,330	0,100	-0,050
-312,183	-200,000	0,008	0,121
-311,168	-0,515	-0,157	-0,080
-310,153	800,000	-0,035	-0,091
-309,139	-104,542	-0,178	0,029
-308,124	15,521	0,063	-0,036
-307,110	-85,936	0,066	0,015
-306,095	276,016	-0,074	0,095
-305,080	759,706	0,061	0,121
-304,066	800,000	0,066	0,157
-303,051	-200,000	0,003	-0,017
-302,037	35,931	-0,051	-0,032
-301,022	-131,816	-0,141	0,013
-300,008	-85,154	0,145	-0,033
-298,993	-200,000	-0,000	-0,128
-297,978	464,394	0,043	0,070
-296,964	800,000	-0,059	-0,119
-295,949	261,473	0,095	0,119
-294,935	13,530	-0,070	-0,039
-293,920	220,603	-0,036	0,042
-292,905	-129,172	0,093	0,009
-291,891	104,486	-0,006	-0,005
-290,876	325,069	-0,137	0,190
-289,862	-120,114	0,158	0,019
-288,847	-200,000	0,023	0,108
-287,832	325,234	0,016	-0,022
-286,818	329,235	0,064	-0,089
-285,803	-98,116	0,052	0,010
-284,789	-200,000	-0,028	-0,169
-283,774	427,624	0,014	-0,023
-282,759	800,000	-0,066	0,174
-281,745	-88,665	0,078	-0,017
-280,730	363,313	0,038	-0,055
-279,716	-17,398	0,031	-0,014
-278,701	-118,129	-0,037	0,005
-277,686	-85,080	0,225	0,051
-276,672	287,734	0,117	0,154
-275,657	469,672	-0,077	0,125
-274,643	74,456	-0,153	-0,116
-273,628	800,000	-0,018	0,039
-272,613	-200,000	-0,010	-0,041
-271,599	-11,557	0,082	0,039
-270,584	-200,000	0,024	0,166
-269,570	-200,000	-0,021	0,115
-268,555	800,000	0,025	-0,070
-267,540	123,191	-0,069	-0,062
-266,526	800,000	0,028	-0,066
-265,511	-102,568	-0,012	0,002
-264,497	161,217	0,063	-0,063
-263,482	703,411	0,053	-0,102
-262,467	-200,000	-0,009	0,084
-261,453	-200,000	0,021	-0,084
-260,438	-101,269	-0,220	0,038
-259,424	-200,000	-0,008	-0,108
-258,409	-200,000	-0,010	-0,158
-257,395	9,522	0,145	0,079
-256,380	-33,913	0,086	-0,034
-255,365	-72,804	-0,017	-0,005
-254,351	178,409	0,025	-0,027
-253,336	-200,000	0,008	-0,096
-252,322	698,628	-0,047	-0,089
-251,307	696,382	0,019	-0,037
-250,292	192,159	-0,047	0,051
-249,278	800,000	-0,020	-0,050
-248,263	76,220	0,157	0,120
-247,249	530,668	-0,069	-0,118
-246,234	-178,960	0,165	0,003
-245,219	517,917	-0,025	-0,043
-244,205	-200,000	0,014	0,050
-243,190	-200,000	-0,013	-0,068
-242,176	800,000	0,061	0,177
-241,161	-149,161	0,104	0,006
-240,146	236,089	0,045	-0,054
-239,132	-70,281	0,111	0,030
-238,117	528,943	-0,089	-0,151
-237,103	-160,425	-0,047	0,002
-236,088	800,000	-0,042	-0,124
-235,073	-10,051	-0,104	0,050
-234,059	201,097	0,070	0,078
-233,044	-200,000	-0,011	-0,061
-232,030	-200,000	-0,005	-0,028
-231,015	800,000	-0,059	-0,154
-230,000	-161,926	-0,127	0,005
-228,986	-87,233	-0,071	0,015
-227,971	59,962	0,125	-0,089
-226,957	305,253	0,101	-0,136
-225,942	-200,000	-0,006	0,060
-224,927	-56,751	0,069	-0,022
-223,913	-156,589	-0,185	0,008
-222,898	295,259	0,033	0,044
-221,884	21,084	0,093	0,054
-220,869	-49,998	0,026	0,009
-219,855	-3,550	-0,083	-0,042
-218,840	146,056	0,124	0,120
-217,825	-51,586	-0,122	0,041
-216,811	-0,383	0,136	-0,069
-215,796	-88,571	-0,089	0,019
-214,782	0,871	0,093	-0,048
-213,767	185,211	0,012	-0,013
-212,752	261,951	-0,055	0,068
-211,738	135,658	-0,033	0,031
-210,723	99,620	0,028	0,023
-209,709	22,536	-0,159	0,094
-208,694	-200,000	-0,021	-0,122
-207,679	17,124	0,035	0,020
-206,665	-200,000	0,005	0,130
-205,650	-200,000	-0,013	0,064
-204,636	-114,781	-0,060	-0,008
-203,621	107,058	-0,026	-0,022
-202,606	800,000	0,010	-0,031
-201,592	309,468	-0,053	-0,072
-200,577	-200,000	-0,016	0,153
-199,563	45,540	0,186	0,124
-198,548	411,603	-0,034	0,053
-197,533	-59,004	0,122	0,038
-196,519	7,195	-0,059	0,031
-195,504	355,422	0,055	-0,079
-194,490	800,000	-0,042	0,108
-193,475	226,755	-0,034	-0,040
-192,460	13,902	0,081	-0,045
-191,446	-0,483	0,083	0,042
-190,431	-37,851	0,130	-0,049
-189,417	155,804	-0,118	0,117
-188,402	514,993	-0,082	-0,139
-187,387	800,000	-0,001	-0,002
-186,373	515,229	-0,094	-0,158
-185,358	-200,000	0,005	-0,097
-184,344	800,000	0,015	0,045
-183,329	-200,000	0,010	-0,109
-182,315	10,681	0,047	-0,026
-181,300	5,956	-0,095	-0,051
-180,285	-200,000	-0,034	-0,113
-179,271	-146,473	-0,162	-0,010
-178,256	397,893	0,029	0,044
-177,242	-1,707	0,039	-0,020
-176,227	-200,000	-0,014	0,186
-175,212	-9,973	-0,129	0,061
-174,198	-91,717	-0,088	0,018
-173,183	593,701	0,075	-0,134
-172,169	-58,026	-0,079	0,025
-171,154	82,664	-0,038	0,030
-170,139	203,386	0,088	-0,098
-169,125	6,230	-0,100	0,053
-168,110	279,063	0,059	-0,077
-167,096	-164,736	-0,040	-0,001
-166,081	-38,763	-0,052	-0,020
-165,066	174,292	-0,055	-0,057
-164,052	-99,851	0,041	-0,007
-163,037	167,835	0,097	0,100
-162,023	800,000	-0,069	0,211
-161,008	99,482	0,130	0,108
-159,993	800,000	-0,013	-0,039
-158,979	311,524	0,021	-0,029
-157,964	-84,206	-0,115	-0,026
-156,950	159,091	-0,033	0,033
-155,935	714,710	0,050	-0,096
-154,920	800,000	0,088	0,192
-153,906	585,605	-0,040	0,071
-152,891	-200,000	-0,014	-0,058
-151,877	800,000	-0,010	-0,030
-150,862	386,123	-0,037	0,056
-149,847	26,036	0,041	-0,024
-148,833	800,000	-0,006	-0,017
-147,818	-0,339	0,124	0,063
-146,804	4,426	0,093	-0,049
-145,789	-21,599	0,036	-0,016
-144,775	-111,567	-0,078	-0,011
-143,760	-45,168	-0,153	0,054
-142,745	-200,000	-0,018	0,098
-141,731	378,546	0,023	-0,034
-140,716	-200,000	-0,008	-0,163
-139,702	63,703	0,048	0,034
-138,687	-52,469	0,074	0,025
-137,672	221,838	0,087	-0,101
-136,658	-45,771	-0,170	-0,060
-135,643	800,000	0,055	0,114
-134,629	-17,332	0,038	-0,017
-133,614	800,000	0,057	0,131
-132,599	101,203	0,022	0,018
-131,585	647,456	-0,033	0,061
-130,570	-31,005	-0,114	0,046
-129,556	113,963	-0,064	-0,056
-128,541	444,808	-0,037	0,059
-127,526	-200,000	0,031	0,117
-126,512	-35,037	-0,109	0,042
-125,497	-17,636	0,148	0,067
-124,483	-80,629	-0,015	-0,004
-123,468	800,000	0,024	0,061
-122,453	-185,614	-0,202	-0,002
-121,439	800,000	0,009	0,027
-120,424	465,811	0,034	-0,055
-119,410	-200,000	0,022	-0,149
-118,395	-80,194	0,086	-0,021
-117,380	-200,000	-0,040	0,144
-116,366	665,143	-0,050	-0,094
-115,351	-200,000	-0,041	0,194
-114,337	46,493	0,040	0,026
-113,322	208,234	-0,066	0,074
-112,307	444,225	0,048	0,075
-111,293	-110,958	-0,051	0,008
-110,278	-200,000	-0,033	-0,129
-109,264	354,040	0,026	-0,037
-108,249	-200,000	0,031	0,154
-107,234	800,000	-0,060	0,130
-106,220	-28,952	0,079	0,032
-105,205	-200,000	0,015	-0,050
-104,191	-86,619	0,117	-0,026
-103,176	13,915	0,024	-0,013
-102,162	398,194	-0,010	-0,015
-101,147	-64,099	-0,073	0,021
-100,132	-139,534	0,144	-0,011
-99,118	16,345	-0,057	0,032
-98,103	79,963	-0,010	-0,008
-97,089	800,000	0,069	0,165
-96,074	-200,000	-0,005	0,024
-95,059	263,609	0,021	-0,026
-94,045	-200,000	0,010	-0,128
-93,030	-200,000	-0,004	0,016
-92,016	288,185	-0,029	0,038
-91,001	800,000	-0,049	0,100
-89,986	76,790	-0,129	-0,098
-88,972	-100,330	0,057	0,010
-87,957	-200,000	0,032	-0,127
-86,943	-197,290	0,209	-0,001
-85,928	-200,000	-0,005	-0,118
-84,913	460,947	-0,100	0,161
-83,899	-140,030	-0,054	0,004
-82,884	-37,171	-0,086	0,033
-81,870	93,618	0,130	0,106
-80,855	-200,000	0,009	0,038
-79,840	800,000	-0,043	-0,117
-78,826	197,468	-0,071	-0,078
-77,811	596,306	-0,052	0,092
-76,797	-15,844	0,054	0,024
-75,782	-85,472	-0,035	-0,008
-74,767	51,314	0,076	0,051
-73,753	800,000	-0,027	-0,067
-72,738	439,946	-0,063	-0,100
-71,724	-72,134	-0,170	-0,045
-70,709	-200,000	0,025	-0,099
-69,694	-137,099	0,027	0,002
-68,680	-200,000	-0,010	-0,097
-67,665	-14,921	-0,079	-0,036
-66,651	43,659	0,112	0,073
-65,636	75,264	-0,156	0,118
-64,622	123,670	-0,139	-0,125
-63,607	800,000	-0,020	-0,046
-62,592	53,503	-0,036	-0,024
-61,578	67,959	0,080	-0,059
-60,563	800,000	0,071	0,191
-59,549	-178,184	-0,064	-0,001
-58,534	34,672	-2,133	-1,332
-57,519	-200,000	-0,132	-0,664
-56,505	-200,000	-1,470	-5,100
-55,490	86,114	0,932	0,734
-54,476	800,000	5,233	12,066
-53,461	-200,000	18,685	304,437
-52,446	800,000	736,830	2268,533
-51,432	535,460	1649,872	2813,442
-50,417	108,161	1635,266	1396,090
-49,403	71,938	1286,139	957,009
-48,388	29,833	1027,324	625,192
-47,373	19,690	989,777	568,909
-46,359	17,388	977,305	554,183
-45,344	14,151	973,488	541,413
-44,330	14,504	971,795	541,604
-43,315	13,872	970,095	538,571
-42,300	13,823	968,951	537,758
-41,286	13,820	967,983	537,189
-40,271	13,808	967,143	536,661
-39,257	13,804	966,197	536,103
-38,242	13,797	965,668	535,764
-37,227	13,788	964,712	535,185
-36,213	13,821	963,604	534,656
-35,198	13,828	962,669	534,137
-34,184	13,815	961,979	533,693
-33,169	13,736	961,170	532,967
-32,154	13,832	960,115	532,671
-31,140	13,856	959,109	532,169
-30,125	13,821	958,502	531,699
-29,111	13,837	957,798	531,336
-28,096	13,807	957,132	530,852
-27,082	13,868	956,233	530,528
-26,067	13,859	955,637	530,147
-25,052	13,817	954,850	529,554
-24,038	13,816	954,252	529,197
-23,023	13,853	953,457	528,855
-22,009	13,827	952,904	528,444
-20,994	13,766	952,469	527,987
-19,979	13,892	951,517	527,840
-18,965	13,806	951,169	527,353
-17,950	13,855	950,525	527,130
-16,936	13,764	949,692	526,355
-15,921	13,774	949,135	526,061
-14,906	13,718	948,484	525,498
-13,892	13,692	947,844	525,041
-12,877	13,730	947,044	524,696
-11,863	13,697	946,414	524,222
-10,848	13,664	946,063	523,903
-9,833	13,822	945,320	523,974
-8,819	13,783	944,662	523,462
-7,804	13,714	944,157	522,944
-6,790	13,751	943,584	522,721
-5,775	13,711	943,185	522,355
-4,760	13,709	942,584	521,995
-3,746	13,743	941,812	521,654
-2,731	13,659	940,928	520,877
-1,717	13,560	940,423	520,266
-0,702	13,542	939,907	519,901
0,313	13,401	939,193	519,848
1,327	16,776	936,841	529,121
2,342	25,881	788,394	469,204
3,356	22,130	443,113	258,157
4,371	-7,373	295,856	142,860
5,386	-11,082	277,541	130,489
6,400	-12,408	271,880	126,583
7,415	-12,502	269,471	125,365
8,429	-12,742	268,114	124,502
9,444	-12,672	267,199	124,130
10,459	-12,745	266,508	123,731
11,473	-12,739	265,841	123,416
12,488	-12,933	265,292	122,974
13,502	-13,006	264,672	122,610
14,517	-13,021	264,420	122,469
15,531	-12,949	264,018	122,337
16,546	-12,844	263,463	122,163
17,561	-12,821	263,157	122,031
18,575	-12,921	262,979	121,848
19,590	-12,763	262,444	121,730
20,604	-12,856	262,319	121,579
21,619	-12,873	261,872	121,345
22,634	-12,880	261,508	121,160
23,648	-13,174	261,440	120,855
24,663	-12,935	261,010	120,858
25,677	-12,960	260,805	120,731
26,692	-12,884	260,407	120,603
27,707	-12,912	260,140	120,443
28,721	-12,940	259,857	120,277
29,736	-12,894	259,511	120,147
30,750	-12,936	259,302	120,002
31,765	-12,771	259,036	120,014
32,780	-12,982	258,843	119,728
33,794	-12,875	258,541	119,671
34,809	-13,163	258,477	119,378
35,823	-13,067	258,173	119,311
36,838	-12,943	257,853	119,262
37,853	-13,102	257,574	118,982
38,867	-13,038	257,388	118,942
39,882	-13,058	257,110	118,785
40,896	-13,003	257,037	118,789
41,911	-13,131	256,731	118,525
42,926	-13,171	256,549	118,395
43,940	-13,055	256,115	118,285
44,955	-13,152	255,945	118,112
45,969	-13,070	255,707	118,063
46,984	-13,289	255,492	117,763
47,999	-13,437	255,249	117,512
49,013	-13,474	255,018	117,363
50,028	-13,729	254,745	117,005
51,042	-13,612	254,220	116,855
52,057	-13,714	254,142	116,721
53,071	-13,792	253,964	116,560
54,086	-13,610	253,731	116,601
55,101	-13,542	253,828	116,693
56,115	-13,316	253,522	116,738
57,130	-12,972	253,396	116,966
58,144	-12,931	253,208	116,904
59,159	-12,719	252,932	116,949
60,174	-12,746	252,777	116,843
61,188	-12,832	252,554	116,656
62,203	-13,120	252,555	116,398
63,217	-12,864	252,103	116,400
64,232	-12,898	251,940	116,285
65,247	-12,882	251,719	116,186
66,261	-12,923	251,372	115,981
67,276	-13,042	251,236	115,805
68,290	-13,199	251,019	115,561
69,305	-13,193	250,884	115,494
70,320	-13,432	250,617	115,157
71,334	-13,108	250,343	115,297
72,349	-12,828	250,291	115,501
73,363	-12,704	249,915	115,422
74,378	-12,841	249,744	115,217
75,393	-12,841	249,566	115,124
76,407	-12,900	249,326	114,953
77,422	-12,974	249,184	114,815
78,436	-12,938	249,036	114,767
79,451	-12,795	248,751	114,746
80,466	-13,072	248,461	114,368
81,480	-13,192	248,307	114,187
82,495	-13,222	248,140	114,074
83,509	-12,980	247,910	114,162
84,524	-13,216	247,706	113,859
85,539	-13,403	247,608	113,647
86,553	-13,303	247,294	113,576
87,568	-13,170	247,106	113,592
88,582	-13,193	246,918	113,476
89,597	-13,037	246,729	113,509
90,611	-12,952	246,564	113,495
91,626	-12,824	246,529	113,576
92,641	-13,057	246,354	113,290
93,655	-13,004	246,067	113,192
94,670	-13,006	245,948	113,126
95,684	-13,025	245,739	113,003
96,699	-13,340	245,557	112,647
97,714	-13,175	245,179	112,601
98,728	-13,252	245,154	112,515
99,743	-13,013	244,777	112,531
100,757	-13,046	244,502	112,368
101,772	-13,292	244,477	112,141
102,787	-13,155	244,165	112,102
103,801	-12,881	244,017	112,250
104,816	-13,025	243,964	112,097
105,830	-12,928	243,887	112,132
106,845	-12,899	243,555	111,993
107,860	-12,869	243,450	111,960
108,874	-13,065	243,274	111,708
109,889	-13,006	243,062	111,648
110,903	-13,057	242,717	111,438
111,918	-13,061	242,517	111,333
112,933	-13,143	242,423	111,213
113,947	-12,890	242,336	111,370
114,962	-12,873	242,043	111,240
115,976	-12,863	241,785	111,120
116,991	-12,820	241,664	111,089
118,006	-13,209	241,710	110,783
119,020	-13,024	241,518	110,835
120,035	-12,929	241,320	110,812
121,049	-12,740	241,167	110,886
122,064	-12,795	240,952	110,733
123,079	-12,989	240,741	110,468
124,093	-13,095	240,570	110,293
125,108	-13,374	240,199	109,886
126,122	-13,426	240,017	109,751
127,137	-13,558	240,013	109,632
128,151	-13,278	239,727	109,719
129,166	-13,162	239,390	109,650
130,181	-13,198	239,323	109,579
131,195	-13,324	239,157	109,392
132,210	-13,165	238,974	109,427
133,224	-13,153	238,989	109,433
134,239	-12,868	238,601	109,476
135,254	-13,008	238,484	109,300
136,268	-13,100	238,284	109,124
137,283	-13,532	237,950	108,614
138,297	-13,315	237,693	108,662
139,312	-13,653	237,663	108,366
140,327	-13,263	237,572	108,629
141,341	-12,911	237,624	108,925
142,356	-12,799	237,446	108,923
143,370	-12,667	237,200	108,907
144,385	-12,639	237,013	108,834
145,400	-12,667	236,868	108,735
146,414	-12,533	236,598	108,709
147,429	-12,740	236,348	108,419
148,443	-12,803	236,441	108,402
149,458	-12,620	235,974	108,324
150,473	-12,574	235,731	108,239
151,487	-12,875	235,707	107,978
152,502	-12,530	235,435	108,119
153,516	-12,720	235,487	107,982
154,531	-12,897	235,074	107,642
155,546	-12,835	235,103	107,695
156,560	-12,826	234,750	107,531
157,575	-12,884	234,614	107,413
158,589	-12,733	234,330	107,393
159,604	-12,889	234,322	107,257
160,619	-12,499	234,101	107,454
161,633	-12,731	234,111	107,266
162,648	-12,828	234,109	107,179
163,662	-12,689	233,677	107,081
164,677	-12,646	233,515	107,031
165,692	-12,603	233,410	107,007
166,706	-12,926	233,313	106,699
167,721	-12,660	233,176	106,836
168,735	-12,340	233,024	107,008
169,750	-12,733	232,832	106,602
170,764	-12,869	232,747	106,447
171,779	-12,655	232,524	106,503
172,794	-12,744	232,463	106,396
173,808	-12,736	231,993	106,177
174,823	-13,193	231,915	105,775
175,837	-13,447	231,659	105,451
176,852	-12,692	231,755	106,075
177,867	-12,633	231,525	106,006
178,881	-12,764	231,398	105,836
179,896	-12,519	231,271	105,960
180,910	-12,766	231,196	105,723
181,925	-12,782	231,084	105,650
182,940	-12,764	230,879	105,561
183,954	-12,730	230,738	105,514
184,969	-12,634	230,503	105,471
185,983	-12,621	230,472	105,458
186,998	-12,452	230,258	105,481
188,013	-12,522	230,022	105,309
189,027	-12,490	229,957	105,296
190,042	-12,496	229,824	105,220
191,056	-12,586	229,581	105,030
192,071	-12,548	229,424	104,979
193,086	-12,630	229,177	104,793
194,100	-12,440	228,950	104,826
195,115	-12,799	228,617	104,388
196,129	-13,228	228,543	104,016
197,144	-7,445	230,522	109,385
198,159	-1,705	232,286	114,678
199,173	1,695	233,113	117,724
200,188	2,416	233,193	118,315
201,202	2,176	233,116	118,079
202,217	2,224	232,872	117,982
203,232	2,417	232,643	118,005
204,246	2,591	232,668	118,143
205,261	2,762	232,309	118,082
206,275	2,753	232,461	118,142
207,290	2,899	232,270	118,147
208,304	2,886	232,023	118,002
209,319	2,693	231,900	117,779
210,334	2,525	231,771	117,573
211,348	2,618	231,398	117,445
212,363	2,163	231,083	116,925
213,377	2,193	230,981	116,886
214,392	1,985	230,856	116,652
215,407	2,210	230,694	116,732
216,421	2,425	230,606	116,842
217,436	2,267	230,512	116,664
218,450	1,798	230,367	116,219
219,465	1,849	230,035	116,080
220,480	1,788	229,952	115,982
221,494	2,006	229,796	116,060
222,509	2,097	229,713	116,077
223,523	2,130	229,497	115,983
224,538	2,189	229,312	115,924
225,553	2,098	229,319	115,848
226,567	2,038	229,307	115,786
227,582	2,267	229,101	115,846
228,596	2,421	228,899	115,851
229,611	2,194	228,720	115,577
230,626	2,016	228,461	115,301
231,640	1,695	228,398	115,014
232,655	2,068	228,212	115,194
233,669	2,228	228,216	115,307
234,684	2,332	228,123	115,328
235,699	2,399	227,810	115,211
236,713	2,343	227,715	115,110
237,728	2,135	227,553	114,860
238,742	1,900	227,268	114,529
239,757	1,867	227,288	114,504
240,772	1,944	226,905	114,359
241,786	1,972	226,883	114,359
242,801	2,429	226,756	114,629
243,815	2,557	226,742	114,708
244,830	2,388	226,549	114,472
245,844	2,123	226,426	114,201
246,859	1,893	226,200	113,904
247,874	2,309	225,940	114,075
248,888	2,425	225,991	114,178
249,903	2,292	225,817	113,980
250,917	2,266	225,615	113,849
251,932	2,043	225,324	113,525
252,947	1,949	225,179	113,371
253,961	1,832	225,025	113,196
254,976	1,914	224,953	113,211
255,990	2,437	225,010	113,620
257,005	2,239	224,698	113,305
258,020	2,154	224,587	113,176
259,034	2,196	224,581	113,194
260,049	2,381	224,211	113,135
261,063	2,285	224,195	113,045
262,078	2,380	224,137	113,077
263,093	2,405	224,011	113,021
264,107	2,358	223,870	112,906
265,122	2,367	223,632	112,782
266,136	2,716	223,441	112,934
267,151	2,501	223,393	112,740
268,166	2,086	223,107	112,279
269,180	1,824	222,993	112,018
270,195	1,832	222,865	111,950
271,209	1,942	222,658	111,917
272,224	2,084	222,614	111,989
273,239	2,060	222,497	111,903
274,253	2,017	222,123	111,673
275,268	1,738	222,098	111,445
276,282	1,941	221,819	111,444
277,297	1,767	221,711	111,253
278,312	1,992	221,627	111,366
279,326	1,901	221,705	111,328
280,341	2,118	221,439	111,344
281,355	2,133	221,374	111,312
282,370	2,193	221,175	111,246
283,384	1,958	220,955	110,954
284,399	1,856	220,680	110,731
285,414	1,815	220,604	110,654
286,428	2,026	220,497	110,744
287,443	2,238	220,589	110,935
288,457	2,160	220,357	110,751
289,472	2,068	220,009	110,500
290,487	1,698	219,790	110,111
291,501	1,663	219,514	109,937
292,516	1,784	219,482	109,999
293,530	1,885	219,322	109,982
294,545	1,953	219,295	110,008
295,560	2,037	219,119	109,971
296,574	2,258	219,104	110,114
297,589	2,144	219,078	110,008
298,603	2,192	218,886	109,937
299,618	2,295	218,771	109,944
300,633	2,333	218,558	109,854
301,647	2,213	218,613	109,786
302,662	2,463	218,378	109,838
303,676	2,434	218,254	109,745
304,691	2,568	218,047	109,728
305,706	2,502	217,869	109,581
306,720	2,213	217,968	109,413
307,735	2,057	217,609	109,111
308,749	2,015	217,479	109,005
309,764	2,168	217,327	109,030
310,779	2,183	217,375	109,055
311,793	2,365	216,946	108,960
312,808	2,310	216,943	108,910
313,822	2,167	216,805	108,728
314,837	2,075	216,608	108,554
315,852	1,980	216,479	108,412
316,866	2,186	216,517	108,569
317,881	2,323	216,245	108,520
318,895	2,108	216,111	108,290
319,910	1,956	215,924	108,078
320,925	1,824	215,735	107,880
321,939	1,744	215,436	107,664
322,954	1,855	215,428	107,729
323,968	2,140	215,447	107,932
324,983	2,582	215,302	108,163
325,997	2,587	215,202	108,108
327,012	2,469	215,095	107,960
328,027	2,454	214,845	107,814
329,041	2,445	214,911	107,832
330,056	2,659	214,702	107,868
331,070	2,177	214,413	107,373
332,085	1,845	214,223	107,034
333,100	2,024	214,272	107,175
334,114	2,025	214,076	107,068
335,129	2,338	213,929	107,206
336,143	2,181	213,674	106,957
337,158	1,954	213,470	106,687
338,173	2,080	213,457	106,759
339,187	1,793	213,212	106,425
340,202	1,650	212,975	106,197
341,216	1,611	212,924	106,135
342,231	2,167	212,917	106,512
343,246	2,284	212,848	106,550
344,260	2,122	212,725	106,365
345,275	2,319	212,649	106,456
346,289	2,433	212,484	106,444
347,304	2,483	212,280	106,367
348,319	2,253	212,093	106,103
349,333	2,139	211,833	105,884
350,348	2,216	211,897	105,960
351,362	2,361	211,716	105,961
352,377	2,544	211,558	106,000
353,392	2,135	211,509	105,682
354,406	2,399	211,287	105,744
355,421	196,984	1314,089	1391,918
356,435	157,530	1448,408	1391,864
