DTS Sentinel unit serial number:	SN410029Multiplexer serial number:	ORYXHardware model number:	OX2-SRSoftware version number:	ORYX F/W v4,00 Oryx Data Collector v3.7.2.0data status	okinstallation	B6 Nyhavnadifferential loss correction	single-endedforward channel	channel 2reverse channel	N/Adate	2023/12/09time	23:20:08forward acquisition time	300,00reverse acquisition time	0,00gamma	499,1914k internal	0,3126k external	0,3126temperature offset calibration	1,0000default loss term (dB/km)	0,3820temperature slope calibration	1,0000multiplexer offset coefficient	1,0000multiplexer slope coefficient	1,0000fibre end	0,00T internal ref (°C)	21,69T ext. ref 1 (°C)	5,52T ext. ref 2 (°C)	5,50length (m)	temperature (°C)	Stokes	anti-Stokes-744,400	296,942	0,035	-0,048
-743,385	-36,531	-0,297	0,118
-742,371	800,000	-0,009	0,023
-741,356	-84,012	-0,154	0,036
-740,342	-200,000	0,002	0,086
-739,327	-44,849	-0,225	0,083
-738,312	3,494	0,037	0,020
-737,298	-103,902	-0,244	0,042
-736,283	-200,000	-0,008	-0,076
-735,269	-46,084	-0,237	0,087
-734,254	484,797	0,042	-0,071
-733,239	-50,261	-0,522	-0,183
-732,225	-131,020	0,073	0,007
-731,210	-27,332	0,112	-0,048
-730,196	236,866	0,060	-0,074
-729,181	-36,087	0,046	0,019
-728,167	-200,000	0,005	-0,052
-727,152	205,047	0,028	-0,032
-726,137	-139,199	-0,091	-0,007
-725,123	-200,000	-0,033	-0,125
-724,108	286,813	0,059	-0,080
-723,094	168,676	-0,119	-0,126
-722,079	-200,000	0,014	-0,098
-721,064	-72,829	0,142	-0,039
-720,050	-136,049	-0,081	-0,007
-719,035	18,748	-0,022	0,013
-718,021	-200,000	0,008	-0,069
-717,006	135,948	-0,108	-0,105
-715,991	134,829	-0,057	-0,055
-714,977	-41,620	-0,092	-0,035
-713,962	425,545	0,041	-0,065
-712,948	-44,056	0,143	-0,053
-711,933	-54,156	-0,056	0,019
-710,918	81,932	-0,082	0,066
-709,904	-128,731	-0,085	0,009
-708,889	157,468	-0,116	-0,120
-707,875	-200,000	-0,010	-0,095
-706,860	-0,179	-0,051	-0,027
-705,845	-64,935	0,102	-0,030
-704,831	128,777	-0,034	0,032
-703,816	56,070	0,035	0,025
-702,802	-46,878	-0,013	0,005
-701,787	111,967	-0,077	-0,069
-700,772	39,034	-0,020	-0,013
-699,758	5,954	-0,015	-0,008
-698,743	423,260	0,099	0,159
-697,729	265,261	-0,164	0,212
-696,714	800,000	0,061	0,165
-695,699	-178,481	0,093	0,002
-694,685	-200,000	-0,004	0,036
-693,670	12,492	-0,038	0,021
-692,656	95,897	0,024	-0,020
-691,641	270,489	0,036	-0,047
-690,627	-114,417	0,053	0,008
-689,612	-90,411	-0,121	0,026
-688,597	601,305	-0,025	0,047
-687,583	-76,666	-0,175	-0,045
-686,568	-200,000	-0,025	-0,123
-685,554	-200,000	-0,015	-0,153
-684,539	1,051	-0,093	-0,049
-683,524	-69,843	-0,090	-0,025
-682,510	11,044	-0,034	-0,019
-681,495	242,809	0,057	-0,071
-680,481	177,275	0,037	0,040
-679,466	800,000	-0,045	-0,107
-678,451	253,890	-0,085	-0,108
-677,437	237,290	-0,038	-0,047
-676,422	-4,021	0,109	-0,056
-675,408	-67,319	-0,087	-0,025
-674,393	-77,891	-0,105	0,027
-673,378	800,000	0,025	-0,061
-672,364	800,000	0,042	-0,123
-671,349	298,951	0,084	-0,115
-670,335	-86,889	0,075	0,017
-669,320	-80,916	0,136	-0,033
-668,305	-109,176	0,072	0,011
-667,291	235,385	-0,035	-0,042
-666,276	79,379	-0,086	-0,068
-665,262	-200,000	-0,011	-0,117
-664,247	292,880	-0,030	0,041
-663,232	663,966	0,047	-0,090
-662,218	-133,461	0,087	-0,008
-661,203	-16,009	-0,119	0,056
-660,189	-64,630	-0,080	0,024
-659,174	-200,000	0,010	-0,088
-658,159	205,204	-0,029	0,033
-657,145	-153,523	-0,170	0,009
-656,130	33,450	0,097	-0,062
-655,116	-200,000	0,002	0,050
-654,101	-10,245	0,137	0,067
-653,086	34,823	-0,115	-0,074
-652,072	-200,000	0,002	-0,054
-651,057	278,677	-0,071	-0,095
-650,043	-200,000	0,014	-0,108
-649,028	-16,744	0,071	0,033
-648,014	-6,174	0,071	-0,036
-646,999	-200,000	-0,029	0,140
-645,984	-200,000	-0,007	0,029
-644,970	800,000	0,020	-0,051
-643,955	-200,000	-0,024	-0,088
-642,941	-13,289	-0,261	0,125
-641,926	593,487	-0,022	-0,041
-640,911	135,530	-0,124	-0,120
-639,897	-76,544	-0,124	0,032
-638,882	-90,283	0,163	-0,035
-637,868	159,550	-0,042	0,043
-636,853	800,000	0,011	-0,031
-635,838	507,122	-0,065	-0,112
-634,824	223,891	-0,046	-0,055
-633,809	800,000	-0,033	0,098
-632,795	800,000	0,033	0,094
-631,780	-59,935	0,071	0,022
-630,765	433,308	0,031	0,050
-629,751	43,160	-0,092	0,062
-628,736	-200,000	0,011	0,126
-627,722	698,339	0,068	0,133
-626,707	84,282	-0,060	0,049
-625,692	262,887	-0,080	-0,103
-624,678	-167,782	0,130	0,004
-623,663	-36,973	0,077	-0,030
-622,649	-200,000	-0,011	-0,120
-621,634	67,219	-0,014	-0,011
-620,619	-200,000	0,004	-0,162
-619,605	74,032	0,092	0,071
-618,590	-200,000	-0,001	0,011
-617,576	312,429	0,036	0,050
-616,561	-119,968	-0,116	-0,015
-615,546	209,266	-0,058	0,068
-614,532	181,187	-0,081	-0,089
-613,517	797,194	-0,041	-0,083
-612,503	-26,475	0,114	0,049
-611,488	46,015	0,120	0,082
-610,474	-200,000	-0,009	0,036
-609,459	48,060	-0,121	-0,084
-608,444	800,000	-0,040	-0,101
-607,430	-200,000	-0,009	-0,089
-606,415	-89,711	-0,049	0,011
-605,401	183,521	0,064	-0,070
-604,386	800,000	-0,024	0,065
-603,371	-36,951	0,153	0,060
-602,357	-200,000	0,015	-0,101
-601,342	237,040	0,078	-0,096
-600,328	-146,420	-0,142	-0,009
-599,313	-200,000	-0,007	-0,078
-598,298	-63,669	0,056	-0,017
-597,284	-120,575	-0,103	-0,013
-596,269	-4,467	0,088	-0,045
-595,255	800,000	0,036	0,086
-594,240	-118,906	-0,126	-0,016
-593,225	-122,590	0,042	-0,005
-592,211	13,232	-0,030	-0,017
-591,196	-200,000	0,013	-0,082
-590,182	-113,879	0,025	0,004
-589,167	-200,000	-0,004	-0,065
-588,152	100,174	0,019	-0,016
-587,138	-200,000	0,024	-0,084
-586,123	396,378	-0,015	-0,023
-585,109	-41,748	0,014	-0,005
-584,094	-200,000	-0,017	0,117
-583,079	688,424	0,044	0,085
-582,065	800,000	0,064	0,132
-581,050	-200,000	-0,019	0,111
-580,036	800,000	0,018	0,041
-579,021	17,798	-0,104	-0,061
-578,006	-139,410	0,062	0,005
-576,992	704,239	-0,050	-0,098
-575,977	-200,000	-0,025	0,094
-574,963	128,030	0,063	0,059
-573,948	-67,857	0,180	-0,052
-572,934	44,189	0,066	-0,045
-571,919	-200,000	-0,030	-0,105
-570,904	-200,000	0,000	0,100
-569,890	74,560	0,050	0,039
-568,875	-200,000	-0,003	-0,079
-567,861	-200,000	0,004	0,069
-566,846	146,470	-0,141	0,140
-565,831	368,588	0,061	-0,091
-564,817	-141,703	-0,056	0,004
-563,802	297,868	-0,061	-0,084
-562,788	-31,902	-0,123	-0,051
-561,773	-163,960	0,113	-0,004
-560,758	-200,000	0,011	0,077
-559,744	-200,000	-0,029	0,255
-558,729	214,178	0,035	0,041
-557,715	-86,885	-0,202	-0,045
-556,700	-17,436	-0,076	0,035
-555,685	-200,000	-0,011	0,068
-554,671	-200,000	0,006	0,072
-553,656	-163,628	0,169	0,006
-552,642	313,074	0,040	0,055
-551,627	715,710	-0,072	-0,142
-550,612	-200,000	0,001	-0,033
-549,598	184,384	-0,016	-0,017
-548,583	-200,000	0,031	-0,138
-547,569	-87,623	-0,074	-0,016
-546,554	-200,000	-0,028	0,103
-545,539	-153,562	0,055	0,003
-544,525	-200,000	-0,008	0,082
-543,510	430,565	-0,034	-0,054
-542,496	-200,000	0,011	-0,061
-541,481	510,659	-0,059	-0,101
-540,466	-200,000	-0,010	-0,179
-539,452	-200,000	0,009	-0,101
-538,437	-70,235	-0,100	0,028
-537,423	-70,583	-0,054	0,015
-536,408	-200,000	0,018	0,113
-535,393	439,569	-0,056	-0,090
-534,379	155,496	-0,042	0,043
-533,364	-161,471	0,039	-0,001
-532,350	-200,000	0,002	-0,047
-531,335	800,000	0,018	-0,046
-530,321	20,976	0,080	0,048
-529,306	229,244	-0,098	-0,118
-528,291	800,000	-0,063	-0,150
-527,277	223,514	0,066	-0,079
-526,262	-112,187	-0,097	0,014
-525,248	172,502	-0,094	0,100
-524,233	-200,000	-0,022	0,108
-523,218	157,168	0,133	-0,136
-522,204	800,000	0,018	-0,042
-521,189	-25,876	0,133	-0,057
-520,175	-98,816	-0,163	-0,030
-519,160	-200,000	-0,018	-0,097
-518,145	39,927	0,008	0,006
-517,131	738,277	-0,011	0,023
-516,116	-200,000	0,006	-0,096
-515,102	76,838	-0,116	0,091
-514,087	-200,000	0,002	0,041
-513,072	425,553	-0,056	-0,089
-512,058	132,794	-0,121	0,115
-511,043	-64,590	-0,083	-0,025
-510,029	-159,269	0,092	0,004
-509,014	-200,000	-0,024	0,116
-507,999	216,352	-0,078	0,092
-506,985	-24,609	-0,186	-0,081
-505,970	148,173	-0,145	0,144
-504,956	-200,000	-0,010	-0,071
-503,941	-152,403	0,121	0,006
-502,926	116,511	0,048	0,043
-501,912	712,888	-0,044	0,086
-500,897	800,000	-0,032	-0,075
-499,883	800,000	-0,014	0,029
-498,868	-200,000	0,043	-0,165
-497,853	-169,798	0,007	0,000
-496,839	202,253	-0,040	0,046
-495,824	800,000	-0,056	-0,115
-494,810	71,008	0,048	-0,037
-493,795	622,357	-0,037	-0,069
-492,781	800,000	-0,044	-0,106
-491,766	-200,000	0,024	-0,121
-490,751	38,201	-0,048	-0,031
-489,737	800,000	-0,034	-0,108
-488,722	472,025	-0,060	-0,101
-487,708	-61,257	0,102	-0,032
-486,693	19,067	0,100	0,059
-485,678	38,876	-0,183	-0,120
-484,664	589,159	0,009	-0,017
-483,649	800,000	-0,017	0,050
-482,635	-92,055	0,029	0,006
-481,620	-56,009	0,134	0,044
-480,605	-104,734	-0,049	-0,008
-479,591	213,080	-0,051	0,059
-478,576	-200,000	-0,025	0,088
-477,562	324,121	0,005	-0,007
-476,547	-69,227	-0,062	-0,017
-475,532	441,459	0,086	-0,139
-474,518	-200,000	-0,011	-0,084
-473,503	180,546	0,013	-0,014
-472,489	-24,573	0,083	0,036
-471,474	-86,811	0,068	0,015
-470,459	-129,051	0,072	-0,007
-469,445	-47,939	-0,105	-0,037
-468,430	8,667	-0,088	-0,049
-467,416	-168,224	0,057	0,002
-466,401	-45,496	0,070	-0,025
-465,386	800,000	-0,018	-0,048
-464,372	-200,000	-0,015	0,165
-463,357	186,837	-0,083	0,091
-462,343	102,545	0,030	0,026
-461,328	-45,753	-0,091	0,033
-460,313	162,019	0,059	0,061
-459,299	-200,000	-0,009	0,075
-458,284	-200,000	-0,007	0,063
-457,270	159,441	0,086	-0,088
-456,255	-102,379	-0,192	0,034
-455,241	-200,000	-0,023	0,079
-454,226	-200,000	0,004	-0,081
-453,211	800,000	-0,012	-0,034
-452,197	113,437	0,059	0,053
-451,182	-200,000	-0,024	-0,105
-450,168	-166,885	0,108	0,003
-449,153	-68,559	0,176	0,050
-448,138	112,943	-0,105	-0,094
-447,124	653,318	0,032	-0,061
-446,109	800,000	-0,027	-0,056
-445,095	-15,870	0,088	0,041
-444,080	125,022	0,079	0,073
-443,065	119,943	0,020	-0,018
-442,051	122,445	0,083	-0,076
-441,036	-200,000	0,015	0,079
-440,022	409,170	-0,094	0,147
-439,007	-21,834	0,107	0,048
-437,992	-200,000	0,016	0,163
-436,978	233,790	-0,021	0,026
-435,963	508,707	-0,046	0,078
-434,949	778,812	0,062	-0,125
-433,934	-200,000	-0,024	-0,159
-432,919	800,000	-0,052	-0,146
-431,905	173,487	0,048	0,051
-430,890	-200,000	0,006	-0,022
-429,876	54,115	0,087	0,061
-428,861	29,108	-0,077	0,048
-427,846	800,000	0,051	-0,107
-426,832	75,038	-0,071	0,055
-425,817	-200,000	-0,003	0,078
-424,803	464,115	-0,031	0,050
-423,788	-32,653	0,068	0,028
-422,773	-8,070	-0,075	0,037
-421,759	58,933	0,129	0,093
-420,744	-47,512	-0,007	0,002
-419,730	164,992	-0,034	-0,035
-418,715	-200,000	0,015	-0,085
-417,701	-200,000	0,012	-0,068
-416,686	-26,247	0,067	0,029
-415,671	-59,237	-0,052	-0,016
-414,657	-200,000	0,007	-0,212
-413,642	60,423	0,062	-0,045
-412,628	-200,000	0,001	-0,236
-411,613	114,949	-0,138	0,124
-410,598	126,487	0,105	0,098
-409,584	-141,938	0,035	-0,003
-408,569	-101,729	0,129	-0,023
-407,555	-145,848	0,063	-0,004
-406,540	411,154	-0,055	0,086
-405,525	324,963	0,039	0,055
-404,511	-200,000	-0,018	0,177
-403,496	-151,226	-0,015	0,001
-402,482	-174,735	-0,087	-0,002
-401,467	58,685	-0,056	-0,041
-400,452	-158,433	-0,025	0,001
-399,438	307,026	-0,030	0,041
-398,423	285,544	0,033	0,044
-397,409	-200,000	0,015	-0,146
-396,394	-200,000	0,006	-0,030
-395,379	203,344	0,052	0,060
-394,365	800,000	0,025	-0,059
-393,350	800,000	0,044	0,097
-392,336	70,382	0,024	0,018
-391,321	-138,647	-0,041	-0,003
-390,306	-200,000	0,002	-0,126
-389,292	800,000	0,009	-0,019
-388,277	368,234	0,004	-0,006
-387,263	800,000	0,024	-0,066
-386,248	452,340	-0,038	0,062
-385,233	-200,000	0,015	-0,140
-384,219	-200,000	-0,016	-0,112
-383,204	30,175	-0,084	0,053
-382,190	131,442	-0,084	-0,079
-381,175	-200,000	0,038	0,125
-380,160	-135,909	0,159	0,014
-379,146	123,577	0,069	0,063
-378,131	758,794	0,033	0,065
-377,117	126,205	-0,086	-0,080
-376,102	186,058	-0,092	0,100
-375,088	-200,000	0,010	0,067
-374,073	-200,000	-0,014	-0,092
-373,058	-98,539	-0,026	-0,005
-372,044	88,092	0,102	-0,083
-371,029	-119,266	0,068	-0,009
-370,015	67,596	0,035	0,026
-369,000	25,979	-0,082	-0,050
-367,985	703,533	-0,069	0,134
-366,971	-107,423	0,128	-0,020
-365,956	-200,000	-0,016	0,075
-364,942	-119,240	0,034	0,004
-363,927	73,923	0,067	0,051
-362,912	-200,000	0,029	0,141
-361,898	51,661	0,044	0,031
-360,883	-89,804	-0,101	-0,022
-359,869	-83,815	0,198	0,046
-358,854	66,142	0,035	-0,026
-357,839	298,938	0,067	-0,091
-356,825	-200,000	0,004	0,079
-355,810	800,000	-0,016	-0,052
-354,796	127,763	0,051	-0,048
-353,781	174,165	0,040	0,043
-352,766	667,056	-0,019	-0,037
-351,752	44,501	0,108	0,073
-350,737	252,579	0,027	0,034
-349,723	-200,000	-0,013	0,082
-348,708	800,000	0,059	0,135
-347,693	242,579	-0,024	-0,030
-346,679	356,646	0,053	-0,078
-345,664	580,738	0,075	-0,136
-344,650	3,249	0,084	-0,044
-343,635	18,973	-0,104	0,061
-342,620	52,551	0,036	0,025
-341,606	800,000	-0,067	0,153
-340,591	47,611	0,088	0,060
-339,577	43,395	-0,115	-0,077
-338,562	-105,627	-0,084	-0,014
-337,548	-200,000	-0,024	-0,107
-336,533	-101,195	0,147	0,026
-335,518	-200,000	0,010	0,096
-334,504	234,307	0,082	0,099
-333,489	-94,203	0,065	-0,013
-332,475	-111,981	0,108	0,016
-331,460	27,108	0,061	-0,037
-330,445	-200,000	-0,003	-0,051
-329,431	-51,118	0,078	-0,027
-328,416	-83,625	0,206	0,048
-327,402	-77,136	-0,086	0,022
-326,387	319,340	0,077	-0,107
-325,372	228,371	-0,023	0,027
-324,358	-155,696	-0,130	-0,006
-323,343	10,961	0,166	-0,093
-322,329	-116,985	0,085	0,011
-321,314	-102,204	0,151	0,026
-320,299	800,000	-0,010	0,024
-319,285	-58,996	0,027	-0,008
-318,270	544,489	0,010	-0,017
-317,256	-200,000	-0,003	-0,159
-316,241	7,154	-0,074	0,041
-315,226	-108,989	0,094	-0,015
-314,212	-14,946	-0,046	0,021
-313,197	-200,000	0,016	0,147
-312,183	-200,000	-0,022	0,098
-311,168	-200,000	-0,008	0,064
-310,153	-33,942	0,079	-0,032
-309,139	166,507	-0,021	-0,022
-308,124	506,381	-0,019	0,033
-307,110	292,671	0,055	0,073
-306,095	-200,000	0,011	0,090
-305,080	-165,072	0,006	0,000
-304,066	-28,830	0,130	-0,055
-303,051	-95,921	-0,174	-0,034
-302,037	766,900	-0,046	0,092
-301,022	800,000	-0,095	0,207
-300,008	-200,000	-0,006	0,076
-298,993	-200,000	-0,002	0,023
-297,978	65,660	-0,096	-0,071
-296,964	-200,000	-0,007	0,098
-295,949	-200,000	-0,013	-0,119
-294,935	-90,893	-0,046	-0,010
-293,920	69,426	-0,067	-0,050
-292,905	60,261	0,049	0,036
-291,891	55,994	0,110	0,078
-290,876	98,225	0,035	0,030
-289,862	-76,527	-0,154	0,039
-288,847	-200,000	0,027	-0,111
-287,832	126,788	0,107	0,099
-286,818	800,000	-0,022	0,067
-285,803	36,464	-0,016	-0,011
-284,789	-200,000	0,034	0,128
-283,774	-200,000	0,018	-0,060
-282,759	155,516	0,092	0,092
-281,745	-42,405	-0,182	-0,068
-280,730	427,093	-0,078	-0,123
-279,716	194,735	0,031	-0,034
-278,701	283,538	0,043	0,056
-277,686	-200,000	-0,040	0,138
-276,672	213,900	-0,096	-0,112
-275,657	21,390	0,106	0,063
-274,643	412,430	-0,082	-0,128
-273,628	162,559	0,085	-0,087
-272,613	111,413	-0,041	0,036
-271,599	-200,000	0,000	0,010
-270,584	120,663	0,034	0,031
-269,570	9,351	0,045	0,025
-268,555	54,486	-0,104	-0,073
-267,540	-78,495	-0,102	0,025
-266,526	186,863	-0,076	-0,083
-265,511	506,588	0,036	0,061
-264,497	-70,283	0,040	0,011
-263,482	-22,447	0,092	0,041
-262,467	-63,231	0,059	-0,018
-261,453	200,310	0,140	0,157
-260,438	80,161	0,068	0,054
-259,424	178,356	0,025	-0,027
-258,409	-200,000	-0,011	-0,103
-257,395	-58,516	-0,097	-0,031
-256,380	767,119	-0,042	-0,084
-255,365	31,983	0,114	-0,072
-254,351	55,223	0,096	-0,067
-253,336	-200,000	0,013	-0,090
-252,322	-68,421	-0,101	0,028
-251,307	800,000	-0,076	-0,188
-250,292	147,958	-0,024	0,024
-249,278	-200,000	0,016	-0,138
-248,263	7,207	0,102	0,055
-247,249	-200,000	0,010	-0,047
-246,234	800,000	-0,019	0,039
-245,219	347,390	-0,094	-0,135
-244,205	4,933	-0,069	-0,037
-243,190	-151,874	-0,050	-0,003
-242,176	-163,867	0,056	-0,002
-241,161	-106,825	-0,116	0,019
-240,146	-83,095	0,037	-0,009
-239,132	-43,711	-0,065	0,024
-238,117	-200,000	0,004	0,073
-237,103	-200,000	-0,009	0,037
-236,088	-155,495	-0,068	-0,003
-235,073	580,351	-0,079	0,143
-234,059	63,235	0,112	0,082
-233,044	99,330	-0,009	-0,008
-232,030	800,000	0,071	-0,159
-231,015	800,000	-0,042	-0,123
-230,000	-5,926	0,017	0,008
-228,986	-91,098	-0,062	-0,013
-227,971	10,253	0,030	-0,016
-226,957	800,000	-0,038	0,102
-225,942	95,298	0,081	0,067
-224,927	134,452	0,043	0,041
-223,913	-200,000	-0,005	-0,095
-222,898	462,762	0,032	-0,052
-221,884	800,000	0,013	-0,033
-220,869	-1,192	0,087	0,045
-219,855	-200,000	0,013	0,170
-218,840	800,000	-0,017	0,039
-217,825	228,953	0,017	0,020
-216,811	-75,416	-0,042	-0,011
-215,796	-30,171	0,046	-0,019
-214,782	800,000	-0,031	-0,076
-213,767	-200,000	0,019	0,072
-212,752	-26,347	0,066	-0,028
-211,738	-136,871	0,160	0,013
-210,723	-57,232	-0,045	0,014
-209,709	22,168	-0,082	-0,049
-208,694	389,486	-0,075	-0,113
-207,679	800,000	0,012	0,032
-206,665	578,009	-0,034	0,061
-205,650	-200,000	-0,006	-0,141
-204,636	382,180	0,075	0,113
-203,621	800,000	-0,052	0,117
-202,606	248,127	0,039	0,049
-201,592	12,281	-0,077	-0,043
-200,577	-200,000	-0,025	0,094
-199,563	2,115	0,057	0,030
-198,548	154,019	-0,071	0,071
-197,533	50,911	0,158	0,109
-196,519	-84,770	-0,147	-0,034
-195,504	-7,223	-0,125	0,062
-194,490	69,994	-0,019	-0,014
-193,475	-119,169	-0,046	0,006
-192,460	2,888	-0,074	-0,039
-191,446	800,000	-0,035	0,087
-190,431	320,463	0,083	0,115
-189,417	800,000	0,028	0,072
-188,402	87,631	0,116	-0,094
-187,387	-200,000	-0,022	-0,079
-186,373	800,000	0,053	-0,160
-185,358	800,000	-0,040	0,117
-184,344	216,798	-0,027	0,031
-183,329	-200,000	0,002	-0,032
-182,315	-196,924	-0,058	-0,000
-181,300	-94,090	0,017	-0,003
-180,285	-200,000	0,007	-0,097
-179,271	-200,000	0,020	-0,252
-178,256	107,291	0,043	-0,037
-177,242	239,768	0,047	-0,057
-176,227	800,000	-0,043	0,115
-175,212	96,778	0,053	-0,044
-174,198	-200,000	-0,018	0,126
-173,183	-54,215	-0,127	0,042
-172,169	126,504	-0,040	0,037
-171,154	-41,283	0,042	-0,016
-170,139	262,760	-0,022	0,028
-169,125	652,111	0,008	0,015
-168,110	-53,715	0,001	0,000
-167,096	-200,000	0,006	0,077
-166,081	202,494	0,008	0,010
-165,066	-143,751	-0,064	-0,004
-164,052	120,633	0,085	0,077
-163,037	-55,189	0,046	-0,015
-162,023	497,299	0,038	0,063
-161,008	-42,177	-0,173	0,064
-159,993	-28,616	0,074	0,031
-158,979	800,000	-0,061	-0,141
-157,964	-200,000	0,000	-0,085
-156,950	-18,623	-0,090	-0,041
-155,935	-12,141	-0,132	0,063
-154,920	8,942	0,018	0,010
-153,906	-79,654	-0,097	-0,024
-152,891	800,000	-0,034	0,097
-151,877	110,620	0,047	0,041
-150,862	-200,000	0,000	0,067
-149,847	225,493	-0,010	0,012
-148,833	800,000	-0,016	-0,034
-147,818	661,758	0,041	0,078
-146,804	-12,534	-0,073	-0,034
-145,789	152,286	-0,048	-0,047
-144,775	33,347	0,087	-0,055
-143,760	-85,535	0,071	0,016
-142,745	71,634	-0,132	0,100
-141,731	-200,000	0,081	-0,000
-140,716	555,124	0,021	0,036
-139,702	60,840	0,016	0,012
-138,687	180,151	-0,072	0,077
-137,672	184,715	0,084	-0,091
-136,658	-44,576	-0,042	-0,015
-135,643	152,541	-0,066	0,066
-134,629	800,000	0,042	0,086
-133,614	-46,734	-0,065	0,023
-132,599	619,852	0,085	-0,157
-131,585	-111,378	-0,038	0,006
-130,570	800,000	0,027	-0,057
-129,556	-30,242	-0,044	-0,018
-128,541	-1,762	-0,089	0,045
-127,526	-79,176	0,025	-0,006
-126,512	-84,959	0,064	0,014
-125,497	800,000	0,033	-0,082
-124,483	53,575	0,012	0,008
-123,468	-200,000	0,044	-0,153
-122,453	-200,000	-0,002	-0,095
-121,439	-200,000	0,057	-0,202
-120,424	279,311	-0,024	-0,032
-119,410	-19,592	-0,040	-0,018
-118,395	65,184	0,158	0,116
-117,380	-200,000	0,018	0,000
-116,366	13,168	-0,074	-0,041
-115,351	43,011	-0,056	0,037
-114,337	-200,000	0,010	-0,051
-113,322	734,280	0,059	0,115
-112,307	-200,000	-0,037	0,119
-111,293	35,373	-0,102	0,065
-110,278	333,022	0,097	0,137
-109,264	-169,797	-0,053	0,001
-108,249	360,340	-0,069	-0,100
-107,234	14,527	-0,078	0,044
-106,220	2,185	0,061	0,032
-105,205	-200,000	-0,007	0,040
-104,191	-151,080	-0,017	0,001
-103,176	-200,000	0,008	0,064
-102,162	-46,720	-0,186	0,066
-101,147	776,686	-0,018	-0,036
-100,132	800,000	0,035	0,096
-99,118	-200,000	-0,009	-0,078
-98,103	-200,000	-0,008	0,025
-97,089	216,509	0,033	0,038
-96,074	-200,000	0,013	0,142
-95,059	62,271	-0,029	-0,021
-94,045	800,000	-0,016	0,042
-93,030	94,366	-0,097	-0,080
-92,016	800,000	-0,047	0,129
-91,001	-155,864	0,103	-0,005
-89,986	73,897	0,074	-0,056
-88,972	800,000	0,052	-0,143
-87,957	158,968	-0,120	-0,121
-86,943	401,526	0,044	-0,068
-85,928	-92,409	0,048	-0,010
-84,913	800,000	-0,056	-0,156
-83,899	800,000	0,042	-0,108
-82,884	-1,238	0,036	0,019
-81,870	800,000	0,039	-0,109
-80,855	-71,618	0,019	-0,005
-79,840	13,953	-0,069	0,039
-78,826	-134,354	-0,014	0,001
-77,811	355,624	0,016	-0,024
-76,797	540,410	0,029	-0,050
-75,782	-84,263	-0,066	0,015
-74,767	-200,000	-0,021	0,118
-73,753	61,041	0,236	0,170
-72,738	800,000	0,048	0,144
-71,724	127,131	-0,088	0,081
-70,709	-4,929	0,043	0,021
-69,694	177,383	0,072	0,077
-68,680	132,148	-0,049	0,046
-67,665	-200,000	-0,025	0,089
-66,651	471,288	0,040	0,066
-65,636	-10,734	-0,156	-0,075
-64,622	188,144	-0,023	0,025
-63,607	247,551	0,113	-0,139
-62,592	431,039	0,032	-0,050
-61,578	-139,325	0,140	-0,011
-60,563	266,611	-0,049	0,062
-59,549	800,000	-0,021	-0,056
-58,534	-118,194	-1,411	-0,180
-57,519	800,000	-0,700	-1,412
-56,505	-200,000	-1,060	-4,417
-55,490	-93,037	0,751	-0,150
-54,476	800,000	4,993	11,712
-53,461	-200,000	14,154	253,518
-52,446	-200,000	695,132	2233,619
-51,432	569,533	1624,532	2874,832
-50,417	117,067	1632,070	1453,104
-49,403	72,842	1285,523	971,866
-48,388	37,419	1022,997	656,018
-47,373	23,648	981,274	584,016
-46,359	22,943	970,829	575,466
-45,344	21,943	966,421	569,568
-44,330	21,933	964,940	568,640
-43,315	21,739	963,504	567,139
-42,300	21,740	962,539	566,554
-41,286	21,789	961,407	566,023
-40,271	21,758	960,442	565,333
-39,257	21,742	959,583	564,751
-38,242	21,733	958,522	564,075
-37,227	21,704	957,695	563,473
-36,213	21,633	956,982	562,801
-35,198	21,678	955,967	562,327
-34,184	21,731	955,372	562,125
-33,169	21,739	954,351	561,529
-32,154	21,712	953,649	561,008
-31,140	21,774	952,624	560,580
-30,125	21,803	951,860	560,203
-29,111	21,719	951,226	559,539
-28,096	21,724	950,472	559,089
-27,082	21,694	949,728	558,531
-26,067	21,746	948,849	558,158
-25,052	21,739	948,213	557,741
-24,038	21,735	947,606	557,350
-23,023	21,723	946,933	556,893
-22,009	21,771	946,260	556,628
-20,994	21,793	945,732	556,366
-19,979	21,811	944,874	555,895
-18,965	21,773	944,345	555,442
-17,950	21,777	943,643	555,019
-16,936	21,613	943,105	554,159
-15,921	21,689	942,397	553,962
-14,906	21,569	941,804	553,210
-13,892	21,607	941,019	552,847
-12,877	21,571	940,438	552,370
-11,863	21,583	939,755	551,985
-10,848	21,589	939,375	551,758
-9,833	21,709	938,953	551,868
-8,819	21,681	938,383	551,423
-7,804	21,634	937,612	550,800
-6,790	21,655	936,967	550,466
-5,775	21,586	936,490	549,946
-4,760	21,637	935,670	549,603
-3,746	21,602	935,135	549,158
-2,731	21,511	934,402	548,416
-1,717	21,421	933,790	547,752
-0,702	21,418	932,980	547,245
0,313	21,266	932,456	547,286
1,327	24,226	930,462	555,363
2,342	33,408	793,900	498,244
3,356	30,979	450,710	279,181
4,371	0,765	294,334	152,111
5,386	-3,622	275,308	138,108
6,400	-4,841	269,763	134,180
7,415	-5,159	267,301	132,650
8,429	-4,869	266,021	132,270
9,444	-4,933	265,151	131,767
10,459	-4,919	264,642	131,515
11,473	-5,115	264,103	131,057
12,488	-4,996	263,628	130,917
13,502	-5,278	262,901	130,289
14,517	-5,224	262,628	130,192
15,531	-5,219	262,244	129,994
16,546	-4,946	261,725	129,971
17,561	-5,066	261,555	129,767
18,575	-5,156	261,245	129,521
19,590	-5,198	260,833	129,267
20,604	-5,094	260,546	129,207
21,619	-4,987	260,234	129,136
22,634	-5,247	259,891	128,721
23,648	-5,091	259,570	128,691
24,663	-5,195	259,274	128,440
25,677	-5,026	259,008	128,447
26,692	-5,171	258,757	128,182
27,707	-5,266	258,551	127,984
28,721	-5,072	258,074	127,909
29,736	-5,236	257,955	127,693
30,750	-5,073	257,569	127,635
31,765	-5,021	257,465	127,618
32,780	-5,195	257,226	127,334
33,794	-5,287	257,124	127,191
34,809	-5,320	256,904	127,042
35,823	-5,019	256,491	127,092
36,838	-5,290	256,347	126,770
37,853	-5,355	256,057	126,558
38,867	-5,312	255,787	126,451
39,882	-5,155	255,569	126,470
40,896	-5,233	255,332	126,273
41,911	-5,313	255,152	126,103
42,926	-5,339	255,025	126,006
43,940	-5,137	254,664	125,994
44,955	-5,382	254,498	125,685
45,969	-5,305	254,217	125,602
46,984	-5,526	253,997	125,290
47,999	-5,647	253,672	125,012
49,013	-5,793	253,516	124,798
50,028	-5,878	253,207	124,560
51,042	-6,045	253,111	124,357
52,057	-6,117	252,838	124,149
53,071	-5,889	252,621	124,229
54,086	-5,766	252,340	124,186
55,101	-5,726	252,329	124,204
56,115	-5,338	252,119	124,426
57,130	-5,031	252,054	124,649
58,144	-5,015	251,872	124,561
59,159	-4,920	251,679	124,537
60,174	-5,134	251,535	124,270
61,188	-5,108	251,216	124,123
62,203	-5,122	251,071	124,029
63,217	-5,055	250,772	123,928
64,232	-5,232	250,737	123,747
65,247	-4,922	250,332	123,803
66,261	-5,029	250,117	123,594
67,276	-5,325	250,021	123,281
68,290	-5,730	249,777	122,803
69,305	-5,588	249,491	122,772
70,320	-5,609	249,380	122,689
71,334	-5,160	249,077	122,912
72,349	-5,042	248,939	122,935
73,363	-4,775	248,763	123,064
74,378	-4,910	248,538	122,827
75,393	-5,115	248,435	122,591
76,407	-5,112	248,126	122,430
77,422	-5,147	248,007	122,330
78,436	-5,229	247,869	122,181
79,451	-5,039	247,466	122,133
80,466	-5,161	247,296	121,935
81,480	-5,498	247,044	121,514
82,495	-5,282	246,844	121,588
83,509	-5,408	246,806	121,452
84,524	-5,334	246,717	121,460
85,539	-5,575	246,280	121,030
86,553	-5,395	246,081	121,074
87,568	-5,532	246,157	120,985
88,582	-5,396	245,812	120,919
89,597	-5,480	245,517	120,692
90,611	-5,240	245,513	120,882
91,626	-5,104	245,197	120,829
92,641	-5,251	245,145	120,669
93,655	-5,210	244,877	120,561
94,670	-5,066	244,453	120,463
95,684	-5,278	244,553	120,324
96,699	-5,219	244,209	120,192
97,714	-5,331	244,095	120,032
98,728	-5,642	244,017	119,724
99,743	-5,689	243,790	119,562
100,757	-5,447	243,510	119,616
101,772	-5,511	243,333	119,465
102,787	-5,438	243,156	119,428
103,801	-5,346	242,875	119,356
104,816	-5,132	242,832	119,502
105,830	-5,174	242,703	119,393
106,845	-5,106	242,527	119,352
107,860	-4,844	242,358	119,475
108,874	-5,100	242,129	119,139
109,889	-5,274	241,833	118,840
110,903	-5,401	241,709	118,663
111,918	-5,416	241,613	118,593
112,933	-5,424	241,541	118,541
113,947	-5,149	241,270	118,623
114,962	-5,245	241,117	118,459
115,976	-5,059	240,801	118,446
116,991	-5,070	240,772	118,412
118,006	-5,215	240,657	118,226
119,020	-4,985	240,376	118,266
120,035	-5,230	240,331	118,032
121,049	-5,129	240,177	118,029
122,064	-5,150	240,033	117,931
123,079	-5,173	239,846	117,810
124,093	-5,250	239,455	117,544
125,108	-5,326	239,325	117,408
126,122	-5,553	239,131	117,117
127,137	-5,608	238,876	116,936
128,151	-5,673	238,948	116,908
129,166	-5,326	238,558	116,990
130,181	-5,276	238,326	116,905
131,195	-5,339	238,185	116,775
132,210	-5,439	238,183	116,682
133,224	-5,113	237,932	116,813
134,239	-5,184	237,821	116,691
135,254	-5,257	237,612	116,519
136,268	-5,202	237,293	116,396
137,283	-5,343	237,180	116,217
138,297	-5,724	236,958	115,790
139,312	-5,578	236,688	115,765
140,327	-5,372	236,585	115,870
141,341	-4,997	236,777	116,257
142,356	-4,961	236,552	116,166
143,370	-4,960	236,384	116,073
144,385	-5,126	236,435	115,954
145,400	-4,906	236,094	115,954
146,414	-5,044	235,985	115,778
147,429	-5,001	235,804	115,714
148,443	-5,031	235,639	115,599
149,458	-5,062	235,492	115,492
150,473	-5,238	235,404	115,297
151,487	-4,888	234,858	115,300
152,502	-4,960	234,749	115,178
153,516	-5,116	234,776	115,057
154,531	-4,857	234,552	115,143
155,546	-5,060	234,368	114,881
156,560	-4,934	234,039	114,810
157,575	-5,027	233,859	114,636
158,589	-5,202	233,719	114,419
159,604	-4,880	233,681	114,646
160,619	-4,808	233,555	114,631
161,633	-4,966	233,447	114,443
162,648	-4,804	233,194	114,437
163,662	-4,835	233,073	114,343
164,677	-4,977	232,778	114,075
165,692	-4,999	232,715	114,017
166,706	-4,725	232,443	114,090
167,721	-4,776	232,413	114,024
168,735	-4,849	232,338	113,920
169,750	-5,015	232,253	113,737
170,764	-4,677	231,942	113,842
171,779	-4,727	231,758	113,702
172,794	-4,972	231,775	113,506
173,808	-5,217	231,601	113,218
174,823	-5,327	231,148	112,901
175,837	-5,454	231,016	112,726
176,852	-5,207	230,943	112,874
177,867	-4,988	230,991	113,060
178,881	-4,926	230,737	112,974
179,896	-4,791	230,633	113,019
180,910	-5,005	230,544	112,798
181,925	-4,929	230,270	112,713
182,940	-4,927	230,128	112,635
183,954	-4,696	230,095	112,788
184,969	-4,785	229,970	112,648
185,983	-4,493	229,674	112,721
186,998	-4,765	229,653	112,488
188,013	-4,877	229,607	112,368
189,027	-4,671	229,110	112,275
190,042	-4,847	229,199	112,172
191,056	-4,662	228,974	112,196
192,071	-4,634	228,729	112,087
193,086	-4,684	228,682	112,016
194,100	-4,687	228,351	111,841
195,115	-5,123	228,158	111,399
196,129	-5,188	227,903	111,214
197,144	-2,662	228,817	113,610
198,159	1,421	230,000	117,364
199,173	3,742	230,496	119,413
200,188	3,803	230,457	119,429
201,202	4,010	230,322	119,510
202,217	3,995	230,237	119,443
203,232	4,404	230,000	119,627
204,246	4,654	229,936	119,776
205,261	4,380	229,840	119,504
206,275	4,754	229,676	119,697
207,290	4,721	229,577	119,609
208,304	4,746	229,299	119,473
209,319	4,408	229,215	119,158
210,334	4,644	229,004	119,219
211,348	4,426	228,686	118,875
212,363	4,039	228,487	118,463
213,377	3,779	228,254	118,132
214,392	3,662	228,047	117,924
215,407	4,078	228,021	118,220
216,421	3,941	227,943	118,064
217,436	3,795	227,604	117,766
218,450	3,772	227,526	117,698
219,465	3,599	227,337	117,457
220,480	3,456	227,253	117,293
221,494	3,580	227,110	117,304
222,509	3,887	226,905	117,422
223,523	3,659	226,920	117,245
224,538	3,622	226,545	117,013
225,553	3,626	226,623	117,046
226,567	4,141	226,483	117,355
227,582	4,131	226,343	117,265
228,596	4,142	226,299	117,240
229,611	3,891	226,168	116,971
230,626	3,527	225,792	116,489
231,640	3,718	225,544	116,496
232,655	4,128	225,560	116,805
233,669	4,390	225,537	116,981
234,684	4,539	225,510	117,070
235,699	4,375	225,258	116,804
236,713	3,911	225,041	116,331
237,728	3,851	224,663	116,079
238,742	3,724	224,607	115,944
239,757	3,695	224,447	115,829
240,772	3,618	224,354	115,713
241,786	3,787	224,217	115,759
242,801	3,922	224,155	115,819
243,815	4,193	223,947	115,905
244,830	4,132	223,826	115,786
245,844	4,040	223,601	115,590
246,859	4,071	223,445	115,522
247,874	4,047	223,431	115,487
248,888	4,005	223,267	115,360
249,903	3,989	223,067	115,235
250,917	3,741	222,972	114,990
251,932	3,771	222,756	114,890
252,947	3,809	222,498	114,775
253,961	3,472	222,451	114,489
254,976	3,878	222,236	114,672
255,990	4,030	222,178	114,744
257,005	3,884	222,120	114,595
258,020	4,024	221,893	114,573
259,034	4,079	221,796	114,553
260,049	4,264	221,799	114,682
261,063	3,857	221,566	114,249
262,078	4,215	221,379	114,408
263,093	4,307	221,273	114,412
264,107	4,244	221,126	114,279
265,122	4,125	220,971	114,100
266,136	4,210	220,983	114,159
267,151	4,254	220,940	114,159
268,166	3,851	220,544	113,646
269,180	3,665	220,275	113,361
270,195	3,707	220,082	113,282
271,209	3,660	220,077	113,235
272,224	3,819	219,970	113,286
273,239	3,839	219,865	113,237
274,253	3,548	219,700	112,928
275,268	3,704	219,455	112,906
276,282	3,461	219,244	112,610
277,297	3,505	219,187	112,602
278,312	3,540	219,027	112,536
279,326	3,753	218,783	112,557
280,341	3,808	218,718	112,553
281,355	3,910	218,628	112,572
282,370	3,859	218,372	112,392
283,384	3,712	218,232	112,203
284,399	3,479	217,980	111,893
285,414	3,457	218,001	111,878
286,428	3,652	218,050	112,035
287,443	3,956	217,814	112,126
288,457	3,898	217,629	111,978
289,472	4,080	217,406	111,986
290,487	3,576	217,170	111,488
291,501	3,572	217,041	111,409
292,516	3,553	216,921	111,324
293,530	3,481	216,805	111,202
294,545	3,299	216,767	111,041
295,560	3,325	216,620	110,975
296,574	3,485	216,619	111,080
297,589	3,851	216,477	111,262
298,603	3,960	216,375	111,279
299,618	4,100	216,014	111,184
300,633	4,004	215,957	111,076
301,647	4,071	215,948	111,110
302,662	3,999	215,859	111,002
303,676	4,206	215,634	111,025
304,691	3,975	215,521	110,791
305,706	3,890	215,398	110,657
306,720	3,947	215,232	110,603
307,735	3,770	215,118	110,407
308,749	3,654	214,894	110,199
309,764	3,976	214,837	110,391
310,779	3,708	214,786	110,163
311,793	3,870	214,372	110,057
312,808	3,756	214,388	109,973
313,822	4,126	214,096	110,078
314,837	3,967	213,915	109,861
315,852	3,670	213,890	109,627
316,866	3,656	213,848	109,586
317,881	4,015	213,649	109,730
318,895	4,149	213,486	109,732
319,910	3,942	213,335	109,497
320,925	3,470	213,248	109,107
321,939	3,236	212,918	108,762
322,954	3,323	212,898	108,804
323,968	3,862	212,973	109,215
324,983	3,944	212,717	109,133
325,997	4,093	212,613	109,176
327,012	3,769	212,454	108,854
328,027	3,870	212,304	108,839
329,041	4,296	212,251	109,103
330,056	4,021	212,286	108,918
331,070	3,818	211,940	108,587
332,085	3,383	211,752	108,174
333,100	3,679	211,632	108,311
334,114	3,709	211,534	108,273
335,129	3,626	211,294	108,082
336,143	3,785	211,091	108,080
337,158	3,671	210,988	107,938
338,173	3,794	210,900	107,969
339,187	3,761	210,655	107,812
340,202	3,392	210,595	107,512
341,216	3,376	210,512	107,449
342,231	3,724	210,227	107,537
343,246	3,530	210,181	107,368
344,260	3,603	209,965	107,300
345,275	3,519	210,013	107,256
346,289	3,623	209,901	107,262
347,304	3,846	209,807	107,360
348,319	3,917	209,527	107,256
349,333	3,723	209,566	107,132
350,348	3,815	209,385	107,093
351,362	4,021	209,238	107,153
352,377	4,122	209,056	107,120
353,392	3,839	208,986	106,878
354,406	3,645	208,933	106,706
355,421	193,146	1344,395	1428,817
356,435	154,099	1482,830	1428,930
