DTS Sentinel unit serial number:	SN410029Multiplexer serial number:	ORYXHardware model number:	OX2-SRSoftware version number:	ORYX F/W v4,00 Oryx Data Collector v3.7.2.0data status	okinstallation	B6 Nyhavnadifferential loss correction	single-endedforward channel	channel 2reverse channel	N/Adate	2023/12/10time	05:55:08forward acquisition time	300,00reverse acquisition time	0,00gamma	499,1914k internal	0,3124k external	0,3124temperature offset calibration	1,0000default loss term (dB/km)	0,3820temperature slope calibration	1,0000multiplexer offset coefficient	1,0000multiplexer slope coefficient	1,0000fibre end	0,00T internal ref (°C)	22,52T ext. ref 1 (°C)	6,47T ext. ref 2 (°C)	6,45length (m)	temperature (°C)	Stokes	anti-Stokes-744,400	-36,103	0,108	0,043
-743,385	25,423	-0,225	0,139
-742,371	-131,054	0,155	-0,015
-741,356	-13,169	-0,224	0,108
-740,342	95,599	0,066	0,056
-739,327	-110,850	-0,150	-0,023
-738,312	-29,847	0,087	0,037
-737,298	-22,761	-0,243	0,109
-736,283	-200,000	-0,008	-0,030
-735,269	221,814	-0,192	0,231
-734,254	16,316	-0,136	0,080
-733,239	-107,310	-0,355	-0,058
-732,225	-71,983	0,161	0,044
-731,210	800,000	-0,027	-0,061
-730,196	-155,310	0,030	0,001
-729,181	-102,569	-0,070	0,012
-728,167	124,622	-0,038	-0,036
-727,152	680,659	0,094	0,183
-726,137	-110,942	-0,091	-0,014
-725,123	-198,289	-0,196	-0,001
-724,108	258,193	-0,182	-0,234
-723,094	246,241	-0,156	0,196
-722,079	-200,000	0,007	-0,176
-721,064	126,727	0,105	-0,099
-720,050	-64,566	0,097	0,029
-719,035	800,000	0,078	0,179
-718,021	331,419	-0,111	-0,160
-717,006	32,639	-0,125	-0,080
-715,991	-76,275	-0,120	-0,031
-714,977	25,149	-0,015	0,009
-713,962	-82,304	-0,134	-0,032
-712,948	-200,000	-0,024	-0,096
-711,933	441,197	-0,069	-0,114
-710,918	-200,000	-0,001	0,007
-709,904	800,000	-0,059	-0,140
-708,889	-130,972	0,008	0,001
-707,875	-200,000	0,008	0,026
-706,860	30,189	-0,011	-0,007
-705,845	774,485	-0,014	-0,029
-704,831	-45,995	-0,110	0,040
-703,816	219,811	0,084	0,100
-702,802	-200,000	0,000	-0,071
-701,787	-4,359	-0,116	-0,060
-700,772	-43,844	-0,146	-0,054
-699,758	-200,000	-0,023	-0,136
-698,743	-163,301	0,147	0,005
-697,729	428,338	-0,044	-0,072
-696,714	166,839	0,005	0,006
-695,699	103,073	0,027	-0,023
-694,685	-147,738	0,092	0,006
-693,670	237,514	-0,083	-0,103
-692,656	-77,422	0,081	0,021
-691,641	-200,000	-0,037	0,138
-690,627	11,041	-0,042	0,024
-689,612	800,000	-0,004	0,009
-688,597	-200,000	0,024	-0,083
-687,583	-200,000	-0,058	-0,216
-686,568	-69,813	-0,112	-0,031
-685,554	-58,524	0,061	0,020
-684,539	246,836	0,084	-0,106
-683,524	-200,000	0,007	0,107
-682,510	-39,815	0,036	-0,014
-681,495	-60,676	0,024	0,007
-680,481	33,357	-0,105	-0,067
-679,466	-166,382	-0,128	0,004
-678,451	-200,000	-0,016	-0,215
-677,437	-50,723	0,098	-0,034
-676,422	-67,076	-0,112	-0,033
-675,408	-52,155	-0,122	-0,042
-674,393	-126,234	-0,072	-0,008
-673,378	-200,000	0,011	-0,073
-672,364	251,457	-0,049	0,063
-671,349	800,000	0,031	-0,071
-670,335	-200,000	0,019	-0,125
-669,320	800,000	0,058	0,144
-668,305	-200,000	0,006	-0,058
-667,291	800,000	-0,038	-0,100
-666,276	398,583	-0,114	-0,178
-665,262	800,000	0,011	0,027
-664,247	-23,913	-0,090	0,040
-663,232	646,425	0,075	-0,142
-662,218	51,060	0,057	-0,040
-661,203	295,551	0,095	0,130
-660,189	800,000	0,067	0,183
-659,174	-96,284	0,108	-0,021
-658,159	-50,433	-0,095	-0,033
-657,145	-45,020	-0,145	-0,053
-656,130	362,323	0,052	-0,078
-655,116	-200,000	-0,002	0,090
-654,101	-200,000	-0,044	0,154
-653,086	-200,000	-0,010	0,144
-652,072	360,222	-0,053	0,079
-651,057	502,240	-0,043	-0,073
-650,043	800,000	-0,031	-0,077
-649,028	242,429	-0,032	0,039
-648,014	-92,071	0,146	-0,030
-646,999	437,583	-0,009	0,015
-645,984	406,304	0,044	0,069
-644,970	800,000	0,032	0,068
-643,955	-42,654	-0,011	-0,004
-642,941	-200,000	-0,030	-0,108
-641,926	-200,000	0,005	-0,117
-640,911	144,041	0,076	-0,075
-639,897	619,746	-0,083	0,156
-638,882	404,726	0,044	0,069
-637,868	298,562	-0,096	-0,131
-636,853	-200,000	-0,007	-0,056
-635,838	58,741	0,054	-0,039
-634,824	800,000	-0,033	0,074
-633,809	-40,136	-0,026	-0,010
-632,795	5,762	-0,123	0,067
-631,780	800,000	0,051	0,141
-630,765	-114,202	0,108	0,015
-629,751	800,000	0,021	-0,062
-628,736	-104,185	0,057	0,010
-627,722	-157,148	0,018	0,001
-626,707	-112,418	-0,155	0,023
-625,692	277,541	-0,009	-0,012
-624,678	179,424	0,073	0,080
-623,663	-109,557	-0,255	-0,039
-622,649	-39,407	0,030	0,012
-621,634	138,864	0,035	-0,034
-620,619	768,881	-0,054	0,109
-619,605	83,307	-0,093	0,075
-618,590	99,899	0,136	0,116
-617,576	40,021	-0,074	0,049
-616,561	-200,000	-0,010	-0,037
-615,546	73,799	-0,073	-0,057
-614,532	-200,000	0,011	-0,066
-613,517	280,144	-0,065	-0,086
-612,503	139,461	-0,041	-0,040
-611,488	800,000	0,014	-0,029
-610,474	-200,000	0,006	-0,160
-609,459	-27,644	-0,138	-0,059
-608,444	158,681	-0,093	-0,096
-607,430	800,000	-0,029	-0,083
-606,415	800,000	-0,054	-0,116
-605,401	-200,000	-0,001	0,044
-604,386	-200,000	0,012	-0,054
-603,371	-78,505	0,098	-0,025
-602,357	800,000	-0,020	0,048
-601,342	-106,253	0,072	0,012
-600,328	39,068	-0,056	-0,037
-599,313	-167,482	0,054	0,002
-598,298	31,904	-0,069	0,044
-597,284	-200,000	-0,013	0,111
-596,269	247,200	-0,063	0,079
-595,255	-200,000	0,003	0,127
-594,240	189,346	0,055	0,061
-593,225	-63,266	-0,180	-0,055
-592,211	-200,000	-0,011	-0,117
-591,196	800,000	0,036	0,098
-590,182	13,443	-0,093	0,053
-589,167	236,604	0,152	0,187
-588,152	266,140	-0,052	0,067
-587,138	123,943	0,044	-0,041
-586,123	-200,000	-0,018	-0,065
-585,109	-91,252	-0,179	0,038
-584,094	-163,368	-0,154	0,005
-583,079	-15,513	0,074	-0,035
-582,065	112,705	0,048	-0,043
-581,050	34,265	0,048	-0,031
-580,036	24,619	-0,087	-0,053
-579,021	800,000	0,028	-0,066
-578,006	300,354	-0,070	-0,096
-576,992	-200,000	-0,030	-0,142
-575,977	159,495	-0,028	-0,029
-574,963	800,000	-0,016	-0,036
-573,948	554,664	0,044	0,079
-572,934	64,540	-0,129	0,096
-571,919	-200,000	-0,016	-0,083
-570,904	800,000	-0,022	-0,063
-569,890	-125,696	0,065	-0,007
-568,875	37,024	0,079	-0,052
-567,861	362,687	-0,065	-0,097
-566,846	259,871	0,110	0,141
-565,831	519,912	0,069	0,119
-564,817	-48,873	0,053	0,019
-563,802	48,657	-0,044	-0,030
-562,788	-200,000	0,006	-0,132
-561,773	-200,000	-0,011	-0,094
-560,758	181,410	-0,111	-0,121
-559,744	-200,000	0,002	0,095
-558,729	48,834	0,045	0,031
-557,715	717,175	-0,044	0,087
-556,700	37,578	0,151	0,099
-555,685	112,806	-0,073	0,065
-554,671	37,212	0,129	-0,084
-553,656	60,999	0,110	0,081
-552,642	800,000	0,036	0,115
-551,627	162,376	0,068	0,071
-550,612	-52,056	-0,013	0,004
-549,598	-167,033	-0,052	0,002
-548,583	-150,217	0,041	0,002
-547,569	327,788	0,028	0,039
-546,554	175,801	-0,034	-0,036
-545,539	-200,000	0,081	0,000
-544,525	-200,000	-0,013	0,201
-543,510	-200,000	0,025	-0,095
-542,496	800,000	-0,034	-0,087
-541,481	64,355	0,054	-0,040
-540,466	-200,000	-0,003	-0,019
-539,452	-124,105	0,084	-0,010
-538,437	-200,000	0,026	-0,147
-537,423	151,361	-0,087	0,088
-536,408	325,532	0,059	0,083
-535,393	-76,569	-0,124	0,032
-534,379	800,000	-0,004	0,010
-533,364	-27,679	-0,027	0,011
-532,350	327,882	0,012	0,017
-531,335	-72,064	-0,124	-0,034
-530,321	388,770	-0,076	0,116
-529,306	-200,000	0,008	-0,049
-528,291	-200,000	-0,004	-0,110
-527,277	-200,000	-0,009	0,050
-526,262	-200,000	0,001	0,015
-525,248	-39,147	-0,060	0,023
-524,233	-103,306	0,054	0,009
-523,218	-200,000	-0,001	0,050
-522,204	-200,000	0,012	-0,049
-521,189	28,307	-0,072	-0,045
-520,175	-184,500	0,022	0,000
-519,160	38,585	0,087	-0,057
-518,145	-200,000	0,012	0,051
-517,131	30,242	0,066	0,042
-516,116	-58,533	0,068	-0,022
-515,102	286,579	0,122	-0,163
-514,087	197,396	-0,055	0,063
-513,072	-200,000	0,020	-0,073
-512,058	-200,000	-0,001	-0,126
-511,043	1,419	0,129	-0,068
-510,029	800,000	-0,071	0,161
-509,014	53,660	-0,065	-0,046
-507,999	-4,196	-0,082	0,042
-506,985	259,793	0,029	0,037
-505,970	-46,030	0,071	0,026
-504,956	-78,215	0,045	0,011
-503,941	99,768	0,059	-0,050
-502,926	-102,937	0,114	-0,020
-501,912	-200,000	0,021	0,090
-500,897	-200,000	-0,014	0,108
-499,883	-200,000	-0,054	-0,000
-498,868	131,088	-0,164	-0,155
-497,853	-200,000	-0,004	-0,144
-496,839	285,767	0,029	0,038
-495,824	6,151	-0,087	0,048
-494,810	195,165	0,027	0,031
-493,795	-100,882	-0,129	0,023
-492,781	535,032	0,060	-0,105
-491,766	-200,000	-0,017	-0,085
-490,751	-42,315	-0,139	0,052
-489,737	370,304	0,047	0,071
-488,722	11,066	0,136	-0,077
-487,708	-98,268	-0,015	-0,003
-486,693	-200,000	0,001	-0,055
-485,678	550,592	0,030	-0,054
-484,664	-50,471	0,069	-0,024
-483,649	-200,000	0,001	-0,170
-482,635	-200,000	0,003	-0,102
-481,620	288,761	0,005	-0,007
-480,605	-200,000	0,023	0,109
-479,591	-200,000	0,011	-0,063
-478,576	-35,983	-0,158	-0,063
-477,562	330,959	-0,055	-0,078
-476,547	-200,000	-0,006	-0,073
-475,532	-200,000	-0,001	0,019
-474,518	-200,000	0,010	0,052
-473,503	800,000	0,063	0,181
-472,489	-179,470	-0,100	-0,002
-471,474	-25,251	-0,141	0,061
-470,459	273,714	0,003	-0,004
-469,445	94,885	-0,120	-0,101
-468,430	-200,000	-0,001	0,090
-467,416	-145,491	-0,064	0,004
-466,401	-200,000	-0,006	0,049
-465,386	-45,020	0,080	-0,029
-464,372	711,013	0,057	-0,111
-463,357	-63,587	-0,134	0,040
-462,343	-123,867	0,088	-0,010
-461,328	-200,000	-0,043	-0,200
-460,313	182,304	-0,029	0,032
-459,299	800,000	0,029	0,082
-458,284	-200,000	-0,007	0,172
-457,270	800,000	-0,018	0,057
-456,255	-200,000	-0,004	0,258
-455,241	357,231	-0,025	0,037
-454,226	87,122	0,080	0,065
-453,211	800,000	-0,053	-0,140
-452,197	99,277	-0,078	0,066
-451,182	307,472	0,028	-0,039
-450,168	-128,892	0,026	-0,003
-449,153	47,237	0,138	0,095
-448,138	53,427	0,018	0,013
-447,124	-200,000	-0,001	-0,007
-446,109	170,750	0,010	0,010
-445,095	265,617	-0,050	0,065
-444,080	-45,479	-0,062	0,023
-443,065	-87,784	0,074	-0,016
-442,051	-200,000	-0,009	-0,056
-441,036	745,415	-0,016	0,031
-440,022	88,694	-0,044	0,036
-439,007	-83,586	-0,026	0,006
-437,992	-15,978	0,063	0,029
-436,978	86,047	-0,073	-0,059
-435,963	-82,652	0,016	0,004
-434,949	451,045	0,049	-0,080
-433,934	-200,000	-0,005	-0,155
-432,919	388,519	0,030	-0,046
-431,905	-200,000	-0,014	-0,057
-430,890	-82,921	0,069	-0,016
-429,876	-200,000	0,035	0,191
-428,861	-200,000	0,001	0,016
-427,846	-168,983	0,071	-0,002
-426,832	800,000	0,010	-0,027
-425,817	-200,000	0,006	-0,137
-424,803	-11,992	-0,068	0,033
-423,788	539,582	-0,029	0,051
-422,773	162,703	-0,080	0,083
-421,759	-200,000	-0,012	0,065
-420,744	-200,000	0,038	-0,152
-419,730	638,117	-0,022	0,042
-418,715	-13,571	-0,012	0,006
-417,701	137,222	-0,027	0,026
-416,686	510,256	-0,050	-0,086
-415,671	315,754	0,062	0,086
-414,657	800,000	0,066	0,146
-413,642	68,890	-0,089	-0,067
-412,628	-200,000	-0,005	0,091
-411,613	800,000	-0,031	0,075
-410,598	15,152	-0,188	-0,108
-409,584	-200,000	0,031	0,122
-408,569	14,930	0,093	-0,053
-407,555	-125,648	0,145	0,016
-406,540	387,047	-0,049	-0,074
-405,525	800,000	-0,064	-0,176
-404,511	242,023	0,008	-0,010
-403,496	11,135	-0,047	-0,026
-402,482	298,582	0,036	0,048
-401,467	60,857	0,022	-0,016
-400,452	76,597	-0,057	-0,044
-399,438	800,000	0,026	-0,064
-398,423	800,000	0,037	-0,088
-397,409	-38,179	-0,167	0,065
-396,394	-200,000	0,027	-0,087
-395,379	800,000	0,052	-0,162
-394,365	356,392	0,049	0,072
-393,350	52,955	0,138	0,097
-392,336	-200,000	-0,008	0,166
-391,321	94,911	-0,090	-0,075
-390,306	-200,000	0,022	-0,174
-389,292	-80,752	0,073	-0,018
-388,277	-162,479	0,059	-0,002
-387,263	-200,000	-0,022	-0,247
-386,248	202,360	0,042	-0,048
-385,233	-151,462	0,206	0,011
-384,219	652,888	0,063	0,120
-383,204	-200,000	0,028	-0,149
-382,190	-200,000	-0,005	-0,179
-381,175	79,999	-0,146	0,115
-380,160	16,088	-0,002	-0,001
-379,146	-200,000	0,016	0,068
-378,131	-200,000	0,013	-0,090
-377,117	16,754	0,103	-0,060
-376,102	-68,935	0,034	-0,010
-375,088	800,000	0,022	-0,066
-374,073	78,312	0,104	-0,082
-373,058	800,000	0,022	-0,069
-372,044	65,880	0,050	0,037
-371,029	800,000	0,044	-0,125
-370,015	425,918	0,073	0,116
-369,000	117,082	-0,017	0,015
-367,985	195,658	0,069	-0,077
-366,971	-33,957	-0,039	-0,016
-365,956	800,000	0,023	0,056
-364,942	-44,411	0,155	0,057
-363,927	521,711	0,082	-0,142
-362,912	-200,000	0,012	-0,115
-361,898	-76,873	-0,045	-0,011
-360,883	532,485	0,052	-0,091
-359,869	614,885	-0,042	0,077
-358,854	1,222	-0,049	0,026
-357,839	800,000	0,050	0,143
-356,825	800,000	0,016	0,044
-355,810	-46,124	-0,040	-0,015
-354,796	-200,000	-0,004	-0,063
-353,781	-41,064	-0,091	0,034
-352,766	800,000	-0,014	0,032
-351,752	245,387	-0,007	-0,009
-350,737	709,687	-0,027	-0,053
-349,723	368,626	0,067	0,100
-348,708	-200,000	0,022	0,088
-347,693	800,000	-0,012	-0,033
-346,679	-162,869	-0,106	0,004
-345,664	800,000	-0,010	0,027
-344,650	-200,000	0,003	0,073
-343,635	-200,000	0,028	0,141
-342,620	-200,000	0,047	0,000
-341,606	-200,000	0,035	0,000
-340,591	9,927	-0,066	-0,037
-339,577	770,027	-0,015	-0,029
-338,562	800,000	-0,041	0,097
-337,548	442,734	0,035	0,057
-336,533	-200,000	-0,026	0,154
-335,518	-200,000	0,003	0,087
-334,504	12,014	-0,087	-0,049
-333,489	-200,000	0,035	0,164
-332,475	-200,000	-0,015	0,080
-331,460	-200,000	-0,017	0,096
-330,445	-77,046	0,036	-0,009
-329,431	-44,752	-0,118	0,043
-328,416	375,453	0,043	0,065
-327,402	477,071	0,090	0,150
-326,387	-200,000	-0,001	-0,108
-325,372	-49,614	-0,047	0,016
-324,358	515,956	0,046	-0,079
-323,343	800,000	0,016	0,038
-322,329	-200,000	0,034	0,145
-321,314	800,000	0,056	0,125
-320,299	-71,102	-0,079	0,022
-319,285	-31,359	-0,136	0,056
-318,270	-176,593	-0,125	0,002
-317,256	47,607	-0,026	0,018
-316,241	800,000	0,040	0,107
-315,226	28,592	0,094	-0,058
-314,212	15,564	-0,071	0,041
-313,197	64,972	0,068	0,051
-312,183	-162,494	0,105	-0,004
-311,168	577,603	0,091	-0,163
-310,153	409,775	0,031	0,048
-309,139	-21,160	-0,040	-0,018
-308,124	240,421	-0,044	0,054
-307,110	172,842	-0,033	-0,035
-306,095	7,303	0,036	-0,019
-305,080	800,000	-0,006	-0,015
-304,066	-200,000	-0,003	0,014
-303,051	64,868	0,115	-0,085
-302,037	-200,000	0,013	-0,044
-301,022	-3,562	-0,075	0,038
-300,008	-55,544	-0,058	-0,019
-298,993	-110,205	-0,063	0,010
-297,978	207,923	0,070	0,081
-296,964	170,513	0,026	0,027
-295,949	46,939	0,059	-0,040
-294,935	-200,000	-0,011	-0,132
-293,920	152,916	0,059	0,059
-292,905	-123,854	0,131	0,015
-291,891	-200,000	0,004	0,069
-290,876	274,923	-0,046	-0,060
-289,862	-200,000	-0,015	-0,086
-288,847	800,000	-0,020	-0,057
-287,832	-20,102	0,081	-0,037
-286,818	-121,852	-0,125	-0,015
-285,803	326,273	0,069	0,097
-284,789	181,741	0,019	0,020
-283,774	16,041	-0,034	-0,019
-282,759	-200,000	-0,006	0,117
-281,745	69,491	-0,036	-0,027
-280,730	800,000	-0,026	0,075
-279,716	-93,543	0,035	-0,007
-278,701	10,038	0,107	0,060
-277,686	-33,976	-0,066	0,027
-276,672	800,000	-0,037	-0,114
-275,657	-110,990	-0,094	0,014
-274,643	800,000	0,048	-0,118
-273,628	-200,000	0,004	-0,176
-272,613	-20,150	-0,056	-0,025
-271,599	350,850	-0,059	0,086
-270,584	-200,000	0,001	-0,031
-269,570	233,983	0,085	0,103
-268,555	75,833	-0,067	-0,052
-267,540	-200,000	-0,036	0,155
-266,526	-200,000	0,006	-0,183
-265,511	-40,890	-0,078	-0,029
-264,497	-200,000	0,011	-0,047
-263,482	-200,000	-0,013	-0,078
-262,467	-99,295	0,070	0,013
-261,453	800,000	0,040	-0,082
-260,438	-200,000	0,033	0,168
-259,424	-200,000	-0,034	0,139
-258,409	-200,000	-0,013	-0,086
-257,395	-200,000	-0,041	0,141
-256,380	295,619	-0,029	0,039
-255,365	-200,000	-0,010	0,101
-254,351	800,000	0,026	0,068
-253,336	381,871	-0,054	-0,081
-252,322	-200,000	0,008	-0,059
-251,307	-109,922	0,083	0,013
-250,292	394,356	-0,019	0,029
-249,278	-200,000	-0,009	0,052
-248,263	434,630	0,068	0,109
-247,249	-200,000	0,013	0,050
-246,234	-200,000	-0,024	-0,080
-245,219	609,540	-0,139	-0,254
-244,205	-200,000	0,034	-0,121
-243,190	264,647	0,062	0,080
-242,176	-200,000	0,005	-0,022
-241,161	-28,959	0,061	0,025
-240,146	-118,346	0,117	0,015
-239,132	-107,338	0,057	0,009
-238,117	-135,094	-0,018	0,002
-237,103	22,138	-0,090	0,054
-236,088	-200,000	0,017	0,146
-235,073	-122,582	0,057	-0,007
-234,059	165,426	-0,027	-0,028
-233,044	102,428	0,072	0,062
-232,030	800,000	0,031	-0,086
-231,015	-138,043	0,083	-0,007
-230,000	-200,000	0,018	0,133
-228,986	-200,000	-0,002	-0,083
-227,971	-200,000	0,005	-0,024
-226,957	-36,327	0,084	0,033
-225,942	564,656	0,067	0,119
-224,927	-200,000	0,006	-0,085
-223,913	-200,000	0,009	-0,227
-222,898	40,571	-0,044	-0,029
-221,884	180,201	-0,035	0,037
-220,869	-140,794	-0,085	-0,006
-219,855	-124,623	0,102	-0,011
-218,840	49,167	0,087	0,059
-217,825	-200,000	-0,022	-0,100
-216,811	-200,000	-0,010	-0,037
-215,796	-138,025	-0,140	-0,011
-214,782	-36,053	0,081	0,032
-213,767	14,826	-0,070	0,040
-212,752	-23,429	0,111	-0,048
-211,738	-120,859	0,043	-0,005
-210,723	90,935	-0,073	-0,060
-209,709	7,116	-0,112	0,061
-208,694	43,026	-0,071	0,047
-207,679	70,901	-0,060	-0,045
-206,665	431,456	0,023	-0,037
-205,650	-1,706	0,072	0,037
-204,636	-200,000	-0,033	0,151
-203,621	-200,000	-0,001	0,117
-202,606	-91,408	-0,085	0,018
-201,592	449,877	-0,058	-0,093
-200,577	107,239	-0,039	0,034
-199,563	253,900	0,069	0,086
-198,548	-200,000	0,012	-0,166
-197,533	-200,000	0,052	0,235
-196,519	-47,728	0,066	0,023
-195,504	134,291	-0,041	-0,039
-194,490	-174,973	-0,085	-0,002
-193,475	800,000	-0,012	0,025
-192,460	-181,772	0,100	-0,001
-191,446	-47,420	-0,097	-0,034
-190,431	51,360	0,096	-0,066
-189,417	151,507	0,040	0,039
-188,402	-107,636	-0,064	0,010
-187,387	14,176	-0,052	-0,029
-186,373	-200,000	0,002	-0,098
-185,358	-200,000	0,004	0,046
-184,344	800,000	0,022	0,067
-183,329	307,339	-0,035	0,048
-182,315	-200,000	0,016	0,079
-181,300	-52,002	-0,093	0,031
-180,285	34,931	-0,068	-0,043
-179,271	93,595	0,081	0,067
-178,256	-89,509	-0,095	-0,020
-177,242	274,510	-0,068	0,088
-176,227	-127,382	0,065	0,007
-175,212	-68,368	-0,110	-0,031
-174,198	12,097	0,113	0,063
-173,183	568,495	-0,037	-0,067
-172,169	146,080	0,112	-0,110
-171,154	237,485	0,022	-0,027
-170,139	47,437	0,077	0,052
-169,125	-200,000	-0,008	0,038
-168,110	467,379	-0,052	-0,085
-167,096	800,000	0,058	-0,154
-166,081	-69,536	-0,124	0,034
-165,066	615,282	-0,081	-0,149
-164,052	-138,939	-0,036	0,003
-163,037	227,213	0,110	0,131
-162,023	34,613	-0,037	-0,024
-161,008	494,984	-0,009	-0,015
-159,993	482,395	0,031	-0,051
-158,979	-84,000	0,004	0,001
-157,964	-48,237	-0,048	0,017
-156,950	407,580	-0,028	0,043
-155,935	800,000	0,034	-0,107
-154,920	109,960	0,086	-0,076
-153,906	629,108	-0,026	-0,048
-152,891	-86,305	0,086	0,019
-151,877	-200,000	-0,015	-0,071
-150,862	-7,850	-0,107	-0,052
-149,847	800,000	0,046	0,099
-148,833	-200,000	-0,060	0,000
-147,818	130,729	0,098	0,092
-146,804	-47,888	0,200	0,070
-145,789	42,546	0,045	0,030
-144,775	-200,000	0,008	-0,120
-143,760	800,000	0,030	0,064
-142,745	-107,151	-0,036	0,006
-141,731	-30,397	0,079	-0,032
-140,716	201,277	0,050	-0,056
-139,702	130,897	-0,110	0,103
-138,687	-200,000	-0,003	-0,023
-137,672	335,468	-0,026	0,037
-136,658	18,506	-0,059	-0,034
-135,643	-200,000	0,027	-0,128
-134,629	-200,000	-0,034	0,164
-133,614	-104,779	0,080	-0,013
-132,599	-70,322	0,070	-0,019
-131,585	-200,000	0,021	0,129
-130,570	-65,157	0,064	0,019
-129,556	11,926	-0,191	-0,106
-128,541	-25,186	-0,069	-0,029
-127,526	422,627	-0,048	-0,076
-126,512	800,000	-0,035	0,082
-125,497	-36,418	-0,115	0,045
-124,483	-123,122	0,171	0,020
-123,468	86,896	0,151	0,121
-122,453	-69,292	0,076	0,021
-121,439	357,250	-0,057	-0,083
-120,424	-200,000	-0,006	0,057
-119,410	21,156	0,144	0,085
-118,395	-100,051	-0,108	0,019
-117,380	-37,538	0,025	-0,010
-116,366	800,000	0,002	-0,004
-115,351	451,823	-0,025	0,040
-114,337	50,975	-0,119	-0,082
-113,322	-147,899	-0,211	-0,013
-112,307	-121,376	0,143	-0,017
-111,293	47,167	0,090	-0,061
-110,278	-16,913	-0,090	0,041
-109,264	442,927	-0,066	0,105
-108,249	490,678	0,063	-0,105
-107,234	-27,671	-0,047	-0,020
-106,220	-200,000	-0,006	0,050
-105,205	-125,020	0,054	0,006
-104,191	433,101	0,082	0,130
-103,176	245,462	-0,032	0,039
-102,162	-200,000	-0,018	-0,091
-101,147	668,439	0,025	0,046
-100,132	-55,803	-0,124	-0,040
-99,118	154,551	-0,079	-0,078
-98,103	-84,981	0,047	-0,011
-97,089	-61,133	0,147	-0,045
-96,074	-145,230	0,116	0,007
-95,059	353,391	0,031	-0,045
-94,045	-10,921	0,083	0,040
-93,030	-25,630	0,041	-0,017
-92,016	-90,291	0,047	-0,010
-91,001	800,000	0,059	-0,123
-89,986	-14,112	-0,198	0,092
-88,972	189,632	-0,045	-0,049
-87,957	-200,000	-0,019	-0,065
-86,943	256,737	-0,085	-0,106
-85,928	-147,291	-0,097	-0,006
-84,913	461,828	0,056	-0,092
-83,899	-200,000	-0,022	0,191
-82,884	-6,350	0,094	-0,047
-81,870	268,486	-0,087	0,111
-80,855	-155,604	0,072	-0,003
-79,840	-94,081	0,054	0,011
-78,826	800,000	-0,059	0,138
-77,811	-162,929	-0,070	0,002
-76,797	376,960	0,053	0,079
-75,782	31,139	0,019	-0,012
-74,767	800,000	0,052	0,163
-73,753	-200,000	0,012	0,219
-72,738	158,282	0,032	-0,032
-71,724	-101,847	-0,192	-0,033
-70,709	455,612	0,046	-0,075
-69,694	-200,000	-0,021	-0,075
-68,680	484,870	0,081	0,134
-67,665	-121,589	0,088	0,010
-66,651	71,327	0,096	0,072
-65,636	800,000	0,030	0,088
-64,622	22,319	0,014	0,008
-63,607	-8,857	-0,152	-0,073
-62,592	-42,620	0,061	-0,022
-61,578	153,360	-0,087	0,086
-60,563	643,750	-0,020	0,037
-59,549	36,973	-0,060	0,038
-58,534	-124,936	-1,223	-0,135
-57,519	748,757	-0,823	-1,618
-56,505	-200,000	-1,008	-4,427
-55,490	47,757	0,629	-0,425
-54,476	800,000	4,909	11,762
-53,461	-200,000	13,532	252,372
-52,446	-200,000	688,933	2263,950
-51,432	594,217	1622,482	2922,291
-50,417	120,462	1635,679	1473,621
-49,403	73,483	1289,441	978,192
-48,388	38,339	1024,369	660,536
-47,373	24,454	981,848	587,483
-46,359	23,696	971,589	578,836
-45,344	22,734	967,688	573,346
-44,330	22,682	966,066	572,191
-43,315	22,589	964,430	570,896
-42,300	22,539	963,624	570,236
-41,286	22,601	962,514	569,756
-40,271	22,476	961,663	568,823
-39,257	22,533	960,790	568,472
-38,242	22,537	959,716	567,825
-37,227	22,562	958,861	567,377
-36,213	22,444	958,076	566,510
-35,198	22,498	957,183	566,135
-34,184	22,579	956,639	566,050
-33,169	22,456	955,757	565,110
-32,154	22,445	954,886	564,537
-31,140	22,577	953,909	564,363
-30,125	22,567	953,092	563,824
-29,111	22,659	952,041	563,474
-28,096	22,533	951,669	562,827
-27,082	22,525	950,945	562,353
-26,067	22,531	950,243	561,933
-25,052	22,599	949,467	561,670
-24,038	22,560	948,931	561,205
-23,023	22,555	948,234	560,757
-22,009	22,629	947,612	560,603
-20,994	22,546	946,983	559,941
-19,979	22,517	946,387	559,477
-18,965	22,526	945,753	559,108
-17,950	22,575	944,998	558,795
-16,936	22,510	944,451	558,244
-15,921	22,505	943,654	557,734
-14,906	22,471	942,992	557,211
-13,892	22,419	942,323	556,627
-12,877	22,450	941,823	556,409
-11,863	22,396	941,191	555,843
-10,848	22,445	940,604	555,629
-9,833	22,562	940,121	555,692
-8,819	22,527	939,497	555,190
-7,804	22,449	938,874	554,555
-6,790	22,519	938,105	554,298
-5,775	22,493	937,658	553,932
-4,760	22,441	937,145	553,442
-3,746	22,416	936,461	552,937
-2,731	22,324	935,694	552,171
-1,717	22,220	934,992	551,409
-0,702	22,232	934,361	551,052
0,313	22,073	933,733	551,012
1,327	25,171	931,565	559,421
2,342	34,761	796,501	503,857
3,356	32,895	451,648	282,871
4,371	2,003	293,505	153,050
5,386	-2,674	274,384	138,649
6,400	-4,136	268,713	134,416
7,415	-4,408	266,317	132,955
8,429	-4,104	264,948	132,537
9,444	-4,092	264,192	132,159
10,459	-4,160	263,661	131,820
11,473	-4,260	262,897	131,335
12,488	-4,213	262,309	131,072
13,502	-4,541	261,977	130,599
14,517	-4,573	261,554	130,347
15,531	-4,461	261,016	130,167
16,546	-4,263	260,802	130,228
17,561	-4,426	260,461	129,900
18,575	-4,179	259,965	129,862
19,590	-4,532	259,740	129,421
20,604	-4,382	259,489	129,420
21,619	-4,434	259,152	129,194
22,634	-4,384	258,600	128,952
23,648	-4,475	258,626	128,872
24,663	-4,239	258,075	128,795
25,677	-4,391	257,893	128,558
26,692	-4,546	257,765	128,345
27,707	-4,463	257,455	128,253
28,721	-4,592	257,281	128,040
29,736	-4,455	256,866	127,944
30,750	-4,668	256,663	127,643
31,765	-4,615	256,440	127,568
32,780	-4,596	256,200	127,453
33,794	-4,449	256,018	127,481
34,809	-4,620	255,773	127,197
35,823	-4,619	255,345	126,974
36,838	-4,465	255,298	127,075
37,853	-4,637	255,124	126,825
38,867	-4,620	254,866	126,701
39,882	-4,681	254,596	126,502
40,896	-4,466	254,458	126,610
41,911	-4,506	254,156	126,414
42,926	-4,634	253,938	126,183
43,940	-4,616	253,626	126,032
44,955	-4,578	253,402	125,943
45,969	-4,614	253,183	125,790
46,984	-4,790	252,895	125,484
47,999	-4,993	252,578	125,139
49,013	-5,117	252,391	124,927
50,028	-5,224	252,208	124,733
51,042	-5,399	252,048	124,491
52,057	-5,319	251,702	124,378
53,071	-5,232	251,615	124,399
54,086	-5,155	251,334	124,316
55,101	-5,122	251,216	124,275
56,115	-4,775	251,191	124,551
57,130	-4,557	251,018	124,642
58,144	-4,467	250,829	124,614
59,159	-4,379	250,515	124,524
60,174	-4,142	250,348	124,633
61,188	-4,352	250,239	124,387
62,203	-4,448	250,038	124,194
63,217	-4,400	249,770	124,091
64,232	-4,329	249,468	123,990
65,247	-4,126	249,207	124,024
66,261	-4,655	249,167	123,540
67,276	-4,493	248,758	123,465
68,290	-4,763	248,515	123,103
69,305	-4,831	248,306	122,930
70,320	-4,718	248,164	122,945
71,334	-4,389	247,945	123,106
72,349	-4,272	247,866	123,155
73,363	-4,263	247,761	123,099
74,378	-4,410	247,499	122,833
75,393	-4,349	247,321	122,785
76,407	-4,342	247,029	122,636
77,422	-4,503	246,910	122,429
78,436	-4,415	246,739	122,408
79,451	-4,347	246,501	122,337
80,466	-4,360	246,164	122,147
81,480	-4,838	246,123	121,713
82,495	-4,570	245,612	121,675
83,509	-4,675	245,804	121,671
84,524	-4,739	245,487	121,449
85,539	-4,899	245,341	121,232
86,553	-4,818	245,034	121,137
87,568	-4,818	244,980	121,099
88,582	-4,431	244,608	121,229
89,597	-4,689	244,441	120,920
90,611	-4,650	244,457	120,949
91,626	-4,375	244,125	121,004
92,641	-4,393	243,993	120,913
93,655	-4,708	243,905	120,595
94,670	-4,523	243,601	120,589
95,684	-4,715	243,392	120,315
96,699	-4,643	243,431	120,383
97,714	-4,874	243,121	120,027
98,728	-4,578	242,920	120,163
99,743	-4,740	242,695	119,907
100,757	-4,785	242,441	119,733
101,772	-4,730	242,194	119,646
102,787	-4,626	242,011	119,630
103,801	-4,798	242,085	119,514
104,816	-4,561	241,955	119,636
105,830	-4,358	241,714	119,674
106,845	-4,570	241,728	119,494
107,860	-4,477	241,319	119,359
108,874	-4,575	241,146	119,181
109,889	-4,478	240,823	119,092
110,903	-4,450	240,622	119,005
111,918	-4,605	240,527	118,819
112,933	-4,598	240,431	118,767
113,947	-4,618	240,307	118,679
114,962	-4,451	240,155	118,730
115,976	-4,396	239,917	118,647
116,991	-4,232	239,594	118,610
118,006	-4,600	239,511	118,257
119,020	-4,768	239,449	118,079
120,035	-4,653	239,479	118,178
121,049	-4,420	239,151	118,196
122,064	-4,452	238,904	118,037
123,079	-4,544	238,762	117,881
124,093	-4,624	238,547	117,700
125,108	-4,826	238,290	117,397
126,122	-4,930	238,194	117,255
127,137	-4,767	237,734	117,151
128,151	-4,741	237,812	117,199
129,166	-4,691	237,540	117,096
130,181	-4,708	237,429	117,017
131,195	-4,740	237,213	116,875
132,210	-4,624	237,063	116,884
133,224	-4,401	236,958	117,002
134,239	-4,580	236,919	116,827
135,254	-4,456	236,602	116,760
136,268	-4,631	236,387	116,503
137,283	-4,803	236,281	116,302
138,297	-4,780	235,904	116,124
139,312	-4,929	235,781	115,934
140,327	-4,652	235,732	116,122
141,341	-4,302	235,730	116,392
142,356	-4,180	235,528	116,380
143,370	-4,308	235,407	116,207
144,385	-4,220	235,235	116,182
145,400	-4,190	235,095	116,126
146,414	-4,303	234,916	115,938
147,429	-4,177	234,763	115,952
148,443	-4,211	234,572	115,821
149,458	-4,283	234,315	115,626
150,473	-4,235	234,259	115,626
151,487	-4,239	233,988	115,479
152,502	-4,242	233,911	115,428
153,516	-4,278	233,587	115,229
154,531	-4,131	233,391	115,239
155,546	-4,322	233,323	115,044
156,560	-4,482	233,175	114,834
157,575	-4,274	233,004	114,904
158,589	-4,209	232,733	114,812
159,604	-4,260	232,686	114,738
160,619	-4,028	232,474	114,806
161,633	-4,083	232,354	114,694
162,648	-4,058	232,166	114,610
163,662	-4,027	232,011	114,548
164,677	-4,253	231,954	114,332
165,692	-4,234	231,848	114,284
166,706	-4,108	231,626	114,263
167,721	-4,260	231,630	114,136
168,735	-3,918	231,344	114,254
169,750	-4,180	231,260	113,996
170,764	-4,047	230,946	113,936
171,779	-3,977	230,879	113,948
172,794	-4,035	230,750	113,828
173,808	-4,318	230,513	113,479
174,823	-4,694	230,248	113,044
175,837	-4,656	230,006	112,945
176,852	-4,416	229,916	113,078
177,867	-4,118	229,822	113,255
178,881	-4,175	229,773	113,176
179,896	-4,115	229,695	113,175
180,910	-4,137	229,510	113,056
181,925	-3,908	229,271	113,106
182,940	-3,995	229,058	112,923
183,954	-4,017	229,013	112,874
184,969	-3,877	228,838	112,887
185,983	-3,919	228,647	112,750
186,998	-3,863	228,481	112,701
188,013	-4,052	228,409	112,510
189,027	-4,093	228,319	112,423
190,042	-4,241	228,160	112,220
191,056	-4,091	227,906	112,201
192,071	-3,968	227,810	112,239
193,086	-3,868	227,628	112,217
194,100	-3,827	227,366	112,109
195,115	-4,282	227,025	111,581
196,129	-4,914	226,892	111,018
197,144	-2,620	227,688	113,170
198,159	1,093	228,615	116,495
199,173	3,806	229,360	118,967
200,188	4,260	229,449	119,354
201,202	4,501	229,061	119,327
202,217	4,526	229,019	119,314
203,232	4,464	228,896	119,192
204,246	4,671	228,892	119,339
205,261	4,545	228,698	119,129
206,275	4,571	228,690	119,135
207,290	4,567	228,345	118,942
208,304	4,781	228,214	119,027
209,319	4,646	228,038	118,822
210,334	4,628	227,782	118,663
211,348	4,436	227,562	118,391
212,363	4,160	227,316	118,041
213,377	3,788	227,136	117,652
214,392	3,973	226,913	117,667
215,407	4,046	226,790	117,649
216,421	4,186	226,713	117,705
217,436	3,965	226,539	117,436
218,450	3,669	226,225	117,037
219,465	3,541	226,178	116,904
220,480	3,704	226,173	117,016
221,494	3,721	225,969	116,913
222,509	3,863	225,997	117,025
223,523	3,627	225,629	116,645
224,538	3,887	225,488	116,759
225,553	3,762	225,392	116,604
226,567	4,130	225,292	116,821
227,582	4,075	225,230	116,737
228,596	4,370	225,062	116,863
229,611	3,941	224,898	116,442
230,626	3,914	224,569	116,241
231,640	3,863	224,393	116,101
232,655	3,820	224,553	116,142
233,669	4,525	224,464	116,618
234,684	4,474	224,336	116,502
235,699	4,351	224,044	116,247
236,713	4,067	223,870	115,932
237,728	3,911	223,686	115,710
238,742	3,845	223,340	115,471
239,757	3,856	223,269	115,432
240,772	3,854	223,278	115,425
241,786	3,914	223,012	115,322
242,801	3,954	222,979	115,325
243,815	4,374	222,898	115,587
244,830	4,295	222,877	115,507
245,844	3,934	222,590	115,078
246,859	3,985	222,412	115,014
247,874	4,254	222,246	115,118
248,888	4,048	222,232	114,947
249,903	3,990	221,954	114,750
250,917	3,992	221,799	114,661
251,932	3,810	221,616	114,420
252,947	3,903	221,456	114,397
253,961	3,771	221,366	114,242
254,976	4,016	221,077	114,265
255,990	4,089	221,143	114,343
257,005	4,068	221,062	114,275
258,020	4,267	220,865	114,311
259,034	4,312	220,679	114,237
260,049	4,309	220,534	114,150
261,063	4,136	220,340	113,911
262,078	4,205	220,344	113,954
263,093	4,194	220,202	113,863
264,107	4,315	220,059	113,868
265,122	4,134	219,847	113,615
266,136	4,250	219,857	113,696
267,151	4,366	219,706	113,692
268,166	4,090	219,361	113,301
269,180	3,658	219,176	112,878
270,195	3,745	219,018	112,850
271,209	3,833	218,931	112,859
272,224	3,865	218,768	112,789
273,239	3,904	218,649	112,746
274,253	3,903	218,405	112,610
275,268	3,810	218,305	112,480
276,282	3,547	218,160	112,203
277,297	3,551	218,004	112,115
278,312	3,760	217,842	112,175
279,326	3,937	217,803	112,273
280,341	4,028	217,566	112,208
281,355	3,948	217,596	112,155
282,370	3,804	217,414	111,946
283,384	3,656	217,131	111,683
284,399	3,470	216,956	111,448
285,414	3,404	216,863	111,342
286,428	3,747	216,822	111,560
287,443	4,052	216,700	111,709
288,457	4,020	216,570	111,608
289,472	4,002	216,445	111,522
290,487	3,514	216,115	110,988
291,501	3,416	215,972	110,834
292,516	3,668	215,820	110,928
293,530	3,713	215,773	110,927
294,545	3,574	215,544	110,699
295,560	3,389	215,591	110,580
296,574	3,910	215,337	110,814
297,589	3,755	215,130	110,587
298,603	3,865	215,173	110,679
299,618	3,971	214,982	110,647
300,633	3,908	214,908	110,553
301,647	4,147	214,861	110,691
302,662	4,127	214,744	110,607
303,676	4,151	214,578	110,528
304,691	4,211	214,418	110,479
305,706	4,364	214,165	110,449
306,720	4,344	214,041	110,360
307,735	3,947	213,932	110,010
308,749	3,853	213,750	109,840
309,764	4,102	213,691	109,978
310,779	4,252	213,628	110,043
311,793	4,274	213,405	109,933
312,808	4,018	213,275	109,674
313,822	3,928	213,165	109,544
314,837	3,687	212,957	109,256
315,852	3,818	212,734	109,224
316,866	3,914	212,666	109,248
317,881	4,063	212,609	109,315
318,895	3,886	212,528	109,138
319,910	3,919	212,352	109,061
320,925	3,772	212,002	108,768
321,939	3,420	211,930	108,472
322,954	3,413	211,820	108,401
323,968	4,001	211,826	108,810
324,983	3,722	211,817	108,598
325,997	4,331	211,447	108,829
327,012	4,090	211,367	108,608
328,027	3,960	211,273	108,459
329,041	4,074	211,260	108,522
330,056	4,228	211,134	108,557
331,070	3,978	210,875	108,238
332,085	3,636	210,580	107,836
333,100	3,662	210,469	107,789
334,114	4,113	210,416	108,068
335,129	4,115	210,162	107,930
336,143	3,806	210,071	107,657
337,158	3,892	209,888	107,613
338,173	3,768	209,876	107,511
339,187	3,619	209,640	107,276
340,202	3,689	209,483	107,235
341,216	3,541	209,234	106,995
342,231	3,754	209,252	107,143
343,246	3,655	208,991	106,931
344,260	3,470	209,075	106,835
345,275	3,903	208,840	107,007
346,289	3,863	208,804	106,951
347,304	4,041	208,684	107,004
348,319	3,994	208,554	106,895
349,333	3,955	208,421	106,790
350,348	4,217	208,223	106,861
351,362	4,080	208,212	106,751
352,377	4,159	208,055	106,716
353,392	3,802	208,034	106,449
354,406	3,845	207,754	106,325
355,421	194,589	1347,825	1438,317
356,435	155,261	1486,837	1438,458
