DTS Sentinel unit serial number:	SN410029Multiplexer serial number:	ORYXHardware model number:	OX2-SRSoftware version number:	ORYX F/W v4,00 Oryx Data Collector v3.7.2.0data status	okinstallation	B6 Nyhavnadifferential loss correction	single-endedforward channel	channel 2reverse channel	N/Adate	2023/12/10time	00:25:08forward acquisition time	300,00reverse acquisition time	0,00gamma	499,1914k internal	0,3126k external	0,3126temperature offset calibration	1,0000default loss term (dB/km)	0,3820temperature slope calibration	1,0000multiplexer offset coefficient	1,0000multiplexer slope coefficient	1,0000fibre end	0,00T internal ref (°C)	21,81T ext. ref 1 (°C)	5,70T ext. ref 2 (°C)	5,69length (m)	temperature (°C)	Stokes	anti-Stokes-744,400	-200,000	0,001	-0,029
-743,385	90,600	-0,220	0,184
-742,371	-9,734	0,088	0,043
-741,356	-41,459	-0,287	0,109
-740,342	800,000	0,072	-0,149
-739,327	-45,189	-0,196	0,072
-738,312	49,517	0,090	0,063
-737,298	-111,361	-0,278	0,042
-736,283	-200,000	-0,003	-0,093
-735,269	-28,778	-0,178	0,076
-734,254	-145,393	-0,105	0,007
-733,239	-123,220	-0,464	-0,055
-732,225	-200,000	0,003	-0,065
-731,210	-200,000	0,015	0,123
-730,196	-200,000	-0,019	-0,083
-729,181	395,501	-0,083	0,129
-728,167	-126,242	-0,079	-0,009
-727,152	-104,004	0,098	-0,017
-726,137	230,853	-0,046	0,056
-725,123	-81,132	-0,077	-0,019
-724,108	-200,000	-0,051	-0,221
-723,094	694,266	0,022	-0,042
-722,079	28,208	-0,124	-0,077
-721,064	382,541	-0,054	0,083
-720,050	133,003	0,047	0,045
-719,035	-3,956	0,045	-0,023
-718,021	800,000	0,019	-0,044
-717,006	-18,455	-0,082	-0,038
-715,991	150,633	-0,056	-0,057
-714,977	-200,000	-0,071	0,000
-713,962	800,000	0,029	0,080
-712,948	482,499	0,042	0,072
-711,933	-32,506	0,044	0,018
-710,918	-128,837	-0,059	0,006
-709,904	-118,461	-0,129	0,017
-708,889	-110,091	-0,025	0,004
-707,875	307,102	-0,062	-0,086
-706,860	800,000	-0,023	-0,058
-705,845	438,533	-0,098	0,160
-704,831	354,148	0,030	-0,045
-703,816	7,502	-0,164	-0,091
-702,802	-200,000	0,040	-0,143
-701,787	-24,806	-0,108	-0,048
-700,772	115,438	0,027	-0,024
-699,758	329,494	0,059	-0,084
-698,743	181,678	-0,122	-0,134
-697,729	800,000	0,026	0,053
-696,714	-47,122	-0,044	-0,016
-695,699	-200,000	-0,015	0,059
-694,685	-88,844	-0,120	0,026
-693,670	-23,876	-0,073	0,032
-692,656	75,551	-0,049	-0,038
-691,641	-66,784	-0,095	-0,028
-690,627	-155,699	-0,089	-0,004
-689,612	-200,000	-0,009	-0,064
-688,597	-200,000	-0,021	-0,073
-687,583	800,000	0,034	-0,098
-686,568	800,000	-0,059	0,132
-685,554	51,035	0,070	-0,049
-684,539	119,791	0,091	-0,084
-683,524	-200,000	-0,003	-0,013
-682,510	-66,939	0,105	0,031
-681,495	-150,552	-0,024	-0,001
-680,481	-200,000	0,007	-0,119
-679,466	196,977	-0,092	-0,104
-678,451	138,830	-0,011	-0,011
-677,437	-167,595	0,047	0,001
-676,422	-200,000	0,022	0,124
-675,408	800,000	0,064	0,135
-674,393	-200,000	-0,022	0,084
-673,378	75,106	0,047	-0,037
-672,364	-200,000	-0,035	0,145
-671,349	84,533	-0,090	-0,073
-670,335	-57,224	0,096	0,031
-669,320	45,469	0,075	-0,051
-668,305	-97,468	-0,112	-0,021
-667,291	662,863	-0,049	0,094
-666,276	-71,174	-0,040	-0,011
-665,262	18,145	-0,038	0,022
-664,247	-34,744	-0,071	0,029
-663,232	378,424	-0,074	-0,113
-662,218	-87,588	-0,148	-0,033
-661,203	363,015	0,084	0,126
-660,189	-200,000	0,019	0,102
-659,174	-124,581	-0,198	0,023
-658,159	-9,977	-0,090	0,044
-657,145	-200,000	-0,022	-0,108
-656,130	-64,714	0,038	-0,011
-655,116	202,990	0,078	-0,089
-654,101	179,695	0,091	-0,099
-653,086	-172,175	-0,025	-0,001
-652,072	-11,835	-0,144	-0,070
-651,057	-16,011	-0,110	-0,052
-650,043	-30,331	-0,108	0,045
-649,028	-128,248	-0,111	-0,012
-648,014	-200,000	0,009	0,069
-646,999	-114,725	0,058	-0,008
-645,984	6,446	-0,031	-0,017
-644,970	800,000	-0,009	-0,024
-643,955	218,268	0,056	0,066
-642,941	-11,459	0,052	-0,025
-641,926	-83,697	0,095	-0,022
-640,911	-200,000	0,042	0,150
-639,897	-200,000	0,014	0,079
-638,882	134,942	0,077	-0,074
-637,868	107,084	-0,124	-0,109
-636,853	-102,981	-0,122	-0,021
-635,838	800,000	-0,042	-0,110
-634,824	-200,000	0,015	0,089
-633,809	-200,000	0,035	0,135
-632,795	-200,000	-0,023	-0,097
-631,780	63,234	-0,155	-0,115
-630,765	168,819	-0,065	0,069
-629,751	4,446	-0,105	0,057
-628,736	800,000	0,015	-0,037
-627,722	800,000	0,046	0,112
-626,707	-105,550	0,046	0,008
-625,692	70,466	0,075	0,058
-624,678	-36,659	0,106	0,042
-623,663	800,000	-0,073	-0,187
-622,649	205,746	0,034	0,039
-621,634	55,280	-0,034	-0,024
-620,619	160,999	-0,012	0,012
-619,605	179,749	-0,057	-0,062
-618,590	290,725	0,017	-0,023
-617,576	159,654	-0,105	-0,109
-616,561	386,918	-0,076	0,116
-615,546	-200,000	0,009	-0,052
-614,532	-135,910	-0,021	0,002
-613,517	-89,835	0,079	0,017
-612,503	49,389	0,055	-0,038
-611,488	96,163	-0,057	0,048
-610,474	800,000	-0,047	-0,103
-609,459	800,000	0,020	-0,052
-608,444	-134,112	-0,221	0,020
-607,430	-85,814	0,095	0,022
-606,415	20,067	0,058	0,034
-605,401	-59,015	-0,068	0,022
-604,386	-36,727	-0,056	0,022
-603,371	-200,000	-0,007	0,076
-602,357	499,751	0,034	-0,058
-601,342	51,806	0,077	-0,054
-600,328	-113,279	0,054	-0,008
-599,313	-160,202	-0,051	0,002
-598,298	-28,564	-0,157	0,067
-597,284	-36,235	0,094	0,038
-596,269	104,908	-0,066	-0,058
-595,255	306,700	-0,024	0,033
-594,240	-130,884	-0,113	0,011
-593,225	1,738	-0,056	-0,030
-592,211	40,949	0,068	-0,045
-591,196	800,000	0,042	-0,104
-590,182	-76,207	0,073	-0,019
-589,167	302,275	-0,089	0,122
-588,152	-161,805	-0,072	0,003
-587,138	-52,968	0,044	-0,015
-586,123	511,273	-0,049	-0,084
-585,109	-200,000	-0,011	0,037
-584,094	-76,665	-0,148	-0,038
-583,079	100,719	0,029	-0,025
-582,065	800,000	0,052	0,116
-581,050	-200,000	0,050	0,196
-580,036	61,246	-0,008	-0,006
-579,021	800,000	0,017	0,055
-578,006	101,799	-0,038	0,033
-576,992	211,172	-0,087	0,102
-575,977	-200,000	-0,004	0,029
-574,963	-18,202	0,038	0,017
-573,948	-73,194	-0,139	-0,038
-572,934	222,954	0,037	-0,045
-571,919	412,231	-0,088	-0,138
-570,904	749,145	0,032	-0,065
-569,890	60,852	0,073	-0,054
-568,875	72,493	0,151	0,117
-567,861	-110,302	0,167	-0,025
-566,846	279,257	0,065	0,086
-565,831	-200,000	0,000	0,002
-564,817	263,607	-0,053	0,068
-563,802	-200,000	-0,013	0,129
-562,788	800,000	0,050	0,148
-561,773	-200,000	0,008	0,029
-560,758	800,000	-0,030	0,068
-559,744	800,000	0,038	0,088
-558,729	800,000	-0,078	0,161
-557,715	-110,599	-0,157	0,024
-556,700	-200,000	-0,032	-0,151
-555,685	-200,000	0,013	-0,106
-554,671	-81,206	0,185	-0,045
-553,656	20,049	-0,164	0,097
-552,642	-200,000	-0,015	0,172
-551,627	-200,000	0,010	0,071
-550,612	-200,000	0,009	0,073
-549,598	-62,325	-0,104	-0,032
-548,583	-128,340	0,072	-0,008
-547,569	312,470	0,043	-0,060
-546,554	352,158	0,052	0,077
-545,539	-120,073	-0,045	0,006
-544,525	181,940	0,096	0,104
-543,510	129,789	-0,103	-0,097
-542,496	572,911	0,053	-0,096
-541,481	-200,000	0,003	-0,070
-540,466	-129,791	-0,160	-0,016
-539,452	511,775	-0,019	-0,033
-538,437	-24,683	-0,228	0,100
-537,423	298,469	-0,084	0,115
-536,408	-200,000	-0,002	-0,029
-535,393	248,369	-0,036	-0,046
-534,379	-86,020	-0,040	-0,009
-533,364	46,636	-0,121	0,083
-532,350	-200,000	0,091	0,000
-531,335	430,781	-0,094	0,151
-530,321	800,000	-0,059	0,145
-529,306	-200,000	-0,010	0,169
-528,291	-200,000	0,015	-0,053
-527,277	46,202	-0,060	0,041
-526,262	-142,718	0,103	-0,007
-525,248	104,272	0,046	-0,040
-524,233	369,657	-0,065	0,098
-523,218	129,686	0,033	-0,031
-522,204	-83,720	0,085	-0,020
-521,189	-88,089	-0,104	-0,023
-520,175	168,408	-0,055	-0,058
-519,160	-33,991	0,014	-0,006
-518,145	800,000	-0,025	0,056
-517,131	226,220	-0,068	-0,082
-516,116	-200,000	-0,002	0,087
-515,102	800,000	-0,007	-0,021
-514,087	-176,591	-0,108	-0,002
-513,072	516,133	0,047	-0,082
-512,058	55,701	0,084	-0,060
-511,043	346,629	0,089	0,129
-510,029	800,000	-0,026	-0,065
-509,014	767,635	0,069	0,139
-507,999	78,924	0,118	0,093
-506,985	800,000	-0,032	0,077
-505,970	-29,857	-0,073	-0,031
-504,956	352,134	-0,095	-0,140
-503,941	-200,000	0,010	-0,058
-502,926	-200,000	0,008	0,058
-501,912	309,185	-0,077	0,106
-500,897	145,334	0,044	0,044
-499,883	-200,000	0,012	0,097
-498,868	-25,589	-0,101	-0,044
-497,853	-200,000	-0,047	-0,204
-496,839	-200,000	-0,016	-0,111
-495,824	-200,000	-0,005	-0,034
-494,810	-69,228	0,090	-0,025
-493,795	357,171	0,024	-0,036
-492,781	2,354	-0,030	-0,016
-491,766	-200,000	-0,013	0,117
-490,751	-35,670	-0,057	-0,023
-489,737	-111,544	0,032	-0,005
-488,722	248,625	0,093	0,116
-487,708	-200,000	-0,012	-0,058
-486,693	-200,000	-0,034	-0,127
-485,678	74,748	-0,081	0,063
-484,664	95,287	-0,080	-0,067
-483,649	-101,624	-0,031	0,005
-482,635	-200,000	0,007	0,175
-481,620	22,658	0,153	-0,092
-480,605	331,992	0,031	-0,044
-479,591	83,977	0,112	-0,090
-478,576	-44,963	-0,126	0,046
-477,562	800,000	-0,069	-0,177
-476,547	-74,911	-0,049	0,013
-475,532	-200,000	0,029	-0,178
-474,518	-200,000	0,009	-0,057
-473,503	541,053	0,051	-0,089
-472,489	-79,313	0,109	-0,027
-471,474	255,519	-0,006	0,008
-470,459	-55,602	0,112	-0,037
-469,445	76,681	-0,045	-0,035
-468,430	-200,000	0,027	0,215
-467,416	-200,000	-0,023	-0,079
-466,401	-21,664	0,044	0,020
-465,386	262,245	0,052	-0,067
-464,372	-173,897	-0,074	-0,002
-463,357	-92,504	0,039	0,008
-462,343	-81,352	-0,097	0,023
-461,328	-200,000	-0,017	-0,062
-460,313	12,729	-0,036	0,021
-459,299	-35,439	-0,051	0,020
-458,284	69,943	0,142	-0,107
-457,270	457,449	0,054	0,088
-456,255	622,210	-0,050	-0,093
-455,241	259,406	-0,069	-0,088
-454,226	55,615	0,077	-0,055
-453,211	13,860	-0,146	0,083
-452,197	-62,534	-0,051	-0,016
-451,182	-105,061	0,123	-0,021
-450,168	-106,552	0,091	0,015
-449,153	83,867	-0,074	-0,059
-448,138	553,171	0,054	0,096
-447,124	22,386	-0,082	-0,049
-446,109	-154,625	-0,167	0,008
-445,095	387,492	0,072	0,111
-444,080	102,081	-0,061	-0,052
-443,065	254,187	-0,093	-0,117
-442,051	800,000	0,068	-0,147
-441,036	353,077	0,050	-0,074
-440,022	48,612	0,103	0,071
-439,007	-200,000	-0,016	0,063
-437,992	-49,140	-0,065	0,023
-436,978	-93,422	0,119	0,024
-435,963	-66,511	0,052	0,015
-434,949	800,000	0,008	0,021
-433,934	512,477	-0,034	0,059
-432,919	-200,000	-0,018	-0,222
-431,905	800,000	-0,039	-0,119
-430,890	335,056	0,073	0,104
-429,876	-39,274	-0,107	0,041
-428,861	-10,847	0,049	0,023
-427,846	-166,706	0,042	-0,001
-426,832	-27,826	-0,023	-0,010
-425,817	-200,000	-0,002	-0,067
-424,803	-156,345	-0,111	0,005
-423,788	800,000	-0,006	0,017
-422,773	-126,193	-0,102	0,011
-421,759	77,919	0,088	-0,069
-420,744	800,000	0,034	-0,103
-419,730	-134,965	-0,161	-0,014
-418,715	-46,949	-0,046	-0,016
-417,701	-77,621	-0,123	0,031
-416,686	71,981	0,081	-0,062
-415,671	-200,000	0,015	-0,082
-414,657	557,961	-0,088	0,157
-413,642	800,000	0,010	0,027
-412,628	-200,000	0,003	-0,061
-411,613	-48,682	-0,028	-0,010
-410,598	152,202	0,041	-0,041
-409,584	-14,063	0,089	-0,042
-408,569	29,389	-0,125	0,078
-407,555	-62,002	0,094	0,029
-406,540	66,558	0,026	0,020
-405,525	147,915	-0,039	-0,039
-404,511	11,193	-0,026	0,015
-403,496	80,407	-0,018	-0,014
-402,482	94,222	-0,030	0,025
-401,467	169,740	0,091	-0,096
-400,452	-47,957	0,052	0,019
-399,438	0,851	0,080	0,042
-398,423	322,764	-0,091	0,127
-397,409	97,240	0,072	-0,061
-396,394	-200,000	0,040	-0,165
-395,379	-181,128	-0,064	0,001
-394,365	800,000	0,048	0,141
-393,350	-200,000	0,027	0,100
-392,336	-62,440	0,106	-0,032
-391,321	57,910	0,057	0,041
-390,306	484,063	0,023	0,039
-389,292	153,747	-0,029	0,029
-388,277	-200,000	0,011	-0,073
-387,263	-60,611	-0,052	0,016
-386,248	-4,062	0,126	0,064
-385,233	800,000	0,014	-0,041
-384,219	12,764	0,027	0,015
-383,204	295,322	-0,047	0,063
-382,190	800,000	0,040	0,096
-381,175	186,480	-0,120	-0,132
-380,160	43,543	-0,059	0,039
-379,146	800,000	-0,027	-0,073
-378,131	-200,000	0,012	0,062
-377,117	800,000	-0,034	-0,071
-376,102	154,199	0,074	-0,075
-375,088	-120,142	-0,174	0,022
-374,073	-200,000	0,017	-0,102
-373,058	133,148	0,050	-0,048
-372,044	48,581	0,099	0,068
-371,029	-123,386	0,157	0,018
-370,015	-200,000	-0,023	0,174
-369,000	-175,486	0,135	-0,003
-367,985	-32,866	-0,104	-0,042
-366,971	800,000	0,013	-0,037
-365,956	-200,000	0,001	-0,112
-364,942	20,190	-0,076	0,045
-363,927	-199,017	-0,070	0,000
-362,912	-120,383	0,037	-0,005
-361,898	-21,615	-0,065	-0,029
-360,883	-159,026	0,197	0,008
-359,869	529,206	0,028	0,049
-358,854	80,978	0,085	0,067
-357,839	-200,000	0,008	-0,037
-356,825	-200,000	-0,000	0,016
-355,810	545,889	-0,071	0,126
-354,796	255,879	-0,098	0,124
-353,781	186,437	-0,079	-0,086
-352,766	-0,869	0,020	-0,010
-351,752	547,252	-0,085	-0,150
-350,737	-42,964	-0,075	-0,028
-349,723	-61,958	-0,086	0,026
-348,708	-200,000	-0,001	-0,049
-347,693	78,617	0,083	-0,065
-346,679	-200,000	0,001	-0,082
-345,664	-116,457	-0,139	-0,019
-344,650	800,000	-0,040	-0,096
-343,635	797,962	0,032	-0,065
-342,620	-200,000	-0,004	0,067
-341,606	-200,000	0,008	0,066
-340,591	272,829	-0,088	-0,114
-339,577	800,000	-0,047	-0,109
-338,562	113,540	-0,071	0,063
-337,548	-97,663	0,005	0,001
-336,533	86,495	-0,085	-0,069
-335,518	-105,538	0,063	-0,010
-334,504	495,609	0,036	-0,060
-333,489	141,368	-0,052	0,051
-332,475	192,094	-0,090	-0,100
-331,460	498,692	-0,043	-0,073
-330,445	-0,407	-0,064	-0,033
-329,431	-200,000	-0,012	0,042
-328,416	-121,354	0,064	0,008
-327,402	-117,263	-0,021	-0,003
-326,387	477,507	-0,028	0,047
-325,372	-200,000	-0,009	-0,111
-324,358	89,811	-0,074	-0,061
-323,343	43,906	-0,098	-0,065
-322,329	495,419	0,042	-0,071
-321,314	-106,670	-0,116	0,019
-320,299	147,576	0,084	0,083
-319,285	-146,311	0,030	-0,002
-318,270	254,786	-0,070	-0,088
-317,256	14,310	-0,072	-0,041
-316,241	-15,746	0,031	0,015
-315,226	2,410	0,034	0,018
-314,212	-19,097	0,048	0,022
-313,197	250,739	0,090	0,113
-312,183	260,149	-0,042	0,054
-311,168	800,000	-0,033	0,096
-310,153	55,556	0,050	-0,036
-309,139	-38,212	0,085	-0,033
-308,124	238,601	-0,010	0,013
-307,110	194,295	-0,039	0,043
-306,095	707,872	0,099	-0,193
-305,080	-149,930	-0,072	-0,004
-304,066	668,965	-0,036	0,069
-303,051	-200,000	0,018	-0,083
-302,037	60,114	-0,020	0,014
-301,022	-200,000	-0,016	-0,158
-300,008	5,369	0,063	0,034
-298,993	521,673	0,057	0,098
-297,978	-10,972	0,230	0,111
-296,964	-37,688	-0,029	0,011
-295,949	-20,398	0,102	0,046
-294,935	800,000	-0,027	-0,075
-293,920	371,539	0,047	0,070
-292,905	-109,704	0,100	0,015
-291,891	-119,251	-0,133	-0,017
-290,876	146,620	-0,127	-0,125
-289,862	-83,341	0,042	-0,010
-288,847	800,000	-0,036	-0,100
-287,832	-172,302	0,139	-0,003
-286,818	-200,000	-0,014	-0,154
-285,803	-134,397	0,100	0,009
-284,789	-112,925	0,094	0,013
-283,774	-22,763	0,047	-0,021
-282,759	800,000	-0,023	0,060
-281,745	686,366	0,050	0,096
-280,730	-200,000	-0,005	0,024
-279,716	-86,663	-0,060	-0,013
-278,701	-80,022	0,195	-0,048
-277,686	-115,290	0,092	0,013
-276,672	800,000	-0,037	0,110
-275,657	-200,000	0,003	0,077
-274,643	800,000	0,046	-0,116
-273,628	-200,000	-0,029	0,095
-272,613	194,490	-0,046	-0,051
-271,599	-84,477	0,178	-0,041
-270,584	-91,039	0,101	-0,021
-269,570	800,000	0,048	0,114
-268,555	147,808	-0,049	-0,048
-267,540	800,000	-0,036	-0,107
-266,526	-90,654	-0,048	-0,010
-265,511	101,979	0,036	-0,031
-264,497	-121,420	0,099	0,012
-263,482	32,921	0,077	0,049
-262,467	-45,357	0,101	0,036
-261,453	800,000	0,037	-0,104
-260,438	-198,365	-0,040	-0,000
-259,424	-200,000	0,029	-0,172
-258,409	368,509	0,061	-0,090
-257,395	800,000	0,011	0,034
-256,380	-4,998	-0,044	0,022
-255,365	-200,000	-0,015	-0,074
-254,351	-200,000	-0,015	-0,055
-253,336	50,806	0,110	-0,076
-252,322	-112,229	0,082	0,012
-251,307	-135,328	0,058	-0,005
-250,292	-94,235	-0,116	-0,023
-249,278	346,735	0,071	0,103
-248,263	-105,553	0,042	-0,007
-247,249	-56,097	-0,119	-0,039
-246,234	404,075	-0,037	0,057
-245,219	-42,482	0,073	-0,027
-244,205	87,011	0,075	0,061
-243,190	423,780	-0,016	0,025
-242,176	-161,436	0,188	-0,007
-241,161	108,147	0,101	0,088
-240,146	-109,417	0,073	-0,011
-239,132	-200,000	-0,021	0,111
-238,117	348,668	0,081	-0,117
-237,103	800,000	-0,037	0,087
-236,088	-29,523	0,075	0,031
-235,073	-127,146	-0,026	0,003
-234,059	130,928	-0,088	0,083
-233,044	376,603	0,023	0,035
-232,030	-54,944	-0,031	0,010
-231,015	43,587	-0,103	-0,069
-230,000	-200,000	-0,032	-0,118
-228,986	-132,762	0,132	0,012
-227,971	-90,523	0,115	-0,024
-226,957	-175,876	0,088	0,002
-225,942	-200,000	-0,027	0,139
-224,927	-185,879	0,036	-0,000
-223,913	-139,122	0,055	0,004
-222,898	252,676	-0,050	-0,062
-221,884	-26,043	0,132	-0,056
-220,869	-72,473	0,053	-0,014
-219,855	492,127	0,035	-0,059
-218,840	-66,221	0,035	0,010
-217,825	-88,180	-0,158	0,034
-216,811	-200,000	-0,021	-0,157
-215,796	800,000	-0,012	-0,024
-214,782	-200,000	-0,013	0,113
-213,767	-200,000	0,029	-0,105
-212,752	-200,000	-0,008	0,049
-211,738	-87,866	0,097	-0,021
-210,723	529,853	0,040	-0,070
-209,709	-38,257	-0,071	0,027
-208,694	105,010	0,052	-0,045
-207,679	-200,000	-0,006	-0,067
-206,665	-200,000	0,003	-0,025
-205,650	96,036	-0,088	0,073
-204,636	133,740	0,077	0,073
-203,621	33,036	-0,038	0,024
-202,606	-200,000	-0,007	-0,104
-201,592	-76,070	-0,120	-0,031
-200,577	-200,000	-0,055	-0,189
-199,563	156,777	-0,077	-0,077
-198,548	126,442	0,157	0,145
-197,533	-41,604	0,096	0,036
-196,519	800,000	-0,026	-0,076
-195,504	800,000	0,037	0,095
-194,490	55,079	-0,083	0,058
-193,475	100,124	-0,129	-0,109
-192,460	2,310	0,044	0,023
-191,446	365,361	-0,056	0,082
-190,431	596,144	0,069	0,124
-189,417	-73,890	0,146	-0,038
-188,402	31,001	-0,048	0,030
-187,387	-15,026	-0,031	-0,014
-186,373	339,643	-0,028	-0,041
-185,358	-200,000	-0,008	0,108
-184,344	-127,530	0,080	0,008
-183,329	800,000	0,078	-0,160
-182,315	-40,277	0,115	0,043
-181,300	565,885	0,038	-0,068
-180,285	-139,844	-0,143	0,011
-179,271	13,932	-0,160	0,090
-178,256	-113,742	-0,094	0,013
-177,242	-200,000	0,004	0,114
-176,227	-200,000	0,040	0,225
-175,212	800,000	-0,047	0,106
-174,198	-57,252	0,065	0,021
-173,183	780,488	0,013	-0,026
-172,169	243,610	-0,039	0,048
-171,154	161,214	-0,113	-0,115
-170,139	800,000	0,029	0,071
-169,125	40,869	0,069	0,045
-168,110	-5,070	-0,054	-0,027
-167,096	-35,261	-0,110	-0,043
-166,081	800,000	-0,024	-0,060
-165,066	-200,000	0,021	0,149
-164,052	-200,000	-0,018	-0,084
-163,037	26,809	-0,070	0,043
-162,023	-163,070	0,102	0,004
-161,008	-2,181	0,057	0,029
-159,993	800,000	0,053	0,126
-158,979	800,000	0,041	0,123
-157,964	800,000	-0,020	-0,058
-156,950	-101,908	0,093	0,016
-155,935	-200,000	-0,015	0,102
-154,920	572,364	0,083	0,149
-153,906	69,152	-0,060	-0,045
-152,891	227,226	0,073	0,086
-151,877	158,339	0,043	-0,043
-150,862	587,737	-0,050	-0,089
-149,847	227,500	0,026	-0,031
-148,833	179,097	-0,094	0,100
-147,818	300,046	0,035	-0,047
-146,804	-66,593	-0,122	0,035
-145,789	-200,000	-0,011	0,036
-144,775	-200,000	-0,015	0,070
-143,760	363,193	0,011	0,017
-142,745	-200,000	-0,018	-0,074
-141,731	-68,249	0,056	0,016
-140,716	-200,000	-0,017	0,065
-139,702	-200,000	-0,060	0,000
-138,687	443,201	0,032	0,051
-137,672	105,261	-0,046	0,039
-136,658	-10,601	0,043	-0,020
-135,643	-200,000	0,002	0,129
-134,629	-147,578	0,098	0,006
-133,614	77,809	0,061	-0,047
-132,599	6,586	0,043	0,023
-131,585	-80,302	0,044	-0,011
-130,570	287,227	-0,082	-0,108
-129,556	-59,766	0,043	-0,013
-128,541	454,154	-0,076	0,122
-127,526	293,739	0,066	-0,088
-126,512	-200,000	0,027	-0,094
-125,497	52,371	0,032	0,022
-124,483	-84,504	0,105	0,024
-123,468	-159,222	-0,098	-0,004
-122,453	-121,744	0,060	0,007
-121,439	-6,474	-0,124	-0,061
-120,424	183,761	-0,161	-0,173
-119,410	605,463	-0,012	-0,022
-118,395	-42,241	-0,016	-0,006
-117,380	-168,377	-0,097	-0,003
-116,366	-26,257	0,065	-0,027
-115,351	-200,000	0,038	-0,130
-114,337	-114,649	0,031	0,004
-113,322	-108,868	0,147	-0,023
-112,307	200,864	0,064	0,071
-111,293	-200,000	0,005	0,071
-110,278	-13,146	0,175	0,082
-109,264	89,135	-0,025	-0,021
-108,249	406,389	-0,030	-0,046
-107,234	-26,455	0,069	-0,029
-106,220	-200,000	0,012	-0,038
-105,205	-200,000	0,046	0,175
-104,191	396,536	-0,061	0,092
-103,176	63,450	0,132	0,096
-102,162	-200,000	-0,001	-0,085
-101,147	-200,000	-0,014	-0,106
-100,132	-200,000	-0,003	-0,034
-99,118	311,534	-0,049	-0,067
-98,103	235,598	0,045	0,054
-97,089	-57,271	0,149	-0,047
-96,074	761,234	0,054	0,107
-95,059	-200,000	0,007	0,085
-94,045	-119,933	-0,038	-0,005
-93,030	800,000	0,015	0,031
-92,016	-68,729	0,053	0,015
-91,001	-41,389	0,088	0,033
-89,986	800,000	0,019	-0,054
-88,972	-51,511	0,020	0,007
-87,957	74,659	0,085	-0,065
-86,943	-200,000	-0,021	-0,077
-85,928	166,248	-0,126	-0,129
-84,913	394,963	-0,025	-0,038
-83,899	-91,959	0,104	0,021
-82,884	-164,063	0,067	0,002
-81,870	-13,488	0,040	0,019
-80,855	-200,000	-0,001	0,098
-79,840	-200,000	-0,007	0,161
-78,826	180,135	-0,035	-0,037
-77,811	-166,131	0,041	-0,001
-76,797	-200,000	-0,003	-0,038
-75,782	-200,000	0,012	0,105
-74,767	450,736	0,072	0,116
-73,753	130,805	0,032	-0,030
-72,738	-78,034	-0,115	-0,028
-71,724	324,457	-0,086	-0,120
-70,709	-116,223	-0,041	-0,005
-69,694	191,465	0,112	-0,123
-68,680	-42,927	-0,102	0,037
-67,665	800,000	-0,025	-0,067
-66,651	-157,946	0,068	0,003
-65,636	800,000	0,051	-0,156
-64,622	72,371	-0,071	-0,054
-63,607	-75,066	0,089	-0,023
-62,592	800,000	0,034	0,089
-61,578	68,862	-0,020	-0,015
-60,563	304,873	0,072	0,097
-59,549	268,186	0,060	0,077
-58,534	-136,873	-1,537	-0,126
-57,519	800,000	-0,679	-1,538
-56,505	-200,000	-0,950	-4,523
-55,490	-60,087	0,619	-0,190
-54,476	800,000	4,915	11,740
-53,461	-200,000	14,075	253,726
-52,446	-200,000	694,590	2237,344
-51,432	571,858	1624,803	2880,114
-50,417	117,349	1632,746	1455,103
-49,403	72,535	1286,441	971,351
-48,388	37,443	1023,261	656,294
-47,373	23,861	981,335	584,779
-46,359	23,091	970,741	575,921
-45,344	22,005	966,607	569,902
-44,330	22,022	964,992	568,983
-43,315	21,877	963,698	567,723
-42,300	21,846	962,673	566,998
-41,286	21,866	961,600	566,408
-40,271	21,848	960,857	565,890
-39,257	21,842	959,629	565,125
-38,242	21,790	958,783	564,435
-37,227	21,849	957,731	563,985
-36,213	21,801	957,121	563,447
-35,198	21,758	956,236	562,767
-34,184	21,861	955,476	562,630
-33,169	21,760	954,663	561,800
-32,154	21,836	953,728	561,474
-31,140	21,851	952,878	560,999
-30,125	21,893	952,015	560,603
-29,111	21,906	951,205	560,147
-28,096	21,874	950,405	559,550
-27,082	21,857	950,000	559,234
-26,067	21,855	949,035	558,639
-25,052	21,854	948,512	558,305
-24,038	21,836	947,666	557,728
-23,023	21,783	947,251	557,293
-22,009	21,894	946,511	557,188
-20,994	21,891	945,728	556,695
-19,979	21,838	945,305	556,257
-18,965	21,873	944,481	555,860
-17,950	21,886	943,970	555,581
-16,936	21,843	943,269	555,007
-15,921	21,785	942,613	554,416
-14,906	21,744	941,904	553,845
-13,892	21,759	941,092	553,394
-12,877	21,707	940,747	553,004
-11,863	21,755	939,898	552,635
-10,848	21,751	939,476	552,354
-9,833	21,802	939,081	552,261
-8,819	21,830	938,297	551,866
-7,804	21,715	937,729	551,145
-6,790	21,716	937,149	550,787
-5,775	21,784	936,443	550,566
-4,760	21,732	935,846	550,027
-3,746	21,754	935,273	549,740
-2,731	21,593	934,669	548,853
-1,717	21,598	933,830	548,355
-0,702	21,539	933,217	547,787
0,313	21,374	932,448	547,643
1,327	24,492	930,611	556,307
2,342	34,014	794,616	500,317
3,356	32,078	449,819	280,291
4,371	1,057	292,735	151,584
5,386	-3,356	273,740	137,577
6,400	-4,704	267,924	133,397
7,415	-4,944	265,590	132,003
8,429	-4,732	264,270	131,528
9,444	-4,789	263,520	131,091
10,459	-4,787	262,966	130,807
11,473	-4,886	262,272	130,360
12,488	-4,962	261,840	130,065
13,502	-5,128	261,209	129,591
14,517	-4,969	260,752	129,495
15,531	-5,140	260,418	129,164
16,546	-5,022	260,150	129,126
17,561	-4,900	259,590	128,945
18,575	-4,895	259,524	128,906
19,590	-5,025	259,036	128,536
20,604	-4,910	258,813	128,516
21,619	-5,104	258,456	128,155
22,634	-4,969	258,108	128,090
23,648	-4,859	257,798	128,023
24,663	-4,988	257,543	127,771
25,677	-5,011	257,387	127,661
26,692	-5,189	256,969	127,285
27,707	-5,052	256,915	127,368
28,721	-4,969	256,465	127,207
29,736	-5,142	256,233	126,929
30,750	-5,066	255,970	126,853
31,765	-5,162	255,784	126,665
32,780	-5,194	255,641	126,555
33,794	-5,170	255,395	126,443
34,809	-5,049	255,033	126,359
35,823	-5,089	254,782	126,188
36,838	-4,993	254,448	126,096
37,853	-5,036	254,348	125,997
38,867	-5,157	254,069	125,742
39,882	-5,104	253,994	125,740
40,896	-4,989	253,712	125,689
41,911	-5,063	253,453	125,485
42,926	-5,223	253,288	125,253
43,940	-5,420	253,023	124,940
44,955	-5,166	252,783	125,031
45,969	-5,036	252,523	125,004
46,984	-5,579	252,357	124,440
47,999	-5,502	252,051	124,344
49,013	-5,862	251,804	123,900
50,028	-5,615	251,537	123,971
51,042	-5,767	251,377	123,750
52,057	-5,846	251,180	123,574
53,071	-5,722	250,981	123,572
54,086	-5,730	250,691	123,410
55,101	-5,615	250,670	123,489
56,115	-5,546	250,545	123,476
57,130	-5,060	250,306	123,764
58,144	-4,714	250,231	124,014
59,159	-4,849	249,955	123,750
60,174	-4,859	249,765	123,636
61,188	-5,093	249,640	123,362
62,203	-5,047	249,345	123,245
63,217	-5,165	249,133	123,028
64,232	-4,948	248,821	123,049
65,247	-5,041	248,823	122,959
66,261	-5,036	248,467	122,777
67,276	-5,005	248,155	122,638
68,290	-5,239	247,988	122,345
69,305	-5,758	247,759	121,780
70,320	-5,404	247,680	122,031
71,334	-5,086	247,320	122,113
72,349	-4,887	247,378	122,299
73,363	-4,932	247,208	122,166
74,378	-4,863	246,914	122,069
75,393	-4,965	246,682	121,857
76,407	-4,915	246,695	121,895
77,422	-4,860	246,349	121,759
78,436	-4,951	246,126	121,561
79,451	-5,138	246,021	121,341
80,466	-5,049	245,731	121,263
81,480	-5,168	245,384	120,981
82,495	-5,210	245,212	120,850
83,509	-5,279	245,096	120,724
84,524	-5,340	244,942	120,585
85,539	-5,412	244,577	120,334
86,553	-5,341	244,439	120,315
87,568	-5,192	244,258	120,341
88,582	-5,242	244,158	120,238
89,597	-5,354	243,907	120,011
90,611	-5,159	243,651	120,037
91,626	-4,917	243,671	120,237
92,641	-5,041	243,551	120,064
93,655	-4,851	243,075	119,978
94,670	-5,237	243,053	119,635
95,684	-5,255	242,907	119,537
96,699	-5,004	242,716	119,641
97,714	-5,137	242,549	119,438
98,728	-5,178	242,251	119,246
99,743	-5,483	242,093	118,905
100,757	-5,522	241,857	118,746
101,772	-5,222	241,562	118,839
102,787	-5,323	241,537	118,732
103,801	-5,138	241,264	118,740
104,816	-5,142	241,189	118,689
105,830	-4,998	241,205	118,806
106,845	-5,064	241,012	118,646
107,860	-5,051	240,631	118,458
108,874	-4,987	240,476	118,424
109,889	-5,245	240,329	118,129
110,903	-5,139	240,188	118,136
111,918	-5,185	240,014	118,003
112,933	-5,092	239,815	117,970
113,947	-5,044	239,615	117,901
114,962	-5,013	239,436	117,827
115,976	-5,224	239,427	117,640
116,991	-5,082	239,193	117,631
118,006	-5,278	239,015	117,372
119,020	-5,220	239,006	117,405
120,035	-5,074	238,620	117,324
121,049	-5,283	238,646	117,155
122,064	-4,917	238,330	117,288
123,079	-5,108	238,151	117,034
124,093	-5,270	238,073	116,853
125,108	-5,366	237,764	116,614
126,122	-5,377	237,523	116,476
127,137	-5,531	237,351	116,257
128,151	-5,377	237,070	116,234
129,166	-5,328	237,052	116,254
130,181	-5,290	236,812	116,156
131,195	-5,463	236,731	115,967
132,210	-5,219	236,529	116,054
133,224	-5,062	236,441	116,127
134,239	-5,105	236,196	115,962
135,254	-4,835	235,890	116,019
136,268	-5,076	235,771	115,756
137,283	-5,451	235,657	115,388
138,297	-5,426	235,402	115,273
139,312	-5,474	235,238	115,144
140,327	-5,072	235,114	115,395
141,341	-4,796	235,063	115,581
142,356	-4,769	234,904	115,514
143,370	-4,687	234,642	115,440
144,385	-4,888	234,752	115,324
145,400	-4,708	234,529	115,348
146,414	-4,825	234,341	115,152
147,429	-4,828	234,058	114,999
148,443	-4,930	233,877	114,819
149,458	-4,961	233,833	114,763
150,473	-4,755	233,536	114,770
151,487	-4,866	233,531	114,670
152,502	-4,897	233,282	114,512
153,516	-4,751	233,083	114,521
154,531	-4,695	232,898	114,463
155,546	-4,764	232,738	114,320
156,560	-4,918	232,511	114,077
157,575	-4,949	232,331	113,953
158,589	-5,027	232,146	113,791
159,604	-4,744	232,069	113,967
160,619	-4,802	231,962	113,858
161,633	-4,726	231,700	113,780
162,648	-4,886	231,712	113,649
163,662	-4,900	231,440	113,494
164,677	-4,984	231,271	113,335
165,692	-4,758	231,203	113,470
166,706	-4,712	231,046	113,419
167,721	-4,676	230,876	113,353
168,735	-4,658	230,706	113,274
169,750	-4,913	230,720	113,070
170,764	-4,750	230,401	113,032
171,779	-4,629	230,236	113,035
172,794	-4,674	230,132	112,939
173,808	-4,882	229,987	112,695
174,823	-5,193	229,538	112,223
175,837	-5,229	229,368	112,101
176,852	-4,995	229,323	112,252
177,867	-4,892	229,288	112,305
178,881	-4,730	229,215	112,386
179,896	-4,668	229,121	112,378
180,910	-4,576	228,908	112,335
181,925	-4,826	228,819	112,087
182,940	-4,530	228,558	112,179
183,954	-4,661	228,470	112,023
184,969	-4,655	228,368	111,969
185,983	-4,451	228,135	112,003
186,998	-4,590	227,905	111,772
188,013	-4,563	227,836	111,749
189,027	-4,494	227,614	111,683
190,042	-4,768	227,585	111,448
191,056	-4,572	227,463	111,529
192,071	-4,427	227,179	111,491
193,086	-4,660	226,981	111,205
194,100	-4,611	226,949	111,217
195,115	-4,741	226,491	110,883
196,129	-5,152	226,491	110,558
197,144	-2,317	227,406	113,180
198,159	1,367	228,516	116,570
199,173	3,972	228,846	118,741
200,188	4,104	228,755	118,784
201,202	3,780	228,660	118,475
202,217	4,176	228,495	118,683
203,232	4,477	228,598	118,958
204,246	4,336	228,392	118,732
205,261	4,482	228,216	118,742
206,275	4,542	228,147	118,742
207,290	4,662	227,915	118,703
208,304	4,646	227,831	118,636
209,319	4,426	227,628	118,351
210,334	4,610	227,312	118,317
211,348	4,367	227,292	118,110
212,363	3,831	226,946	117,510
213,377	3,935	226,678	117,440
214,392	3,750	226,567	117,231
215,407	3,842	226,449	117,229
216,421	3,810	226,336	117,136
217,436	3,951	226,072	117,096
218,450	3,642	225,988	116,807
219,465	3,549	225,816	116,637
220,480	3,572	225,623	116,545
221,494	3,469	225,536	116,411
222,509	3,665	225,511	116,537
223,523	3,713	225,227	116,416
224,538	3,631	225,114	116,285
225,553	3,753	224,877	116,245
226,567	3,742	224,806	116,190
227,582	4,035	224,755	116,374
228,596	4,230	224,625	116,444
229,611	3,736	224,454	115,972
230,626	3,639	224,242	115,778
231,640	3,690	223,988	115,676
232,655	4,084	223,974	115,955
233,669	4,286	224,092	116,157
234,684	4,596	223,775	116,217
235,699	4,239	223,661	115,878
236,713	3,991	223,543	115,620
237,728	3,752	223,259	115,284
238,742	3,482	223,153	115,016
239,757	3,803	222,921	115,127
240,772	3,552	222,781	114,856
241,786	3,589	222,547	114,753
242,801	3,875	222,542	114,954
243,815	4,104	222,499	115,093
244,830	4,028	222,403	114,976
245,844	3,924	222,131	114,748
246,859	4,090	221,914	114,749
247,874	3,988	221,865	114,638
248,888	4,037	221,685	114,571
249,903	3,917	221,593	114,424
250,917	4,035	221,296	114,348
251,932	3,886	221,133	114,143
252,947	3,694	221,084	113,965
253,961	3,635	220,953	113,844
254,976	3,880	220,629	113,848
255,990	4,007	220,546	113,889
257,005	3,865	220,488	113,744
258,020	3,929	220,377	113,724
259,034	4,092	220,325	113,807
260,049	4,069	220,176	113,703
261,063	3,983	220,007	113,542
262,078	4,181	219,854	113,599
263,093	4,342	219,708	113,632
264,107	4,227	219,489	113,424
265,122	4,003	219,432	113,220
266,136	4,127	219,406	113,287
267,151	4,253	219,135	113,230
268,166	3,996	218,975	112,949
269,180	3,631	218,753	112,556
270,195	3,681	218,712	112,562
271,209	3,677	218,487	112,433
272,224	3,652	218,263	112,290
273,239	3,721	218,252	112,324
274,253	3,716	217,997	112,179
275,268	3,715	217,900	112,119
276,282	3,627	217,709	111,947
277,297	3,507	217,597	111,791
278,312	3,625	217,473	111,803
279,326	3,631	217,335	111,728
280,341	3,743	217,210	111,734
281,355	4,102	217,033	111,894
282,370	3,652	216,868	111,472
283,384	3,725	216,687	111,422
284,399	3,208	216,671	111,029
285,414	3,415	216,478	111,070
286,428	3,512	216,485	111,134
287,443	4,028	216,222	111,363
288,457	4,062	216,040	111,284
289,472	4,086	215,910	111,225
290,487	3,267	215,730	110,530
291,501	3,147	215,741	110,440
292,516	3,500	215,379	110,499
293,530	3,627	215,198	110,487
294,545	3,387	215,243	110,328
295,560	3,453	215,197	110,342
296,574	3,942	215,001	110,584
297,589	4,146	214,859	110,647
298,603	4,049	214,793	110,533
299,618	3,745	214,728	110,272
300,633	3,733	214,495	110,134
301,647	3,977	214,499	110,301
302,662	4,019	214,269	110,203
303,676	4,088	214,020	110,114
304,691	4,036	214,028	110,071
305,706	4,189	213,839	110,074
306,720	4,163	213,726	109,987
307,735	3,958	213,519	109,725
308,749	3,655	213,261	109,367
309,764	3,869	213,261	109,509
310,779	4,171	213,218	109,693
311,793	3,814	213,050	109,342
312,808	4,109	212,843	109,436
313,822	3,855	212,770	109,208
314,837	3,908	212,489	109,092
315,852	3,657	212,358	108,837
316,866	3,796	212,350	108,922
317,881	3,757	212,233	108,824
318,895	4,123	212,059	108,984
319,910	3,891	211,805	108,680
320,925	3,564	211,685	108,378
321,939	3,423	211,351	108,097
322,954	3,298	211,453	108,052
323,968	3,843	211,413	108,406
324,983	3,916	211,296	108,388
325,997	4,187	211,137	108,487
327,012	3,917	210,928	108,181
328,027	3,737	210,879	108,019
329,041	4,209	210,771	108,286
330,056	4,413	210,668	108,366
331,070	4,118	210,375	107,999
332,085	3,305	210,231	107,346
333,100	3,708	210,098	107,550
334,114	3,702	210,002	107,488
335,129	4,006	209,748	107,561
336,143	3,664	209,664	107,269
337,158	3,665	209,661	107,259
338,173	3,738	209,527	107,232
339,187	3,685	209,174	107,005
340,202	3,316	209,183	106,743
341,216	3,347	208,980	106,651
342,231	3,393	208,936	106,651
343,246	3,626	208,580	106,622
344,260	3,414	208,754	106,554
345,275	3,546	208,557	106,536
346,289	3,750	208,490	106,633
347,304	3,937	208,335	106,674
348,319	3,840	208,076	106,465
349,333	3,889	207,951	106,425
350,348	3,817	207,884	106,331
351,362	4,215	207,757	106,532
352,377	3,927	207,838	106,365
353,392	3,812	207,574	106,141
354,406	3,979	207,448	106,182
355,421	194,115	1346,014	1433,771
356,435	154,857	1484,829	1433,877
