DTS Sentinel unit serial number:	SN410029Multiplexer serial number:	ORYXHardware model number:	OX2-SRSoftware version number:	ORYX F/W v4,00 Oryx Data Collector v3.7.2.0data status	okinstallation	B6 Nyhavnadifferential loss correction	single-endedforward channel	channel 2reverse channel	N/Adate	2023/12/11time	03:55:08forward acquisition time	300,00reverse acquisition time	0,00gamma	499,1914k internal	0,3125k external	0,3125temperature offset calibration	1,0000default loss term (dB/km)	0,3820temperature slope calibration	1,0000multiplexer offset coefficient	1,0000multiplexer slope coefficient	1,0000fibre end	0,00T internal ref (°C)	20,89T ext. ref 1 (°C)	3,63T ext. ref 2 (°C)	3,64length (m)	temperature (°C)	Stokes	anti-Stokes-744,400	-200,000	0,007	0,043
-743,385	-66,021	-0,176	0,052
-742,371	52,999	0,055	-0,039
-741,356	44,916	-0,322	0,220
-740,342	-8,218	0,101	-0,050
-739,327	-41,390	-0,307	0,117
-738,312	-200,000	-0,006	-0,098
-737,298	111,724	-0,133	0,120
-736,283	-200,000	-0,038	-0,140
-735,269	-105,287	-0,190	-0,032
-734,254	-44,242	0,150	0,056
-733,239	-8,503	-0,364	-0,181
-732,225	42,106	0,112	-0,076
-731,210	267,992	0,013	0,016
-730,196	670,101	0,050	-0,097
-729,181	-80,352	0,115	-0,028
-728,167	79,003	-0,035	0,028
-727,152	382,147	-0,080	-0,122
-726,137	-2,867	-0,071	-0,037
-725,123	19,743	-0,162	0,097
-724,108	6,382	-0,117	-0,064
-723,094	800,000	0,083	-0,195
-722,079	-57,878	-0,091	-0,029
-721,064	-144,983	-0,184	0,012
-720,050	-69,853	-0,073	0,021
-719,035	-44,371	-0,063	-0,023
-718,021	-14,196	0,065	-0,031
-717,006	-200,000	-0,022	-0,076
-715,991	35,020	-0,094	-0,061
-714,977	295,838	-0,028	0,038
-713,962	800,000	0,038	-0,095
-712,948	557,420	0,036	0,066
-711,933	-160,028	-0,029	0,001
-710,918	-56,064	-0,115	-0,038
-709,904	22,499	-0,150	0,091
-708,889	-83,623	-0,156	-0,037
-707,875	800,000	-0,029	-0,067
-706,860	98,069	-0,057	0,048
-705,845	118,416	-0,059	0,054
-704,831	-200,000	0,022	-0,175
-703,816	-43,236	0,114	0,043
-702,802	366,162	-0,092	-0,138
-701,787	-140,243	-0,140	-0,011
-700,772	126,533	-0,109	-0,103
-699,758	-200,000	-0,003	-0,021
-698,743	-200,000	0,010	0,097
-697,729	21,357	-0,119	-0,072
-696,714	15,712	0,080	0,046
-695,699	796,618	0,010	0,021
-694,685	195,094	-0,081	0,091
-693,670	800,000	-0,053	-0,124
-692,656	190,222	0,037	0,042
-691,641	-109,328	0,117	0,018
-690,627	-159,369	0,076	0,003
-689,612	108,158	-0,016	-0,014
-688,597	361,658	-0,023	0,035
-687,583	-198,715	0,120	-0,000
-686,568	-65,992	-0,116	-0,034
-685,554	27,506	-0,073	0,046
-684,539	800,000	-0,004	0,009
-683,524	-40,116	-0,103	0,040
-682,510	-170,317	-0,039	-0,001
-681,495	800,000	-0,072	-0,173
-680,481	344,309	0,051	0,075
-679,466	-94,602	-0,129	0,026
-678,451	617,706	0,016	0,030
-677,437	-124,578	0,077	0,009
-676,422	-62,034	-0,080	-0,025
-675,408	135,922	-0,054	0,053
-674,393	-21,896	-0,068	0,030
-673,378	-144,935	-0,101	-0,007
-672,364	-59,006	-0,038	-0,012
-671,349	800,000	0,025	-0,067
-670,335	-200,000	-0,019	-0,081
-669,320	-74,292	-0,080	0,021
-668,305	-200,000	0,005	-0,059
-667,291	308,635	-0,072	-0,100
-666,276	-200,000	0,024	-0,175
-665,262	211,301	-0,136	-0,160
-664,247	-115,669	-0,054	-0,007
-663,232	-60,207	0,048	-0,015
-662,218	800,000	-0,014	0,033
-661,203	87,135	-0,051	-0,042
-660,189	-14,108	-0,084	-0,040
-659,174	2,844	-0,014	0,007
-658,159	-37,614	0,055	-0,022
-657,145	194,461	-0,104	0,118
-656,130	69,259	-0,066	-0,051
-655,116	3,956	-0,070	0,038
-654,101	-86,013	-0,087	-0,020
-653,086	43,480	-0,115	-0,078
-652,072	113,989	-0,090	-0,081
-651,057	-200,000	0,016	-0,090
-650,043	336,091	-0,046	-0,067
-649,028	68,895	-0,068	-0,052
-648,014	-200,000	-0,001	-0,117
-646,999	-200,000	-0,018	0,144
-645,984	-30,753	0,075	0,031
-644,970	192,203	-0,109	-0,122
-643,955	-175,290	-0,090	0,002
-642,941	301,140	-0,062	0,085
-641,926	-67,443	-0,057	0,016
-640,911	773,150	-0,054	0,109
-639,897	5,921	0,043	-0,023
-638,882	-140,302	-0,152	-0,012
-637,868	55,158	-0,054	-0,039
-636,853	-200,000	-0,010	0,046
-635,838	-166,803	-0,077	-0,002
-634,824	113,670	0,055	-0,049
-633,809	-200,000	0,005	-0,078
-632,795	800,000	0,006	-0,020
-631,780	-200,000	-0,038	0,125
-630,765	173,762	-0,050	-0,053
-629,751	188,991	-0,080	-0,089
-628,736	800,000	0,011	-0,031
-627,722	800,000	-0,056	0,121
-626,707	-200,000	0,016	0,055
-625,692	233,927	-0,051	-0,063
-624,678	177,404	0,105	-0,114
-623,663	22,774	-0,072	0,044
-622,649	-14,353	-0,095	-0,045
-621,634	678,140	0,049	-0,094
-620,619	798,765	-0,028	-0,058
-619,605	136,112	0,109	-0,105
-618,590	800,000	0,011	0,027
-617,576	-31,297	0,018	-0,007
-616,561	800,000	-0,039	0,085
-615,546	-127,646	0,012	-0,001
-614,532	176,117	-0,081	-0,087
-613,517	-200,000	-0,002	-0,118
-612,503	158,013	-0,053	-0,055
-611,488	800,000	0,041	0,095
-610,474	-200,000	-0,015	-0,114
-609,459	-200,000	0,015	-0,052
-608,444	584,243	0,010	-0,018
-607,430	-36,340	-0,135	-0,053
-606,415	-200,000	0,022	-0,092
-605,401	557,145	0,073	-0,131
-604,386	-200,000	-0,015	-0,071
-603,371	-200,000	-0,001	-0,016
-602,357	53,271	-0,050	-0,035
-601,342	22,192	-0,068	0,041
-600,328	80,677	-0,017	0,013
-599,313	414,356	-0,062	-0,099
-598,298	800,000	-0,039	0,113
-597,284	-140,424	0,124	-0,009
-596,269	-200,000	0,005	-0,087
-595,255	662,744	-0,022	0,042
-594,240	286,037	-0,055	-0,074
-593,225	-200,000	-0,001	-0,084
-592,211	-200,000	-0,005	-0,039
-591,196	102,879	-0,105	-0,091
-590,182	-74,339	0,041	-0,011
-589,167	-42,741	0,065	-0,024
-588,152	-79,632	0,082	-0,020
-587,138	-86,695	-0,169	0,038
-586,123	800,000	-0,015	-0,037
-585,109	-200,000	-0,017	0,154
-584,094	-100,369	0,080	0,015
-583,079	800,000	0,036	-0,107
-582,065	-100,400	0,070	-0,013
-581,050	-95,128	-0,165	0,033
-580,036	-200,000	-0,013	0,092
-579,021	-200,000	0,009	0,045
-578,006	-200,000	0,016	-0,060
-576,992	-97,608	-0,103	-0,020
-575,977	-130,761	0,069	0,007
-574,963	800,000	0,045	0,112
-573,948	100,974	0,019	0,017
-572,934	416,761	0,064	-0,101
-571,919	45,701	0,068	-0,047
-570,904	206,722	0,020	0,023
-569,890	-200,000	0,026	-0,085
-568,875	32,630	0,130	0,083
-567,861	87,146	-0,049	0,040
-566,846	722,157	-0,048	0,095
-565,831	-200,000	-0,003	0,014
-564,817	-200,000	0,019	-0,065
-563,802	-41,036	0,040	-0,015
-562,788	-84,401	-0,087	-0,020
-561,773	599,473	0,043	0,079
-560,758	204,987	0,071	0,081
-559,744	49,006	0,065	0,045
-558,729	-200,000	-0,011	0,086
-557,715	-36,449	-0,040	-0,016
-556,700	-98,343	-0,141	-0,026
-555,685	-113,378	-0,082	-0,012
-554,671	61,296	-0,068	-0,050
-553,656	56,801	-0,049	-0,035
-552,642	-65,596	0,123	0,036
-551,627	-156,815	0,030	0,001
-550,612	-13,146	-0,067	-0,032
-549,598	44,042	-0,089	0,060
-548,583	58,986	0,020	-0,014
-547,569	-196,687	-0,146	-0,001
-546,554	-3,564	0,046	0,024
-545,539	5,036	-0,029	0,015
-544,525	-200,000	-0,003	0,108
-543,510	704,978	-0,017	0,034
-542,496	-200,000	-0,010	-0,081
-541,481	-185,341	0,103	0,001
-540,466	322,786	-0,044	-0,061
-539,452	98,769	0,026	0,022
-538,437	85,706	0,082	0,067
-537,423	5,299	0,034	0,019
-536,408	-47,391	-0,122	0,044
-535,393	0,054	0,095	-0,050
-534,379	-200,000	0,009	-0,093
-533,364	457,076	-0,046	0,075
-532,350	-60,060	-0,134	-0,042
-531,335	192,096	-0,062	0,069
-530,321	800,000	-0,028	0,090
-529,306	800,000	0,025	0,069
-528,291	407,572	0,022	-0,034
-527,277	-131,151	-0,133	0,013
-526,262	-200,000	-0,015	-0,095
-525,248	-200,000	0,015	-0,067
-524,233	305,697	0,090	0,124
-523,218	-2,882	0,033	0,017
-522,204	158,730	-0,082	-0,084
-521,189	800,000	0,030	-0,086
-520,175	800,000	0,037	-0,080
-519,160	96,666	0,062	-0,053
-518,145	228,249	0,034	0,041
-517,131	-148,780	0,041	-0,002
-516,116	800,000	-0,045	0,146
-515,102	-34,585	-0,041	-0,016
-514,087	645,609	0,024	-0,045
-513,072	213,893	-0,035	-0,041
-512,058	254,024	-0,070	0,089
-511,043	284,161	0,034	-0,046
-510,029	78,609	0,032	0,025
-509,014	-200,000	0,032	0,154
-507,999	300,536	0,089	0,121
-506,985	69,862	-0,073	-0,056
-505,970	-17,156	-0,099	-0,046
-504,956	199,173	-0,042	0,047
-503,941	125,688	-0,036	0,033
-502,926	-88,695	0,077	-0,017
-501,912	-50,073	0,038	-0,013
-500,897	800,000	-0,036	0,076
-499,883	-95,656	-0,093	-0,018
-498,868	-200,000	0,017	-0,130
-497,853	-116,859	-0,147	-0,020
-496,839	-175,556	0,108	0,002
-495,824	90,352	0,020	-0,017
-494,810	800,000	0,062	0,134
-493,795	-37,869	0,032	0,012
-492,781	-135,244	-0,034	0,003
-491,766	173,065	0,030	0,032
-490,751	-200,000	-0,009	0,118
-489,737	21,234	0,139	0,083
-488,722	199,480	-0,073	0,083
-487,708	-200,000	-0,007	0,027
-486,693	42,020	0,038	-0,025
-485,678	176,038	-0,026	0,028
-484,664	-33,032	0,088	-0,036
-483,649	-200,000	0,005	0,058
-482,635	800,000	-0,044	-0,140
-481,620	800,000	0,050	0,108
-480,605	27,330	-0,096	-0,059
-479,591	800,000	-0,079	0,208
-478,576	-200,000	-0,011	-0,082
-477,562	771,217	0,010	-0,020
-476,547	-5,628	-0,064	-0,032
-475,532	800,000	0,027	0,074
-474,518	50,510	0,046	-0,032
-473,503	355,901	-0,034	-0,051
-472,489	86,294	-0,076	-0,062
-471,474	-200,000	-0,008	-0,163
-470,459	-200,000	0,007	0,141
-469,445	105,147	-0,116	-0,101
-468,430	156,815	-0,073	0,075
-467,416	-94,993	0,157	-0,031
-466,401	-67,890	0,128	-0,037
-465,386	800,000	-0,044	0,094
-464,372	294,535	-0,045	0,061
-463,357	101,508	-0,113	-0,097
-462,343	-140,696	-0,053	0,004
-461,328	416,274	-0,034	-0,053
-460,313	-6,511	0,096	-0,048
-459,299	67,231	-0,066	0,050
-458,284	161,701	-0,064	-0,066
-457,270	327,130	0,141	0,200
-456,255	-200,000	0,008	-0,058
-455,241	89,178	0,129	-0,106
-454,226	71,834	-0,036	0,028
-453,211	67,670	0,051	0,038
-452,197	-91,200	-0,119	0,025
-451,182	44,919	0,082	0,056
-450,168	451,002	-0,073	-0,120
-449,153	16,757	-0,088	-0,051
-448,138	800,000	-0,039	-0,084
-447,124	-116,014	-0,120	-0,016
-446,109	-11,901	0,087	0,042
-445,095	-118,225	-0,042	-0,005
-444,080	149,626	0,054	0,054
-443,065	-200,000	-0,014	0,045
-442,051	351,188	-0,026	-0,038
-441,036	-119,057	0,021	0,003
-440,022	-200,000	-0,017	-0,123
-439,007	-151,196	0,129	0,007
-437,992	-77,076	-0,063	-0,016
-436,978	-200,000	0,021	-0,088
-435,963	-19,170	-0,040	0,018
-434,949	-200,000	-0,013	0,140
-433,934	-200,000	-0,015	-0,237
-432,919	-200,000	-0,015	-0,068
-431,905	-44,906	-0,071	-0,026
-430,890	-181,929	0,153	-0,002
-429,876	-89,619	-0,138	0,030
-428,861	-200,000	0,016	-0,125
-427,846	-200,000	-0,028	-0,108
-426,832	-200,000	-0,021	-0,125
-425,817	-46,274	-0,076	-0,027
-424,803	508,222	-0,111	-0,191
-423,788	108,018	0,028	-0,025
-422,773	3,460	0,057	0,031
-421,759	800,000	0,058	0,148
-420,744	231,681	0,046	0,055
-419,730	-5,739	-0,086	0,043
-418,715	-200,000	-0,006	0,025
-417,701	-14,271	0,106	0,050
-416,686	-200,000	0,000	0,024
-415,671	733,418	-0,046	0,092
-414,657	800,000	-0,068	0,179
-413,642	-200,000	-0,017	0,092
-412,628	-200,000	-0,025	-0,141
-411,613	-100,538	-0,064	0,012
-410,598	138,327	0,113	-0,109
-409,584	295,648	-0,064	-0,086
-408,569	-200,000	-0,020	0,085
-407,555	20,909	0,129	-0,077
-406,540	-47,403	0,050	-0,018
-405,525	130,726	-0,146	-0,138
-404,511	85,481	-0,037	0,030
-403,496	800,000	0,010	0,022
-402,482	9,190	0,132	0,073
-401,467	41,839	-0,020	-0,013
-400,452	-200,000	0,023	0,188
-399,438	800,000	-0,037	0,113
-398,423	-200,000	-0,016	0,062
-397,409	-20,085	0,094	0,042
-396,394	-200,000	0,020	-0,132
-395,379	800,000	0,038	-0,078
-394,365	-69,163	0,177	-0,050
-393,350	108,149	0,056	-0,049
-392,336	72,943	-0,063	0,048
-391,321	-200,000	-0,007	-0,047
-390,306	800,000	0,021	-0,065
-389,292	-200,000	-0,026	-0,171
-388,277	800,000	-0,039	0,124
-387,263	800,000	0,033	0,098
-386,248	71,106	0,051	0,039
-385,233	-200,000	0,014	0,164
-384,219	136,992	0,049	0,047
-383,204	-200,000	0,017	-0,069
-382,190	-55,180	0,071	0,023
-381,175	800,000	0,032	0,083
-380,160	191,795	0,115	-0,128
-379,146	800,000	0,048	0,098
-378,131	-200,000	-0,020	-0,071
-377,117	72,321	-0,124	-0,095
-376,102	-200,000	-0,015	-0,171
-375,088	-90,933	0,055	0,012
-374,073	-200,000	-0,029	-0,098
-373,058	8,656	0,030	0,017
-372,044	-200,000	0,011	0,062
-371,029	-200,000	0,045	0,148
-370,015	77,321	0,053	0,041
-369,000	-200,000	-0,003	-0,019
-367,985	-78,205	0,062	0,016
-366,971	-200,000	0,011	-0,133
-365,956	-135,176	0,028	0,002
-364,942	800,000	0,020	-0,061
-363,927	-14,003	-0,061	-0,029
-362,912	50,739	0,091	0,063
-361,898	47,730	-0,091	0,062
-360,883	600,389	-0,028	-0,052
-359,869	-16,996	0,052	-0,024
-358,854	241,562	-0,065	-0,080
-357,839	281,796	-0,020	-0,027
-356,825	800,000	-0,012	-0,032
-355,810	-17,705	-0,065	-0,030
-354,796	-42,549	0,058	-0,022
-353,781	-64,966	-0,087	-0,026
-352,766	-200,000	-0,036	-0,160
-351,752	-43,472	-0,101	-0,037
-350,737	225,034	0,118	0,140
-349,723	-200,000	0,001	0,017
-348,708	-53,949	-0,092	0,031
-347,693	140,273	-0,068	-0,065
-346,679	800,000	-0,039	-0,084
-345,664	276,136	-0,052	0,068
-344,650	-200,000	-0,017	0,064
-343,635	-200,000	0,042	0,161
-342,620	-19,464	-0,034	-0,015
-341,606	-69,708	0,012	0,003
-340,591	155,093	0,105	-0,106
-339,577	-99,443	-0,140	0,026
-338,562	139,836	-0,120	-0,116
-337,548	35,778	0,019	0,012
-336,533	122,195	0,099	0,090
-335,518	67,262	-0,114	0,085
-334,504	722,340	-0,045	0,089
-333,489	-200,000	-0,003	-0,081
-332,475	800,000	-0,033	-0,078
-331,460	-61,275	-0,064	0,020
-330,445	-158,053	0,019	-0,001
-329,431	-22,023	0,046	0,020
-328,416	-200,000	0,010	0,131
-327,402	11,433	0,144	0,081
-326,387	195,883	0,025	-0,028
-325,372	-200,000	-0,094	0,000
-324,358	-200,000	0,008	-0,094
-323,343	125,140	0,050	-0,047
-322,329	-126,380	-0,029	0,003
-321,314	81,748	0,038	0,030
-320,299	-200,000	0,006	0,191
-319,285	-200,000	-0,013	-0,070
-318,270	-58,938	0,058	-0,018
-317,256	800,000	0,048	-0,127
-316,241	-23,367	0,025	-0,011
-315,226	-121,127	0,120	-0,015
-314,212	-60,778	0,017	0,005
-313,197	132,502	-0,092	-0,087
-312,183	-200,000	-0,005	0,049
-311,168	142,578	-0,129	-0,126
-310,153	328,395	-0,040	-0,057
-309,139	-200,000	-0,022	0,073
-308,124	66,112	0,051	0,038
-307,110	98,049	0,074	0,062
-306,095	-200,000	-0,019	0,100
-305,080	-200,000	-0,016	0,077
-304,066	-143,805	0,085	-0,006
-303,051	416,472	-0,057	0,090
-302,037	133,371	-0,041	-0,039
-301,022	783,724	-0,002	0,005
-300,008	499,031	0,096	0,162
-298,993	-146,510	0,192	-0,012
-297,978	-17,989	0,088	0,040
-296,964	-85,067	-0,096	-0,022
-295,949	-75,829	-0,077	-0,020
-294,935	-111,159	-0,071	-0,011
-293,920	-151,125	0,075	0,004
-292,905	143,662	-0,104	0,102
-291,891	261,347	0,098	-0,124
-290,876	-144,749	0,082	-0,005
-289,862	408,125	-0,029	0,045
-288,847	-200,000	0,014	0,110
-287,832	212,485	-0,014	-0,016
-286,818	515,277	0,088	-0,151
-285,803	48,475	0,087	0,060
-284,789	318,890	0,066	0,091
-283,774	-81,104	0,122	-0,029
-282,759	174,523	0,099	-0,105
-281,745	31,009	-0,116	0,073
-280,730	49,887	-0,071	0,049
-279,716	-200,000	0,016	0,121
-278,701	800,000	0,062	0,150
-277,686	-200,000	-0,005	0,019
-276,672	-142,948	-0,072	-0,005
-275,657	22,229	-0,106	0,063
-274,643	57,962	-0,080	-0,057
-273,628	-200,000	0,036	-0,138
-272,613	800,000	0,012	-0,029
-271,599	800,000	0,043	0,136
-270,584	82,724	0,200	0,159
-269,570	-200,000	0,019	0,129
-268,555	666,314	-0,056	-0,106
-267,540	24,318	-0,098	0,059
-266,526	340,901	-0,018	0,026
-265,511	455,782	0,019	0,031
-264,497	-152,275	0,080	-0,004
-263,482	-200,000	-0,039	0,265
-262,467	-200,000	0,011	-0,045
-261,453	800,000	0,007	-0,017
-260,438	800,000	0,007	-0,016
-259,424	701,377	0,009	-0,017
-258,409	313,828	0,009	0,012
-257,395	9,213	-0,107	-0,059
-256,380	624,675	-0,016	0,029
-255,365	-111,180	0,130	0,019
-254,351	-94,424	0,111	0,022
-253,336	307,096	-0,025	-0,034
-252,322	32,791	-0,080	-0,051
-251,307	-17,721	-0,075	-0,034
-250,292	-16,637	0,141	-0,065
-249,278	-38,069	0,160	0,062
-248,263	-175,958	0,076	-0,001
-247,249	800,000	-0,002	-0,005
-246,234	-200,000	0,006	0,031
-245,219	111,057	-0,121	-0,107
-244,205	147,556	-0,077	-0,075
-243,190	287,910	0,082	0,108
-242,176	143,195	-0,043	-0,041
-241,161	-200,000	0,017	0,079
-240,146	3,601	-0,022	-0,011
-239,132	12,619	-0,125	-0,070
-238,117	-23,351	0,130	0,057
-237,103	71,301	-0,051	-0,038
-236,088	-200,000	0,003	0,161
-235,073	59,743	0,065	-0,047
-234,059	792,217	-0,079	0,160
-233,044	154,482	0,165	0,165
-232,030	-200,000	0,002	0,020
-231,015	682,389	-0,007	-0,013
-230,000	-200,000	-0,005	-0,029
-228,986	6,318	0,111	-0,060
-227,971	-91,226	0,034	0,007
-226,957	-200,000	-0,017	-0,094
-225,942	800,000	-0,033	0,077
-224,927	-200,000	-0,006	0,047
-223,913	800,000	0,047	-0,110
-222,898	800,000	0,044	0,108
-221,884	-131,788	-0,061	0,006
-220,869	-125,783	0,067	-0,007
-219,855	-116,977	0,009	-0,001
-218,840	105,818	0,111	-0,096
-217,825	-0,715	0,088	0,045
-216,811	-116,510	-0,060	0,008
-215,796	800,000	0,041	-0,100
-214,782	-120,473	0,009	-0,001
-213,767	-37,886	0,036	-0,014
-212,752	-3,686	0,046	-0,023
-211,738	238,251	0,095	0,115
-210,723	160,543	0,109	0,111
-209,709	800,000	-0,010	-0,028
-208,694	800,000	-0,031	-0,082
-207,679	613,786	0,024	-0,045
-206,665	619,881	-0,024	0,043
-205,650	-40,692	0,024	-0,009
-204,636	-21,264	0,060	0,027
-203,621	88,396	0,068	0,055
-202,606	-117,080	0,046	0,006
-201,592	-64,896	-0,197	-0,058
-200,577	-128,835	0,118	-0,012
-199,563	-197,222	0,113	0,001
-198,548	99,899	-0,024	0,021
-197,533	-115,472	0,135	-0,018
-196,519	117,956	-0,045	-0,040
-195,504	618,445	-0,034	-0,062
-194,490	-133,980	-0,152	0,014
-193,475	-98,911	-0,182	0,033
-192,460	-101,644	0,069	0,012
-191,446	-105,772	0,014	0,002
-190,431	10,968	0,158	0,088
-189,417	261,676	-0,022	0,028
-188,402	540,982	0,029	-0,050
-187,387	-93,212	0,072	-0,015
-186,373	-116,880	-0,057	-0,008
-185,358	-200,000	-0,015	0,059
-184,344	-200,000	-0,012	-0,071
-183,329	-89,639	0,124	0,026
-182,315	-109,512	0,080	-0,012
-181,300	800,000	-0,055	-0,145
-180,285	800,000	-0,059	0,125
-179,271	-200,000	-0,033	-0,190
-178,256	-200,000	0,008	-0,107
-177,242	-22,856	0,086	-0,038
-176,227	-177,994	-0,086	0,001
-175,212	-179,016	-0,083	-0,001
-174,198	-66,645	-0,058	-0,017
-173,183	-200,000	0,007	-0,087
-172,169	137,040	-0,130	0,123
-171,154	106,690	-0,092	-0,080
-170,139	24,551	-0,096	0,058
-169,125	-83,778	0,203	0,047
-168,110	93,608	0,090	0,074
-167,096	40,048	0,112	0,073
-166,081	800,000	-0,023	-0,066
-165,066	-46,364	-0,145	-0,052
-164,052	20,677	0,041	0,024
-163,037	-200,000	0,009	0,040
-162,023	221,731	0,095	0,112
-161,008	138,593	0,100	0,095
-159,993	23,909	-0,142	0,085
-158,979	800,000	-0,039	-0,113
-157,964	-200,000	0,016	-0,167
-156,950	188,237	-0,048	0,052
-155,935	-63,277	0,139	-0,042
-154,920	-23,575	-0,030	0,013
-153,906	-8,698	0,104	-0,050
-152,891	-8,927	-0,110	0,054
-151,877	95,825	-0,089	0,074
-150,862	-200,000	0,010	-0,125
-149,847	96,099	-0,117	0,097
-148,833	-39,887	0,088	-0,033
-147,818	325,014	0,031	0,043
-146,804	-200,000	-0,004	0,181
-145,789	-116,459	-0,047	-0,006
-144,775	-200,000	-0,006	-0,064
-143,760	-34,167	0,117	-0,047
-142,745	96,204	-0,147	-0,123
-141,731	-200,000	0,004	0,091
-140,716	-200,000	0,014	0,074
-139,702	29,747	0,062	-0,038
-138,687	-150,076	0,122	0,007
-137,672	-88,443	-0,089	-0,019
-136,658	-129,628	-0,076	-0,007
-135,643	-112,241	-0,146	0,021
-134,629	800,000	0,048	0,134
-133,614	77,638	0,053	-0,041
-132,599	-155,954	0,113	0,005
-131,585	800,000	0,037	0,099
-130,570	-200,000	0,003	0,028
-129,556	734,611	0,068	-0,134
-128,541	800,000	-0,022	-0,048
-127,526	800,000	0,042	0,086
-126,512	-128,530	-0,049	-0,005
-125,497	211,663	-0,040	-0,046
-124,483	-200,000	0,025	-0,133
-123,468	-200,000	0,004	-0,120
-122,453	137,598	-0,058	-0,056
-121,439	60,087	-0,094	0,068
-120,424	-181,914	-0,091	-0,001
-119,410	495,257	-0,066	0,111
-118,395	37,977	-0,138	0,089
-117,380	-200,000	-0,009	-0,040
-116,366	-200,000	0,039	-0,157
-115,351	114,179	0,143	-0,127
-114,337	-200,000	-0,004	-0,044
-113,322	800,000	0,024	0,055
-112,307	88,964	-0,048	0,039
-111,293	-200,000	0,011	-0,058
-110,278	-200,000	-0,000	-0,042
-109,264	30,203	-0,010	0,006
-108,249	-126,891	0,018	-0,002
-107,234	-127,936	0,077	-0,008
-106,220	251,087	0,045	-0,055
-105,205	-200,000	-0,026	-0,090
-104,191	110,554	-0,041	0,035
-103,176	217,984	-0,081	0,093
-102,162	800,000	0,027	0,069
-101,147	34,417	-0,059	0,037
-100,132	140,108	-0,070	-0,067
-99,118	-114,205	0,055	0,008
-98,103	509,056	0,013	-0,022
-97,089	52,900	0,059	-0,041
-96,074	800,000	-0,017	-0,039
-95,059	-55,595	0,097	-0,031
-94,045	502,320	-0,083	0,139
-93,030	89,580	0,072	-0,058
-92,016	656,644	-0,003	-0,005
-91,001	800,000	-0,017	-0,044
-89,986	284,852	0,012	-0,015
-88,972	383,798	0,045	-0,068
-87,957	183,806	0,039	0,041
-86,943	487,005	-0,019	0,032
-85,928	-200,000	0,008	-0,033
-84,913	-200,000	-0,001	-0,077
-83,899	166,911	0,059	0,061
-82,884	56,758	0,054	0,038
-81,870	-200,000	0,031	0,161
-80,855	800,000	-0,003	0,008
-79,840	-99,601	-0,022	0,004
-78,826	-200,000	-0,004	0,064
-77,811	442,324	-0,034	-0,054
-76,797	273,111	0,044	0,057
-75,782	246,054	-0,016	-0,019
-74,767	591,434	0,021	0,038
-73,753	-144,060	0,174	-0,012
-72,738	67,498	-0,138	0,102
-71,724	800,000	-0,019	-0,056
-70,709	81,520	0,046	-0,036
-69,694	800,000	0,049	0,104
-68,680	324,360	0,057	0,079
-67,665	-40,054	-0,217	0,082
-66,651	-200,000	-0,039	0,131
-65,636	435,553	-0,061	-0,096
-64,622	17,586	-0,070	0,040
-63,607	296,606	-0,043	0,058
-62,592	428,497	-0,068	-0,107
-61,578	580,151	-0,066	-0,117
-60,563	-131,866	-0,047	-0,004
-59,549	-200,000	-0,002	0,040
-58,534	-91,785	-1,416	-0,289
-57,519	689,301	-0,711	-1,355
-56,505	-200,000	-0,939	-4,419
-55,490	-48,678	0,578	-0,200
-54,476	800,000	4,935	11,919
-53,461	-200,000	14,662	264,568
-52,446	-200,000	696,530	2271,033
-51,432	589,253	1622,394	2911,424
-50,417	120,754	1631,158	1470,404
-49,403	78,400	1284,471	993,892
-48,388	38,057	1022,869	658,375
-47,373	23,259	982,362	583,618
-46,359	22,384	971,608	574,337
-45,344	21,166	967,257	567,758
-44,330	21,155	965,898	566,902
-43,315	20,961	964,482	565,417
-42,300	20,977	963,509	564,876
-41,286	20,981	962,428	564,233
-40,271	20,923	961,467	563,456
-39,257	20,919	960,471	562,838
-38,242	20,923	959,441	562,227
-37,227	20,928	958,831	561,863
-36,213	20,848	957,853	561,008
-35,198	20,841	957,104	560,525
-34,184	20,915	956,449	560,356
-33,169	20,939	955,250	559,709
-32,154	20,910	954,491	559,150
-31,140	20,942	953,570	558,691
-30,125	20,959	952,760	558,251
-29,111	20,909	952,089	557,672
-28,096	20,929	951,486	557,363
-27,082	20,970	950,420	556,847
-26,067	20,967	949,692	556,390
-25,052	20,894	949,157	555,819
-24,038	20,875	948,451	555,324
-23,023	21,007	947,628	555,242
-22,009	20,936	947,277	554,788
-20,994	20,937	946,535	554,334
-19,979	21,010	945,882	554,162
-18,965	20,922	945,347	553,546
-17,950	20,945	944,727	553,234
-16,936	20,848	944,132	552,555
-15,921	20,893	943,490	552,300
-14,906	20,824	942,642	551,563
-13,892	20,815	942,141	551,219
-12,877	20,810	941,425	550,760
-11,863	20,814	940,858	550,422
-10,848	20,799	940,273	550,010
-9,833	20,955	939,740	550,171
-8,819	20,906	939,198	549,677
-7,804	20,802	938,598	548,973
-6,790	20,780	938,189	548,642
-5,775	20,876	937,348	548,433
-4,760	20,805	936,883	547,913
-3,746	20,844	936,046	547,527
-2,731	20,598	935,595	546,462
-1,717	20,587	934,845	545,968
-0,702	20,699	934,161	545,902
0,313	20,471	933,381	545,548
1,327	23,455	931,627	553,868
2,342	32,752	794,303	496,965
3,356	29,975	451,292	278,143
4,371	-0,487	295,592	151,552
5,386	-4,912	276,661	137,613
6,400	-6,531	270,901	133,222
7,415	-6,861	268,549	131,747
8,429	-6,462	267,436	131,558
9,444	-6,338	266,643	131,271
10,459	-6,272	265,809	130,909
11,473	-6,381	265,360	130,576
12,488	-6,428	264,691	130,193
13,502	-6,614	264,429	129,882
14,517	-6,419	263,915	129,795
15,531	-6,153	263,560	129,852
16,546	-6,052	263,199	129,754
17,561	-6,186	262,875	129,462
18,575	-5,815	262,553	129,627
19,590	-6,056	262,175	129,211
20,604	-6,052	261,832	129,034
21,619	-6,119	261,534	128,815
22,634	-6,058	261,153	128,671
23,648	-6,074	260,933	128,536
24,663	-5,921	260,644	128,521
25,677	-6,146	260,475	128,223
26,692	-6,204	260,217	128,033
27,707	-5,958	259,864	128,068
28,721	-6,251	259,698	127,713
29,736	-6,230	259,346	127,547
30,750	-6,106	259,027	127,490
31,765	-6,150	258,896	127,374
32,780	-6,129	258,643	127,258
33,794	-6,182	258,486	127,121
34,809	-6,174	258,211	126,981
35,823	-6,389	258,028	126,690
36,838	-6,275	257,762	126,649
37,853	-6,100	257,512	126,670
38,867	-6,268	257,348	126,429
39,882	-6,290	256,996	126,226
40,896	-6,111	256,689	126,222
41,911	-6,221	256,458	126,000
42,926	-6,240	256,447	125,967
43,940	-6,341	256,205	125,747
44,955	-6,322	255,808	125,558
45,969	-6,357	255,701	125,464
46,984	-6,444	255,467	125,261
47,999	-6,702	255,336	124,959
49,013	-6,814	255,025	124,697
50,028	-7,016	254,710	124,355
51,042	-6,845	254,223	124,255
52,057	-7,087	254,062	123,954
53,071	-6,756	253,781	124,095
54,086	-6,725	253,823	124,132
55,101	-6,765	253,672	124,012
56,115	-6,592	253,500	124,067
57,130	-6,301	253,438	124,280
58,144	-6,131	253,274	124,336
59,159	-6,110	253,090	124,253
60,174	-6,055	252,676	124,086
61,188	-6,281	252,512	123,799
62,203	-6,157	252,326	123,805
63,217	-6,027	252,283	123,884
64,232	-6,031	251,819	123,642
65,247	-6,277	251,804	123,411
66,261	-6,220	251,443	123,272
67,276	-6,277	251,182	123,084
68,290	-6,507	250,934	122,754
69,305	-6,625	250,718	122,536
70,320	-6,527	250,639	122,570
71,334	-6,249	250,404	122,683
72,349	-6,170	250,318	122,698
73,363	-6,040	250,058	122,671
74,378	-6,009	249,826	122,573
75,393	-6,098	249,662	122,406
76,407	-5,970	249,455	122,403
77,422	-6,250	249,357	122,104
78,436	-6,134	249,015	122,024
79,451	-6,237	248,951	121,895
80,466	-6,221	248,675	121,762
81,480	-6,288	248,390	121,555
82,495	-6,472	248,240	121,314
83,509	-6,142	247,900	121,418
84,524	-6,286	247,926	121,297
85,539	-6,393	247,628	121,049
86,553	-6,405	247,435	120,934
87,568	-6,431	247,332	120,851
88,582	-6,492	247,087	120,669
89,597	-6,416	246,873	120,617
90,611	-6,290	246,783	120,669
91,626	-6,120	246,632	120,729
92,641	-6,027	246,439	120,702
93,655	-6,203	246,181	120,416
94,670	-6,332	246,011	120,214
95,684	-6,319	245,835	120,128
96,699	-6,370	245,769	120,042
97,714	-6,339	245,422	119,888
98,728	-6,593	245,175	119,543
99,743	-6,567	245,005	119,472
100,757	-6,582	244,781	119,339
101,772	-6,520	244,768	119,375
102,787	-6,435	244,542	119,324
103,801	-6,490	244,326	119,162
104,816	-6,325	244,115	119,187
105,830	-6,439	244,116	119,081
106,845	-6,276	243,926	119,114
107,860	-6,512	243,767	118,829
108,874	-6,370	243,556	118,834
109,889	-6,513	243,097	118,480
110,903	-6,336	243,003	118,571
111,918	-6,601	242,887	118,284
112,933	-6,359	242,831	118,448
113,947	-6,373	242,688	118,355
114,962	-6,321	242,378	118,236
115,976	-6,241	242,137	118,175
116,991	-6,417	242,203	118,051
118,006	-6,332	241,865	117,945
119,020	-6,256	241,703	117,919
120,035	-6,217	241,569	117,875
121,049	-5,950	241,324	117,966
122,064	-6,238	241,177	117,646
123,079	-6,368	241,085	117,483
124,093	-6,326	240,775	117,356
125,108	-6,726	240,646	116,953
126,122	-6,605	240,455	116,950
127,137	-6,676	240,235	116,775
128,151	-6,504	239,991	116,786
129,166	-6,514	239,759	116,655
130,181	-6,477	239,718	116,655
131,195	-6,555	239,371	116,412
132,210	-6,441	239,355	116,487
133,224	-6,351	239,252	116,500
134,239	-6,481	239,113	116,316
135,254	-6,385	239,069	116,363
136,268	-6,476	238,643	116,070
137,283	-6,638	238,424	115,822
138,297	-6,673	238,273	115,710
139,312	-6,770	238,146	115,558
140,327	-6,677	237,972	115,539
141,341	-6,071	238,005	116,037
142,356	-6,027	237,918	116,020
143,370	-6,261	237,660	115,694
144,385	-6,319	237,538	115,577
145,400	-5,941	237,279	115,747
146,414	-5,913	237,168	115,705
147,429	-5,996	236,910	115,502
148,443	-6,030	236,562	115,294
149,458	-5,978	236,570	115,330
150,473	-5,913	236,362	115,271
151,487	-6,235	236,058	114,853
152,502	-6,251	236,056	114,830
153,516	-6,060	235,961	114,926
154,531	-6,063	235,668	114,771
155,546	-6,225	235,501	114,550
156,560	-6,247	235,453	114,498
157,575	-6,144	235,178	114,437
158,589	-6,399	235,095	114,182
159,604	-6,058	234,827	114,314
160,619	-5,718	234,719	114,524
161,633	-6,006	234,774	114,310
162,648	-5,998	234,470	114,158
163,662	-6,189	234,276	113,901
164,677	-6,263	234,050	113,722
165,692	-6,101	233,889	113,763
166,706	-5,677	233,741	114,018
167,721	-6,031	233,773	113,741
168,735	-5,814	233,550	113,796
169,750	-5,896	233,300	113,598
170,764	-6,200	233,195	113,296
171,779	-6,161	233,051	113,247
172,794	-5,957	232,967	113,358
173,808	-6,021	232,667	113,151
174,823	-6,573	232,394	112,571
175,837	-6,668	232,123	112,356
176,852	-6,341	232,105	112,595
177,867	-6,219	232,116	112,687
178,881	-6,096	231,842	112,640
179,896	-6,007	231,746	112,654
180,910	-5,888	231,545	112,640
181,925	-6,017	231,445	112,480
182,940	-5,929	231,147	112,394
183,954	-6,027	231,093	112,281
184,969	-5,811	230,937	112,364
185,983	-5,972	230,874	112,198
186,998	-5,695	230,652	112,296
188,013	-5,813	230,568	112,153
189,027	-5,951	230,328	111,918
190,042	-5,789	230,297	112,020
191,056	-6,057	230,205	111,756
192,071	-6,104	229,972	111,596
193,086	-6,072	229,707	111,482
194,100	-6,366	229,559	111,171
195,115	-6,821	228,892	110,485
196,129	-7,638	228,759	109,776
197,144	-3,978	229,908	113,174
198,159	0,857	231,376	117,675
199,173	4,090	232,095	120,565
200,188	4,725	232,073	121,039
201,202	4,722	231,871	120,921
202,217	4,549	231,907	120,793
203,232	4,656	231,939	120,883
204,246	4,924	231,520	120,863
205,261	5,045	231,441	120,905
206,275	5,308	231,390	121,073
207,290	5,252	231,119	120,876
208,304	5,117	230,975	120,686
209,319	4,985	230,921	120,544
210,334	4,955	230,626	120,355
211,348	4,776	230,418	120,097
212,363	4,548	230,255	119,825
213,377	4,100	229,909	119,287
214,392	4,106	229,793	119,221
215,407	4,478	229,610	119,403
216,421	4,441	229,529	119,322
217,436	4,234	229,299	119,032
218,450	3,950	229,194	118,747
219,465	3,909	228,922	118,564
220,480	4,082	228,839	118,644
221,494	4,232	228,599	118,625
222,509	4,040	228,707	118,522
223,523	4,108	228,357	118,382
224,538	3,989	228,285	118,243
225,553	4,063	228,088	118,188
226,567	4,414	228,018	118,410
227,582	4,526	228,098	118,527
228,596	4,448	227,920	118,364
229,611	4,226	227,694	118,066
230,626	4,057	227,520	117,836
231,640	4,007	227,420	117,736
232,655	4,281	227,215	117,828
233,669	4,857	227,171	118,235
234,684	4,815	227,231	118,224
235,699	4,533	226,804	117,776
236,713	4,496	226,666	117,665
237,728	4,313	226,299	117,325
238,742	4,132	226,181	117,116
239,757	4,204	226,031	117,082
240,772	4,181	225,959	117,017
241,786	4,036	225,767	116,797
242,801	4,423	225,726	117,059
243,815	4,413	225,716	117,036
244,830	4,507	225,606	117,040
245,844	4,254	225,266	116,662
246,859	4,020	225,060	116,368
247,874	4,672	225,012	116,825
248,888	4,369	224,926	116,541
249,903	4,526	224,525	116,441
250,917	4,519	224,458	116,391
251,932	4,189	224,356	116,079
252,947	4,164	224,317	116,030
253,961	4,257	223,987	115,919
254,976	4,148	223,858	115,760
255,990	4,579	223,754	116,019
257,005	4,359	223,677	115,804
258,020	4,370	223,548	115,735
259,034	4,541	223,493	115,825
260,049	4,572	223,085	115,625
261,063	4,468	223,136	115,564
262,078	4,560	223,135	115,622
263,093	4,639	222,925	115,562
264,107	4,388	222,828	115,314
265,122	4,519	222,620	115,294
266,136	4,771	222,542	115,431
267,151	4,721	222,421	115,321
268,166	4,281	222,134	114,834
269,180	4,125	221,803	114,537
270,195	4,111	221,650	114,437
271,209	4,167	221,461	114,371
272,224	4,296	221,448	114,450
273,239	4,084	221,403	114,259
274,253	4,240	221,065	114,190
275,268	3,859	221,038	113,884
276,282	3,820	220,868	113,757
277,297	3,657	220,695	113,537
278,312	3,930	220,493	113,625
279,326	4,066	220,530	113,734
280,341	4,306	220,402	113,835
281,355	4,444	220,209	113,827
282,370	4,207	220,002	113,535
283,384	4,140	219,792	113,367
284,399	3,988	219,728	113,213
285,414	3,854	219,610	113,043
286,428	4,046	219,566	113,151
287,443	4,069	219,494	113,121
288,457	4,455	219,218	113,252
289,472	4,149	219,029	112,920
290,487	3,764	218,792	112,505
291,501	3,736	218,564	112,358
292,516	4,008	218,597	112,564
293,530	4,086	218,447	112,534
294,545	3,961	218,343	112,379
295,560	3,939	218,223	112,291
296,574	4,123	218,144	112,375
297,589	4,408	217,957	112,476
298,603	4,436	217,829	112,421
299,618	4,270	217,612	112,178
300,633	4,120	217,633	112,069
301,647	4,414	217,499	112,204
302,662	4,650	217,314	112,270
303,676	4,681	217,237	112,242
304,691	4,444	217,048	111,963
305,706	4,711	216,863	112,051
306,720	4,444	216,877	111,855
307,735	3,996	216,736	111,448
308,749	4,095	216,404	111,339
309,764	4,212	216,425	111,424
310,779	4,636	216,230	111,620
311,793	4,321	216,081	111,306
312,808	4,545	215,946	111,388
313,822	4,019	215,884	110,967
314,837	3,937	215,554	110,728
315,852	4,195	215,296	110,771
316,866	4,131	215,250	110,692
317,881	4,439	215,185	110,870
318,895	4,229	215,125	110,678
319,910	4,277	214,876	110,575
320,925	3,946	214,735	110,255
321,939	3,924	214,475	110,095
322,954	3,974	214,418	110,092
323,968	4,247	214,338	110,237
324,983	4,253	214,234	110,178
325,997	4,514	214,163	110,318
327,012	4,106	213,961	109,913
328,027	4,298	213,895	110,006
329,041	4,736	213,800	110,260
330,056	4,706	213,693	110,174
331,070	4,317	213,502	109,788
332,085	3,847	213,291	109,336
333,100	4,004	213,147	109,363
334,114	4,259	212,980	109,449
335,129	4,289	212,897	109,418
336,143	3,966	212,811	109,135
337,158	4,173	212,486	109,105
338,173	4,189	212,460	109,094
339,187	4,082	212,315	108,934
340,202	3,860	212,147	108,681
341,216	3,827	211,857	108,500
342,231	4,025	211,965	108,685
343,246	3,962	211,724	108,507
344,260	3,946	211,780	108,515
345,275	3,965	211,582	108,417
346,289	4,345	211,418	108,591
347,304	4,478	211,259	108,593
348,319	4,181	211,160	108,324
349,333	4,262	210,873	108,224
350,348	4,483	210,841	108,353
351,362	4,564	210,853	108,406
352,377	4,585	210,697	108,331
353,392	4,274	210,527	108,016
354,406	4,370	210,318	107,966
355,421	193,432	1344,345	1430,299
356,435	154,377	1482,595	1430,388
