DTS Sentinel unit serial number:	SN410029Multiplexer serial number:	ORYXHardware model number:	OX2-SRSoftware version number:	ORYX F/W v4,00 Oryx Data Collector v3.7.2.0data status	okinstallation	B6 Nyhavnadifferential loss correction	single-endedforward channel	channel 2reverse channel	N/Adate	2023/12/11time	07:40:08forward acquisition time	300,00reverse acquisition time	0,00gamma	499,1914k internal	0,3127k external	0,3127temperature offset calibration	1,0000default loss term (dB/km)	0,3820temperature slope calibration	1,0000multiplexer offset coefficient	1,0000multiplexer slope coefficient	1,0000fibre end	0,00T internal ref (°C)	18,80T ext. ref 1 (°C)	1,19T ext. ref 2 (°C)	1,22length (m)	temperature (°C)	Stokes	anti-Stokes-744,400	-200,000	-0,067	0,000
-743,385	-166,806	-0,238	0,007
-742,371	-200,000	0,008	0,046
-741,356	26,400	-0,114	0,071
-740,342	344,479	0,118	0,172
-739,327	-93,458	-0,257	-0,053
-738,312	-167,287	-0,118	0,003
-737,298	-114,350	-0,316	0,045
-736,283	173,997	0,070	0,075
-735,269	-61,798	-0,234	0,072
-734,254	355,718	0,059	-0,088
-733,239	-130,361	-0,494	-0,049
-732,225	-52,510	0,111	-0,038
-731,210	456,855	0,051	0,085
-730,196	-67,032	-0,096	-0,028
-729,181	99,593	-0,153	-0,132
-728,167	-200,000	0,007	0,074
-727,152	101,684	-0,046	0,040
-726,137	-200,000	0,018	0,080
-725,123	685,835	-0,075	-0,147
-724,108	296,496	-0,091	-0,124
-723,094	36,643	-0,100	-0,066
-722,079	56,855	0,113	-0,081
-721,064	-88,016	0,050	-0,011
-720,050	800,000	-0,008	0,026
-719,035	-200,000	0,003	0,135
-718,021	-200,000	0,018	-0,170
-717,006	800,000	-0,043	-0,127
-715,991	34,221	-0,164	-0,106
-714,977	800,000	-0,033	-0,092
-713,962	-6,290	-0,173	0,087
-712,948	45,821	0,104	0,071
-711,933	234,661	-0,051	0,063
-710,918	-2,543	0,062	0,032
-709,904	69,559	-0,072	-0,055
-708,889	-84,915	-0,112	-0,026
-707,875	-36,626	0,034	-0,013
-706,860	-200,000	0,011	-0,076
-705,845	-42,908	0,024	0,009
-704,831	800,000	-0,033	0,086
-703,816	70,940	-0,058	0,045
-702,802	-176,713	-0,065	0,001
-701,787	-59,820	-0,110	-0,035
-700,772	132,954	0,007	0,007
-699,758	800,000	-0,022	-0,057
-698,743	23,878	0,242	0,148
-697,729	800,000	-0,029	0,075
-696,714	-18,263	-0,062	0,029
-695,699	81,886	-0,113	-0,091
-694,685	21,314	0,059	-0,036
-693,670	83,702	-0,126	-0,102
-692,656	186,237	-0,026	0,029
-691,641	-200,000	0,005	-0,109
-690,627	800,000	0,076	0,222
-689,612	146,281	-0,136	0,136
-688,597	-130,844	0,102	-0,010
-687,583	360,667	-0,086	-0,129
-686,568	509,530	0,035	-0,061
-685,554	-53,162	0,173	0,059
-684,539	-14,908	0,115	0,055
-683,524	701,911	-0,066	0,129
-682,510	-76,165	0,061	0,016
-681,495	-19,897	-0,095	-0,044
-680,481	89,059	-0,057	0,047
-679,466	-134,783	-0,089	0,008
-678,451	-200,000	-0,018	0,114
-677,437	497,526	-0,023	0,039
-676,422	-200,000	0,006	0,048
-675,408	229,616	0,084	0,102
-674,393	800,000	0,023	-0,072
-673,378	800,000	-0,051	-0,122
-672,364	436,763	0,017	-0,028
-671,349	39,249	-0,028	0,018
-670,335	73,666	-0,003	0,002
-669,320	800,000	0,031	-0,068
-668,305	-200,000	-0,001	0,029
-667,291	190,968	-0,018	-0,020
-666,276	800,000	0,049	-0,123
-665,262	2,382	-0,182	0,098
-664,247	-128,043	-0,094	-0,010
-663,232	-200,000	-0,036	0,128
-662,218	-200,000	-0,028	0,120
-661,203	221,247	-0,023	-0,027
-660,189	-200,000	0,007	-0,085
-659,174	349,934	-0,075	0,110
-658,159	125,089	0,099	0,093
-657,145	-200,000	0,018	-0,205
-656,130	-200,000	0,019	-0,126
-655,116	335,797	0,030	0,043
-654,101	-200,000	0,008	-0,028
-653,086	-200,000	-0,031	0,110
-652,072	-71,058	-0,085	0,024
-651,057	-200,000	0,016	-0,098
-650,043	800,000	0,097	-0,204
-649,028	-128,476	-0,078	-0,008
-648,014	36,123	-0,139	0,090
-646,999	-200,000	0,011	0,099
-645,984	7,247	-0,087	-0,048
-644,970	-200,000	0,012	-0,120
-643,955	239,154	-0,063	0,078
-642,941	20,478	-0,091	-0,055
-641,926	-200,000	0,006	0,065
-640,911	-89,325	0,056	0,012
-639,897	386,759	0,064	-0,099
-638,882	315,525	0,013	-0,018
-637,868	-200,000	-0,004	0,066
-636,853	484,632	-0,042	-0,071
-635,838	-189,237	-0,137	-0,001
-634,824	-58,203	-0,028	-0,009
-633,809	-44,639	0,050	0,018
-632,795	176,375	0,068	-0,073
-631,780	685,149	-0,093	0,180
-630,765	249,876	-0,108	0,137
-629,751	-151,011	-0,158	0,009
-628,736	418,701	-0,058	-0,092
-627,722	184,196	0,042	-0,046
-626,707	8,845	0,098	0,054
-625,692	-173,416	0,034	-0,001
-624,678	-200,000	0,012	-0,067
-623,663	20,098	-0,020	-0,012
-622,649	-87,754	-0,177	-0,039
-621,634	-51,632	0,031	-0,011
-620,619	-77,151	0,065	0,017
-619,605	-200,000	0,010	0,129
-618,590	75,598	0,051	-0,040
-617,576	3,507	0,056	0,030
-616,561	661,922	-0,017	0,033
-615,546	584,857	-0,077	0,140
-614,532	-25,520	-0,117	-0,051
-613,517	-200,000	-0,014	0,077
-612,503	-200,000	-0,011	-0,070
-611,488	800,000	0,037	0,107
-610,474	800,000	0,021	0,065
-609,459	800,000	-0,021	0,053
-608,444	-200,000	-0,003	-0,170
-607,430	-169,602	-0,079	0,002
-606,415	800,000	-0,037	-0,082
-605,401	141,583	0,034	-0,033
-604,386	-61,707	-0,075	-0,023
-603,371	-76,856	0,060	-0,015
-602,357	-200,000	-0,001	0,021
-601,342	-98,931	0,098	-0,018
-600,328	-200,000	-0,006	0,077
-599,313	247,401	-0,035	0,043
-598,298	27,095	-0,068	0,042
-597,284	-200,000	0,050	-0,192
-596,269	-200,000	-0,129	-0,000
-595,255	382,616	-0,034	0,052
-594,240	430,776	0,028	-0,045
-593,225	-200,000	-0,021	-0,164
-592,211	-27,932	-0,120	-0,051
-591,196	-148,877	0,183	-0,011
-590,182	800,000	0,023	-0,061
-589,167	-200,000	0,028	0,121
-588,152	687,472	0,028	-0,055
-587,138	-200,000	0,032	0,124
-586,123	-200,000	-0,003	0,027
-585,109	-104,862	0,120	-0,020
-584,094	123,523	-0,081	0,075
-583,079	-76,089	0,091	-0,024
-582,065	178,161	0,011	-0,012
-581,050	800,000	-0,024	0,049
-580,036	-200,000	-0,014	-0,068
-579,021	-200,000	0,006	-0,043
-578,006	158,196	0,061	-0,063
-576,992	114,537	-0,047	0,042
-575,977	614,075	0,069	0,129
-574,963	10,600	0,150	0,084
-573,948	47,716	0,090	0,062
-572,934	33,404	0,105	-0,068
-571,919	-144,939	-0,034	-0,002
-570,904	-159,544	-0,131	-0,005
-569,890	-200,000	0,011	-0,139
-568,875	-24,386	-0,044	-0,019
-567,861	300,310	0,027	0,037
-566,846	-10,810	-0,176	0,086
-565,831	800,000	-0,022	0,057
-564,817	377,145	-0,040	-0,061
-563,802	-45,411	-0,208	-0,076
-562,788	-178,215	0,082	-0,001
-561,773	-200,000	0,014	0,079
-560,758	81,244	-0,028	-0,022
-559,744	616,143	-0,071	-0,131
-558,729	-101,333	-0,105	0,019
-557,715	-200,000	-0,011	-0,069
-556,700	158,046	-0,068	0,070
-555,685	334,099	-0,050	0,072
-554,671	-26,681	0,104	0,045
-553,656	321,054	0,062	0,087
-552,642	-200,000	0,025	0,104
-551,627	800,000	0,022	-0,053
-550,612	571,194	0,060	0,109
-549,598	800,000	0,041	-0,116
-548,583	111,489	0,062	0,055
-547,569	-200,000	0,021	-0,141
-546,554	800,000	0,048	-0,105
-545,539	800,000	0,018	0,043
-544,525	265,058	0,036	-0,047
-543,510	-200,000	0,010	-0,057
-542,496	-112,086	-0,100	0,015
-541,481	9,570	-0,078	0,043
-540,466	-69,610	0,030	-0,008
-539,452	5,751	0,104	0,056
-538,437	33,159	-0,137	0,087
-537,423	800,000	0,054	0,139
-536,408	-200,000	0,001	0,105
-535,393	-36,063	-0,074	-0,029
-534,379	242,706	-0,056	0,069
-533,364	-200,000	-0,018	-0,060
-532,350	98,465	0,162	0,138
-531,335	212,558	0,052	0,061
-530,321	222,282	-0,122	-0,145
-529,306	328,161	0,059	-0,083
-528,291	-96,498	0,072	0,014
-527,277	800,000	-0,029	-0,088
-526,262	-200,000	-0,040	-0,188
-525,248	57,725	0,128	-0,092
-524,233	-28,308	0,057	0,024
-523,218	27,566	-0,066	0,041
-522,204	-98,121	-0,101	0,019
-521,189	-200,000	0,005	0,078
-520,175	-200,000	-0,001	0,090
-519,160	204,989	-0,037	-0,042
-518,145	147,154	0,059	0,059
-517,131	357,765	-0,105	0,155
-516,116	252,903	0,115	0,145
-515,102	800,000	0,047	-0,138
-514,087	800,000	-0,044	-0,103
-513,072	-200,000	-0,027	-0,148
-512,058	740,315	0,019	-0,038
-511,043	491,636	0,030	0,051
-510,029	624,621	0,066	0,123
-509,014	-200,000	-0,024	0,082
-507,999	800,000	-0,032	0,091
-506,985	-200,000	0,008	-0,151
-505,970	800,000	0,025	-0,073
-504,956	-200,000	-0,013	-0,045
-503,941	800,000	-0,016	0,046
-502,926	150,352	-0,063	0,063
-501,912	106,049	-0,038	-0,033
-500,897	-15,799	-0,096	0,045
-499,883	67,182	-0,046	-0,034
-498,868	-2,878	0,088	-0,045
-497,853	-71,767	-0,004	0,001
-496,839	-200,000	0,024	-0,145
-495,824	119,378	-0,122	-0,111
-494,810	113,896	-0,030	0,027
-493,795	-1,838	-0,059	-0,030
-492,781	-200,000	-0,001	-0,041
-491,766	-25,036	-0,135	-0,059
-490,751	-200,000	0,006	0,087
-489,737	-200,000	0,015	0,078
-488,722	284,084	-0,023	0,031
-487,708	-159,584	0,146	0,006
-486,693	102,715	-0,064	-0,055
-485,678	-56,178	-0,146	-0,047
-484,664	275,287	0,075	0,098
-483,649	363,620	0,032	-0,048
-482,635	534,572	-0,050	0,088
-481,620	431,203	0,039	0,062
-480,605	-200,000	-0,006	-0,044
-479,591	15,993	0,040	0,023
-478,576	-200,000	-0,009	-0,076
-477,562	456,412	-0,092	-0,151
-476,547	-158,904	0,036	-0,001
-475,532	30,544	-0,059	-0,037
-474,518	307,561	-0,038	-0,052
-473,503	-16,289	0,174	-0,081
-472,489	39,176	0,077	0,051
-471,474	-122,180	-0,045	-0,005
-470,459	183,838	-0,038	-0,041
-469,445	252,787	-0,063	-0,079
-468,430	-86,460	-0,169	0,038
-467,416	-39,351	-0,056	-0,021
-466,401	24,455	0,101	0,061
-465,386	292,521	-0,029	-0,039
-464,372	-58,411	0,128	0,041
-463,357	-19,419	-0,081	-0,037
-462,343	-200,000	-0,007	-0,044
-461,328	-178,830	-0,124	-0,002
-460,313	-40,657	0,120	-0,046
-459,299	727,047	-0,026	0,050
-458,284	88,374	-0,036	-0,030
-457,270	800,000	0,037	-0,090
-456,255	519,161	0,029	-0,051
-455,241	-17,253	-0,075	-0,035
-454,226	-200,000	-0,011	-0,114
-453,211	-200,000	-0,010	0,115
-452,197	800,000	-0,055	0,169
-451,182	-143,763	0,096	0,007
-450,168	6,816	-0,097	-0,053
-449,153	-200,000	0,022	0,150
-448,138	108,015	-0,010	0,008
-447,124	309,879	-0,042	0,058
-446,109	-105,424	0,032	0,005
-445,095	800,000	0,034	-0,091
-444,080	-104,756	0,060	-0,010
-443,065	-24,037	0,113	-0,050
-442,051	-200,000	0,006	-0,082
-441,036	101,045	-0,135	-0,115
-440,022	800,000	-0,070	-0,157
-439,007	-100,737	-0,033	0,006
-437,992	-8,849	-0,042	0,021
-436,978	339,340	-0,067	-0,096
-435,963	-97,115	0,160	0,030
-434,949	44,114	-0,022	-0,015
-433,934	-200,000	0,000	-0,118
-432,919	-122,473	-0,053	-0,006
-431,905	340,311	-0,052	-0,075
-430,890	-142,417	0,197	-0,014
-429,876	-40,439	0,054	-0,020
-428,861	-200,000	-0,033	-0,139
-427,846	102,115	-0,048	-0,041
-426,832	-200,000	0,007	-0,040
-425,817	737,243	-0,058	-0,116
-424,803	620,677	0,007	-0,012
-423,788	36,497	0,160	-0,103
-422,773	-153,601	0,106	0,005
-421,759	350,829	-0,005	-0,007
-420,744	15,134	-0,106	-0,061
-419,730	-189,762	0,037	-0,000
-418,715	-22,300	-0,094	0,042
-417,701	-200,000	-0,003	-0,133
-416,686	-21,907	0,148	0,066
-415,671	800,000	-0,008	0,016
-414,657	800,000	-0,041	0,097
-413,642	-134,261	0,016	-0,001
-412,628	115,859	-0,050	-0,045
-411,613	-200,000	-0,003	0,060
-410,598	54,390	-0,071	0,050
-409,584	788,272	0,014	0,028
-408,569	-84,488	0,105	0,024
-407,555	-200,000	0,003	0,108
-406,540	385,272	0,061	-0,093
-405,525	-109,392	0,180	0,028
-404,511	-200,000	-0,002	0,041
-403,496	-7,017	-0,033	0,016
-402,482	-35,034	-0,065	-0,026
-401,467	-70,714	0,131	0,036
-400,452	95,015	0,127	0,106
-399,438	-200,000	0,003	0,117
-398,423	-110,119	-0,062	-0,009
-397,409	-200,000	-0,023	-0,107
-396,394	5,398	-0,124	-0,067
-395,379	123,638	0,057	0,053
-394,365	86,498	-0,023	0,019
-393,350	93,014	0,069	0,058
-392,336	52,407	0,093	-0,065
-391,321	10,974	0,189	-0,106
-390,306	800,000	0,031	-0,064
-389,292	421,652	0,071	0,112
-388,277	-38,344	-0,039	0,015
-387,263	800,000	-0,040	0,104
-386,248	-63,779	-0,103	-0,031
-385,233	-130,136	0,141	-0,014
-384,219	-200,000	0,050	-0,167
-383,204	-200,000	-0,011	-0,069
-382,190	614,445	0,078	-0,144
-381,175	-43,568	0,051	-0,019
-380,160	-48,367	0,186	-0,065
-379,146	543,035	0,048	0,083
-378,131	77,158	-0,055	-0,043
-377,117	800,000	-0,080	0,171
-376,102	-200,000	-0,020	-0,070
-375,088	-106,374	-0,043	0,007
-374,073	800,000	0,045	-0,123
-373,058	-40,394	0,130	-0,049
-372,044	-200,000	0,011	0,205
-371,029	-200,000	-0,033	0,108
-370,015	57,716	0,059	0,042
-369,000	280,762	-0,008	-0,011
-367,985	-109,478	0,104	-0,016
-366,971	226,443	0,031	-0,037
-365,956	237,059	-0,020	0,025
-364,942	692,814	-0,074	0,144
-363,927	35,682	0,127	0,082
-362,912	42,512	-0,046	-0,031
-361,898	610,994	0,034	-0,062
-360,883	126,424	0,051	-0,048
-359,869	205,688	0,059	0,067
-358,854	-73,284	0,158	0,042
-357,839	-200,000	0,022	-0,122
-356,825	227,294	0,069	0,083
-355,810	130,763	0,058	0,054
-354,796	11,271	-0,160	-0,089
-353,781	389,391	0,009	0,014
-352,766	72,939	-0,053	-0,041
-351,752	-200,000	-0,015	-0,087
-350,737	142,478	0,048	0,047
-349,723	305,400	-0,017	-0,024
-348,708	800,000	0,030	0,079
-347,693	182,700	0,011	-0,011
-346,679	-200,000	-0,017	-0,069
-345,664	118,807	0,060	0,054
-344,650	-200,000	-0,001	0,090
-343,635	-200,000	-0,017	0,100
-342,620	800,000	0,020	-0,053
-341,606	-200,000	0,025	0,103
-340,591	-7,762	0,073	-0,036
-339,577	-165,638	-0,114	-0,004
-338,562	478,641	-0,063	-0,105
-337,548	83,959	0,073	-0,058
-336,533	-35,735	-0,090	0,036
-335,518	-108,271	0,057	-0,009
-334,504	85,911	0,077	0,062
-333,489	-133,312	0,110	0,010
-332,475	-200,000	-0,019	-0,082
-331,460	111,704	-0,018	-0,016
-330,445	800,000	0,036	0,093
-329,431	-200,000	-0,007	-0,117
-328,416	-63,491	0,140	0,042
-327,402	517,741	-0,055	0,095
-326,387	-29,585	0,106	0,044
-325,372	800,000	-0,012	-0,026
-324,358	-200,000	0,005	0,120
-323,343	-70,618	0,128	0,035
-322,329	-60,059	0,072	-0,022
-321,314	-200,000	0,012	0,075
-320,299	130,439	-0,047	0,044
-319,285	-37,428	-0,069	0,027
-318,270	-30,047	-0,078	-0,032
-317,256	6,610	0,075	0,041
-316,241	40,340	-0,158	-0,104
-315,226	9,669	0,107	0,059
-314,212	10,845	0,131	0,073
-313,197	-200,000	0,003	0,088
-312,183	800,000	0,025	0,057
-311,168	-10,519	-0,022	0,011
-310,153	-77,231	-0,005	0,001
-309,139	800,000	0,080	0,164
-308,124	-200,000	0,002	0,047
-307,110	30,976	-0,097	-0,061
-306,095	44,671	0,027	-0,018
-305,080	800,000	0,021	0,061
-304,066	-15,366	-0,071	0,033
-303,051	-11,689	0,032	0,015
-302,037	603,949	0,054	0,099
-301,022	452,683	-0,043	-0,069
-300,008	58,202	-0,099	0,071
-298,993	238,436	-0,013	0,016
-297,978	370,930	0,073	0,109
-296,964	-64,996	-0,070	0,021
-295,949	-200,000	-0,004	-0,083
-294,935	469,621	-0,055	-0,091
-293,920	-72,847	-0,084	-0,022
-292,905	-47,172	0,098	-0,035
-291,891	-58,197	0,052	-0,017
-290,876	-200,000	-0,024	0,099
-289,862	315,360	0,021	0,029
-288,847	-143,926	-0,120	0,008
-287,832	372,422	-0,059	-0,087
-286,818	406,775	-0,044	0,069
-285,803	-200,000	0,021	0,113
-284,789	800,000	0,048	-0,117
-283,774	782,478	-0,042	-0,084
-282,759	800,000	-0,020	-0,056
-281,745	-28,721	0,059	0,025
-280,730	24,346	-0,166	-0,100
-279,716	800,000	-0,052	0,134
-278,701	466,752	-0,022	0,036
-277,686	-200,000	-0,006	-0,034
-276,672	243,960	0,056	0,069
-275,657	-68,622	0,046	-0,013
-274,643	-10,002	-0,064	0,031
-273,628	237,399	-0,129	-0,156
-272,613	-6,728	0,073	-0,036
-271,599	6,659	-0,083	-0,045
-270,584	323,461	0,123	-0,172
-269,570	800,000	-0,019	-0,048
-268,555	-114,107	-0,058	-0,008
-267,540	-200,000	-0,021	0,105
-266,526	800,000	-0,010	-0,021
-265,511	145,622	-0,068	0,067
-264,497	-200,000	-0,003	-0,069
-263,482	-19,586	0,112	-0,051
-262,467	-172,014	-0,069	-0,002
-261,453	-200,000	0,006	0,076
-260,438	380,848	-0,058	0,087
-259,424	-61,752	-0,110	-0,034
-258,409	-200,000	-0,045	-0,150
-257,395	-134,899	-0,166	0,014
-256,380	-200,000	0,003	-0,109
-255,365	80,885	0,090	-0,071
-254,351	-200,000	0,012	-0,110
-253,336	-200,000	-0,005	0,057
-252,322	401,831	0,041	-0,063
-251,307	-135,471	-0,124	-0,011
-250,292	-31,351	0,097	-0,040
-249,278	225,534	0,039	0,046
-248,263	504,220	0,089	0,150
-247,249	323,393	0,062	0,087
-246,234	304,514	0,032	-0,044
-245,219	-153,131	-0,100	-0,005
-244,205	800,000	0,036	0,089
-243,190	-200,000	-0,012	0,159
-242,176	-200,000	0,036	0,148
-241,161	178,722	0,032	0,035
-240,146	4,273	-0,106	0,057
-239,132	-123,275	-0,033	0,004
-238,117	64,471	-0,039	-0,029
-237,103	88,395	0,081	-0,065
-236,088	-9,938	0,060	-0,029
-235,073	-6,986	0,075	0,037
-234,059	422,384	0,051	-0,080
-233,044	331,400	0,004	-0,006
-232,030	166,032	0,068	0,071
-231,015	30,867	-0,133	-0,083
-230,000	191,633	-0,016	-0,017
-228,986	800,000	-0,026	0,072
-227,971	-136,349	-0,035	-0,003
-226,957	325,184	-0,045	0,063
-225,942	-200,000	0,013	0,050
-224,927	-200,000	0,022	-0,080
-223,913	800,000	0,029	-0,061
-222,898	-43,439	0,012	0,004
-221,884	365,719	0,026	-0,039
-220,869	-200,000	-0,025	-0,096
-219,855	501,805	-0,049	-0,084
-218,840	28,824	0,078	0,048
-217,825	115,795	-0,024	0,022
-216,811	-24,209	0,076	-0,033
-215,796	430,703	0,062	-0,099
-214,782	-200,000	-0,014	0,051
-213,767	304,532	0,048	-0,066
-212,752	-200,000	-0,007	0,134
-211,738	-200,000	-0,004	0,023
-210,723	-115,517	-0,138	-0,019
-209,709	251,602	-0,015	-0,019
-208,694	-54,377	0,049	0,016
-207,679	-200,000	-0,003	0,038
-206,665	50,274	0,055	-0,038
-205,650	441,983	0,083	-0,133
-204,636	-33,661	0,161	0,064
-203,621	-200,000	0,002	0,100
-202,606	-88,605	0,128	-0,028
-201,592	-17,405	-0,031	0,014
-200,577	-86,556	0,132	0,029
-199,563	-50,736	-0,034	0,012
-198,548	-175,785	0,074	0,001
-197,533	-108,862	0,040	-0,006
-196,519	-132,919	0,183	-0,017
-195,504	-55,047	-0,079	0,026
-194,490	-86,944	-0,109	-0,024
-193,475	-42,396	-0,129	-0,048
-192,460	53,329	-0,123	-0,086
-191,446	-200,000	0,003	-0,023
-190,431	142,497	0,086	0,083
-189,417	-139,553	0,060	-0,005
-188,402	200,695	-0,066	0,074
-187,387	-111,666	-0,065	0,010
-186,373	-200,000	0,007	-0,036
-185,358	16,381	0,039	0,022
-184,344	-105,655	-0,096	-0,016
-183,329	44,743	-0,069	0,046
-182,315	75,660	0,011	-0,009
-181,300	-94,818	-0,047	0,009
-180,285	580,907	-0,045	0,080
-179,271	-200,000	-0,003	-0,043
-178,256	-89,001	-0,152	-0,033
-177,242	219,157	0,096	0,112
-176,227	-200,000	-0,008	0,036
-175,212	-133,635	0,052	0,005
-174,198	138,216	-0,077	0,074
-173,183	519,000	0,065	-0,111
-172,169	800,000	0,024	0,051
-171,154	-200,000	0,003	-0,046
-170,139	-149,765	-0,089	0,005
-169,125	800,000	0,038	-0,093
-168,110	433,562	0,097	0,154
-167,096	-0,697	-0,051	-0,026
-166,081	488,174	-0,021	-0,036
-165,066	800,000	0,016	0,050
-164,052	-200,000	-0,065	0,000
-163,037	37,665	-0,059	-0,038
-162,023	-200,000	0,007	0,096
-161,008	388,045	-0,073	0,111
-159,993	-200,000	0,027	-0,124
-158,979	-200,000	0,000	-0,066
-157,964	-33,872	-0,026	0,010
-156,950	-89,106	-0,076	0,016
-155,935	-31,403	-0,020	-0,008
-154,920	-88,041	-0,076	0,017
-153,906	-4,105	-0,012	-0,006
-152,891	-200,000	-0,002	0,119
-151,877	-113,263	0,092	-0,013
-150,862	-200,000	0,008	-0,071
-149,847	800,000	0,091	-0,207
-148,833	181,270	0,031	-0,033
-147,818	324,141	-0,082	-0,114
-146,804	-200,000	-0,009	0,040
-145,789	-50,209	-0,137	-0,047
-144,775	-6,207	-0,218	0,108
-143,760	-127,363	-0,174	-0,018
-142,745	-200,000	-0,004	-0,080
-141,731	-200,000	0,021	-0,088
-140,716	-180,275	0,023	0,000
-139,702	-200,000	0,006	0,102
-138,687	104,134	0,038	-0,032
-137,672	800,000	0,003	0,009
-136,658	-71,742	0,010	0,003
-135,643	-74,779	-0,128	0,033
-134,629	241,876	-0,115	-0,141
-133,614	-41,368	0,105	-0,039
-132,599	800,000	-0,033	0,079
-131,585	504,022	-0,040	0,067
-130,570	334,897	-0,063	-0,088
-129,556	-67,698	0,017	0,005
-128,541	-75,522	0,044	0,011
-127,526	402,611	-0,065	-0,099
-126,512	132,985	-0,116	0,109
-125,497	166,765	0,048	-0,049
-124,483	800,000	-0,045	-0,107
-123,468	800,000	0,056	-0,125
-122,453	-200,000	-0,018	-0,099
-121,439	-127,763	0,072	-0,007
-120,424	-200,000	-0,018	0,087
-119,410	139,417	-0,025	0,024
-118,395	-78,224	0,088	-0,022
-117,380	-200,000	-0,013	-0,070
-116,366	109,366	-0,121	-0,105
-115,351	-36,931	-0,013	0,005
-114,337	-200,000	-0,001	0,170
-113,322	-200,000	-0,027	0,125
-112,307	800,000	-0,015	0,037
-111,293	-30,433	0,044	-0,018
-110,278	247,190	0,069	0,085
-109,264	800,000	0,005	-0,011
-108,249	-50,679	-0,077	0,026
-107,234	800,000	0,012	0,031
-106,220	-200,000	0,008	-0,082
-105,205	-96,649	0,043	-0,008
-104,191	181,043	-0,067	0,071
-103,176	-200,000	0,028	0,094
-102,162	362,880	0,017	-0,024
-101,147	800,000	0,028	0,071
-100,132	39,886	-0,051	0,033
-99,118	192,842	-0,052	0,057
-98,103	220,983	0,094	0,110
-97,089	-92,857	-0,137	0,028
-96,074	-200,000	-0,002	0,019
-95,059	356,426	-0,021	0,030
-94,045	-9,242	0,029	-0,014
-93,030	112,551	-0,101	-0,089
-92,016	-200,000	-0,009	-0,066
-91,001	-89,103	-0,043	-0,009
-89,986	-200,000	0,034	0,184
-88,972	800,000	0,017	0,045
-87,957	-200,000	-0,011	-0,083
-86,943	-53,045	0,113	-0,038
-85,928	615,560	-0,080	-0,145
-84,913	-53,930	-0,194	-0,064
-83,899	30,911	-0,195	0,121
-82,884	63,369	0,088	-0,064
-81,870	-23,778	-0,088	0,038
-80,855	-200,000	-0,010	0,071
-79,840	124,302	-0,032	-0,030
-78,826	-200,000	-0,007	-0,151
-77,811	-21,742	0,006	-0,003
-76,797	-99,744	0,030	-0,005
-75,782	82,707	-0,046	-0,036
-74,767	800,000	-0,068	0,186
-73,753	87,073	0,045	0,036
-72,738	447,065	0,024	0,038
-71,724	-200,000	-0,034	-0,263
-70,709	-200,000	0,006	-0,088
-69,694	7,793	-0,092	0,050
-68,680	268,861	0,097	0,123
-67,665	302,024	-0,050	0,067
-66,651	-200,000	0,001	0,035
-65,636	78,325	-0,036	-0,028
-64,622	-49,698	-0,112	0,038
-63,607	-48,862	0,049	-0,017
-62,592	-131,025	-0,101	0,010
-61,578	78,250	0,166	-0,128
-60,563	-200,000	-0,013	-0,053
-59,549	-200,000	0,021	0,098
-58,534	-44,342	-1,798	-0,649
-57,519	800,000	-0,488	-1,259
-56,505	-200,000	-1,088	-4,716
-55,490	-118,901	0,698	-0,088
-54,476	800,000	5,132	12,049
-53,461	-200,000	15,740	280,972
-52,446	-200,000	700,017	2278,160
-51,432	591,383	1615,793	2901,545
-50,417	124,598	1621,863	1478,934
-49,403	87,066	1282,311	1025,931
-48,388	37,945	1025,883	659,440
-47,373	21,876	987,731	581,757
-46,359	20,757	976,567	571,467
-45,344	19,145	972,308	563,647
-44,330	19,178	970,951	562,948
-43,315	18,907	969,367	561,118
-42,300	18,833	968,180	560,164
-41,286	18,848	967,342	559,706
-40,271	18,839	966,206	558,998
-39,257	18,868	965,357	558,579
-38,242	18,855	964,586	558,068
-37,227	18,900	963,742	557,705
-36,213	18,849	962,925	557,045
-35,198	18,809	962,105	556,418
-34,184	18,853	961,408	556,136
-33,169	18,765	960,526	555,316
-32,154	18,862	959,837	555,211
-31,140	18,886	958,866	554,707
-30,125	18,804	958,025	553,931
-29,111	18,880	957,237	553,698
-28,096	18,912	956,579	553,401
-27,082	18,810	955,974	552,700
-26,067	18,881	955,026	552,357
-25,052	18,879	954,301	551,910
-24,038	18,786	953,742	551,267
-23,023	18,818	952,978	550,904
-22,009	18,832	952,153	550,451
-20,994	18,873	951,412	550,133
-19,979	18,851	951,052	549,832
-18,965	18,829	950,425	549,378
-17,950	18,816	949,797	548,951
-16,936	18,768	949,230	548,446
-15,921	18,746	948,552	547,963
-14,906	18,714	947,754	547,377
-13,892	18,781	946,963	547,115
-12,877	18,708	946,491	546,585
-11,863	18,718	945,857	546,228
-10,848	18,715	945,362	545,911
-9,833	18,771	944,869	545,785
-8,819	18,748	944,282	545,350
-7,804	18,740	943,685	544,960
-6,790	18,686	943,088	544,419
-5,775	18,745	942,452	544,218
-4,760	18,810	941,722	543,983
-3,746	18,719	941,302	543,430
-2,731	18,635	940,328	542,579
-1,717	18,582	939,579	541,956
-0,702	18,546	939,241	541,625
0,313	18,339	938,482	541,349
1,327	21,324	936,789	549,784
2,342	30,500	794,695	490,862
3,356	27,228	447,796	271,658
4,371	-3,589	293,815	147,389
5,386	-7,698	275,081	134,081
6,400	-9,160	269,367	129,923
7,415	-9,675	267,171	128,377
8,429	-9,065	266,016	128,372
9,444	-8,873	265,205	128,145
10,459	-8,714	264,820	128,092
11,473	-8,669	264,151	127,798
12,488	-8,811	263,669	127,425
13,502	-9,029	263,317	127,046
14,517	-8,755	262,727	126,997
15,531	-8,399	262,612	127,253
16,546	-8,042	262,253	127,391
17,561	-8,016	261,774	127,170
18,575	-7,932	261,465	127,085
19,590	-8,097	261,159	126,776
20,604	-8,089	261,101	126,744
21,619	-8,232	260,754	126,436
22,634	-8,132	260,177	126,234
23,648	-8,137	259,967	126,117
24,663	-8,158	259,826	126,018
25,677	-8,019	259,384	125,917
26,692	-8,148	259,128	125,666
27,707	-8,125	259,036	125,631
28,721	-8,230	258,681	125,354
29,736	-8,440	258,545	125,090
30,750	-8,161	258,153	125,138
31,765	-8,101	257,920	125,066
32,780	-8,151	257,755	124,931
33,794	-8,169	257,513	124,786
34,809	-8,163	257,392	124,722
35,823	-8,324	257,077	124,415
36,838	-8,207	256,754	124,352
37,853	-8,263	256,544	124,189
38,867	-8,171	256,273	124,128
39,882	-8,241	256,161	124,001
40,896	-8,132	255,807	123,915
41,911	-8,125	255,591	123,806
42,926	-8,188	255,453	123,672
43,940	-8,296	255,233	123,459
44,955	-8,277	255,009	123,357
45,969	-8,496	254,893	123,097
46,984	-8,380	254,296	122,900
47,999	-8,732	254,405	122,633
49,013	-8,638	254,008	122,513
50,028	-8,658	253,881	122,424
51,042	-8,860	253,612	122,106
52,057	-8,839	253,262	121,946
53,071	-8,826	253,127	121,881
54,086	-8,865	253,028	121,789
55,101	-8,727	252,837	121,806
56,115	-8,552	252,671	121,867
57,130	-8,252	252,446	122,008
58,144	-8,248	252,300	121,930
59,159	-8,248	252,089	121,817
60,174	-8,091	251,746	121,776
61,188	-8,378	251,578	121,436
62,203	-8,184	251,520	121,565
63,217	-8,348	251,338	121,325
64,232	-8,241	250,995	121,240
65,247	-8,541	250,728	120,842
66,261	-8,511	250,591	120,791
67,276	-8,407	250,326	120,743
68,290	-8,492	250,159	120,578
69,305	-8,643	249,859	120,293
70,320	-8,684	249,746	120,193
71,334	-8,560	249,578	120,207
72,349	-8,095	249,391	120,505
73,363	-8,403	249,130	120,105
74,378	-8,331	248,869	120,030
75,393	-8,407	248,850	119,944
76,407	-8,149	248,516	119,993
77,422	-8,111	248,376	119,947
78,436	-8,253	248,122	119,693
79,451	-8,322	247,909	119,521
80,466	-8,398	247,706	119,348
81,480	-8,427	247,423	119,176
82,495	-8,376	247,296	119,147
83,509	-8,488	247,134	118,964
84,524	-8,475	246,971	118,886
85,539	-8,511	246,705	118,717
86,553	-8,326	246,578	118,801
87,568	-8,526	246,360	118,517
88,582	-8,632	246,229	118,354
89,597	-8,471	245,923	118,332
90,611	-8,648	245,799	118,113
91,626	-8,369	245,580	118,232
92,641	-8,255	245,360	118,211
93,655	-8,362	245,096	117,983
94,670	-8,441	244,978	117,850
95,684	-8,472	244,854	117,754
96,699	-8,556	244,609	117,555
97,714	-8,474	244,408	117,516
98,728	-8,351	244,320	117,567
99,743	-8,504	243,956	117,253
100,757	-8,687	243,888	117,057
101,772	-8,720	243,714	116,936
102,787	-8,689	243,582	116,888
103,801	-8,519	243,405	116,934
104,816	-8,410	242,984	116,813
105,830	-8,439	243,034	116,802
106,845	-8,573	242,879	116,605
107,860	-8,348	242,584	116,640
108,874	-8,578	242,351	116,327
109,889	-8,539	242,216	116,284
110,903	-8,659	241,933	116,038
111,918	-8,713	241,779	115,909
112,933	-8,638	241,617	115,883
113,947	-8,555	241,481	115,877
114,962	-8,658	241,382	115,734
115,976	-8,340	241,162	115,880
116,991	-8,493	240,925	115,630
118,006	-8,206	240,668	115,732
119,020	-8,358	240,671	115,599
120,035	-8,492	240,668	115,476
121,049	-8,413	240,452	115,427
122,064	-8,639	240,341	115,178
123,079	-8,659	240,026	115,000
124,093	-8,458	239,683	114,991
125,108	-8,588	239,560	114,815
126,122	-8,636	239,431	114,703
127,137	-8,660	239,295	114,608
128,151	-8,636	239,103	114,526
129,166	-8,631	238,843	114,396
130,181	-8,516	238,646	114,384
131,195	-8,547	238,398	114,230
132,210	-8,583	238,076	114,037
133,224	-8,859	238,195	113,859
134,239	-8,598	237,991	113,963
135,254	-8,589	237,775	113,857
136,268	-8,621	237,490	113,684
137,283	-8,761	237,449	113,541
138,297	-8,784	237,241	113,413
139,312	-8,633	236,917	113,370
140,327	-8,679	236,898	113,314
141,341	-8,137	236,833	113,711
142,356	-8,392	236,643	113,403
143,370	-8,241	236,186	113,296
144,385	-8,173	236,315	113,402
145,400	-7,969	236,065	113,437
146,414	-8,124	235,893	113,219
147,429	-8,356	235,705	112,933
148,443	-8,418	235,627	112,835
149,458	-8,365	235,485	112,799
150,473	-8,313	235,339	112,761
151,487	-8,411	234,963	112,493
152,502	-8,315	234,972	112,563
153,516	-8,214	234,672	112,491
154,531	-8,024	234,588	112,592
155,546	-8,264	234,398	112,300
156,560	-8,271	234,089	112,136
157,575	-8,561	233,999	111,852
158,589	-8,710	233,853	111,653
159,604	-8,278	233,707	111,917
160,619	-8,085	233,669	112,042
161,633	-7,901	233,536	112,115
162,648	-7,967	233,282	111,931
163,662	-8,347	233,074	111,520
164,677	-8,579	232,945	111,264
165,692	-8,358	232,817	111,368
166,706	-8,231	232,774	111,438
167,721	-7,766	232,553	111,691
168,735	-8,021	232,471	111,439
169,750	-8,423	232,379	111,068
170,764	-8,317	231,941	110,932
171,779	-8,320	231,812	110,858
172,794	-8,167	231,573	110,855
173,808	-8,354	231,568	110,695
174,823	-8,706	231,313	110,286
175,837	-8,829	231,017	110,038
176,852	-8,675	231,066	110,173
177,867	-8,308	230,856	110,351
178,881	-8,339	230,780	110,281
179,896	-8,198	230,511	110,252
180,910	-8,153	230,440	110,244
181,925	-8,260	230,171	110,022
182,940	-8,353	230,063	109,888
183,954	-8,337	230,028	109,874
184,969	-7,993	229,861	110,053
185,983	-7,936	229,723	110,022
186,998	-7,799	229,412	109,970
188,013	-8,064	229,466	109,779
189,027	-8,001	229,135	109,660
190,042	-7,725	229,003	109,802
191,056	-8,335	229,042	109,336
192,071	-8,312	228,679	109,171
193,086	-8,304	228,353	109,012
194,100	-9,217	228,077	108,163
195,115	-10,607	227,230	106,678
196,129	-10,609	227,271	106,686
197,144	-6,344	228,610	110,616
198,159	-0,928	230,373	115,687
199,173	2,617	231,202	118,862
200,188	3,323	231,327	119,467
201,202	3,742	231,305	119,771
202,217	3,961	231,181	119,867
203,232	4,070	231,120	119,910
204,246	4,063	230,993	119,828
205,261	4,206	230,795	119,825
206,275	4,077	230,762	119,698
207,290	4,278	230,471	119,692
208,304	4,027	230,193	119,342
209,319	4,215	230,035	119,395
210,334	3,964	229,914	119,127
211,348	3,643	229,681	118,747
212,363	3,511	229,344	118,461
213,377	3,068	229,107	117,986
214,392	2,854	229,007	117,758
215,407	2,770	228,711	117,531
216,421	2,715	228,567	117,404
217,436	2,670	228,446	117,298
218,450	2,722	228,157	117,179
219,465	2,603	228,016	117,005
220,480	2,851	227,934	117,142
221,494	2,860	227,926	117,134
222,509	2,961	227,773	117,123
223,523	3,127	227,531	117,115
224,538	2,839	227,483	116,860
225,553	2,828	227,354	116,774
226,567	2,771	227,241	116,662
227,582	2,722	227,087	116,535
228,596	2,723	226,977	116,469
229,611	2,910	226,723	116,471
230,626	2,669	226,700	116,265
231,640	2,735	226,436	116,170
232,655	2,740	226,316	116,102
233,669	2,762	226,195	116,046
234,684	2,875	226,127	116,087
235,699	2,932	225,817	115,960
236,713	2,924	225,627	115,847
237,728	3,048	225,607	115,920
238,742	3,085	225,403	115,833
239,757	3,049	225,372	115,779
240,772	3,341	225,017	115,807
241,786	3,249	225,022	115,730
242,801	3,416	224,820	115,742
243,815	3,311	224,840	115,662
244,830	3,377	224,710	115,636
245,844	3,486	224,495	115,597
246,859	3,257	224,289	115,308
247,874	3,106	224,270	115,173
248,888	3,166	224,004	115,072
249,903	3,278	223,792	115,037
250,917	3,053	223,809	114,866
251,932	3,183	223,746	114,922
252,947	3,164	223,375	114,706
253,961	3,065	223,236	114,550
254,976	3,170	223,067	114,532
255,990	2,949	222,960	114,302
257,005	3,213	222,833	114,423
258,020	2,998	222,938	114,307
259,034	3,226	222,754	114,372
260,049	3,289	222,556	114,308
261,063	3,273	222,330	114,170
262,078	3,258	222,137	114,049
263,093	3,170	222,054	113,930
264,107	3,169	221,904	113,843
265,122	3,345	221,818	113,920
266,136	3,158	221,580	113,648
267,151	3,246	221,462	113,643
268,166	3,129	221,273	113,449
269,180	2,950	221,220	113,279
270,195	3,045	220,910	113,181
271,209	2,963	220,701	113,003
272,224	3,041	220,599	112,998
273,239	3,027	220,442	112,898
274,253	2,876	220,365	112,736
275,268	2,945	220,217	112,701
276,282	3,038	219,966	112,631
277,297	2,694	219,921	112,345
278,312	2,737	219,734	112,271
279,326	3,082	219,641	112,467
280,341	3,008	219,451	112,306
281,355	2,976	219,465	112,279
282,370	2,896	219,219	112,085
283,384	2,739	219,194	111,946
284,399	2,894	218,914	111,907
285,414	3,035	218,810	111,947
286,428	3,053	218,794	111,942
287,443	3,249	218,497	111,923
288,457	3,202	218,545	111,904
289,472	3,162	218,312	111,746
290,487	2,835	218,148	111,413
291,501	2,812	217,957	111,288
292,516	3,093	217,728	111,367
293,530	3,031	217,671	111,282
294,545	2,883	217,594	111,125
295,560	3,259	217,400	111,289
296,574	3,245	217,247	111,192
297,589	3,178	217,238	111,128
298,603	3,399	217,090	111,203
299,618	3,533	216,915	111,200
300,633	3,219	216,759	110,883
301,647	3,378	216,824	111,021
302,662	3,450	216,540	110,918
303,676	3,476	216,457	110,885
304,691	3,273	216,239	110,617
305,706	3,185	216,141	110,493
306,720	3,213	215,797	110,328
307,735	3,092	215,889	110,278
308,749	3,123	215,744	110,216
309,764	3,222	215,657	110,233
310,779	3,098	215,395	110,000
311,793	3,192	215,211	109,963
312,808	3,295	215,080	109,961
313,822	3,184	215,004	109,833
314,837	3,053	214,857	109,653
315,852	2,874	214,797	109,485
316,866	3,283	214,487	109,610
317,881	3,331	214,443	109,612
318,895	3,188	214,245	109,399
319,910	2,975	214,066	109,145
320,925	2,837	213,882	108,943
321,939	2,764	213,777	108,828
322,954	3,043	213,574	108,914
323,968	3,152	213,604	108,997
324,983	3,249	213,369	108,937
325,997	3,218	213,310	108,875
327,012	3,123	213,108	108,694
328,027	2,743	213,145	108,434
329,041	2,743	212,951	108,325
330,056	3,144	212,750	108,497
331,070	3,190	212,693	108,491
332,085	2,777	212,435	108,058
333,100	2,844	212,302	108,028
334,114	3,011	212,200	108,084
335,129	3,331	212,013	108,206
336,143	3,154	211,974	108,051
337,158	3,047	211,658	107,805
338,173	3,146	211,613	107,842
339,187	2,828	211,430	107,515
340,202	2,826	211,478	107,529
341,216	2,990	211,078	107,431
342,231	2,815	211,146	107,333
343,246	2,985	210,921	107,329
344,260	3,043	210,914	107,356
345,275	3,073	210,748	107,283
346,289	3,080	210,585	107,196
347,304	3,051	210,454	107,099
348,319	2,866	210,427	106,946
349,333	3,002	210,249	106,941
350,348	2,978	209,965	106,771
351,362	3,101	209,931	106,830
352,377	3,261	209,739	106,834
353,392	2,863	209,663	106,508
354,406	2,634	209,630	106,322
355,421	193,961	1341,122	1427,533
356,435	154,809	1479,036	1427,571
