DTS Sentinel unit serial number:	SN410029Multiplexer serial number:	ORYXHardware model number:	OX2-SRSoftware version number:	ORYX F/W v4,00 Oryx Data Collector v3.7.2.0data status	okinstallation	B6 Nyhavnadifferential loss correction	single-endedforward channel	channel 2reverse channel	N/Adate	2023/12/10time	07:00:08forward acquisition time	300,00reverse acquisition time	0,00gamma	499,1914k internal	0,3124k external	0,3124temperature offset calibration	1,0000default loss term (dB/km)	0,3820temperature slope calibration	1,0000multiplexer offset coefficient	1,0000multiplexer slope coefficient	1,0000fibre end	0,00T internal ref (°C)	22,62T ext. ref 1 (°C)	6,38T ext. ref 2 (°C)	6,37length (m)	temperature (°C)	Stokes	anti-Stokes-744,400	800,000	0,049	-0,105
-743,385	22,656	-0,263	0,160
-742,371	389,791	0,123	0,190
-741,356	169,813	-0,142	0,151
-740,342	763,744	0,043	-0,088
-739,327	-146,208	-0,192	0,012
-738,312	800,000	-0,018	0,044
-737,298	-61,009	-0,248	0,078
-736,283	-4,970	0,051	-0,026
-735,269	-25,392	-0,131	0,057
-734,254	-200,000	-0,009	-0,139
-733,239	-107,124	-0,405	-0,066
-732,225	146,815	0,074	0,074
-731,210	184,362	-0,026	-0,029
-730,196	-40,337	0,129	-0,050
-729,181	578,942	-0,043	0,079
-728,167	196,921	-0,055	-0,062
-727,152	14,403	0,053	-0,031
-726,137	302,523	-0,041	-0,056
-725,123	156,738	-0,029	-0,030
-724,108	800,000	-0,041	-0,126
-723,094	108,398	-0,111	-0,098
-722,079	-200,000	-0,003	-0,147
-721,064	-200,000	0,030	0,129
-720,050	-200,000	0,007	0,023
-719,035	515,244	-0,014	-0,025
-718,021	-72,804	-0,092	-0,025
-717,006	20,068	0,095	-0,057
-715,991	30,515	-0,164	-0,104
-714,977	205,274	-0,080	0,092
-713,962	183,622	0,050	0,055
-712,948	194,675	0,042	0,048
-711,933	651,858	-0,056	-0,107
-710,918	-71,861	0,037	0,010
-709,904	-18,484	-0,193	-0,089
-708,889	184,968	-0,171	-0,189
-707,875	672,406	-0,012	-0,022
-706,860	-200,000	0,002	0,062
-705,845	783,574	-0,084	0,171
-704,831	320,228	-0,011	-0,015
-703,816	463,960	0,050	-0,083
-702,802	-124,389	-0,151	-0,017
-701,787	800,000	0,063	-0,146
-700,772	-200,000	0,014	-0,195
-699,758	395,450	-0,066	-0,103
-698,743	-200,000	0,021	-0,131
-697,729	-98,317	-0,099	0,019
-696,714	19,890	0,102	0,061
-695,699	-166,200	-0,064	0,002
-694,685	54,321	-0,077	-0,055
-693,670	-37,006	-0,124	-0,049
-692,656	136,457	-0,059	-0,057
-691,641	-1,562	-0,116	-0,060
-690,627	222,872	-0,042	-0,050
-689,612	-200,000	-0,016	0,123
-688,597	197,458	-0,067	0,076
-687,583	207,987	0,043	-0,050
-686,568	29,682	0,055	-0,035
-685,554	-200,000	0,002	-0,081
-684,539	106,593	0,069	-0,061
-683,524	28,368	0,112	0,070
-682,510	-14,331	-0,009	0,004
-681,495	-24,210	-0,078	0,034
-680,481	-38,031	-0,066	-0,026
-679,466	60,645	0,044	-0,032
-678,451	-27,687	-0,078	-0,034
-677,437	-200,000	0,001	-0,036
-676,422	519,186	-0,022	0,038
-675,408	39,167	-0,097	0,064
-674,393	302,869	-0,085	-0,117
-673,378	-200,000	0,010	0,040
-672,364	-200,000	-0,006	-0,079
-671,349	-23,031	-0,093	0,041
-670,335	-13,040	-0,135	-0,065
-669,320	-200,000	-0,019	0,062
-668,305	50,790	-0,042	-0,029
-667,291	-80,478	-0,083	0,020
-666,276	-10,294	-0,154	-0,076
-665,262	133,325	-0,121	0,116
-664,247	-17,456	-0,187	0,087
-663,232	-200,000	-0,020	-0,075
-662,218	-200,000	-0,004	-0,072
-661,203	24,817	0,097	-0,059
-660,189	-19,854	0,050	-0,023
-659,174	235,618	0,034	-0,042
-658,159	283,856	-0,080	-0,108
-657,145	718,034	-0,058	-0,115
-656,130	-20,018	-0,131	0,060
-655,116	-200,000	-0,021	0,103
-654,101	-200,000	-0,124	0,000
-653,086	-57,168	0,207	-0,067
-652,072	-73,413	-0,089	-0,024
-651,057	-131,391	-0,112	-0,011
-650,043	800,000	-0,059	-0,151
-649,028	534,700	-0,034	0,061
-648,014	-44,083	0,109	-0,040
-646,999	217,987	0,044	0,053
-645,984	305,120	-0,084	-0,116
-644,970	89,070	-0,063	0,052
-643,955	-200,000	-0,016	-0,178
-642,941	223,116	-0,024	0,029
-641,926	800,000	-0,040	-0,086
-640,911	-160,143	-0,082	0,003
-639,897	-200,000	-0,002	-0,059
-638,882	-200,000	0,003	0,113
-637,868	800,000	0,065	-0,151
-636,853	645,569	-0,052	-0,099
-635,838	800,000	0,035	-0,106
-634,824	420,789	-0,059	0,094
-633,809	-200,000	-0,005	0,049
-632,795	-42,284	0,015	-0,005
-631,780	800,000	0,022	-0,051
-630,765	-39,156	0,077	-0,030
-629,751	-63,685	0,058	-0,018
-628,736	-106,408	-0,114	0,019
-627,722	800,000	0,025	0,059
-626,707	248,601	0,038	0,048
-625,692	1,483	-0,042	-0,022
-624,678	97,123	-0,066	-0,056
-623,663	74,609	0,021	0,016
-622,649	406,567	0,104	-0,163
-621,634	800,000	0,026	-0,069
-620,619	-200,000	-0,031	-0,133
-619,605	662,079	0,099	-0,191
-618,590	243,989	0,046	-0,057
-617,576	-11,331	-0,085	-0,042
-616,561	16,350	-0,023	-0,014
-615,546	-118,817	-0,056	0,007
-614,532	800,000	0,004	0,007
-613,517	-56,791	-0,017	0,006
-612,503	-188,371	-0,093	-0,001
-611,488	95,363	-0,066	0,056
-610,474	800,000	0,056	0,134
-609,459	-32,282	-0,065	-0,027
-608,444	-24,940	-0,152	0,066
-607,430	-36,025	-0,068	-0,027
-606,415	80,267	-0,067	-0,053
-605,401	788,214	-0,016	-0,032
-604,386	264,430	-0,065	0,084
-603,371	522,102	0,013	-0,023
-602,357	35,303	-0,026	0,017
-601,342	-200,000	-0,004	0,044
-600,328	-200,000	-0,016	-0,079
-599,313	-151,448	0,041	-0,002
-598,298	233,388	0,045	-0,055
-597,284	267,984	-0,061	0,079
-596,269	18,768	-0,059	-0,035
-595,255	87,430	0,038	0,031
-594,240	29,456	-0,036	0,022
-593,225	667,589	0,018	0,034
-592,211	800,000	-0,010	0,027
-591,196	-200,000	-0,024	0,092
-590,182	-111,831	-0,135	-0,020
-589,167	-200,000	-0,013	-0,162
-588,152	153,456	-0,165	0,168
-587,138	-200,000	0,066	-0,243
-586,123	363,202	-0,046	0,068
-585,109	800,000	-0,066	-0,203
-584,094	41,900	0,100	-0,067
-583,079	-200,000	0,002	0,094
-582,065	306,023	0,030	0,042
-581,050	65,679	0,126	0,094
-580,036	551,647	-0,055	-0,098
-579,021	199,399	-0,081	-0,092
-578,006	359,621	-0,056	-0,083
-576,992	454,211	-0,057	0,094
-575,977	83,429	-0,145	0,117
-574,963	230,841	0,025	0,030
-573,948	-200,000	0,002	0,034
-572,934	429,828	0,032	0,051
-571,919	800,000	0,035	0,073
-570,904	31,399	-0,095	-0,060
-569,890	222,066	-0,079	-0,094
-568,875	216,509	0,048	0,056
-567,861	140,125	0,077	0,075
-566,846	-119,800	-0,169	0,021
-565,831	-95,881	-0,069	-0,013
-564,817	460,504	0,083	-0,137
-563,802	-110,658	-0,073	-0,011
-562,788	272,258	-0,022	0,029
-561,773	-84,258	0,081	-0,019
-560,758	-1,084	0,045	-0,023
-559,744	800,000	0,018	-0,052
-558,729	-85,089	0,198	-0,045
-557,715	-31,816	-0,150	-0,062
-556,700	800,000	-0,014	0,047
-555,685	-131,989	-0,118	0,011
-554,671	800,000	0,028	0,073
-553,656	32,130	-0,047	0,030
-552,642	42,188	0,107	-0,072
-551,627	-78,404	-0,057	0,014
-550,612	-200,000	-0,005	-0,087
-549,598	-107,098	0,109	-0,018
-548,583	-200,000	0,009	-0,087
-547,569	122,640	0,040	0,037
-546,554	-124,241	0,100	0,011
-545,539	800,000	0,032	-0,073
-544,525	-200,000	-0,005	-0,119
-543,510	-200,000	0,009	0,072
-542,496	373,948	0,028	-0,043
-541,481	549,733	0,048	-0,086
-540,466	356,537	-0,069	-0,101
-539,452	-3,597	-0,075	0,038
-538,437	42,810	0,063	0,043
-537,423	306,909	-0,056	0,078
-536,408	236,185	0,023	0,029
-535,393	-200,000	-0,039	-0,159
-534,379	-47,949	-0,126	-0,045
-533,364	-200,000	-0,033	-0,121
-532,350	-133,251	0,038	0,003
-531,335	190,342	-0,004	-0,005
-530,321	800,000	-0,016	0,047
-529,306	-121,790	0,044	-0,005
-528,291	195,033	-0,129	-0,144
-527,277	-200,000	0,023	-0,194
-526,262	84,642	-0,076	-0,062
-525,248	81,639	0,043	-0,035
-524,233	-99,582	-0,062	-0,011
-523,218	-53,079	0,022	-0,008
-522,204	1,457	0,061	-0,033
-521,189	-70,279	0,030	-0,008
-520,175	258,505	0,047	0,059
-519,160	800,000	-0,033	-0,072
-518,145	231,477	0,032	0,039
-517,131	-200,000	-0,045	0,148
-516,116	-200,000	0,017	0,061
-515,102	-116,165	0,154	-0,021
-514,087	-200,000	0,008	-0,046
-513,072	-200,000	-0,002	-0,015
-512,058	-200,000	-0,026	-0,155
-511,043	9,137	0,081	-0,045
-510,029	-200,000	-0,021	0,130
-509,014	282,375	-0,033	0,044
-507,999	-154,397	-0,032	0,002
-506,985	-200,000	0,011	-0,069
-505,970	800,000	0,023	-0,067
-504,956	141,023	-0,037	0,037
-503,941	393,023	-0,030	-0,046
-502,926	38,145	0,043	0,028
-501,912	233,547	-0,036	-0,044
-500,897	-53,283	0,140	0,047
-499,883	800,000	-0,026	-0,061
-498,868	-200,000	-0,020	0,072
-497,853	176,450	-0,047	-0,050
-496,839	90,613	-0,051	0,042
-495,824	138,586	-0,049	-0,048
-494,810	92,786	0,092	0,076
-493,795	-39,097	-0,083	-0,032
-492,781	-71,216	0,040	-0,011
-491,766	-200,000	0,009	0,113
-490,751	-200,000	0,004	0,021
-489,737	3,342	0,103	-0,055
-488,722	59,334	0,116	-0,084
-487,708	-70,374	0,044	-0,012
-486,693	256,138	0,029	0,036
-485,678	-100,897	0,030	-0,005
-484,664	194,030	-0,058	-0,065
-483,649	-200,000	0,038	-0,136
-482,635	733,246	0,077	-0,153
-481,620	145,852	0,060	-0,059
-480,605	-77,527	-0,080	0,020
-479,591	-88,695	-0,087	0,019
-478,576	-200,000	0,012	-0,057
-477,562	4,999	-0,087	0,047
-476,547	-200,000	-0,035	-0,158
-475,532	800,000	0,063	-0,170
-474,518	800,000	0,052	-0,140
-473,503	-200,000	-0,020	0,129
-472,489	-200,000	-0,006	0,259
-471,474	-200,000	0,018	-0,083
-470,459	-200,000	-0,058	-0,198
-469,445	280,586	-0,084	0,111
-468,430	46,846	0,041	-0,028
-467,416	-200,000	-0,014	0,080
-466,401	248,571	-0,043	0,054
-465,386	-97,457	0,204	-0,039
-464,372	48,541	0,070	-0,048
-463,357	9,644	-0,047	-0,026
-462,343	417,329	0,053	-0,084
-461,328	163,999	-0,042	-0,043
-460,313	-200,000	0,007	-0,026
-459,299	266,318	0,049	-0,063
-458,284	41,436	0,040	0,026
-457,270	800,000	0,027	0,072
-456,255	489,086	-0,042	0,070
-455,241	-17,871	0,081	0,038
-454,226	5,112	-0,177	-0,096
-453,211	253,105	0,070	0,088
-452,197	290,918	0,063	0,084
-451,182	131,969	0,042	0,040
-450,168	60,448	0,037	0,027
-449,153	-49,270	-0,051	0,018
-448,138	-200,000	-0,041	-0,185
-447,124	405,112	-0,107	-0,167
-446,109	23,208	-0,088	-0,053
-445,095	-21,858	0,121	0,054
-444,080	7,216	0,186	-0,102
-443,065	79,876	0,041	-0,033
-442,051	-164,663	-0,040	0,001
-441,036	800,000	0,027	-0,079
-440,022	-200,000	-0,010	-0,051
-439,007	158,498	0,192	0,197
-437,992	595,466	0,051	0,092
-436,978	-124,713	0,214	0,024
-435,963	599,685	0,021	-0,039
-434,949	800,000	0,048	-0,120
-433,934	-200,000	-0,026	-0,126
-432,919	28,806	-0,139	0,087
-431,905	464,107	-0,028	-0,046
-430,890	-26,170	0,031	-0,013
-429,876	429,820	0,036	0,057
-428,861	725,978	0,060	0,119
-427,846	-35,187	-0,067	-0,027
-426,832	423,209	0,014	-0,022
-425,817	508,104	0,113	-0,194
-424,803	800,000	-0,016	-0,041
-423,788	-200,000	0,008	0,038
-422,773	371,031	0,131	0,196
-421,759	-87,303	0,157	0,035
-420,744	97,157	-0,094	-0,079
-419,730	800,000	-0,060	-0,132
-418,715	170,919	0,064	-0,068
-417,701	-200,000	-0,017	0,066
-416,686	52,474	0,058	0,041
-415,671	512,569	0,081	0,140
-414,657	-200,000	0,007	0,062
-413,642	-167,523	0,082	-0,002
-412,628	-129,943	-0,087	0,009
-411,613	468,228	-0,013	-0,022
-410,598	-200,000	-0,156	0,000
-409,584	800,000	0,028	-0,059
-408,569	62,990	0,081	0,059
-407,555	-200,000	0,032	0,134
-406,540	208,054	0,059	0,068
-405,525	-147,506	-0,049	-0,003
-404,511	310,204	-0,029	-0,040
-403,496	160,267	-0,016	0,017
-402,482	-174,245	-0,034	-0,001
-401,467	-200,000	-0,003	-0,020
-400,452	-98,305	0,157	0,029
-399,438	800,000	0,028	-0,091
-398,423	3,914	0,087	-0,047
-397,409	67,503	0,024	-0,018
-396,394	-86,354	-0,087	0,020
-395,379	277,189	-0,081	-0,106
-394,365	-200,000	0,018	0,097
-393,350	1,235	0,121	-0,064
-392,336	444,381	-0,123	0,199
-391,321	31,732	0,078	-0,050
-390,306	80,551	-0,116	0,092
-389,292	38,068	-0,105	-0,069
-388,277	800,000	-0,019	-0,056
-387,263	-119,447	0,106	-0,013
-386,248	800,000	-0,035	0,084
-385,233	672,906	0,001	-0,002
-384,219	-101,423	0,050	0,009
-383,204	-88,754	0,080	-0,017
-382,190	-200,000	-0,025	-0,081
-381,175	-200,000	0,005	-0,020
-380,160	356,267	0,107	0,157
-379,146	198,927	0,112	0,126
-378,131	-200,000	0,000	0,005
-377,117	605,541	0,075	0,138
-376,102	-114,256	-0,110	0,015
-375,088	101,684	-0,060	0,052
-374,073	161,934	-0,035	0,037
-373,058	428,744	-0,029	-0,045
-372,044	1,198	-0,030	0,016
-371,029	132,207	0,122	0,116
-370,015	-53,012	-0,136	0,046
-369,000	-25,755	-0,124	0,053
-367,985	-151,601	-0,039	0,002
-366,971	-200,000	-0,006	-0,030
-365,956	69,274	0,030	0,022
-364,942	-128,362	0,092	0,010
-363,927	12,496	0,147	0,083
-362,912	-149,248	-0,079	0,005
-361,898	800,000	-0,031	-0,082
-360,883	-200,000	0,004	-0,048
-359,869	52,834	-0,090	-0,063
-358,854	-21,420	0,126	0,056
-357,839	329,885	-0,048	0,068
-356,825	800,000	-0,073	0,163
-355,810	197,639	-0,046	0,052
-354,796	792,368	-0,020	-0,041
-353,781	-88,149	-0,096	-0,021
-352,766	164,667	-0,039	0,040
-351,752	61,999	0,032	0,023
-350,737	-200,000	0,009	0,076
-349,723	800,000	-0,018	0,057
-348,708	800,000	0,041	-0,109
-347,693	-42,625	-0,018	-0,007
-346,679	127,711	0,008	-0,007
-345,664	321,586	-0,045	-0,063
-344,650	127,749	0,101	-0,094
-343,635	26,411	0,067	0,041
-342,620	-149,223	-0,101	0,006
-341,606	20,718	0,052	-0,031
-340,591	357,819	0,034	0,050
-339,577	-200,000	0,001	-0,070
-338,562	-98,838	-0,031	-0,006
-337,548	-200,000	-0,018	0,062
-336,533	-143,117	-0,017	-0,001
-335,518	-200,000	0,043	-0,165
-334,504	800,000	-0,066	0,153
-333,489	-23,725	0,024	0,011
-332,475	70,792	-0,005	-0,004
-331,460	-54,096	-0,054	-0,018
-330,445	-200,000	0,006	0,040
-329,431	-35,557	-0,052	0,021
-328,416	-200,000	-0,013	0,043
-327,402	-200,000	0,004	0,024
-326,387	-53,062	0,095	-0,032
-325,372	379,184	-0,085	-0,128
-324,358	-200,000	0,015	-0,047
-323,343	800,000	0,023	-0,049
-322,329	-19,294	0,104	-0,047
-321,314	-34,342	-0,108	-0,043
-320,299	-200,000	0,032	0,155
-319,285	800,000	-0,016	0,043
-318,270	2,684	-0,069	0,037
-317,256	-109,312	-0,051	0,008
-316,241	-200,000	-0,013	-0,055
-315,226	25,986	-0,107	0,065
-314,212	-72,757	0,057	0,015
-313,197	-132,366	-0,078	0,007
-312,183	800,000	-0,026	-0,083
-311,168	-51,242	-0,043	0,015
-310,153	-66,946	-0,082	-0,024
-309,139	240,528	-0,080	-0,098
-308,124	1,253	0,138	-0,072
-307,110	73,256	0,142	-0,109
-306,095	-200,000	-0,012	0,045
-305,080	225,292	-0,135	0,161
-304,066	-93,277	-0,102	0,021
-303,051	800,000	-0,058	-0,120
-302,037	-133,778	-0,067	0,006
-301,022	-200,000	0,005	0,201
-300,008	431,170	0,020	0,032
-298,993	-118,602	0,025	0,003
-297,978	800,000	-0,017	0,053
-296,964	-39,814	0,171	0,065
-295,949	-65,534	-0,022	0,006
-294,935	-200,000	0,020	0,111
-293,920	-68,878	0,112	-0,031
-292,905	-178,324	-0,106	0,002
-291,891	86,134	-0,045	0,036
-290,876	339,285	0,034	-0,049
-289,862	-200,000	-0,004	-0,029
-288,847	645,973	0,044	-0,082
-287,832	-150,481	0,058	-0,003
-286,818	-200,000	-0,027	0,109
-285,803	-40,379	0,027	0,010
-284,789	50,265	-0,081	0,056
-283,774	-177,104	0,049	0,001
-282,759	-110,906	-0,070	-0,010
-281,745	-200,000	-0,009	-0,119
-280,730	-200,000	0,043	0,282
-279,716	800,000	-0,029	0,085
-278,701	175,992	-0,077	-0,082
-277,686	86,076	0,142	-0,115
-276,672	800,000	0,060	-0,124
-275,657	-17,806	-0,044	0,020
-274,643	-48,908	-0,062	-0,021
-273,628	-97,997	-0,083	-0,015
-272,613	195,033	0,018	0,020
-271,599	324,380	0,052	-0,073
-270,584	-200,000	-0,004	-0,057
-269,570	-79,400	0,037	0,009
-268,555	274,495	0,062	-0,081
-267,540	69,614	-0,123	0,093
-266,526	-56,156	-0,017	-0,006
-265,511	679,161	0,030	-0,058
-264,497	800,000	0,041	0,114
-263,482	-81,684	0,211	-0,050
-262,467	120,228	-0,060	-0,054
-261,453	800,000	-0,027	0,061
-260,438	-114,787	0,064	0,009
-259,424	320,949	-0,070	0,098
-258,409	207,848	-0,032	0,037
-257,395	-45,492	-0,075	-0,027
-256,380	183,164	-0,117	0,126
-255,365	16,870	0,171	0,099
-254,351	-41,564	-0,131	0,049
-253,336	800,000	-0,033	0,080
-252,322	-61,361	-0,045	0,014
-251,307	-95,908	-0,035	0,007
-250,292	326,175	-0,033	-0,047
-249,278	-200,000	0,036	0,163
-248,263	162,725	0,036	0,037
-247,249	93,421	0,089	0,074
-246,234	394,047	-0,070	-0,108
-245,219	216,542	0,092	0,107
-244,205	-114,542	0,036	-0,005
-243,190	-51,541	0,059	-0,020
-242,176	-200,000	0,003	0,123
-241,161	800,000	0,065	0,185
-240,146	-200,000	0,026	0,094
-239,132	-200,000	-0,151	0,000
-238,117	115,864	-0,070	0,062
-237,103	-200,000	0,027	0,100
-236,088	-200,000	0,010	-0,097
-235,073	-127,135	0,157	-0,017
-234,059	-200,000	-0,007	0,106
-233,044	169,379	-0,070	-0,073
-232,030	-200,000	-0,009	0,067
-231,015	274,336	0,019	-0,025
-230,000	-150,323	-0,127	0,007
-228,986	506,976	0,011	-0,019
-227,971	-117,036	0,104	0,014
-226,957	-5,761	-0,146	0,073
-225,942	800,000	0,061	-0,166
-224,927	146,110	-0,035	-0,035
-223,913	20,983	-0,112	0,066
-222,898	82,009	-0,109	-0,086
-221,884	-200,000	-0,002	-0,041
-220,869	42,816	0,015	0,010
-219,855	-200,000	0,000	0,058
-218,840	-87,725	0,059	0,013
-217,825	-200,000	0,003	0,099
-216,811	-200,000	-0,024	0,085
-215,796	-162,249	-0,019	0,001
-214,782	195,875	-0,064	0,071
-213,767	112,213	0,103	-0,091
-212,752	38,228	0,084	0,055
-211,738	-65,251	0,108	0,032
-210,723	800,000	0,018	0,054
-209,709	800,000	-0,020	0,051
-208,694	-108,608	0,079	-0,012
-207,679	-200,000	-0,011	-0,060
-206,665	800,000	0,033	0,086
-205,650	168,493	0,117	0,122
-204,636	-62,225	-0,125	-0,038
-203,621	189,837	0,088	0,096
-202,606	-21,403	0,064	-0,028
-201,592	790,354	-0,067	0,135
-200,577	800,000	0,048	-0,110
-199,563	-65,340	-0,145	0,042
-198,548	-64,725	0,114	0,033
-197,533	-31,684	-0,059	0,024
-196,519	-43,746	0,157	0,057
-195,504	40,601	0,044	-0,029
-194,490	49,835	-0,115	-0,079
-193,475	171,699	-0,027	-0,028
-192,460	-83,701	-0,114	-0,026
-191,446	800,000	0,012	0,035
-190,431	-87,356	0,145	-0,032
-189,417	43,851	0,027	-0,018
-188,402	47,414	-0,024	-0,017
-187,387	-169,444	0,101	0,003
-186,373	-200,000	-0,048	-0,164
-185,358	576,269	-0,057	0,102
-184,344	119,868	0,056	0,050
-183,329	-69,727	0,054	-0,015
-182,315	-69,798	-0,095	0,026
-181,300	-12,992	0,104	0,049
-180,285	565,770	-0,088	-0,156
-179,271	-32,805	-0,052	-0,021
-178,256	-175,328	-0,089	0,002
-177,242	-31,391	0,150	-0,061
-176,227	-200,000	0,041	0,143
-175,212	-200,000	-0,016	-0,160
-174,198	15,866	-0,073	0,042
-173,183	800,000	0,002	-0,004
-172,169	-149,906	-0,117	-0,007
-171,154	800,000	0,050	-0,122
-170,139	800,000	0,028	0,075
-169,125	-142,202	0,037	0,003
-168,110	-200,000	-0,013	0,125
-167,096	-200,000	-0,026	0,175
-166,081	-200,000	0,022	-0,072
-165,066	730,547	0,030	-0,059
-164,052	70,879	-0,194	-0,146
-163,037	202,722	0,017	-0,019
-162,023	249,481	0,077	0,095
-161,008	-200,000	0,065	0,314
-159,993	800,000	-0,016	0,049
-158,979	157,640	0,048	-0,048
-157,964	-25,210	-0,068	-0,029
-156,950	-29,400	0,137	-0,057
-155,935	-133,886	-0,066	-0,006
-154,920	639,288	-0,089	0,166
-153,906	365,060	0,089	0,131
-152,891	-38,537	0,066	-0,025
-151,877	163,026	-0,054	0,056
-150,862	800,000	-0,048	0,111
-149,847	-29,415	-0,073	0,030
-148,833	-134,581	-0,146	0,013
-147,818	20,627	0,055	-0,032
-146,804	96,339	0,094	0,078
-145,789	138,935	-0,063	0,061
-144,775	800,000	-0,027	0,063
-143,760	-25,505	-0,062	0,026
-142,745	800,000	-0,026	0,069
-141,731	-200,000	0,001	0,029
-140,716	-123,889	0,107	-0,012
-139,702	-177,401	-0,100	0,002
-138,687	-200,000	0,001	-0,045
-137,672	-117,425	-0,067	0,009
-136,658	-153,630	-0,117	-0,006
-135,643	40,639	0,037	-0,024
-134,629	-0,414	-0,038	-0,020
-133,614	459,541	-0,070	-0,114
-132,599	154,476	0,063	0,063
-131,585	141,410	-0,045	0,043
-130,570	-200,000	-0,006	0,019
-129,556	568,409	0,048	-0,085
-128,541	-96,061	0,050	-0,010
-127,526	115,304	0,133	0,119
-126,512	-200,000	-0,008	-0,049
-125,497	-37,438	-0,131	0,051
-124,483	-63,361	-0,085	-0,025
-123,468	112,816	0,059	-0,052
-122,453	-200,000	0,010	0,168
-121,439	-85,073	0,019	-0,004
-120,424	-200,000	-0,001	-0,056
-119,410	-29,247	0,068	-0,028
-118,395	-200,000	0,001	0,049
-117,380	-141,690	-0,003	-0,000
-116,366	563,268	0,045	-0,079
-115,351	-200,000	0,012	-0,047
-114,337	-200,000	-0,023	-0,189
-113,322	-2,929	-0,071	0,036
-112,307	54,473	0,041	-0,028
-111,293	800,000	-0,027	0,087
-110,278	317,947	-0,043	-0,060
-109,264	-103,811	0,096	-0,016
-108,249	800,000	-0,021	-0,061
-107,234	-200,000	0,008	0,055
-106,220	1,380	0,064	-0,033
-105,205	800,000	-0,026	0,083
-104,191	147,106	0,036	0,035
-103,176	-22,751	-0,066	0,029
-102,162	800,000	-0,049	-0,117
-101,147	22,158	0,113	-0,067
-100,132	-145,230	-0,146	-0,009
-99,118	-200,000	-0,013	0,072
-98,103	800,000	-0,034	-0,084
-97,089	3,127	0,112	0,059
-96,074	-87,481	0,019	0,004
-95,059	-200,000	-0,015	-0,094
-94,045	-52,377	0,122	0,041
-93,030	800,000	-0,029	-0,072
-92,016	249,673	-0,043	-0,053
-91,001	-200,000	0,010	0,040
-89,986	478,837	-0,028	0,046
-88,972	227,681	-0,140	0,165
-87,957	-107,437	-0,102	0,016
-86,943	187,477	0,040	0,043
-85,928	17,625	-0,095	0,055
-84,913	800,000	-0,043	-0,090
-83,899	66,569	-0,044	-0,033
-82,884	-200,000	-0,000	0,003
-81,870	-200,000	0,009	-0,050
-80,855	62,836	-0,069	0,050
-79,840	-123,005	0,070	0,008
-78,826	64,756	-0,080	0,059
-77,811	-34,451	-0,117	0,046
-76,797	800,000	0,034	0,095
-75,782	-139,549	-0,067	0,005
-74,767	89,610	0,055	0,045
-73,753	-200,000	0,003	0,109
-72,738	800,000	-0,057	0,123
-71,724	21,212	-0,079	0,047
-70,709	-180,077	-0,186	-0,003
-69,694	-119,161	0,077	-0,010
-68,680	-200,000	-0,016	0,092
-67,665	238,077	-0,033	-0,040
-66,651	113,551	0,116	0,102
-65,636	-200,000	-0,010	-0,069
-64,622	-200,000	-0,007	-0,027
-63,607	762,747	0,037	-0,074
-62,592	-200,000	0,008	-0,108
-61,578	-50,326	0,050	0,017
-60,563	-200,000	-0,003	-0,105
-59,549	31,954	-0,123	0,077
-58,534	-165,738	-1,441	-0,044
-57,519	684,725	-0,816	-1,553
-56,505	-200,000	-0,940	-4,580
-55,490	67,652	0,534	-0,395
-54,476	800,000	5,009	11,969
-53,461	-200,000	13,475	252,671
-52,446	-200,000	688,933	2269,235
-51,432	596,520	1623,263	2928,475
-50,417	121,004	1636,393	1476,995
-49,403	73,573	1290,471	979,444
-48,388	38,485	1025,075	661,558
-47,373	24,602	982,508	588,430
-46,359	23,761	972,449	579,623
-45,344	22,829	968,325	574,095
-44,330	22,721	966,797	572,815
-43,315	22,631	965,397	571,667
-42,300	22,629	964,454	571,080
-41,286	22,649	963,348	570,469
-40,271	22,600	962,667	569,884
-39,257	22,687	961,361	569,370
-38,242	22,651	960,720	568,852
-37,227	22,617	959,761	568,152
-36,213	22,545	959,107	567,508
-35,198	22,571	958,195	567,030
-34,184	22,614	957,511	566,743
-33,169	22,541	956,651	565,974
-32,154	22,691	955,605	565,818
-31,140	22,739	954,628	565,371
-30,125	22,643	954,079	564,714
-29,111	22,676	953,095	564,217
-28,096	22,699	952,365	563,835
-27,082	22,615	951,829	563,225
-26,067	22,651	950,913	562,777
-25,052	22,690	950,244	562,485
-24,038	22,588	949,786	561,863
-23,023	22,621	949,036	561,504
-22,009	22,701	948,235	561,262
-20,994	22,672	947,591	560,765
-19,979	22,682	947,070	560,466
-18,965	22,703	946,453	560,148
-17,950	22,718	945,736	559,747
-16,936	22,690	945,107	559,265
-15,921	22,615	944,421	558,598
-14,906	22,564	943,725	558,002
-13,892	22,576	943,044	557,615
-12,877	22,580	942,378	557,213
-11,863	22,525	941,754	556,647
-10,848	22,566	941,214	556,434
-9,833	22,628	941,009	556,489
-8,819	22,625	940,230	555,996
-7,804	22,546	939,679	555,398
-6,790	22,550	939,116	555,056
-5,775	22,637	938,358	554,861
-4,760	22,553	937,796	554,239
-3,746	22,569	937,194	553,913
-2,731	22,380	936,538	552,905
-1,717	22,325	935,850	552,305
-0,702	22,401	935,186	552,130
0,313	22,189	934,282	551,762
1,327	25,225	932,391	560,146
2,342	34,764	796,813	504,115
3,356	32,632	451,866	282,641
4,371	1,615	293,895	152,878
5,386	-2,814	274,429	138,554
6,400	-4,222	268,840	134,414
7,415	-4,316	266,321	133,056
8,429	-3,979	265,112	132,748
9,444	-4,151	264,353	132,200
10,459	-4,416	263,756	131,648
11,473	-4,327	263,114	131,397
12,488	-4,237	262,517	131,169
13,502	-4,455	262,059	130,731
14,517	-4,454	261,866	130,624
15,531	-4,272	261,194	130,441
16,546	-4,293	260,843	130,236
17,561	-4,207	260,509	130,134
18,575	-4,231	260,337	130,015
19,590	-4,174	259,903	129,838
20,604	-4,119	259,670	129,759
21,619	-4,179	259,204	129,461
22,634	-4,308	258,802	129,134
23,648	-4,318	258,569	128,997
24,663	-4,387	258,505	128,892
25,677	-4,304	258,238	128,821
26,692	-4,224	257,889	128,706
27,707	-4,433	257,639	128,385
28,721	-4,271	257,360	128,378
29,736	-4,451	257,037	128,046
30,750	-4,510	256,905	127,918
31,765	-4,346	256,657	127,927
32,780	-4,477	256,391	127,668
33,794	-4,328	256,102	127,643
34,809	-4,421	255,981	127,490
35,823	-4,397	255,753	127,386
36,838	-4,450	255,527	127,215
37,853	-4,457	255,237	127,054
38,867	-4,437	255,010	126,947
39,882	-4,340	254,725	126,879
40,896	-4,381	254,451	126,695
41,911	-4,478	254,322	126,535
42,926	-4,487	254,112	126,411
43,940	-4,621	253,952	126,203
44,955	-4,611	253,710	126,080
45,969	-4,597	253,554	126,004
46,984	-4,794	253,290	125,690
47,999	-4,783	252,849	125,470
49,013	-5,039	252,641	125,133
50,028	-5,062	252,341	124,952
51,042	-5,077	252,152	124,835
52,057	-5,211	251,931	124,598
53,071	-5,313	251,805	124,437
54,086	-5,042	251,641	124,579
55,101	-4,957	251,402	124,523
56,115	-4,606	251,242	124,735
57,130	-4,378	251,224	124,912
58,144	-4,134	251,021	125,010
59,159	-3,932	250,690	125,009
60,174	-4,423	250,624	124,542
61,188	-4,103	250,424	124,706
62,203	-4,249	250,147	124,432
63,217	-4,488	249,988	124,137
64,232	-4,181	249,750	124,271
65,247	-4,306	249,662	124,109
66,261	-4,265	249,368	123,987
67,276	-4,719	249,076	123,442
68,290	-4,808	248,937	123,286
69,305	-4,777	248,572	123,121
70,320	-4,646	248,412	123,143
71,334	-4,529	248,433	123,242
72,349	-4,303	248,179	123,297
73,363	-4,204	247,809	123,186
74,378	-4,137	247,707	123,182
75,393	-4,477	247,657	122,857
76,407	-4,329	247,336	122,813
77,422	-4,406	247,170	122,653
78,436	-4,421	247,014	122,553
79,451	-4,361	246,752	122,462
80,466	-4,385	246,426	122,270
81,480	-4,638	246,355	122,010
82,495	-4,547	246,190	121,994
83,509	-4,510	245,924	121,882
84,524	-4,648	245,836	121,712
85,539	-4,740	245,647	121,530
86,553	-4,735	245,396	121,399
87,568	-4,383	245,091	121,532
88,582	-4,572	244,908	121,273
89,597	-4,670	244,715	121,084
90,611	-4,529	244,602	121,135
91,626	-4,660	244,553	120,991
92,641	-4,315	244,280	121,133
93,655	-4,372	243,992	120,932
94,670	-4,516	244,000	120,806
95,684	-4,410	243,683	120,726
96,699	-4,660	243,712	120,521
97,714	-4,541	243,220	120,367
98,728	-4,786	243,090	120,087
99,743	-4,792	242,938	119,996
100,757	-4,754	242,711	119,904
101,772	-4,672	242,536	119,876
102,787	-4,478	242,263	119,892
103,801	-4,408	242,228	119,921
104,816	-4,370	242,064	119,861
105,830	-4,217	241,974	119,932
106,845	-4,411	241,933	119,740
107,860	-4,262	241,529	119,653
108,874	-4,396	241,448	119,492
109,889	-4,417	241,129	119,306
110,903	-4,553	240,934	119,087
111,918	-4,561	240,736	118,971
112,933	-4,385	240,624	119,050
113,947	-4,570	240,546	118,849
114,962	-4,484	240,354	118,814
115,976	-4,402	239,886	118,639
116,991	-4,532	239,860	118,510
118,006	-4,381	239,784	118,585
119,020	-4,525	239,562	118,347
120,035	-4,397	239,521	118,421
121,049	-4,395	239,581	118,441
122,064	-4,424	239,173	118,206
123,079	-4,497	238,962	118,031
124,093	-4,517	238,834	117,941
125,108	-4,640	238,566	117,697
126,122	-4,655	238,338	117,563
127,137	-4,705	238,104	117,396
128,151	-4,816	238,063	117,275
129,166	-4,680	237,959	117,324
130,181	-4,661	237,639	117,171
131,195	-4,744	237,524	117,037
132,210	-4,722	237,394	116,980
133,224	-4,548	237,261	117,045
134,239	-4,452	237,122	117,044
135,254	-4,168	236,797	117,102
136,268	-4,375	236,438	116,747
137,283	-4,792	236,468	116,416
138,297	-4,811	236,214	116,265
139,312	-4,741	235,854	116,133
140,327	-4,418	235,824	116,368
141,341	-4,202	235,937	116,587
142,356	-4,074	235,742	116,583
143,370	-3,974	235,556	116,562
144,385	-3,872	235,208	116,461
145,400	-4,058	235,251	116,322
146,414	-4,045	235,033	116,214
147,429	-3,995	234,880	116,168
148,443	-4,194	234,791	115,955
149,458	-4,086	234,529	115,901
150,473	-3,969	234,360	115,901
151,487	-4,244	234,335	115,659
152,502	-4,242	234,146	115,557
153,516	-3,985	233,979	115,669
154,531	-3,942	233,659	115,535
155,546	-4,044	233,585	115,407
156,560	-4,056	233,402	115,296
157,575	-4,308	233,300	115,035
158,589	-4,381	233,210	114,922
159,604	-4,131	232,935	114,975
160,619	-4,111	232,851	114,939
161,633	-3,832	232,631	115,042
162,648	-4,217	232,546	114,685
163,662	-4,183	232,331	114,595
164,677	-4,195	232,216	114,519
165,692	-4,082	232,051	114,517
166,706	-4,037	231,923	114,479
167,721	-4,071	231,805	114,384
168,735	-3,929	231,527	114,348
169,750	-4,236	231,497	114,081
170,764	-4,177	231,561	114,149
171,779	-3,965	231,033	114,045
172,794	-4,073	230,931	113,900
173,808	-4,087	230,845	113,836
174,823	-4,513	230,389	113,268
175,837	-4,651	230,294	113,103
176,852	-4,524	230,275	113,183
177,867	-4,252	230,320	113,407
178,881	-3,801	230,038	113,611
179,896	-4,070	229,869	113,307
180,910	-4,099	229,727	113,205
181,925	-3,992	229,578	113,205
182,940	-3,957	229,263	113,067
183,954	-4,022	229,237	112,993
184,969	-3,892	229,120	113,026
185,983	-4,053	229,166	112,914
186,998	-3,968	228,823	112,801
188,013	-3,815	228,626	112,812
189,027	-3,856	228,451	112,684
190,042	-3,867	228,390	112,635
191,056	-3,814	228,066	112,506
192,071	-3,974	228,098	112,388
193,086	-4,107	227,923	112,189
194,100	-4,052	227,640	112,083
195,115	-4,177	227,369	111,842
196,129	-4,533	227,158	111,454
197,144	-2,292	227,825	113,503
198,159	1,364	229,007	116,916
199,173	4,095	229,538	119,295
200,188	4,198	229,601	119,397
201,202	4,453	229,299	119,427
202,217	4,454	229,284	119,409
203,232	4,519	229,273	119,443
204,246	4,615	228,985	119,356
205,261	4,701	228,901	119,369
206,275	4,853	228,791	119,418
207,290	4,813	228,632	119,293
208,304	4,837	228,415	119,188
209,319	4,813	228,207	119,051
210,334	4,731	228,122	118,932
211,348	4,221	227,862	118,394
212,363	4,171	227,468	118,141
213,377	3,863	227,233	117,773
214,392	3,798	227,328	117,762
215,407	4,074	227,173	117,881
216,421	3,945	227,069	117,719
217,436	4,009	226,728	117,580
218,450	3,854	226,475	117,320
219,465	3,833	226,421	117,266
220,480	3,639	226,355	117,073
221,494	3,885	226,175	117,157
222,509	3,969	226,038	117,140
223,523	4,107	225,835	117,129
224,538	3,683	225,729	116,741
225,553	3,869	225,655	116,834
226,567	4,125	225,467	116,921
227,582	4,324	225,343	116,996
228,596	4,273	225,270	116,910
229,611	3,850	225,113	116,498
230,626	3,549	224,937	116,168
231,640	3,910	224,572	116,242
232,655	4,145	224,609	116,428
233,669	4,806	224,474	116,847
234,684	4,653	224,419	116,693
235,699	4,421	224,423	116,509
236,713	4,121	223,987	116,047
237,728	3,963	223,723	115,780
238,742	3,948	223,621	115,706
239,757	3,740	223,560	115,507
240,772	3,779	223,493	115,493
241,786	3,634	223,243	115,244
242,801	4,223	223,197	115,651
243,815	4,433	223,070	115,733
244,830	4,307	222,890	115,535
245,844	4,063	222,585	115,184
246,859	4,154	222,547	115,222
247,874	4,309	222,478	115,292
248,888	4,277	222,396	115,216
249,903	4,080	222,203	114,958
250,917	3,974	221,960	114,743
251,932	4,093	221,673	114,673
252,947	3,926	221,622	114,512
253,961	3,653	221,509	114,240
254,976	4,000	221,178	114,317
255,990	4,011	221,306	114,381
257,005	4,198	221,154	114,432
258,020	4,204	220,937	114,314
259,034	4,472	220,978	114,523
260,049	4,452	220,723	114,367
261,063	4,229	220,595	114,125
262,078	4,381	220,479	114,167
263,093	4,221	220,283	113,937
264,107	4,414	220,133	113,992
265,122	4,312	219,920	113,796
266,136	4,446	219,936	113,893
267,151	4,534	219,882	113,920
268,166	3,939	219,607	113,328
269,180	3,791	219,404	113,105
270,195	3,860	219,140	113,010
271,209	3,950	219,004	112,995
272,224	4,128	218,880	113,052
273,239	3,936	218,841	112,881
274,253	3,775	218,790	112,727
275,268	3,957	218,416	112,657
276,282	3,797	218,272	112,455
277,297	3,763	218,088	112,326
278,312	3,840	217,986	112,319
279,326	3,926	217,955	112,356
280,341	3,933	217,912	112,329
281,355	3,840	217,723	112,154
282,370	3,953	217,473	112,098
283,384	3,899	217,388	112,004
284,399	3,582	217,201	111,667
285,414	3,772	217,115	111,751
286,428	3,874	217,091	111,804
287,443	3,906	217,071	111,806
288,457	4,063	216,812	111,777
289,472	4,115	216,588	111,689
290,487	3,638	216,350	111,211
291,501	3,314	216,278	110,929
292,516	3,500	216,099	110,962
293,530	3,666	216,018	111,031
294,545	3,658	215,818	110,912
295,560	3,647	215,772	110,871
296,574	3,973	215,623	111,019
297,589	3,820	215,529	110,851
298,603	3,983	215,426	110,906
299,618	3,921	215,257	110,765
300,633	4,185	215,053	110,839
301,647	4,265	215,067	110,894
302,662	4,043	215,078	110,730
303,676	4,219	214,834	110,721
304,691	4,475	214,405	110,673
305,706	4,376	214,401	110,591
306,720	4,221	214,284	110,410
307,735	4,056	214,102	110,188
308,749	3,741	213,991	109,895
309,764	3,963	213,834	109,964
310,779	4,114	213,915	110,103
311,793	4,171	213,596	109,970
312,808	4,132	213,494	109,880
313,822	4,192	213,307	109,816
314,837	4,010	213,144	109,594
315,852	3,820	212,975	109,362
316,866	3,966	212,877	109,406
317,881	4,093	212,776	109,434
318,895	4,146	212,729	109,438
319,910	4,270	212,387	109,340
320,925	3,912	212,254	109,008
321,939	3,474	212,116	108,617
322,954	3,553	212,022	108,615
323,968	3,704	212,118	108,762
324,983	4,076	211,809	108,857
325,997	4,209	211,666	108,867
327,012	3,915	211,615	108,624
328,027	3,948	211,372	108,513
329,041	4,154	211,398	108,661
330,056	4,409	211,221	108,740
331,070	4,081	210,987	108,380
332,085	3,722	210,817	108,030
333,100	3,692	210,640	107,909
334,114	4,260	210,562	108,258
335,129	4,133	210,454	108,104
336,143	3,718	210,335	107,742
337,158	3,929	210,017	107,717
338,173	4,299	209,916	107,915
339,187	3,737	209,777	107,440
340,202	3,721	209,617	107,338
341,216	3,617	209,578	107,235
342,231	3,965	209,403	107,380
343,246	3,547	209,378	107,065
344,260	3,831	209,192	107,159
345,275	3,934	209,113	107,180
346,289	4,025	208,994	107,173
347,304	3,934	208,842	107,022
348,319	3,931	208,798	106,989
349,333	3,811	208,581	106,784
350,348	3,903	208,467	106,780
351,362	4,056	208,366	106,825
352,377	4,075	208,326	106,808
353,392	3,950	208,134	106,614
354,406	4,028	207,953	106,566
355,421	194,119	1346,319	1435,327
356,435	154,877	1485,121	1435,452
