DTS Sentinel unit serial number:	SN410029Multiplexer serial number:	ORYXHardware model number:	OX2-SRSoftware version number:	ORYX F/W v4,00 Oryx Data Collector v3.7.2.0data status	okinstallation	B6 Nyhavnadifferential loss correction	single-endedforward channel	channel 2reverse channel	N/Adate	2023/12/11time	05:00:08forward acquisition time	300,00reverse acquisition time	0,00gamma	499,1914k internal	0,3126k external	0,3126temperature offset calibration	1,0000default loss term (dB/km)	0,3820temperature slope calibration	1,0000multiplexer offset coefficient	1,0000multiplexer slope coefficient	1,0000fibre end	0,00T internal ref (°C)	20,22T ext. ref 1 (°C)	3,12T ext. ref 2 (°C)	3,12length (m)	temperature (°C)	Stokes	anti-Stokes-744,400	-200,000	0,017	-0,162
-743,385	737,680	-0,063	0,127
-742,371	-117,935	0,039	-0,005
-741,356	-17,429	-0,177	0,082
-740,342	155,164	0,066	0,068
-739,327	-125,385	-0,400	-0,045
-738,312	-126,570	0,132	-0,014
-737,298	-23,310	-0,248	0,110
-736,283	-63,013	0,097	0,030
-735,269	11,671	-0,184	0,105
-734,254	105,401	0,098	-0,086
-733,239	-34,878	-0,419	-0,169
-732,225	-70,869	0,134	-0,037
-731,210	-200,000	-0,006	0,030
-730,196	314,831	-0,039	0,055
-729,181	275,219	0,042	-0,056
-728,167	219,563	-0,072	-0,086
-727,152	-118,092	-0,036	0,005
-726,137	664,899	-0,046	0,088
-725,123	-139,895	-0,130	-0,010
-724,108	289,100	-0,110	-0,149
-723,094	-178,199	-0,139	-0,002
-722,079	-200,000	0,013	-0,074
-721,064	435,542	0,041	-0,067
-720,050	202,585	0,095	0,109
-719,035	143,360	-0,053	-0,052
-718,021	-200,000	-0,003	-0,201
-717,006	-55,789	-0,179	-0,059
-715,991	709,967	-0,045	-0,089
-714,977	-200,000	0,009	-0,131
-713,962	60,311	-0,059	0,044
-712,948	-97,331	0,059	0,011
-711,933	9,121	0,108	-0,060
-710,918	-181,509	-0,054	-0,001
-709,904	69,113	0,004	0,003
-708,889	195,629	-0,051	0,058
-707,875	-200,000	0,010	-0,035
-706,860	-200,000	0,006	-0,022
-705,845	26,847	-0,029	-0,018
-704,831	-12,215	0,128	-0,062
-703,816	-200,000	0,024	-0,148
-702,802	47,176	-0,176	-0,122
-701,787	109,446	0,070	-0,062
-700,772	-105,644	-0,064	0,011
-699,758	-30,322	0,021	-0,009
-698,743	-200,000	-0,048	0,180
-697,729	196,126	0,081	0,092
-696,714	-200,000	-0,013	0,088
-695,699	800,000	0,035	-0,103
-694,685	178,126	-0,075	-0,081
-693,670	326,366	0,068	0,096
-692,656	-46,600	0,113	0,041
-691,641	800,000	-0,018	-0,039
-690,627	-165,727	-0,058	0,002
-689,612	0,798	-0,040	-0,021
-688,597	529,947	-0,042	0,074
-687,583	-54,153	-0,068	-0,023
-686,568	-200,000	-0,021	-0,126
-685,554	-80,832	0,080	0,020
-684,539	-60,960	-0,021	0,007
-683,524	800,000	0,019	0,047
-682,510	-41,319	-0,143	0,054
-681,495	397,188	-0,041	-0,064
-680,481	-60,329	-0,054	0,017
-679,466	-200,000	-0,004	-0,053
-678,451	483,542	-0,083	0,141
-677,437	477,527	0,038	-0,065
-676,422	-200,000	-0,013	0,068
-675,408	340,533	-0,033	-0,048
-674,393	395,952	0,078	0,121
-673,378	-200,000	0,021	-0,085
-672,364	-156,622	-0,110	-0,005
-671,349	-133,354	-0,128	-0,012
-670,335	-1,146	0,129	0,067
-669,320	-72,540	0,127	0,034
-668,305	11,421	-0,168	0,095
-667,291	-93,420	0,069	0,014
-666,276	-30,533	-0,172	-0,072
-665,262	-200,000	-0,025	-0,090
-664,247	-137,189	0,158	0,013
-663,232	112,596	-0,090	0,081
-662,218	800,000	-0,004	0,012
-661,203	-137,837	0,128	-0,010
-660,189	87,257	0,041	-0,033
-659,174	-42,937	-0,082	-0,031
-658,159	-78,913	-0,154	-0,039
-657,145	-200,000	0,020	0,076
-656,130	99,395	-0,085	-0,073
-655,116	-200,000	-0,075	-0,000
-654,101	124,892	0,070	-0,066
-653,086	-200,000	-0,001	-0,085
-652,072	144,878	-0,038	0,037
-651,057	-81,255	0,103	0,025
-650,043	512,870	-0,068	-0,119
-649,028	-200,000	0,029	-0,150
-648,014	396,401	-0,055	-0,086
-646,999	800,000	-0,019	-0,063
-645,984	-200,000	-0,005	0,100
-644,970	-12,523	-0,041	0,020
-643,955	-38,213	-0,064	-0,025
-642,941	122,453	-0,072	0,067
-641,926	-87,396	0,061	-0,014
-640,911	161,549	0,099	0,102
-639,897	-9,876	0,069	0,034
-638,882	374,614	0,060	0,091
-637,868	-200,000	-0,014	0,106
-636,853	-73,029	-0,134	-0,036
-635,838	-61,521	0,102	-0,032
-634,824	-200,000	-0,002	-0,155
-633,809	-125,277	-0,087	0,010
-632,795	800,000	0,005	-0,010
-631,780	94,843	0,067	-0,057
-630,765	-61,647	0,096	0,030
-629,751	-132,311	-0,113	-0,011
-628,736	800,000	-0,033	0,069
-627,722	-99,011	-0,108	0,020
-626,707	-28,357	0,131	-0,056
-625,692	-1,425	0,036	0,019
-624,678	800,000	0,028	-0,066
-623,663	-193,915	-0,073	-0,000
-622,649	647,252	-0,048	-0,092
-621,634	800,000	-0,010	0,023
-620,619	-200,000	0,014	-0,068
-619,605	260,017	0,034	0,043
-618,590	148,235	-0,096	0,096
-617,576	163,031	-0,081	-0,085
-616,561	194,261	0,049	-0,055
-615,546	55,413	-0,111	-0,079
-614,532	404,432	0,075	-0,117
-613,517	-156,806	-0,003	-0,000
-612,503	800,000	0,037	-0,090
-611,488	-200,000	0,030	0,254
-610,474	213,759	-0,055	-0,065
-609,459	-4,853	0,022	-0,011
-608,444	-200,000	0,007	-0,029
-607,430	-33,676	0,018	0,007
-606,415	-200,000	0,016	-0,091
-605,401	800,000	0,037	0,109
-604,386	-200,000	0,000	0,080
-603,371	-75,335	-0,169	0,044
-602,357	-87,582	0,098	0,022
-601,342	721,214	-0,010	-0,020
-600,328	-24,352	0,152	-0,067
-599,313	-14,616	-0,128	-0,061
-598,298	-200,000	-0,036	-0,129
-597,284	-122,763	0,121	-0,014
-596,269	-33,423	0,068	-0,028
-595,255	58,298	-0,050	-0,036
-594,240	171,446	-0,032	0,034
-593,225	260,756	-0,107	-0,137
-592,211	800,000	-0,046	-0,107
-591,196	800,000	-0,046	-0,111
-590,182	-200,000	-0,005	-0,114
-589,167	-200,000	-0,016	0,085
-588,152	-113,923	0,065	-0,009
-587,138	-82,877	-0,247	-0,059
-586,123	44,357	-0,081	0,055
-585,109	-200,000	0,009	0,094
-584,094	800,000	0,033	-0,094
-583,079	-200,000	0,017	-0,076
-582,065	-69,063	0,125	0,035
-581,050	8,312	-0,061	-0,034
-580,036	66,960	0,117	-0,088
-579,021	-200,000	0,004	-0,019
-578,006	-200,000	0,023	0,138
-576,992	-200,000	0,015	-0,184
-575,977	-31,656	-0,155	0,064
-574,963	-69,455	0,067	0,019
-573,948	-51,079	0,081	-0,028
-572,934	88,997	0,067	-0,055
-571,919	800,000	0,012	-0,033
-570,904	176,127	-0,035	-0,038
-569,890	411,151	0,005	-0,008
-568,875	103,296	-0,064	-0,055
-567,861	-45,073	0,050	-0,018
-566,846	1,614	0,039	0,021
-565,831	435,506	-0,076	-0,122
-564,817	-19,444	-0,132	0,060
-563,802	-200,000	-0,016	0,108
-562,788	17,121	0,104	-0,061
-561,773	-48,926	0,063	0,022
-560,758	-200,000	0,023	0,084
-559,744	50,988	0,041	0,029
-558,729	153,189	0,057	0,057
-557,715	193,229	-0,068	0,076
-556,700	234,677	-0,080	-0,097
-555,685	55,920	0,049	0,035
-554,671	-200,000	-0,003	0,013
-553,656	-164,090	0,035	0,001
-552,642	-110,770	0,077	0,012
-551,627	-76,608	0,074	0,019
-550,612	-200,000	-0,005	0,032
-549,598	130,663	-0,113	-0,107
-548,583	503,280	0,052	0,090
-547,569	-200,000	-0,026	-0,089
-546,554	-200,000	-0,003	0,110
-545,539	800,000	-0,041	-0,095
-544,525	-134,016	0,116	-0,010
-543,510	800,000	-0,032	-0,074
-542,496	319,394	-0,051	-0,071
-541,481	290,650	-0,123	-0,165
-540,466	800,000	-0,016	-0,047
-539,452	-38,272	0,037	0,015
-538,437	44,252	0,163	0,110
-537,423	457,998	-0,030	0,049
-536,408	79,825	0,050	0,040
-535,393	165,679	-0,101	-0,105
-534,379	-112,685	0,049	-0,007
-533,364	493,504	0,058	0,098
-532,350	203,122	0,020	0,023
-531,335	211,194	0,144	0,168
-530,321	-188,972	-0,087	0,001
-529,306	44,688	-0,059	0,040
-528,291	-106,619	-0,051	-0,008
-527,277	-200,000	0,019	0,070
-526,262	-200,000	-0,012	0,085
-525,248	305,559	-0,064	0,088
-524,233	-96,681	0,119	0,023
-523,218	-200,000	0,017	0,062
-522,204	-200,000	0,050	0,184
-521,189	-133,000	0,078	-0,007
-520,175	203,956	-0,078	-0,089
-519,160	-36,985	0,166	-0,066
-518,145	28,667	0,099	-0,062
-517,131	22,927	0,090	-0,054
-516,116	-43,542	-0,171	0,063
-515,102	-200,000	0,008	0,045
-514,087	80,831	0,056	-0,044
-513,072	491,630	0,020	-0,033
-512,058	51,173	-0,102	-0,071
-511,043	-100,179	-0,086	-0,016
-510,029	172,449	0,073	0,078
-509,014	277,220	-0,065	-0,085
-507,999	306,075	0,047	0,065
-506,985	-200,000	-0,010	0,095
-505,970	-200,000	0,029	0,111
-504,956	-200,000	0,006	-0,037
-503,941	63,892	0,153	0,114
-502,926	61,192	-0,089	0,065
-501,912	-85,943	0,106	0,024
-500,897	-7,388	-0,034	-0,017
-499,883	800,000	0,036	-0,105
-498,868	452,775	0,056	-0,092
-497,853	169,148	-0,039	-0,042
-496,839	197,979	0,091	-0,102
-495,824	-200,000	-0,005	-0,139
-494,810	191,124	-0,065	0,072
-493,795	800,000	0,048	0,131
-492,781	238,936	-0,057	-0,070
-491,766	800,000	0,032	-0,097
-490,751	-39,500	-0,087	0,033
-489,737	-200,000	0,023	0,143
-488,722	295,541	0,126	0,171
-487,708	-51,975	-0,123	0,042
-486,693	-77,040	-0,109	-0,028
-485,678	-9,524	0,128	0,063
-484,664	-200,000	-0,008	0,032
-483,649	107,519	-0,079	0,069
-482,635	-200,000	-0,018	0,063
-481,620	-77,404	0,124	-0,031
-480,605	464,911	0,054	-0,089
-479,591	-200,000	-0,051	0,209
-478,576	360,220	0,059	0,087
-477,562	460,530	-0,095	-0,157
-476,547	-142,271	-0,095	-0,007
-475,532	400,789	0,056	-0,087
-474,518	85,049	0,070	0,056
-473,503	42,324	0,022	-0,014
-472,489	-107,239	-0,104	0,017
-471,474	258,102	0,038	-0,048
-470,459	-6,091	-0,109	-0,055
-469,445	110,448	-0,064	0,056
-468,430	-66,070	-0,107	0,031
-467,416	254,845	-0,046	0,058
-466,401	-200,000	-0,026	0,106
-465,386	-72,926	0,111	0,030
-464,372	418,139	0,086	-0,137
-463,357	-200,000	0,004	-0,136
-462,343	232,338	-0,091	-0,110
-461,328	419,100	-0,055	-0,087
-460,313	-18,405	0,063	0,029
-459,299	-75,218	0,054	0,014
-458,284	-16,344	0,082	0,038
-457,270	49,337	0,081	0,056
-456,255	-200,000	-0,005	0,066
-455,241	-132,527	-0,047	-0,004
-454,226	380,434	0,043	-0,066
-453,211	-34,045	0,084	0,034
-452,197	368,294	0,031	0,046
-451,182	258,354	-0,040	0,051
-450,168	-200,000	-0,023	-0,088
-449,153	156,829	-0,015	-0,016
-448,138	-9,559	-0,081	0,040
-447,124	800,000	0,035	0,082
-446,109	5,532	0,143	0,078
-445,095	-113,323	0,097	0,014
-444,080	81,320	-0,104	0,083
-443,065	-200,000	-0,013	0,097
-442,051	-107,770	0,080	-0,013
-441,036	-43,377	-0,022	-0,008
-440,022	-105,976	-0,152	0,025
-439,007	-101,192	0,012	-0,002
-437,992	800,000	-0,070	0,164
-436,978	495,225	0,069	0,117
-435,963	461,903	0,055	0,090
-434,949	156,005	-0,032	0,032
-433,934	800,000	-0,061	-0,191
-432,919	-25,713	-0,133	-0,057
-431,905	568,768	0,059	-0,106
-430,890	523,446	-0,036	0,062
-429,876	108,674	-0,099	0,087
-428,861	22,331	0,180	0,108
-427,846	412,136	-0,053	0,083
-426,832	-112,376	-0,102	0,015
-425,817	-12,875	-0,171	-0,081
-424,803	-29,926	0,048	-0,020
-423,788	-200,000	0,012	-0,057
-422,773	193,032	0,069	-0,077
-421,759	-171,322	-0,099	0,002
-420,744	-30,441	-0,092	0,038
-419,730	800,000	0,029	-0,089
-418,715	-200,000	-0,001	0,014
-417,701	-200,000	-0,013	-0,093
-416,686	-20,631	0,195	0,088
-415,671	-51,922	-0,075	0,025
-414,657	440,368	0,053	-0,086
-413,642	-200,000	-0,010	-0,134
-412,628	222,697	0,021	0,024
-411,613	800,000	-0,056	-0,127
-410,598	-97,641	-0,053	-0,010
-409,584	-46,002	-0,088	-0,032
-408,569	-129,240	0,019	0,002
-407,555	486,093	0,013	-0,022
-406,540	-90,005	-0,075	-0,016
-405,525	-84,544	-0,104	0,024
-404,511	800,000	0,011	0,034
-403,496	800,000	-0,029	-0,069
-402,482	-4,244	0,145	-0,073
-401,467	-137,276	-0,161	0,013
-400,452	-95,547	0,046	-0,009
-399,438	-70,498	0,032	-0,009
-398,423	68,889	-0,118	-0,089
-397,409	-40,981	0,025	0,009
-396,394	800,000	-0,061	-0,127
-395,379	542,044	-0,028	-0,050
-394,365	48,205	-0,153	0,105
-393,350	-200,000	0,044	0,182
-392,336	-106,444	-0,041	0,007
-391,321	19,371	-0,118	-0,069
-390,306	800,000	0,029	-0,063
-389,292	652,934	0,068	-0,129
-388,277	-200,000	-0,032	0,145
-387,263	-200,000	0,022	0,099
-386,248	613,499	0,058	0,108
-385,233	-132,064	0,026	-0,002
-384,219	413,568	-0,049	-0,077
-383,204	-78,568	0,058	0,015
-382,190	101,240	-0,149	-0,127
-381,175	-200,000	0,043	0,194
-380,160	-200,000	0,011	-0,092
-379,146	-200,000	0,003	-0,039
-378,131	-200,000	0,016	0,101
-377,117	-200,000	0,017	0,071
-376,102	-27,692	-0,100	0,042
-375,088	79,643	0,022	-0,017
-374,073	205,595	0,063	-0,072
-373,058	638,219	0,107	0,200
-372,044	187,580	0,050	0,054
-371,029	-71,231	0,118	0,032
-370,015	-69,787	0,125	-0,035
-369,000	306,932	-0,134	0,183
-367,985	-200,000	0,016	0,115
-366,971	-63,970	0,071	-0,021
-365,956	76,982	-0,053	0,041
-364,942	535,292	-0,022	-0,039
-363,927	299,040	-0,033	0,044
-362,912	138,554	-0,072	0,069
-361,898	-103,104	-0,213	0,037
-360,883	-111,631	0,018	-0,003
-359,869	766,075	-0,060	-0,120
-358,854	-72,737	0,055	-0,015
-357,839	83,173	-0,029	-0,023
-356,825	800,000	-0,037	-0,103
-355,810	25,558	0,082	0,050
-354,796	342,871	0,011	0,016
-353,781	167,381	-0,024	0,025
-352,766	800,000	-0,039	0,099
-351,752	772,065	0,076	-0,153
-350,737	57,195	0,146	-0,105
-349,723	61,179	0,124	-0,090
-348,708	-65,087	0,003	-0,001
-347,693	141,878	0,034	0,033
-346,679	-56,277	0,099	0,032
-345,664	-200,000	0,009	-0,047
-344,650	414,287	-0,081	0,127
-343,635	-160,958	-0,086	-0,003
-342,620	732,222	-0,049	0,097
-341,606	-48,857	0,229	-0,080
-340,591	-200,000	-0,031	-0,112
-339,577	-124,223	-0,065	0,007
-338,562	189,036	-0,052	-0,057
-337,548	-170,632	0,048	0,001
-336,533	800,000	0,067	0,192
-335,518	32,738	0,077	-0,049
-334,504	213,559	-0,082	0,095
-333,489	-200,000	0,042	-0,150
-332,475	800,000	-0,014	-0,042
-331,460	800,000	0,053	-0,160
-330,445	213,629	-0,113	0,131
-329,431	-25,750	-0,089	0,038
-328,416	-130,193	0,024	0,002
-327,402	-65,231	-0,040	-0,012
-326,387	-80,340	0,041	-0,010
-325,372	800,000	0,042	-0,102
-324,358	800,000	-0,045	-0,096
-323,343	-200,000	0,019	-0,105
-322,329	170,810	0,099	0,104
-321,314	172,969	0,110	-0,116
-320,299	326,601	-0,043	0,061
-319,285	487,637	-0,027	-0,046
-318,270	-200,000	0,027	-0,125
-317,256	65,850	0,072	-0,053
-316,241	696,967	0,038	-0,073
-315,226	190,671	0,044	-0,048
-314,212	-60,119	-0,013	-0,004
-313,197	-86,857	0,201	0,044
-312,183	263,097	0,092	-0,117
-311,168	80,384	0,045	0,035
-310,153	69,264	-0,145	-0,109
-309,139	-172,499	-0,095	0,002
-308,124	-32,338	0,057	0,023
-307,110	-141,105	-0,031	-0,002
-306,095	3,434	-0,063	0,033
-305,080	-200,000	-0,023	0,133
-304,066	-97,319	0,090	-0,017
-303,051	-200,000	-0,025	-0,082
-302,037	800,000	-0,032	-0,069
-301,022	125,242	-0,093	-0,086
-300,008	670,319	0,072	0,138
-298,993	-200,000	-0,002	0,098
-297,978	-69,238	-0,094	0,026
-296,964	-12,927	-0,111	0,053
-295,949	78,520	-0,052	-0,040
-294,935	444,771	-0,078	-0,126
-293,920	275,500	0,034	0,044
-292,905	26,453	0,155	0,094
-291,891	89,536	0,055	0,045
-290,876	122,720	-0,059	0,054
-289,862	-200,000	0,027	-0,100
-288,847	-111,153	0,069	0,010
-287,832	67,914	-0,084	-0,063
-286,818	7,940	0,096	0,052
-285,803	191,776	0,086	-0,094
-284,789	-200,000	-0,004	0,014
-283,774	-76,542	-0,070	0,018
-282,759	-200,000	0,027	-0,091
-281,745	43,207	0,087	0,058
-280,730	-200,000	0,013	-0,069
-279,716	800,000	0,010	0,027
-278,701	-155,428	0,067	0,003
-277,686	-93,657	0,113	0,023
-276,672	-59,086	0,090	0,028
-275,657	-83,322	-0,098	-0,023
-274,643	483,649	0,078	-0,130
-273,628	-5,119	0,090	-0,045
-272,613	-43,970	0,063	-0,023
-271,599	-200,000	0,013	-0,056
-270,584	316,527	-0,080	0,111
-269,570	-130,255	0,059	0,006
-268,555	319,104	0,050	-0,069
-267,540	-200,000	-0,029	-0,101
-266,526	-155,034	-0,144	-0,007
-265,511	-1,223	0,070	-0,036
-264,497	800,000	0,002	0,004
-263,482	-200,000	-0,000	0,036
-262,467	10,270	0,118	0,066
-261,453	800,000	0,006	0,017
-260,438	-200,000	-0,009	-0,094
-259,424	-200,000	0,016	-0,069
-258,409	12,856	0,039	-0,022
-257,395	221,775	0,101	0,119
-256,380	-200,000	0,038	0,150
-255,365	61,021	-0,043	0,031
-254,351	10,322	-0,206	0,114
-253,336	-96,329	-0,048	-0,009
-252,322	426,868	-0,048	-0,077
-251,307	-16,167	-0,098	0,045
-250,292	6,950	-0,138	-0,075
-249,278	-50,527	0,016	-0,006
-248,263	22,488	-0,063	0,038
-247,249	-42,988	-0,060	-0,022
-246,234	523,578	-0,064	-0,111
-245,219	791,283	-0,033	-0,067
-244,205	-133,936	-0,128	0,011
-243,190	184,347	0,097	0,105
-242,176	-126,871	0,074	-0,008
-241,161	425,211	0,051	0,081
-240,146	800,000	0,030	0,078
-239,132	-200,000	-0,020	0,126
-238,117	800,000	-0,016	-0,050
-237,103	800,000	0,053	0,137
-236,088	34,460	0,042	-0,027
-235,073	134,811	-0,049	0,046
-234,059	-200,000	-0,011	0,244
-233,044	-38,911	0,087	0,033
-232,030	-69,922	-0,053	0,015
-231,015	-85,722	0,089	-0,020
-230,000	149,495	-0,084	-0,084
-228,986	176,000	0,040	0,042
-227,971	409,551	-0,056	-0,086
-226,957	-15,808	-0,086	-0,040
-225,942	81,212	-0,070	-0,055
-224,927	800,000	0,053	0,148
-223,913	800,000	-0,058	-0,138
-222,898	800,000	0,048	-0,129
-221,884	-153,225	-0,049	0,002
-220,869	-200,000	-0,021	0,074
-219,855	-163,725	0,119	-0,004
-218,840	-100,319	-0,079	-0,014
-217,825	-200,000	0,001	0,113
-216,811	-129,495	-0,040	0,004
-215,796	-105,932	-0,100	0,016
-214,782	-200,000	0,022	-0,116
-213,767	-83,577	-0,050	0,012
-212,752	800,000	-0,019	0,062
-211,738	-67,781	0,112	0,032
-210,723	800,000	-0,045	0,108
-209,709	345,299	-0,018	0,026
-208,694	800,000	0,042	-0,096
-207,679	-200,000	-0,077	-0,255
-206,665	105,579	0,036	0,031
-205,650	-10,169	0,075	-0,036
-204,636	800,000	-0,024	-0,053
-203,621	192,160	-0,044	0,049
-202,606	461,211	0,065	-0,106
-201,592	-53,200	-0,140	-0,046
-200,577	-51,849	-0,148	-0,050
-199,563	87,953	0,071	0,057
-198,548	528,270	-0,018	0,032
-197,533	24,081	-0,130	0,078
-196,519	-200,000	-0,016	0,094
-195,504	76,764	0,036	-0,028
-194,490	223,744	0,067	0,079
-193,475	38,660	-0,115	0,075
-192,460	116,624	-0,076	0,068
-191,446	187,251	0,056	0,061
-190,431	-81,380	0,115	-0,027
-189,417	-97,077	-0,089	0,017
-188,402	-200,000	-0,018	0,091
-187,387	-44,167	-0,103	-0,037
-186,373	29,828	-0,040	-0,025
-185,358	-200,000	0,010	0,057
-184,344	31,464	-0,017	0,010
-183,329	462,675	-0,026	-0,042
-182,315	-200,000	0,005	0,067
-181,300	-36,192	0,174	0,068
-180,285	-101,391	-0,150	0,026
-179,271	800,000	0,061	-0,137
-178,256	58,646	0,082	0,059
-177,242	-200,000	0,003	0,171
-176,227	-50,758	0,040	-0,013
-175,212	-58,013	-0,040	-0,013
-174,198	364,315	-0,076	-0,112
-173,183	800,000	0,048	-0,104
-172,169	207,783	0,063	0,072
-171,154	258,279	0,084	0,105
-170,139	-135,897	-0,009	-0,001
-169,125	-11,646	0,075	-0,036
-168,110	-70,802	0,072	0,020
-167,096	109,443	0,054	0,047
-166,081	800,000	0,029	-0,059
-165,066	800,000	-0,011	-0,033
-164,052	213,528	-0,037	-0,043
-163,037	-147,535	-0,050	0,003
-162,023	99,589	-0,030	0,025
-161,008	-129,415	0,077	0,008
-159,993	-200,000	0,005	-0,026
-158,979	100,322	-0,027	-0,023
-157,964	57,198	0,050	-0,036
-156,950	412,941	-0,021	0,033
-155,935	142,789	0,022	0,022
-154,920	-200,000	-0,027	0,104
-153,906	174,391	0,015	0,016
-152,891	34,994	0,078	-0,050
-151,877	107,771	-0,061	-0,053
-150,862	-200,000	0,003	0,016
-149,847	521,277	0,044	0,075
-148,833	150,313	-0,069	-0,068
-147,818	276,848	0,046	-0,060
-146,804	800,000	-0,024	-0,049
-145,789	56,484	-0,102	0,072
-144,775	-182,294	-0,050	-0,001
-143,760	477,647	-0,063	-0,104
-142,745	440,273	-0,102	-0,163
-141,731	-200,000	-0,004	-0,042
-140,716	369,879	0,013	-0,019
-139,702	-200,000	-0,022	-0,087
-138,687	-48,606	0,041	0,014
-137,672	174,068	-0,114	0,120
-136,658	-200,000	-0,021	-0,103
-135,643	242,438	-0,064	0,078
-134,629	-10,534	-0,061	0,029
-133,614	102,919	-0,064	-0,055
-132,599	223,743	0,061	0,071
-131,585	90,475	0,077	0,063
-130,570	800,000	-0,044	0,093
-129,556	4,910	-0,156	-0,083
-128,541	-50,588	0,011	0,004
-127,526	64,960	0,115	0,084
-126,512	-53,350	0,063	0,021
-125,497	720,075	0,028	0,055
-124,483	-200,000	0,028	-0,110
-123,468	587,811	-0,007	-0,012
-122,453	79,673	-0,129	-0,100
-121,439	-200,000	0,005	-0,094
-120,424	701,418	-0,021	-0,040
-119,410	242,934	-0,098	0,119
-118,395	-35,741	0,159	-0,062
-117,380	-200,000	0,004	0,130
-116,366	64,147	-0,055	0,040
-115,351	800,000	0,049	-0,124
-114,337	-200,000	-0,021	-0,098
-113,322	16,121	-0,101	-0,057
-112,307	800,000	0,035	-0,105
-111,293	-88,049	0,095	0,021
-110,278	-200,000	-0,004	0,042
-109,264	-200,000	-0,008	-0,062
-108,249	-120,143	0,092	0,011
-107,234	-54,175	-0,100	-0,033
-106,220	585,118	-0,058	-0,104
-105,205	800,000	-0,058	0,130
-104,191	-200,000	0,007	-0,071
-103,176	800,000	0,041	-0,126
-102,162	-50,122	-0,060	0,020
-101,147	14,179	-0,074	0,042
-100,132	-200,000	-0,022	0,095
-99,118	8,412	0,114	-0,062
-98,103	-33,483	-0,084	0,033
-97,089	-122,407	0,151	0,018
-96,074	543,810	0,040	0,070
-95,059	-88,488	0,140	0,030
-94,045	800,000	0,045	0,137
-93,030	13,802	-0,150	-0,084
-92,016	-200,000	-0,026	-0,089
-91,001	-200,000	-0,013	-0,129
-89,986	721,701	0,004	0,007
-88,972	480,735	-0,070	-0,116
-87,957	590,962	-0,058	0,104
-86,943	-200,000	-0,008	-0,053
-85,928	609,847	0,005	0,010
-84,913	-200,000	0,000	-0,027
-83,899	-200,000	-0,001	-0,111
-82,884	24,637	0,104	0,063
-81,870	-200,000	0,034	-0,120
-80,855	-200,000	0,001	0,075
-79,840	-64,617	-0,044	-0,013
-78,826	569,576	-0,012	-0,021
-77,811	-87,040	0,010	-0,002
-76,797	800,000	0,018	-0,042
-75,782	-200,000	-0,018	0,075
-74,767	-36,129	0,241	0,094
-73,753	-165,037	-0,096	-0,003
-72,738	-200,000	0,001	-0,147
-71,724	45,283	0,005	-0,003
-70,709	82,148	-0,066	-0,052
-69,694	22,096	0,028	-0,016
-68,680	800,000	-0,007	-0,021
-67,665	105,936	-0,038	0,033
-66,651	351,567	0,090	0,130
-65,636	-59,977	-0,046	0,014
-64,622	116,606	0,070	-0,062
-63,607	119,530	-0,006	0,005
-62,592	800,000	-0,038	-0,084
-61,578	-200,000	-0,030	-0,122
-60,563	-151,061	-0,205	-0,011
-59,549	572,312	-0,072	0,127
-58,534	-89,292	-1,504	-0,319
-57,519	546,856	-0,740	-1,288
-56,505	-200,000	-0,887	-4,547
-55,490	-168,914	0,632	0,017
-54,476	800,000	4,968	11,987
-53,461	-200,000	14,972	262,931
-52,446	800,000	697,867	2231,919
-51,432	573,012	1621,058	2875,991
-50,417	120,923	1629,532	1469,275
-49,403	81,205	1284,812	1005,080
-48,388	37,968	1023,946	658,562
-47,373	22,760	983,960	582,729
-46,359	21,816	973,134	573,192
-45,344	20,425	969,113	566,241
-44,330	20,499	967,683	565,626
-43,315	20,300	966,273	564,129
-42,300	20,293	965,135	563,420
-41,286	20,303	964,080	562,812
-40,271	20,258	963,182	562,120
-39,257	20,296	962,362	561,744
-38,242	20,263	961,495	561,108
-37,227	20,263	960,637	560,584
-36,213	20,237	959,710	559,938
-35,198	20,227	958,713	559,300
-34,184	20,286	957,977	559,040
-33,169	20,206	957,192	558,301
-32,154	20,238	956,257	557,837
-31,140	20,293	955,308	557,438
-30,125	20,278	954,596	556,953
-29,111	20,308	953,748	556,532
-28,096	20,238	952,926	555,806
-27,082	20,249	952,412	555,518
-26,067	20,254	951,416	554,931
-25,052	20,216	950,733	554,391
-24,038	20,279	949,968	554,123
-23,023	20,234	949,536	553,704
-22,009	20,278	948,853	553,426
-20,994	20,284	948,079	552,972
-19,979	20,215	947,709	552,514
-18,965	20,273	947,003	552,264
-17,950	20,214	946,379	551,689
-16,936	20,201	945,641	551,196
-15,921	20,204	944,982	550,799
-14,906	20,157	944,474	550,331
-13,892	20,156	943,627	549,815
-12,877	20,189	942,876	549,460
-11,863	20,117	942,544	549,015
-10,848	20,167	941,883	548,769
-9,833	20,206	941,559	548,681
-8,819	20,216	940,739	548,212
-7,804	20,127	940,247	547,623
-6,790	20,148	939,651	547,320
-5,775	20,185	938,943	547,002
-4,760	20,139	938,410	546,526
-3,746	20,153	937,728	546,150
-2,731	20,046	936,933	545,327
-1,717	19,930	936,475	544,673
-0,702	20,015	935,745	544,495
0,313	19,768	934,974	544,087
1,327	22,759	933,448	552,587
2,342	32,217	794,706	495,645
3,356	29,595	451,073	277,347
4,371	-1,106	295,889	151,026
5,386	-5,315	276,983	137,345
6,400	-6,949	271,321	132,996
7,415	-7,288	268,980	131,521
8,429	-6,869	267,779	131,310
9,444	-6,894	266,759	130,775
10,459	-6,808	266,257	130,596
11,473	-6,926	265,506	130,109
12,488	-7,056	265,072	129,765
13,502	-6,959	264,634	129,628
14,517	-6,790	264,255	129,584
15,531	-6,604	263,973	129,603
16,546	-6,531	263,492	129,423
17,561	-6,687	263,251	129,151
18,575	-6,394	262,840	129,204
19,590	-6,601	262,488	128,832
20,604	-6,540	262,328	128,797
21,619	-6,609	262,114	128,618
22,634	-6,790	261,707	128,244
23,648	-6,703	261,315	128,118
24,663	-6,779	261,143	127,954
25,677	-6,586	260,720	127,909
26,692	-6,673	260,498	127,710
27,707	-6,633	260,299	127,638
28,721	-6,634	260,063	127,510
29,736	-6,614	259,786	127,381
30,750	-6,647	259,448	127,174
31,765	-6,621	259,188	127,058
32,780	-6,694	259,008	126,893
33,794	-6,664	258,848	126,830
34,809	-6,731	258,629	126,652
35,823	-6,563	258,232	126,596
36,838	-6,661	257,892	126,331
37,853	-6,800	257,909	126,204
38,867	-6,812	257,557	126,010
39,882	-6,764	257,509	126,018
40,896	-6,766	257,211	125,859
41,911	-6,747	256,873	125,699
42,926	-6,791	256,721	125,575
43,940	-6,795	256,531	125,467
44,955	-6,904	256,268	125,231
45,969	-6,870	255,950	125,095
46,984	-7,000	255,690	124,842
47,999	-7,276	255,508	124,500
49,013	-7,243	255,279	124,405
50,028	-7,521	255,198	124,111
51,042	-7,393	254,785	124,012
52,057	-7,447	254,583	123,855
53,071	-7,534	254,367	123,662
54,086	-7,176	254,128	123,849
55,101	-7,357	254,081	123,656
56,115	-7,061	253,984	123,857
57,130	-6,952	253,763	123,833
58,144	-6,697	253,548	123,939
59,159	-6,585	253,363	123,935
60,174	-6,656	253,099	123,733
61,188	-6,643	252,847	123,610
62,203	-6,521	252,643	123,606
63,217	-6,768	252,653	123,385
64,232	-6,787	252,446	123,256
65,247	-6,589	251,978	123,188
66,261	-6,925	251,992	122,894
67,276	-6,914	251,631	122,715
68,290	-6,902	251,282	122,544
69,305	-7,163	251,124	122,232
70,320	-6,952	250,926	122,306
71,334	-6,924	250,714	122,216
72,349	-6,692	250,667	122,382
73,363	-6,546	250,390	122,361
74,378	-6,548	250,188	122,250
75,393	-6,948	250,142	121,873
76,407	-6,791	250,012	121,934
77,422	-6,693	249,617	121,814
78,436	-6,642	249,467	121,773
79,451	-6,768	249,403	121,624
80,466	-6,495	248,908	121,605
81,480	-6,876	248,629	121,133
82,495	-7,009	248,635	121,011
83,509	-6,918	248,385	120,956
84,524	-7,140	248,331	120,730
85,539	-7,205	247,939	120,474
86,553	-7,130	247,826	120,471
87,568	-6,960	247,595	120,493
88,582	-6,846	247,544	120,554
89,597	-6,971	247,187	120,263
90,611	-6,857	247,087	120,301
91,626	-6,794	246,979	120,291
92,641	-6,699	246,761	120,254
93,655	-6,758	246,578	120,104
94,670	-6,852	246,359	119,907
95,684	-6,721	246,163	119,912
96,699	-6,856	245,955	119,687
97,714	-6,735	245,649	119,628
98,728	-7,093	245,531	119,259
99,743	-6,930	245,129	119,190
100,757	-7,050	245,353	119,188
101,772	-6,856	244,897	119,118
102,787	-7,145	244,909	118,871
103,801	-7,198	244,833	118,779
104,816	-6,875	244,471	118,863
105,830	-6,817	244,403	118,868
106,845	-6,806	244,275	118,805
107,860	-6,855	243,930	118,585
108,874	-6,851	243,763	118,496
109,889	-7,059	243,633	118,250
110,903	-6,894	243,374	118,251
111,918	-7,077	243,100	117,955
112,933	-7,069	243,079	117,941
113,947	-6,814	242,848	118,030
114,962	-6,869	242,724	117,914
115,976	-6,869	242,636	117,860
116,991	-6,916	242,422	117,707
118,006	-6,738	242,117	117,696
119,020	-6,768	242,078	117,641
120,035	-6,722	241,939	117,602
121,049	-6,753	241,909	117,550
122,064	-6,899	241,720	117,328
123,079	-6,821	241,372	117,213
124,093	-6,828	241,102	117,066
125,108	-7,139	240,983	116,741
126,122	-7,237	240,748	116,536
127,137	-7,320	240,607	116,389
128,151	-7,275	240,375	116,303
129,166	-7,088	240,218	116,371
130,181	-7,100	240,043	116,265
131,195	-7,248	239,901	116,065
132,210	-7,057	239,620	116,075
133,224	-6,784	239,556	116,257
134,239	-6,897	239,414	116,086
135,254	-6,841	239,213	116,023
136,268	-7,023	238,967	115,746
137,283	-7,179	238,637	115,448
138,297	-7,190	238,497	115,361
139,312	-7,286	238,262	115,159
140,327	-7,163	238,193	115,216
141,341	-6,603	238,189	115,659
142,356	-6,489	238,132	115,713
143,370	-6,696	238,117	115,527
144,385	-6,416	237,910	115,643
145,400	-6,406	237,606	115,494
146,414	-6,645	237,471	115,224
147,429	-6,527	237,223	115,189
148,443	-6,566	237,079	115,078
149,458	-6,601	236,790	114,899
150,473	-6,664	236,641	114,765
151,487	-6,780	236,454	114,571
152,502	-6,512	236,371	114,736
153,516	-6,545	236,220	114,626
154,531	-6,681	236,013	114,407
155,546	-6,781	235,754	114,190
156,560	-6,621	235,528	114,199
157,575	-6,822	235,396	113,963
158,589	-6,822	235,282	113,898
159,604	-6,615	235,237	114,032
160,619	-6,454	234,923	113,999
161,633	-6,379	234,727	113,953
162,648	-6,389	234,700	113,921
163,662	-6,530	234,507	113,705
164,677	-6,631	234,232	113,482
165,692	-6,633	234,278	113,492
166,706	-6,294	234,128	113,679
167,721	-6,548	233,988	113,399
168,735	-6,551	233,859	113,324
169,750	-6,671	233,650	113,117
170,764	-6,626	233,565	113,102
171,779	-6,789	233,324	112,845
172,794	-6,396	233,146	113,062
173,808	-6,634	232,898	112,742
174,823	-6,887	232,422	112,302
175,837	-7,126	232,392	112,088
176,852	-6,826	232,290	112,267
177,867	-6,662	232,358	112,419
178,881	-6,540	232,226	112,441
179,896	-6,592	232,039	112,299
180,910	-6,366	231,725	112,316
181,925	-6,581	231,880	112,211
182,940	-6,469	231,484	112,097
183,954	-6,488	231,372	112,019
184,969	-6,236	231,211	112,129
185,983	-6,406	231,053	111,909
186,998	-6,614	231,006	111,713
188,013	-6,420	230,777	111,744
189,027	-6,280	230,767	111,839
190,042	-6,368	230,562	111,660
191,056	-6,376	230,334	111,534
192,071	-6,396	230,254	111,470
193,086	-6,376	229,997	111,351
194,100	-6,541	229,778	111,106
195,115	-7,003	229,361	110,535
196,129	-7,484	229,098	110,024
197,144	-3,506	230,466	113,782
198,159	1,411	231,840	118,308
199,173	4,134	232,585	120,816
200,188	4,683	232,747	121,320
201,202	4,492	232,621	121,093
202,217	4,598	232,294	120,996
203,232	4,751	232,387	121,153
204,246	4,980	232,101	121,172
205,261	4,945	231,961	121,061
206,275	5,194	231,751	121,135
207,290	5,220	231,658	121,095
208,304	5,144	231,549	120,969
209,319	5,124	231,363	120,845
210,334	4,950	231,189	120,608
211,348	4,877	230,869	120,374
212,363	4,560	230,594	119,974
213,377	4,225	230,480	119,643
214,392	4,125	230,289	119,456
215,407	4,246	230,219	119,503
216,421	4,221	230,046	119,383
217,436	4,163	229,859	119,230
218,450	3,946	229,654	118,946
219,465	4,056	229,470	118,925
220,480	4,140	229,268	118,874
221,494	3,961	229,199	118,690
222,509	4,043	229,056	118,668
223,523	4,216	228,933	118,727
224,538	4,323	228,750	118,705
225,553	4,438	228,508	118,656
226,567	4,393	228,569	118,643
227,582	4,505	228,481	118,672
228,596	4,557	228,301	118,608
229,611	4,345	228,035	118,297
230,626	4,064	227,900	118,001
231,640	4,163	227,661	117,943
232,655	4,181	227,732	117,983
233,669	4,828	227,625	118,412
234,684	4,937	227,478	118,408
235,699	4,567	227,364	118,056
236,713	4,367	227,117	117,764
237,728	4,263	226,883	117,553
238,742	4,057	226,718	117,300
239,757	4,226	226,630	117,373
240,772	4,296	226,427	117,311
241,786	4,145	226,352	117,146
242,801	4,504	226,244	117,353
243,815	4,561	226,164	117,344
244,830	4,463	226,033	117,191
245,844	4,324	225,751	116,929
246,859	4,235	225,685	116,817
247,874	4,471	225,543	116,913
248,888	4,534	225,504	116,929
249,903	4,467	225,272	116,748
250,917	4,135	224,976	116,333
251,932	4,452	224,768	116,455
252,947	3,916	224,916	116,116
253,961	4,320	224,547	116,219
254,976	4,170	224,394	116,017
255,990	4,323	224,468	116,161
257,005	4,568	224,160	116,175
258,020	4,364	224,065	115,962
259,034	4,694	224,023	116,178
260,049	4,288	223,880	115,788
261,063	4,342	223,584	115,666
262,078	4,593	223,448	115,773
263,093	4,542	223,354	115,676
264,107	4,583	223,266	115,650
265,122	4,642	223,119	115,608
266,136	4,785	223,018	115,653
267,151	4,615	222,826	115,416
268,166	4,389	222,451	115,042
269,180	4,185	222,393	114,850
270,195	4,222	222,257	114,798
271,209	4,052	222,098	114,578
272,224	4,159	221,944	114,568
273,239	4,244	221,981	114,641
274,253	4,231	221,630	114,439
275,268	4,257	221,406	114,332
276,282	4,078	221,330	114,151
277,297	3,934	221,194	113,963
278,312	4,024	221,135	113,990
279,326	4,307	220,893	114,064
280,341	4,181	220,799	113,912
281,355	4,236	220,729	113,906
282,370	4,238	220,456	113,757
283,384	4,059	220,327	113,548
284,399	3,870	220,219	113,343
285,414	4,122	220,025	113,419
286,428	3,895	220,086	113,273
287,443	4,409	219,837	113,513
288,457	4,316	219,708	113,368
289,472	4,387	219,516	113,310
290,487	3,961	219,172	112,811
291,501	3,946	219,095	112,750
292,516	4,051	219,022	112,779
293,530	4,078	218,834	112,692
294,545	3,775	218,912	112,500
295,560	4,219	218,586	112,647
296,574	4,050	218,548	112,494
297,589	4,105	218,401	112,449
298,603	4,039	218,318	112,348
299,618	4,125	218,144	112,311
300,633	4,193	217,948	112,250
301,647	4,698	217,928	112,597
302,662	4,432	217,821	112,338
303,676	4,446	217,684	112,268
304,691	4,638	217,478	112,291
305,706	4,465	217,401	112,115
306,720	4,375	217,233	111,954
307,735	4,351	217,186	111,902
308,749	4,174	216,890	111,611
309,764	4,087	216,923	111,556
310,779	4,687	216,526	111,775
311,793	4,579	216,552	111,701
312,808	4,590	216,357	111,598
313,822	4,235	216,216	111,258
314,837	4,050	215,967	110,987
315,852	4,043	215,792	110,883
316,866	4,141	215,907	111,002
317,881	4,223	215,844	111,019
318,895	4,407	215,627	111,030
319,910	4,297	215,431	110,840
320,925	4,325	215,079	110,670
321,939	3,760	214,938	110,182
322,954	3,780	214,982	110,208
323,968	4,157	214,939	110,447
324,983	4,363	214,760	110,493
325,997	4,379	214,754	110,492
327,012	4,223	214,414	110,195
328,027	4,227	214,183	110,069
329,041	4,421	214,356	110,288
330,056	4,522	214,125	110,230
331,070	4,187	214,018	109,927
332,085	3,985	213,650	109,584
333,100	3,964	213,578	109,523
334,114	4,290	213,411	109,659
335,129	4,429	213,264	109,672
336,143	3,954	213,091	109,236
337,158	4,080	213,120	109,331
338,173	3,996	212,974	109,186
339,187	3,872	212,747	108,973
340,202	3,961	212,526	108,912
341,216	3,468	212,419	108,499
342,231	3,886	212,361	108,756
343,246	4,025	212,191	108,757
344,260	3,988	212,079	108,664
345,275	3,842	211,952	108,486
346,289	4,179	212,010	108,744
347,304	4,065	211,970	108,633
348,319	4,053	211,592	108,421
349,333	4,171	211,416	108,405
350,348	4,244	211,357	108,416
351,362	4,444	211,341	108,539
352,377	4,466	211,114	108,427
353,392	4,316	210,926	108,217
354,406	4,213	210,880	108,111
355,421	192,861	1344,793	1428,457
356,435	153,916	1483,011	1428,545
