DTS Sentinel unit serial number:	SN410029Multiplexer serial number:	ORYXHardware model number:	OX2-SRSoftware version number:	ORYX F/W v4,00 Oryx Data Collector v3.7.2.0data status	okinstallation	B6 Nyhavnadifferential loss correction	single-endedforward channel	channel 2reverse channel	N/Adate	2023/12/09time	23:40:08forward acquisition time	300,00reverse acquisition time	0,00gamma	499,1914k internal	0,3127k external	0,3127temperature offset calibration	1,0000default loss term (dB/km)	0,3820temperature slope calibration	1,0000multiplexer offset coefficient	1,0000multiplexer slope coefficient	1,0000fibre end	0,00T internal ref (°C)	21,75T ext. ref 1 (°C)	5,61T ext. ref 2 (°C)	5,59length (m)	temperature (°C)	Stokes	anti-Stokes-744,400	-159,222	0,043	-0,002
-743,385	326,283	-0,137	0,195
-742,371	-200,000	-0,004	-0,072
-741,356	-49,785	-0,329	0,116
-740,342	-200,000	0,011	0,068
-739,327	43,959	-0,159	0,108
-738,312	-52,261	0,062	-0,021
-737,298	-83,602	-0,260	-0,061
-736,283	140,392	0,084	-0,082
-735,269	-88,367	-0,301	0,066
-734,254	99,731	0,042	-0,036
-733,239	-105,806	-0,330	0,055
-732,225	-55,767	0,100	-0,033
-731,210	-136,706	-0,034	-0,003
-730,196	145,917	-0,069	-0,068
-729,181	295,963	-0,052	-0,071
-728,167	197,931	0,064	-0,073
-727,152	-92,125	-0,080	0,017
-726,137	-194,611	-0,159	-0,001
-725,123	10,508	-0,115	0,065
-724,108	46,581	-0,048	0,033
-723,094	-200,000	-0,011	-0,065
-722,079	800,000	-0,022	-0,045
-721,064	26,372	-0,134	-0,083
-720,050	729,909	-0,039	0,079
-719,035	-58,544	0,033	-0,011
-718,021	172,566	-0,066	-0,071
-717,006	-200,000	-0,017	-0,137
-715,991	237,387	-0,155	-0,191
-714,977	-200,000	0,013	-0,087
-713,962	-200,000	-0,004	-0,052
-712,948	-40,465	0,113	0,044
-711,933	-139,179	-0,064	0,005
-710,918	-41,632	-0,056	-0,021
-709,904	-79,955	-0,110	-0,027
-708,889	-4,400	0,071	0,036
-707,875	800,000	-0,075	-0,218
-706,860	78,533	-0,019	-0,015
-705,845	112,997	0,024	0,022
-704,831	-63,402	-0,077	-0,023
-703,816	-200,000	0,001	-0,020
-702,802	233,463	-0,082	-0,100
-701,787	79,059	-0,118	-0,094
-700,772	-168,826	0,075	-0,002
-699,758	800,000	0,024	-0,060
-698,743	-19,132	0,016	-0,007
-697,729	-96,525	0,114	-0,022
-696,714	-4,340	0,063	-0,032
-695,699	-106,303	-0,080	0,013
-694,685	-200,000	-0,020	-0,078
-693,670	-82,370	-0,094	-0,023
-692,656	354,538	-0,052	-0,077
-691,641	-200,000	-0,001	-0,092
-690,627	-200,000	-0,017	0,156
-689,612	800,000	0,014	0,031
-688,597	-200,000	-0,014	-0,129
-687,583	-37,192	-0,076	-0,030
-686,568	0,274	-0,176	0,093
-685,554	111,531	-0,075	-0,067
-684,539	-39,782	0,082	0,032
-683,524	-200,000	0,000	0,116
-682,510	-168,781	-0,063	-0,002
-681,495	-106,442	-0,071	0,012
-680,481	711,350	0,009	-0,019
-679,466	-200,000	0,012	-0,090
-678,451	166,960	0,015	-0,015
-677,437	-200,000	0,005	-0,121
-676,422	-200,000	-0,022	0,081
-675,408	96,662	0,076	0,064
-674,393	800,000	-0,052	-0,115
-673,378	57,696	0,039	-0,029
-672,364	27,125	-0,061	0,038
-671,349	-40,547	-0,145	0,056
-670,335	-200,000	-0,005	0,083
-669,320	281,192	-0,096	-0,128
-668,305	125,531	0,116	0,109
-667,291	-86,425	-0,086	0,020
-666,276	172,191	-0,017	0,018
-665,262	30,365	-0,097	-0,062
-664,247	-200,000	-0,006	-0,030
-663,232	-16,172	-0,097	0,045
-662,218	532,541	0,025	0,044
-661,203	-200,000	0,013	0,122
-660,189	12,716	0,024	0,014
-659,174	800,000	0,025	0,058
-658,159	800,000	-0,030	0,068
-657,145	230,765	0,042	0,051
-656,130	-200,000	0,013	0,044
-655,116	-53,122	0,086	0,029
-654,101	126,137	-0,029	-0,027
-653,086	-200,000	-0,003	-0,026
-652,072	619,436	-0,051	0,095
-651,057	526,306	-0,079	-0,139
-650,043	-101,357	-0,113	-0,020
-649,028	77,307	-0,065	0,051
-648,014	-98,253	-0,067	-0,013
-646,999	-169,824	0,043	-0,001
-645,984	346,243	0,055	0,081
-644,970	120,508	0,084	-0,078
-643,955	-31,185	-0,086	-0,036
-642,941	-2,500	-0,086	-0,045
-641,926	800,000	0,044	-0,139
-640,911	510,734	-0,086	-0,149
-639,897	800,000	0,067	0,139
-638,882	46,650	0,028	-0,019
-637,868	-200,000	0,000	-0,003
-636,853	92,084	-0,081	0,068
-635,838	-44,574	0,073	-0,027
-634,824	800,000	-0,025	-0,056
-633,809	-200,000	-0,028	-0,138
-632,795	-133,388	0,069	-0,006
-631,780	-200,000	-0,013	0,100
-630,765	16,197	-0,041	0,024
-629,751	-97,129	0,083	0,016
-628,736	393,018	-0,033	0,052
-627,722	-200,000	0,014	-0,090
-626,707	219,691	0,071	-0,084
-625,692	428,001	0,039	-0,063
-624,678	800,000	-0,013	0,030
-623,663	-62,344	0,006	-0,002
-622,649	-33,891	-0,138	0,056
-621,634	800,000	-0,039	-0,088
-620,619	-200,000	0,011	-0,098
-619,605	364,598	0,061	0,091
-618,590	257,727	-0,021	0,027
-617,576	-147,935	-0,048	-0,003
-616,561	-99,793	0,078	-0,014
-615,546	116,431	-0,064	0,058
-614,532	-67,887	-0,069	0,020
-613,517	-200,000	-0,020	-0,077
-612,503	-200,000	-0,003	-0,052
-611,488	-192,406	0,159	0,001
-610,474	-72,072	0,107	0,029
-609,459	800,000	-0,014	-0,035
-608,444	212,792	-0,101	-0,119
-607,430	-100,095	0,079	0,014
-606,415	-200,000	0,021	-0,195
-605,401	81,636	0,149	-0,119
-604,386	155,394	-0,038	-0,038
-603,371	-200,000	0,008	-0,076
-602,357	-200,000	-0,016	-0,085
-601,342	-48,994	-0,106	-0,037
-600,328	30,356	0,037	0,023
-599,313	-200,000	-0,011	0,042
-598,298	-144,637	-0,076	0,005
-597,284	800,000	-0,034	0,074
-596,269	-71,740	-0,091	-0,025
-595,255	-127,997	0,147	-0,015
-594,240	800,000	0,009	0,018
-593,225	-38,054	0,110	-0,043
-592,211	11,168	-0,043	-0,024
-591,196	624,622	0,013	-0,024
-590,182	-158,559	-0,115	0,005
-589,167	235,479	-0,025	-0,031
-588,152	-200,000	0,044	0,207
-587,138	274,623	-0,132	0,174
-586,123	59,745	0,095	-0,069
-585,109	-67,251	-0,164	-0,048
-584,094	800,000	-0,042	-0,105
-583,079	-200,000	0,030	-0,120
-582,065	-200,000	0,005	0,059
-581,050	23,730	-0,097	0,059
-580,036	79,984	-0,062	0,050
-579,021	320,657	-0,068	0,096
-578,006	176,326	-0,135	-0,146
-576,992	164,980	0,051	0,053
-575,977	-14,679	-0,048	-0,023
-574,963	-7,073	0,055	0,028
-573,948	-128,993	-0,022	0,002
-572,934	145,204	0,096	0,095
-571,919	432,752	-0,080	0,128
-570,904	800,000	-0,042	-0,126
-569,890	624,041	-0,021	0,040
-568,875	-101,824	-0,077	0,014
-567,861	800,000	-0,050	0,109
-566,846	-138,204	0,021	-0,002
-565,831	-60,487	-0,089	0,028
-564,817	27,956	-0,044	-0,027
-563,802	-14,557	-0,157	-0,074
-562,788	282,593	-0,063	0,084
-561,773	-200,000	0,001	-0,064
-560,758	800,000	0,020	-0,059
-559,744	29,446	-0,008	-0,005
-558,729	84,676	-0,057	0,046
-557,715	-200,000	-0,002	0,034
-556,700	-185,321	0,059	-0,001
-555,685	-200,000	-0,020	-0,084
-554,671	800,000	-0,016	-0,033
-553,656	-155,622	-0,122	0,006
-552,642	-12,325	-0,021	-0,010
-551,627	-200,000	-0,028	0,134
-550,612	800,000	0,039	-0,087
-549,598	-23,816	-0,035	0,015
-548,583	800,000	-0,069	-0,157
-547,569	-131,019	-0,063	-0,006
-546,554	184,917	0,075	0,082
-545,539	-95,603	-0,101	0,020
-544,525	49,848	-0,034	-0,024
-543,510	37,677	-0,109	-0,072
-542,496	-200,000	0,003	-0,129
-541,481	224,943	-0,057	0,068
-540,466	800,000	-0,056	0,139
-539,452	-110,899	0,224	0,034
-538,437	86,067	-0,060	-0,048
-537,423	1,946	-0,111	-0,059
-536,408	-109,641	-0,051	-0,008
-535,393	-110,944	0,065	-0,010
-534,379	-115,360	-0,049	-0,007
-533,364	71,486	-0,080	-0,061
-532,350	-93,805	0,090	-0,018
-531,335	232,477	0,047	0,057
-530,321	-125,899	0,130	-0,014
-529,306	-200,000	-0,006	-0,036
-528,291	-200,000	0,018	0,062
-527,277	-118,358	-0,160	-0,021
-526,262	-114,320	0,108	-0,015
-525,248	112,130	0,146	-0,131
-524,233	408,711	0,035	0,055
-523,218	175,728	-0,027	-0,029
-522,204	-122,607	-0,077	-0,009
-521,189	-200,000	0,004	-0,070
-520,175	532,290	0,088	0,155
-519,160	7,401	-0,120	-0,066
-518,145	-112,663	0,132	-0,019
-517,131	-94,197	-0,060	0,012
-516,116	-200,000	-0,030	0,125
-515,102	247,943	0,084	0,105
-514,087	-10,287	0,122	0,060
-513,072	-200,000	0,012	0,065
-512,058	71,446	-0,083	0,063
-511,043	-200,000	0,000	0,056
-510,029	-200,000	-0,001	-0,059
-509,014	-103,587	-0,068	0,012
-507,999	416,443	-0,045	0,072
-506,985	24,871	0,034	-0,021
-505,970	800,000	-0,020	-0,058
-504,956	-153,675	0,155	0,008
-503,941	-200,000	-0,000	0,111
-502,926	-114,139	0,025	-0,003
-501,912	17,698	0,056	0,033
-500,897	-85,716	-0,092	-0,021
-499,883	-47,386	-0,128	-0,046
-498,868	-98,008	-0,030	0,006
-497,853	621,288	-0,074	-0,138
-496,839	276,396	-0,058	-0,077
-495,824	-200,000	0,038	0,152
-494,810	59,614	0,055	0,040
-493,795	593,877	-0,016	0,030
-492,781	800,000	-0,030	0,073
-491,766	37,969	-0,109	-0,072
-490,751	-132,706	-0,040	-0,004
-489,737	-79,026	0,161	-0,040
-488,722	-70,653	0,096	-0,027
-487,708	162,807	0,016	0,017
-486,693	-200,000	0,021	-0,111
-485,678	69,756	-0,038	0,029
-484,664	-38,262	-0,117	-0,046
-483,649	145,294	-0,036	-0,036
-482,635	302,966	-0,028	0,039
-481,620	111,732	0,030	-0,027
-480,605	-8,939	-0,194	0,095
-479,591	-200,000	-0,017	0,204
-478,576	800,000	-0,027	-0,072
-477,562	-105,702	-0,142	0,023
-476,547	-200,000	-0,004	0,022
-475,532	92,593	-0,125	-0,104
-474,518	800,000	-0,026	-0,058
-473,503	-200,000	0,076	-0,295
-472,489	44,355	0,067	-0,045
-471,474	-106,037	0,146	-0,024
-470,459	-200,000	0,020	-0,126
-469,445	267,455	0,116	-0,150
-468,430	-27,429	-0,036	0,015
-467,416	-5,797	0,030	-0,015
-466,401	-75,139	0,038	-0,010
-465,386	-200,000	0,015	0,148
-464,372	-200,000	-0,003	-0,059
-463,357	-200,000	0,033	-0,167
-462,343	-179,849	-0,129	-0,002
-461,328	42,813	0,042	0,028
-460,313	-62,246	0,078	0,024
-459,299	-13,322	-0,109	0,052
-458,284	-159,648	0,153	0,006
-457,270	-200,000	0,024	0,146
-456,255	25,880	-0,101	-0,062
-455,241	-200,000	0,018	-0,090
-454,226	-200,000	-0,004	-0,085
-453,211	-169,728	0,087	0,002
-452,197	60,491	0,064	0,047
-451,182	-139,005	0,166	0,013
-450,168	-66,022	0,153	0,045
-449,153	0,347	0,055	-0,029
-448,138	-200,000	-0,002	-0,043
-447,124	-47,785	-0,146	-0,052
-446,109	800,000	0,026	-0,057
-445,095	84,640	-0,041	-0,033
-444,080	800,000	-0,019	-0,042
-443,065	-87,081	0,095	0,021
-442,051	779,453	0,007	0,014
-441,036	354,104	0,008	-0,011
-440,022	342,026	0,068	0,098
-439,007	-70,030	-0,045	0,013
-437,992	-20,830	0,065	0,029
-436,978	64,950	0,060	-0,045
-435,963	17,601	0,079	0,046
-434,949	-65,926	-0,101	-0,030
-433,934	-200,000	0,008	-0,037
-432,919	-43,503	-0,013	0,005
-431,905	-126,958	0,140	-0,015
-430,890	-176,440	0,145	0,003
-429,876	-200,000	0,003	0,058
-428,861	348,248	0,010	-0,015
-427,846	195,123	0,041	-0,046
-426,832	-200,000	0,002	-0,126
-425,817	-28,711	-0,113	-0,048
-424,803	800,000	-0,009	-0,028
-423,788	-42,971	0,155	0,058
-422,773	35,422	0,108	-0,069
-421,759	162,705	-0,067	0,069
-420,744	789,032	0,029	-0,059
-419,730	-200,000	-0,028	-0,185
-418,715	800,000	0,012	0,028
-417,701	-200,000	0,000	-0,078
-416,686	-40,665	0,077	-0,029
-415,671	-24,429	0,145	0,063
-414,657	203,621	0,071	0,081
-413,642	19,447	0,177	-0,104
-412,628	-17,124	0,056	-0,026
-411,613	-200,000	-0,010	-0,044
-410,598	354,188	0,021	-0,030
-409,584	-66,764	0,055	-0,016
-408,569	-29,191	0,142	0,059
-407,555	25,194	-0,024	0,015
-406,540	-200,000	-0,001	0,022
-405,525	800,000	-0,042	-0,113
-404,511	-54,759	-0,119	-0,039
-403,496	-200,000	0,035	0,136
-402,482	-93,606	-0,062	0,012
-401,467	146,509	0,036	-0,036
-400,452	-63,015	-0,093	-0,028
-399,438	-114,137	-0,083	-0,012
-398,423	-200,000	-0,021	-0,081
-397,409	-112,656	-0,073	-0,011
-396,394	-200,000	-0,011	0,059
-395,379	800,000	0,044	0,093
-394,365	-63,410	0,153	0,046
-393,350	117,324	0,100	-0,091
-392,336	320,558	-0,034	0,048
-391,321	-200,000	0,008	-0,079
-390,306	-166,446	-0,057	-0,002
-389,292	-8,202	-0,068	0,033
-388,277	312,895	0,065	0,090
-387,263	101,872	-0,097	0,083
-386,248	-200,000	0,017	0,109
-385,233	-103,126	-0,103	-0,018
-384,219	-14,786	0,093	0,044
-383,204	-200,000	-0,009	-0,083
-382,190	-200,000	-0,018	0,081
-381,175	64,826	0,069	-0,051
-380,160	670,633	-0,046	0,089
-379,146	-200,000	0,025	0,117
-378,131	-99,167	0,129	0,024
-377,117	-129,523	0,010	-0,001
-376,102	23,214	0,032	0,019
-375,088	-200,000	-0,005	0,063
-374,073	-200,000	-0,045	0,154
-373,058	800,000	-0,026	-0,073
-372,044	89,786	0,112	0,092
-371,029	652,996	-0,022	0,041
-370,015	-26,395	-0,085	0,036
-369,000	-26,560	0,071	-0,030
-367,985	-200,000	0,018	-0,099
-366,971	-52,594	0,052	0,018
-365,956	-52,977	0,008	-0,003
-364,942	98,110	0,093	0,078
-363,927	800,000	-0,030	-0,067
-362,912	499,630	-0,021	0,035
-361,898	-39,138	-0,040	0,015
-360,883	-200,000	0,019	-0,090
-359,869	91,548	-0,073	0,060
-358,854	85,373	-0,108	0,087
-357,839	-137,395	0,058	0,005
-356,825	503,070	0,073	0,124
-355,810	241,683	-0,047	0,057
-354,796	79,655	-0,078	0,062
-353,781	-200,000	0,004	0,031
-352,766	503,780	-0,046	-0,078
-351,752	-3,519	-0,076	-0,038
-350,737	-200,000	-0,006	0,026
-349,723	-75,032	0,040	-0,010
-348,708	800,000	0,029	0,065
-347,693	-200,000	0,001	0,027
-346,679	800,000	0,038	-0,097
-345,664	-110,402	-0,040	0,006
-344,650	127,830	0,021	-0,020
-343,635	-200,000	-0,006	0,036
-342,620	-200,000	-0,024	0,086
-341,606	264,867	-0,091	0,116
-340,591	513,158	-0,046	0,079
-339,577	800,000	-0,016	0,045
-338,562	205,581	0,015	-0,017
-337,548	402,392	-0,052	0,080
-336,533	-79,260	0,093	-0,023
-335,518	-180,886	-0,074	0,001
-334,504	81,596	0,039	0,031
-333,489	322,220	-0,009	-0,013
-332,475	-120,450	0,019	0,002
-331,460	-200,000	-0,020	-0,090
-330,445	546,361	0,039	-0,069
-329,431	335,536	0,033	-0,048
-328,416	349,216	0,013	-0,019
-327,402	475,710	0,060	-0,100
-326,387	685,321	0,044	-0,084
-325,372	-149,219	0,150	-0,009
-324,358	-128,892	-0,106	0,011
-323,343	343,097	0,048	-0,069
-322,329	37,821	0,089	0,058
-321,314	521,455	0,055	0,095
-320,299	57,226	0,089	0,063
-319,285	375,657	-0,034	0,051
-318,270	-159,030	0,057	0,002
-317,256	-126,210	0,029	0,003
-316,241	-200,000	0,005	0,025
-315,226	547,352	0,090	0,159
-314,212	-188,113	-0,090	0,001
-313,197	-7,617	0,077	-0,038
-312,183	-11,542	0,055	-0,026
-311,168	181,753	0,009	-0,010
-310,153	-200,000	-0,051	-0,230
-309,139	-16,914	-0,007	-0,003
-308,124	8,569	-0,136	0,075
-307,110	348,227	-0,073	-0,105
-306,095	536,367	-0,077	0,135
-305,080	27,801	0,081	-0,050
-304,066	800,000	0,068	-0,140
-303,051	-1,544	-0,078	0,040
-302,037	159,863	-0,028	0,028
-301,022	-200,000	-0,002	-0,049
-300,008	-153,752	0,100	0,005
-298,993	3,093	0,081	-0,043
-297,978	-6,656	0,086	-0,043
-296,964	-172,296	-0,113	-0,003
-295,949	-200,000	-0,031	0,123
-294,935	-200,000	0,000	-0,114
-293,920	616,727	0,023	0,043
-292,905	451,262	0,045	0,073
-291,891	-87,929	0,152	0,033
-290,876	-121,158	-0,081	-0,010
-289,862	-200,000	-0,017	-0,154
-288,847	-200,000	-0,047	-0,214
-287,832	-105,716	-0,124	0,020
-286,818	353,334	0,033	0,048
-285,803	800,000	0,028	0,083
-284,789	-106,413	-0,043	0,007
-283,774	-30,194	-0,143	0,059
-282,759	-87,245	-0,056	-0,012
-281,745	117,432	0,027	0,024
-280,730	-35,662	-0,028	0,011
-279,716	-200,000	0,010	-0,057
-278,701	800,000	0,029	-0,075
-277,686	301,291	0,033	-0,045
-276,672	-51,188	-0,057	0,019
-275,657	174,140	0,073	-0,077
-274,643	126,180	-0,061	-0,056
-273,628	483,499	0,038	-0,063
-272,613	485,493	-0,014	0,024
-271,599	-148,391	0,266	-0,016
-270,584	-200,000	-0,014	-0,045
-269,570	800,000	-0,010	-0,023
-268,555	-199,887	-0,029	0,000
-267,540	10,875	0,055	-0,030
-266,526	-160,052	-0,066	-0,003
-265,511	-167,066	-0,091	0,003
-264,497	-115,908	0,113	-0,015
-263,482	127,541	-0,036	-0,034
-262,467	-200,000	0,057	0,192
-261,453	60,884	-0,011	-0,008
-260,438	-200,000	-0,041	-0,154
-259,424	-160,900	-0,076	0,003
-258,409	-5,500	-0,041	-0,021
-257,395	575,820	0,089	0,159
-256,380	-200,000	-0,008	0,091
-255,365	-200,000	-0,003	0,162
-254,351	-38,375	-0,040	0,015
-253,336	94,779	-0,103	-0,086
-252,322	758,653	-0,042	-0,084
-251,307	47,565	-0,103	0,070
-250,292	32,138	0,074	0,047
-249,278	81,833	0,094	0,074
-248,263	-105,580	0,161	-0,026
-247,249	-106,897	0,071	0,011
-246,234	286,783	0,017	-0,022
-245,219	51,295	0,031	0,021
-244,205	24,339	-0,064	-0,038
-243,190	-36,348	0,070	0,027
-242,176	-150,647	-0,144	-0,008
-241,161	110,178	0,066	0,058
-240,146	-200,000	0,013	0,043
-239,132	-71,716	0,160	-0,043
-238,117	-120,693	-0,098	-0,012
-237,103	174,911	0,162	0,172
-236,088	-200,000	0,042	0,155
-235,073	518,623	-0,024	-0,042
-234,059	274,393	-0,088	-0,114
-233,044	-25,552	0,105	-0,045
-232,030	48,790	-0,051	0,035
-231,015	438,999	-0,033	-0,052
-230,000	800,000	-0,038	-0,081
-228,986	-200,000	0,022	0,086
-227,971	-200,000	-0,012	-0,090
-226,957	-200,000	0,010	0,108
-225,942	-129,631	-0,091	0,009
-224,927	49,958	-0,149	0,102
-223,913	-9,109	-0,097	0,047
-222,898	592,712	0,038	0,070
-221,884	682,593	0,056	0,107
-220,869	-48,747	0,066	-0,023
-219,855	-200,000	-0,021	-0,100
-218,840	286,020	-0,062	0,082
-217,825	12,319	0,102	-0,057
-216,811	656,747	-0,076	0,142
-215,796	-93,274	-0,098	0,020
-214,782	-58,246	0,133	-0,042
-213,767	0,574	0,047	0,025
-212,752	-158,036	0,134	-0,006
-211,738	-200,000	0,018	0,071
-210,723	48,379	0,074	0,050
-209,709	-32,403	-0,049	0,020
-208,694	130,951	-0,081	-0,076
-207,679	109,647	0,022	-0,019
-206,665	110,979	0,018	0,016
-205,650	-200,000	-0,006	0,187
-204,636	800,000	0,013	0,027
-203,621	-105,412	-0,105	0,017
-202,606	-82,797	-0,100	0,023
-201,592	-128,594	-0,141	-0,014
-200,577	235,410	0,048	-0,057
-199,563	-200,000	0,007	0,151
-198,548	413,131	0,079	0,123
-197,533	-129,605	-0,086	-0,009
-196,519	-22,814	0,006	0,002
-195,504	-5,280	0,096	-0,048
-194,490	-111,188	0,061	0,009
-193,475	-141,043	-0,066	0,005
-192,460	-10,301	0,122	0,059
-191,446	313,136	0,080	0,110
-190,431	646,117	-0,006	-0,011
-189,417	3,650	0,080	0,042
-188,402	309,267	-0,115	-0,157
-187,387	-200,000	-0,005	-0,023
-186,373	-50,621	-0,173	0,059
-185,358	800,000	0,060	0,155
-184,344	9,377	0,075	-0,041
-183,329	800,000	0,044	0,108
-182,315	357,206	-0,011	0,016
-181,300	-27,993	-0,080	-0,034
-180,285	197,961	0,053	0,059
-179,271	-178,424	0,013	-0,000
-178,256	-9,984	-0,185	0,089
-177,242	683,673	0,019	0,037
-176,227	-200,000	-0,003	-0,057
-175,212	7,431	-0,049	-0,027
-174,198	-198,927	0,129	0,000
-173,183	800,000	0,043	-0,104
-172,169	-11,925	-0,087	0,041
-171,154	6,582	-0,081	-0,044
-170,139	201,273	-0,013	0,015
-169,125	800,000	-0,033	0,073
-168,110	774,414	0,016	0,033
-167,096	-16,003	-0,063	-0,029
-166,081	6,490	-0,078	-0,042
-165,066	-200,000	0,016	-0,188
-164,052	-134,370	-0,160	-0,014
-163,037	249,155	0,068	-0,084
-162,023	-76,793	0,111	0,028
-161,008	-52,174	0,055	-0,018
-159,993	323,022	-0,030	-0,042
-158,979	116,863	-0,056	-0,050
-157,964	121,268	0,069	-0,063
-156,950	-1,872	-0,184	-0,094
-155,935	-51,096	0,100	-0,034
-154,920	97,025	-0,091	0,076
-153,906	-200,000	0,011	0,166
-152,891	-88,550	0,028	0,006
-151,877	729,966	0,034	-0,067
-150,862	-200,000	-0,010	-0,155
-149,847	71,958	-0,041	0,031
-148,833	-200,000	0,010	0,118
-147,818	204,217	0,044	0,050
-146,804	-200,000	-0,027	0,091
-145,789	800,000	-0,084	0,180
-144,775	-200,000	0,047	-0,238
-143,760	424,503	0,082	-0,129
-142,745	-103,492	-0,146	-0,025
-141,731	120,025	-0,054	-0,049
-140,716	800,000	0,038	-0,113
-139,702	97,746	0,090	-0,075
-138,687	-9,430	0,085	0,041
-137,672	-200,000	0,005	-0,238
-136,658	656,792	-0,055	-0,103
-135,643	800,000	0,019	0,059
-134,629	-200,000	-0,001	0,127
-133,614	-200,000	-0,003	0,115
-132,599	159,636	0,095	0,096
-131,585	-200,000	-0,001	0,048
-130,570	-200,000	0,007	0,106
-129,556	-35,555	-0,134	0,053
-128,541	180,866	0,008	0,009
-127,526	800,000	0,031	0,075
-126,512	92,157	-0,072	0,059
-125,497	-42,805	-0,118	-0,043
-124,483	-200,000	-0,022	0,134
-123,468	326,498	-0,079	0,110
-122,453	169,098	-0,105	-0,109
-121,439	104,322	-0,098	-0,083
-120,424	-138,041	-0,077	-0,006
-119,410	33,774	-0,053	0,034
-118,395	-82,971	0,138	0,032
-117,380	-200,000	0,004	0,044
-116,366	524,517	0,057	-0,097
-115,351	760,906	-0,017	0,033
-114,337	421,667	0,063	-0,098
-113,322	-11,456	0,028	0,013
-112,307	-197,289	-0,047	0,000
-111,293	181,398	0,019	0,020
-110,278	800,000	0,064	0,133
-109,264	-110,260	0,018	-0,003
-108,249	137,557	-0,054	0,051
-107,234	-42,747	-0,073	-0,027
-106,220	211,509	-0,050	-0,057
-105,205	209,853	-0,060	-0,068
-104,191	-200,000	0,023	0,116
-103,176	-32,938	0,180	0,072
-102,162	620,513	-0,031	-0,057
-101,147	-56,033	0,098	0,032
-100,132	426,094	-0,021	-0,033
-99,118	102,778	-0,174	0,148
-98,103	91,050	-0,054	0,044
-97,089	21,597	0,020	-0,012
-96,074	133,553	0,021	-0,019
-95,059	-200,000	-0,006	-0,030
-94,045	-200,000	0,039	-0,140
-93,030	-200,000	0,001	0,142
-92,016	-59,645	-0,165	-0,051
-91,001	239,825	0,069	-0,084
-89,986	-200,000	-0,015	-0,060
-88,972	-200,000	0,001	0,112
-87,957	800,000	-0,025	0,063
-86,943	468,840	-0,065	-0,106
-85,928	309,685	0,112	-0,152
-84,913	-59,773	-0,057	0,017
-83,899	-60,586	0,030	0,009
-82,884	800,000	-0,044	0,119
-81,870	-200,000	0,030	0,101
-80,855	8,517	0,097	-0,053
-79,840	-52,029	-0,139	-0,047
-78,826	-71,697	0,059	-0,016
-77,811	-200,000	-0,062	0,000
-76,797	405,843	-0,061	0,094
-75,782	-30,650	0,061	-0,025
-74,767	216,299	-0,099	-0,114
-73,753	85,957	0,056	-0,044
-72,738	-200,000	0,009	-0,123
-71,724	-36,521	-0,126	0,049
-70,709	-200,000	0,025	-0,120
-69,694	-38,803	-0,095	0,036
-68,680	-149,498	-0,167	-0,009
-67,665	43,000	-0,055	0,036
-66,651	-200,000	0,010	0,113
-65,636	-17,589	0,113	0,052
-64,622	-200,000	-0,007	-0,082
-63,607	-89,026	-0,150	0,032
-62,592	351,849	-0,081	-0,116
-61,578	-51,384	-0,104	-0,035
-60,563	-95,963	-0,083	0,016
-59,549	12,813	0,212	-0,119
-58,534	-95,451	-1,532	-0,295
-57,519	424,171	-0,857	-1,340
-56,505	-200,000	-1,037	-4,457
-55,490	-95,490	0,732	-0,141
-54,476	800,000	4,909	11,711
-53,461	-200,000	14,192	254,260
-52,446	-200,000	695,609	2236,566
-51,432	569,874	1625,419	2876,803
-50,417	117,135	1632,396	1453,570
-49,403	72,797	1285,940	971,899
-48,388	37,464	1023,067	656,150
-47,373	23,724	981,434	584,304
-46,359	23,041	970,900	575,773
-45,344	21,958	966,714	569,732
-44,330	21,941	965,198	568,762
-43,315	21,784	963,879	567,448
-42,300	21,837	962,622	566,860
-41,286	21,873	961,600	566,353
-40,271	21,759	960,755	565,462
-39,257	21,706	959,845	564,732
-38,242	21,742	958,939	564,295
-37,227	21,704	958,122	563,669
-36,213	21,764	957,074	563,222
-35,198	21,689	956,368	562,541
-34,184	21,744	955,738	562,328
-33,169	21,726	954,713	561,642
-32,154	21,812	953,813	561,369
-31,140	21,736	953,173	560,725
-30,125	21,832	952,208	560,445
-29,111	21,815	951,317	559,843
-28,096	21,785	950,675	559,346
-27,082	21,824	950,095	559,109
-26,067	21,795	949,300	558,525
-25,052	21,774	948,625	558,040
-24,038	21,805	947,790	557,623
-23,023	21,804	947,171	557,234
-22,009	21,873	946,369	556,961
-20,994	21,800	945,870	556,411
-19,979	21,864	945,237	556,224
-18,965	21,834	944,620	555,743
-17,950	21,776	944,034	555,192
-16,936	21,752	943,320	554,672
-15,921	21,748	942,510	554,160
-14,906	21,614	942,038	553,435
-13,892	21,710	941,266	553,265
-12,877	21,721	940,503	552,829
-11,863	21,604	940,120	552,211
-10,848	21,697	939,583	552,167
-9,833	21,780	939,240	552,207
-8,819	21,734	938,575	551,650
-7,804	21,706	937,855	551,114
-6,790	21,700	937,257	550,722
-5,775	21,702	936,637	550,344
-4,760	21,694	936,031	549,942
-3,746	21,698	935,262	549,480
-2,731	21,459	934,830	548,449
-1,717	21,524	933,919	548,100
-0,702	21,496	933,136	547,529
0,313	21,266	932,835	547,455
1,327	24,332	930,645	555,749
2,342	33,606	794,179	498,891
3,356	31,294	450,547	279,525
4,371	1,032	293,914	152,148
5,386	-3,529	275,062	138,059
6,400	-4,881	269,466	133,982
7,415	-5,248	266,949	132,381
8,429	-4,973	265,708	132,005
9,444	-4,782	264,827	131,731
10,459	-4,770	264,220	131,428
11,473	-4,774	263,564	131,086
12,488	-4,945	263,193	130,735
13,502	-5,253	262,703	130,201
14,517	-5,198	262,274	130,026
15,531	-5,052	261,883	129,952
16,546	-5,276	261,588	129,592
17,561	-5,111	261,116	129,496
18,575	-4,984	260,600	129,342
19,590	-4,982	260,473	129,269
20,604	-4,833	260,032	129,173
21,619	-5,064	259,799	128,839
22,634	-5,138	259,592	128,658
23,648	-4,994	259,097	128,530
24,663	-5,054	258,847	128,341
25,677	-5,173	258,665	128,133
26,692	-5,251	258,404	127,924
27,707	-5,089	258,151	127,930
28,721	-5,015	257,792	127,807
29,736	-5,100	257,535	127,592
30,750	-4,972	257,302	127,580
31,765	-5,329	257,223	127,213
32,780	-5,306	256,974	127,099
33,794	-5,034	256,584	127,134
34,809	-5,268	256,255	126,753
35,823	-5,185	256,147	126,762
36,838	-5,158	255,847	126,626
37,853	-5,072	255,628	126,582
38,867	-5,258	255,597	126,391
39,882	-5,344	255,355	126,185
40,896	-5,420	255,104	125,984
41,911	-5,171	254,825	126,053
42,926	-5,240	254,685	125,912
43,940	-5,162	254,229	125,744
44,955	-5,266	254,016	125,536
45,969	-5,367	253,914	125,387
46,984	-5,511	253,773	125,180
47,999	-5,635	253,504	124,928
49,013	-5,792	253,303	124,681
50,028	-5,811	253,052	124,530
51,042	-5,912	252,789	124,302
52,057	-5,962	252,389	124,051
53,071	-5,977	252,401	124,032
54,086	-5,790	252,178	124,073
55,101	-5,649	251,986	124,090
56,115	-5,397	251,795	124,203
57,130	-5,297	251,719	124,240
58,144	-5,009	251,577	124,408
59,159	-5,015	251,398	124,303
60,174	-5,123	251,014	124,010
61,188	-5,062	250,884	123,987
62,203	-5,029	250,714	123,920
63,217	-5,114	250,471	123,716
64,232	-5,124	250,206	123,565
65,247	-5,045	250,166	123,602
66,261	-4,987	249,799	123,460
67,276	-5,229	249,539	123,113
68,290	-5,500	249,238	122,722
69,305	-5,551	248,966	122,533
70,320	-5,470	248,870	122,544
71,334	-5,155	248,751	122,744
72,349	-5,074	248,555	122,705
73,363	-4,967	248,287	122,653
74,378	-4,882	248,183	122,662
75,393	-4,860	247,936	122,548
76,407	-5,128	247,782	122,233
77,422	-5,134	247,631	122,143
78,436	-5,019	247,505	122,168
79,451	-5,121	247,188	121,915
80,466	-5,179	247,084	121,803
81,480	-5,318	246,621	121,446
82,495	-5,554	246,437	121,146
83,509	-5,171	246,350	121,416
84,524	-5,373	246,221	121,170
85,539	-5,504	245,966	120,924
86,553	-5,309	245,841	121,016
87,568	-5,308	245,453	120,815
88,582	-5,212	245,331	120,825
89,597	-5,405	245,224	120,599
90,611	-5,378	245,025	120,513
91,626	-4,949	244,822	120,762
92,641	-5,087	244,731	120,591
93,655	-5,337	244,644	120,328
94,670	-5,147	244,298	120,306
95,684	-5,203	244,015	120,109
96,699	-5,271	243,937	120,003
97,714	-5,262	243,763	119,914
98,728	-5,233	243,394	119,746
99,743	-5,345	243,304	119,598
100,757	-5,342	243,073	119,476
101,772	-5,432	242,999	119,355
102,787	-5,427	242,880	119,289
103,801	-5,333	242,654	119,247
104,816	-5,231	242,568	119,278
105,830	-5,252	242,414	119,174
106,845	-4,998	242,159	119,248
107,860	-5,262	242,049	118,965
108,874	-5,158	241,754	118,895
109,889	-5,218	241,520	118,721
110,903	-5,138	241,393	118,713
111,918	-5,343	241,332	118,503
112,933	-5,129	241,105	118,558
113,947	-5,159	240,966	118,454
114,962	-5,129	240,749	118,362
115,976	-5,332	240,696	118,158
116,991	-5,014	240,518	118,321
118,006	-5,126	240,285	118,105
119,020	-5,127	240,083	117,994
120,035	-5,247	240,078	117,882
121,049	-4,999	239,964	118,019
122,064	-5,164	239,607	117,698
123,079	-5,230	239,374	117,519
124,093	-5,376	239,265	117,336
125,108	-5,286	238,891	117,215
126,122	-5,667	238,691	116,796
127,137	-5,509	238,579	116,860
128,151	-5,480	238,480	116,824
129,166	-5,509	238,369	116,736
130,181	-5,297	238,005	116,719
131,195	-5,370	237,954	116,625
132,210	-5,310	237,724	116,551
133,224	-5,085	237,624	116,674
134,239	-5,082	237,458	116,584
135,254	-5,223	237,335	116,399
136,268	-5,403	237,077	116,117
137,283	-5,330	236,813	116,036
138,297	-5,375	236,575	115,873
139,312	-5,616	236,593	115,676
140,327	-5,399	236,342	115,718
141,341	-5,015	236,413	116,052
142,356	-4,848	236,217	116,080
143,370	-4,931	235,997	115,895
144,385	-5,031	235,856	115,735
145,400	-4,829	235,541	115,733
146,414	-4,944	235,464	115,592
147,429	-4,779	235,295	115,631
148,443	-4,889	235,051	115,413
149,458	-5,015	235,053	115,302
150,473	-4,866	234,791	115,283
151,487	-5,054	234,701	115,078
152,502	-4,989	234,519	115,030
153,516	-4,708	234,317	115,145
154,531	-4,887	234,086	114,879
155,546	-4,922	233,994	114,795
156,560	-4,879	233,744	114,697
157,575	-4,895	233,572	114,590
158,589	-4,964	233,364	114,423
159,604	-4,769	233,161	114,468
160,619	-4,725	233,221	114,521
161,633	-4,594	233,020	114,517
162,648	-5,005	232,893	114,119
163,662	-4,999	232,704	114,020
164,677	-4,808	232,426	114,025
165,692	-4,784	232,472	114,056
166,706	-4,880	232,347	113,909
167,721	-4,730	232,051	113,872
168,735	-4,643	232,035	113,922
169,750	-4,730	231,816	113,736
170,764	-4,760	231,727	113,659
171,779	-4,676	231,519	113,613
172,794	-4,659	231,273	113,495
173,808	-4,904	231,184	113,249
174,823	-5,381	230,787	112,670
175,837	-5,281	230,568	112,632
176,852	-5,059	230,553	112,788
177,867	-5,153	230,781	112,816
178,881	-4,884	230,540	112,899
179,896	-4,749	230,165	112,810
180,910	-4,602	229,982	112,826
181,925	-4,615	229,816	112,724
182,940	-4,794	229,739	112,537
183,954	-4,853	229,608	112,417
184,969	-4,645	229,429	112,481
185,983	-4,568	229,269	112,452
186,998	-4,740	229,331	112,339
188,013	-4,772	228,981	112,132
189,027	-4,723	228,920	112,130
190,042	-4,592	228,733	112,131
191,056	-4,383	228,460	112,149
192,071	-4,405	228,390	112,088
193,086	-4,603	228,109	111,787
194,100	-4,648	228,111	111,742
195,115	-4,858	227,947	111,490
196,129	-5,316	227,680	110,996
197,144	-2,389	228,458	113,632
198,159	1,611	229,537	117,263
199,173	3,494	230,188	119,049
200,188	3,954	230,157	119,379
201,202	3,867	229,914	119,175
202,217	4,088	229,710	119,230
203,232	4,487	229,659	119,501
204,246	4,444	229,552	119,402
205,261	4,617	229,483	119,489
206,275	4,681	229,416	119,493
207,290	4,631	229,160	119,311
208,304	4,685	229,047	119,283
209,319	4,405	228,941	119,001
210,334	4,429	228,709	118,888
211,348	4,406	228,350	118,674
212,363	4,168	228,169	118,386
213,377	3,878	227,968	118,049
214,392	3,650	227,746	117,748
215,407	3,828	227,661	117,830
216,421	3,957	227,554	117,863
217,436	3,844	227,419	117,696
218,450	3,733	227,035	117,402
219,465	3,369	227,100	117,146
220,480	3,487	226,893	117,120
221,494	3,517	226,703	117,034
222,509	3,864	226,602	117,237
223,523	3,621	226,496	116,985
224,538	3,611	226,211	116,820
225,553	3,732	226,189	116,891
226,567	3,969	225,947	116,936
227,582	4,095	225,940	117,017
228,596	4,281	225,889	117,122
229,611	3,949	225,644	116,731
230,626	3,621	225,413	116,354
231,640	3,566	225,273	116,229
232,655	4,048	225,202	116,547
233,669	4,371	225,216	116,789
234,684	4,225	225,169	116,644
235,699	4,175	224,869	116,439
236,713	3,840	224,670	116,073
237,728	3,975	224,327	115,988
238,742	3,801	224,176	115,768
239,757	3,682	224,062	115,609
240,772	3,772	223,912	115,589
241,786	3,650	223,804	115,432
242,801	3,930	223,716	115,586
243,815	4,007	223,737	115,645
244,830	4,168	223,524	115,645
245,844	4,072	223,237	115,414
246,859	3,890	223,043	115,167
247,874	3,978	223,087	115,245
248,888	4,166	222,924	115,292
249,903	3,998	222,735	115,058
250,917	3,898	222,542	114,874
251,932	3,859	222,338	114,729
252,947	3,810	222,255	114,640
253,961	3,843	222,062	114,554
254,976	3,891	221,910	114,502
255,990	3,863	221,879	114,454
257,005	4,015	221,795	114,514
258,020	4,002	221,622	114,405
259,034	4,103	221,651	114,485
260,049	4,133	221,383	114,359
261,063	3,945	221,174	114,101
262,078	4,117	221,037	114,148
263,093	4,269	220,953	114,206
264,107	4,097	220,764	113,971
265,122	4,158	220,636	113,940
266,136	4,419	220,563	114,085
267,151	4,280	220,443	113,910
268,166	3,880	220,039	113,396
269,180	3,694	219,916	113,186
270,195	3,445	219,779	112,922
271,209	3,698	219,656	113,034
272,224	3,749	219,611	113,039
273,239	3,784	219,346	112,918
274,253	3,812	219,100	112,801
275,268	3,578	219,077	112,608
276,282	3,432	218,821	112,359
277,297	3,634	218,674	112,421
278,312	3,539	218,700	112,356
279,326	3,723	218,640	112,450
280,341	3,784	218,418	112,370
281,355	3,987	218,244	112,418
282,370	3,686	218,118	112,124
283,384	3,334	217,947	111,769
284,399	3,470	217,636	111,699
285,414	3,399	217,679	111,659
286,428	3,714	217,577	111,827
287,443	3,913	217,372	111,856
288,457	3,950	217,413	111,894
289,472	4,084	217,038	111,788
290,487	3,268	216,865	111,098
291,501	3,210	216,769	110,996
292,516	3,297	216,660	110,993
293,530	3,600	216,449	111,095
294,545	3,301	216,439	110,863
295,560	3,397	216,232	110,816
296,574	3,803	216,056	111,009
297,589	3,837	216,146	111,071
298,603	4,026	215,840	111,040
299,618	3,762	215,838	110,839
300,633	3,863	215,643	110,802
301,647	3,958	215,560	110,817
302,662	4,041	215,421	110,796
303,676	3,786	215,335	110,558
304,691	4,026	215,112	110,607
305,706	4,240	215,057	110,722
306,720	4,320	214,781	110,627
307,735	3,765	214,695	110,176
308,749	3,750	214,447	110,028
309,764	3,687	214,478	109,988
310,779	3,909	214,362	110,078
311,793	4,067	214,110	110,052
312,808	3,976	214,054	109,948
313,822	3,995	213,872	109,858
314,837	3,741	213,704	109,581
315,852	3,729	213,479	109,447
316,866	3,461	213,414	109,213
317,881	3,863	213,350	109,457
318,895	4,156	213,105	109,530
319,910	4,096	212,962	109,404
320,925	3,746	212,768	109,046
321,939	3,333	212,611	108,663
322,954	3,322	212,524	108,601
323,968	3,600	212,556	108,805
324,983	3,825	212,359	108,854
325,997	3,969	212,384	108,959
327,012	3,897	212,117	108,761
328,027	4,063	211,945	108,780
329,041	4,117	211,985	108,830
330,056	4,260	211,829	108,841
331,070	3,863	211,556	108,411
332,085	3,715	211,315	108,174
333,100	3,421	211,288	107,943
334,114	3,841	211,206	108,187
335,129	3,816	210,964	108,036
336,143	3,696	210,849	107,883
337,158	3,557	210,601	107,649
338,173	3,723	210,490	107,699
339,187	3,554	210,433	107,542
340,202	3,311	210,307	107,297
341,216	3,233	210,174	107,166
342,231	3,542	210,107	107,338
343,246	3,732	209,784	107,296
344,260	3,741	209,721	107,261
345,275	3,607	209,612	107,102
346,289	3,923	209,504	107,257
347,304	4,032	209,294	107,216
348,319	3,755	209,189	106,960
349,333	3,769	209,150	106,941
350,348	3,813	209,116	106,944
351,362	3,805	208,871	106,804
352,377	3,876	208,862	106,839
353,392	3,884	208,592	106,697
354,406	3,761	208,549	106,580
355,421	194,710	1344,740	1434,162
356,435	155,395	1483,272	1434,271
