DTS Sentinel unit serial number:	SN410029Multiplexer serial number:	ORYXHardware model number:	OX2-SRSoftware version number:	ORYX F/W v4,00 Oryx Data Collector v3.7.2.0data status	okinstallation	B6 Nyhavnadifferential loss correction	single-endedforward channel	channel 2reverse channel	N/Adate	2023/12/11time	09:10:08forward acquisition time	300,00reverse acquisition time	0,00gamma	499,1914k internal	0,3136k external	0,3136temperature offset calibration	1,0000default loss term (dB/km)	0,3820temperature slope calibration	1,0000multiplexer offset coefficient	1,0000multiplexer slope coefficient	1,0000fibre end	0,00T internal ref (°C)	17,02T ext. ref 1 (°C)	-0,58T ext. ref 2 (°C)	-0,61length (m)	temperature (°C)	Stokes	anti-Stokes-744,400	47,155	0,075	0,052
-743,385	3,502	-0,196	0,106
-742,371	-170,763	0,266	-0,007
-741,356	-125,080	-0,265	-0,030
-740,342	800,000	0,007	0,016
-739,327	-128,313	-0,290	0,030
-738,312	70,721	0,136	0,104
-737,298	-106,465	-0,279	-0,046
-736,283	178,028	0,138	-0,150
-735,269	-70,733	-0,337	0,094
-734,254	-200,000	-0,004	0,192
-733,239	-41,293	-0,469	-0,178
-732,225	-142,743	0,207	-0,015
-731,210	133,752	0,037	0,036
-730,196	-200,000	0,012	-0,131
-729,181	327,307	-0,091	-0,130
-728,167	3,839	0,125	0,068
-727,152	-0,162	-0,069	-0,036
-726,137	143,593	-0,057	-0,056
-725,123	-200,000	-0,015	-0,091
-724,108	596,210	0,018	-0,032
-723,094	167,390	0,061	-0,065
-722,079	83,402	-0,162	-0,131
-721,064	-200,000	0,007	0,031
-720,050	-18,052	-0,056	0,026
-719,035	800,000	0,056	0,145
-718,021	-140,495	-0,072	-0,005
-717,006	36,793	-0,137	0,089
-715,991	56,737	-0,109	-0,079
-714,977	-73,008	-0,097	-0,026
-713,962	-43,676	-0,107	0,040
-712,948	-63,050	-0,070	-0,021
-711,933	-200,000	-0,001	-0,050
-710,918	-94,036	0,055	0,011
-709,904	88,155	-0,065	0,054
-708,889	-56,417	-0,149	-0,049
-707,875	-200,000	-0,041	-0,134
-706,860	-65,125	0,132	-0,039
-705,845	166,432	0,029	0,031
-704,831	-17,818	-0,054	-0,025
-703,816	85,237	-0,054	0,044
-702,802	800,000	-0,011	0,033
-701,787	-199,949	0,018	0,000
-700,772	751,395	0,017	0,033
-699,758	800,000	0,057	-0,125
-698,743	396,809	0,082	0,128
-697,729	143,052	0,039	0,038
-696,714	800,000	-0,024	0,050
-695,699	-115,427	-0,122	-0,017
-694,685	275,284	0,019	-0,025
-693,670	800,000	-0,045	0,105
-692,656	68,420	-0,070	0,053
-691,641	800,000	0,028	-0,065
-690,627	-5,242	-0,125	-0,063
-689,612	344,567	0,038	-0,056
-688,597	320,047	-0,061	0,086
-687,583	73,076	0,031	0,024
-686,568	131,641	-0,122	-0,117
-685,554	338,059	0,075	-0,108
-684,539	202,022	0,090	-0,103
-683,524	-41,934	-0,036	0,013
-682,510	-92,648	-0,089	0,018
-681,495	-71,453	0,064	-0,018
-680,481	108,596	-0,082	0,073
-679,466	-200,000	0,014	-0,099
-678,451	79,959	-0,126	0,100
-677,437	156,278	0,101	0,104
-676,422	-200,000	-0,000	-0,022
-675,408	800,000	-0,013	0,037
-674,393	132,792	0,043	0,041
-673,378	-200,000	-0,004	-0,052
-672,364	-130,410	0,040	0,004
-671,349	-8,221	-0,070	-0,035
-670,335	568,662	-0,032	-0,058
-669,320	-63,891	0,119	0,036
-668,305	-18,207	-0,064	0,029
-667,291	-200,000	0,042	0,167
-666,276	459,233	-0,027	0,044
-665,262	189,767	-0,110	-0,123
-664,247	800,000	0,065	-0,160
-663,232	-76,514	-0,040	-0,010
-662,218	85,564	0,117	0,095
-661,203	75,831	-0,094	-0,073
-660,189	177,650	-0,130	-0,140
-659,174	-200,000	-0,009	-0,044
-658,159	642,748	0,014	-0,027
-657,145	172,628	0,041	0,044
-656,130	-91,739	-0,074	0,015
-655,116	-54,534	0,159	-0,053
-654,101	54,755	0,092	0,066
-653,086	168,985	-0,056	-0,059
-652,072	246,338	-0,072	-0,090
-651,057	27,566	-0,081	-0,050
-650,043	-9,197	-0,088	0,043
-649,028	145,265	-0,024	0,024
-648,014	204,348	-0,037	0,042
-646,999	58,113	0,058	0,042
-645,984	800,000	-0,024	0,073
-644,970	-38,970	-0,069	-0,027
-643,955	502,539	-0,044	-0,075
-642,941	-8,014	-0,074	-0,037
-641,926	43,943	0,034	0,023
-640,911	493,033	0,032	0,054
-639,897	-200,000	-0,019	0,195
-638,882	-200,000	-0,011	0,068
-637,868	-86,992	-0,112	0,025
-636,853	454,163	-0,084	-0,139
-635,838	-200,000	-0,015	-0,104
-634,824	800,000	-0,040	0,088
-633,809	278,515	0,047	-0,062
-632,795	112,520	0,029	0,026
-631,780	800,000	-0,026	0,058
-630,765	146,424	-0,123	-0,122
-629,751	32,937	-0,124	-0,079
-628,736	22,030	-0,081	-0,049
-627,722	-31,279	-0,143	-0,059
-626,707	459,104	-0,067	0,110
-625,692	800,000	-0,019	-0,052
-624,678	-29,620	0,079	0,033
-623,663	365,925	-0,053	0,080
-622,649	196,116	-0,121	-0,136
-621,634	321,005	-0,010	-0,014
-620,619	-200,000	-0,003	-0,140
-619,605	-200,000	0,015	0,109
-618,590	565,254	0,023	0,041
-617,576	28,504	-0,037	-0,023
-616,561	-186,531	-0,027	-0,000
-615,546	27,579	-0,028	0,018
-614,532	49,757	-0,041	0,028
-613,517	-2,698	-0,077	0,040
-612,503	26,872	0,015	-0,010
-611,488	-17,774	0,016	-0,007
-610,474	76,857	0,050	0,039
-609,459	414,376	0,068	0,107
-608,444	15,984	-0,098	-0,057
-607,430	-133,496	0,092	0,008
-606,415	-35,010	-0,169	-0,068
-605,401	800,000	0,014	0,033
-604,386	-0,859	0,085	0,044
-603,371	-136,832	0,180	-0,015
-602,357	-15,814	0,074	-0,035
-601,342	-111,782	-0,060	-0,009
-600,328	-34,488	-0,094	-0,038
-599,313	-77,892	0,070	-0,018
-598,298	71,810	0,046	0,035
-597,284	-200,000	0,014	0,071
-596,269	-31,115	-0,050	0,021
-595,255	-200,000	0,005	-0,065
-594,240	-200,000	-0,008	-0,106
-593,225	-64,364	-0,042	-0,013
-592,211	-200,000	0,027	-0,093
-591,196	-9,143	-0,169	-0,083
-590,182	-54,822	-0,046	-0,015
-589,167	-200,000	0,041	0,170
-588,152	-63,072	0,093	0,028
-587,138	-200,000	-0,027	0,105
-586,123	97,552	-0,120	-0,102
-585,109	-125,659	-0,056	0,006
-584,094	-134,210	0,015	-0,001
-583,079	3,110	0,057	0,030
-582,065	106,555	0,014	-0,012
-581,050	37,624	-0,138	0,090
-580,036	-2,149	0,089	-0,046
-579,021	90,159	0,093	0,076
-578,006	276,250	-0,028	0,037
-576,992	58,708	0,081	-0,059
-575,977	-100,976	-0,095	0,017
-574,963	667,424	-0,034	-0,065
-573,948	-90,645	0,088	0,019
-572,934	800,000	0,028	-0,063
-571,919	-162,934	-0,066	0,002
-570,904	355,867	-0,066	-0,097
-569,890	800,000	-0,057	-0,162
-568,875	34,872	-0,122	0,079
-567,861	-2,994	0,189	0,097
-566,846	800,000	0,076	0,168
-565,831	-200,000	-0,004	-0,057
-564,817	800,000	0,007	0,019
-563,802	301,516	-0,033	-0,045
-562,788	269,338	0,042	0,054
-561,773	596,337	-0,031	-0,058
-560,758	-200,000	0,004	0,085
-559,744	800,000	-0,030	-0,087
-558,729	29,968	0,023	-0,014
-557,715	566,148	-0,059	-0,106
-556,700	-200,000	0,016	0,064
-555,685	374,435	0,051	-0,076
-554,671	-200,000	0,000	0,038
-553,656	-91,707	0,046	0,010
-552,642	-31,479	0,020	0,008
-551,627	-127,010	0,094	-0,010
-550,612	143,984	-0,006	0,006
-549,598	800,000	-0,041	0,114
-548,583	-70,408	-0,124	0,034
-547,569	-200,000	-0,003	-0,124
-546,554	-200,000	-0,001	0,031
-545,539	181,383	0,049	0,053
-544,525	155,145	-0,067	-0,068
-543,510	-200,000	-0,011	0,062
-542,496	-80,340	-0,104	0,025
-541,481	85,055	-0,119	0,096
-540,466	248,480	-0,040	-0,050
-539,452	298,742	-0,019	0,025
-538,437	-160,696	0,138	0,005
-537,423	-118,696	0,052	0,007
-536,408	-41,146	-0,073	-0,028
-535,393	-0,022	0,092	-0,048
-534,379	800,000	-0,064	-0,156
-533,364	210,628	-0,073	-0,085
-532,350	-86,210	-0,127	-0,028
-531,335	-100,071	0,035	-0,006
-530,321	-36,339	0,053	0,021
-529,306	-8,062	-0,017	0,008
-528,291	582,882	-0,076	-0,138
-527,277	800,000	0,040	0,098
-526,262	213,165	0,031	-0,036
-525,248	800,000	-0,031	-0,066
-524,233	-200,000	0,003	0,049
-523,218	-39,410	-0,085	0,033
-522,204	177,357	0,064	0,069
-521,189	235,444	-0,121	-0,147
-520,175	-200,000	-0,007	0,142
-519,160	246,042	0,058	-0,072
-518,145	573,959	-0,023	-0,041
-517,131	800,000	0,037	-0,081
-516,116	800,000	0,025	0,071
-515,102	-72,311	0,075	0,020
-514,087	800,000	0,055	-0,133
-513,072	800,000	-0,062	-0,181
-512,058	-41,599	-0,155	0,058
-511,043	-200,000	0,034	0,176
-510,029	-200,000	-0,008	-0,060
-509,014	-200,000	0,003	-0,033
-507,999	114,990	0,078	0,070
-506,985	-8,373	0,032	-0,016
-505,970	-200,000	-0,002	0,017
-504,956	157,380	-0,122	0,124
-503,941	-200,000	-0,013	-0,100
-502,926	-90,528	0,136	0,029
-501,912	-40,677	0,089	-0,034
-500,897	122,871	0,098	0,090
-499,883	586,912	-0,065	-0,119
-498,868	-15,919	-0,135	-0,063
-497,853	800,000	-0,057	-0,123
-496,839	95,705	-0,099	-0,083
-495,824	800,000	0,045	-0,115
-494,810	-123,978	-0,087	0,010
-493,795	-96,862	0,090	0,017
-492,781	12,241	-0,110	0,062
-491,766	-182,520	-0,048	-0,001
-490,751	-22,094	-0,078	0,035
-489,737	-200,000	-0,009	0,037
-488,722	-116,621	0,006	0,001
-487,708	-101,254	0,089	-0,016
-486,693	641,821	0,042	0,079
-485,678	144,766	0,029	0,028
-484,664	116,656	-0,116	0,105
-483,649	377,309	-0,045	-0,067
-482,635	-169,574	-0,176	-0,005
-481,620	800,000	0,016	0,038
-480,605	800,000	0,038	-0,089
-479,591	-200,000	-0,013	-0,075
-478,576	628,631	-0,037	-0,069
-477,562	800,000	0,031	-0,079
-476,547	94,354	0,012	-0,010
-475,532	213,855	0,046	0,053
-474,518	444,993	0,036	0,058
-473,503	114,253	0,057	-0,051
-472,489	97,993	-0,144	0,121
-471,474	-200,000	0,022	-0,171
-470,459	761,496	-0,018	0,035
-469,445	-125,061	-0,027	0,003
-468,430	-200,000	0,024	-0,138
-467,416	-98,069	0,085	0,016
-466,401	-107,321	0,039	-0,006
-465,386	-191,867	0,189	0,001
-464,372	93,234	-0,019	0,015
-463,357	-54,741	-0,096	0,032
-462,343	-200,000	-0,018	-0,086
-461,328	800,000	0,006	0,015
-460,313	-200,000	-0,000	-0,077
-459,299	-77,679	-0,109	0,028
-458,284	-200,000	0,018	0,158
-457,270	15,563	-0,090	-0,052
-456,255	569,831	-0,060	-0,107
-455,241	-200,000	-0,014	0,069
-454,226	-200,000	-0,008	-0,118
-453,211	-10,008	0,157	0,076
-452,197	595,315	-0,071	-0,130
-451,182	-177,324	0,081	0,001
-450,168	92,415	0,171	0,142
-449,153	229,515	-0,079	-0,095
-448,138	-200,000	-0,004	0,042
-447,124	-200,000	-0,012	0,095
-446,109	124,469	0,053	-0,049
-445,095	-200,000	-0,013	-0,063
-444,080	469,790	0,059	0,097
-443,065	-200,000	-0,002	-0,157
-442,051	-200,000	0,019	-0,175
-441,036	-75,629	-0,127	-0,033
-440,022	-86,128	0,055	-0,012
-439,007	800,000	-0,046	0,104
-437,992	124,295	0,078	0,072
-436,978	377,130	-0,090	-0,135
-435,963	324,977	0,046	0,065
-434,949	800,000	-0,027	0,079
-433,934	-148,964	-0,062	0,004
-432,919	-200,000	0,005	-0,019
-431,905	-90,616	0,088	-0,019
-430,890	463,606	-0,097	0,160
-429,876	-45,698	-0,088	0,032
-428,861	365,672	-0,003	0,005
-427,846	-200,000	0,014	0,226
-426,832	-63,333	0,029	0,009
-425,817	362,994	-0,065	-0,095
-424,803	26,438	0,047	-0,029
-423,788	800,000	0,053	0,114
-422,773	-153,207	-0,085	-0,004
-421,759	-112,036	0,051	0,007
-420,744	267,155	-0,102	0,132
-419,730	-186,530	0,121	0,001
-418,715	-200,000	-0,010	0,046
-417,701	175,159	0,057	0,060
-416,686	-28,073	0,040	0,017
-415,671	316,485	0,028	0,039
-414,657	-200,000	-0,020	-0,093
-413,642	669,786	0,061	0,117
-412,628	-57,147	-0,054	-0,017
-411,613	197,164	-0,117	0,131
-410,598	315,480	-0,110	0,153
-409,584	146,485	-0,035	-0,034
-408,569	53,558	0,086	0,060
-407,555	-99,070	0,085	-0,016
-406,540	648,042	0,076	0,143
-405,525	19,994	0,070	0,042
-404,511	569,107	0,021	-0,037
-403,496	117,191	0,038	-0,034
-402,482	267,226	0,063	0,081
-401,467	-200,000	0,009	-0,057
-400,452	511,601	0,054	0,092
-399,438	296,650	0,053	0,071
-398,423	-58,918	-0,071	-0,022
-397,409	800,000	-0,028	-0,076
-396,394	-200,000	0,009	0,057
-395,379	785,001	0,048	-0,097
-394,365	-129,590	0,068	0,007
-393,350	-56,148	0,140	0,045
-392,336	42,743	-0,105	0,070
-391,321	-200,000	0,026	0,111
-390,306	287,370	0,020	0,026
-389,292	54,763	-0,058	-0,041
-388,277	800,000	0,040	-0,104
-387,263	514,176	0,042	0,072
-386,248	800,000	-0,017	0,048
-385,233	-200,000	0,022	0,076
-384,219	80,172	0,056	0,044
-383,204	-40,213	-0,036	-0,014
-382,190	11,905	-0,052	0,029
-381,175	232,245	0,090	0,108
-380,160	-200,000	-0,004	0,079
-379,146	-200,000	0,020	0,144
-378,131	-4,869	0,077	-0,039
-377,117	-107,711	0,073	0,012
-376,102	21,990	-0,119	-0,071
-375,088	-120,599	-0,066	0,008
-374,073	97,818	-0,041	-0,035
-373,058	-55,367	0,071	-0,023
-372,044	110,677	-0,042	-0,037
-371,029	800,000	-0,079	-0,185
-370,015	-66,779	0,016	-0,005
-369,000	471,991	-0,024	-0,039
-367,985	74,127	-0,082	0,063
-366,971	327,057	-0,037	0,052
-365,956	800,000	-0,037	0,111
-364,942	800,000	0,031	-0,091
-363,927	-156,096	0,197	-0,009
-362,912	9,920	-0,045	0,025
-361,898	-200,000	0,000	-0,138
-360,883	125,627	0,125	-0,116
-359,869	72,424	-0,064	0,049
-358,854	-118,752	0,141	-0,018
-357,839	-62,128	0,078	0,024
-356,825	154,573	0,065	0,066
-355,810	800,000	0,058	0,178
-354,796	644,971	-0,005	0,009
-353,781	-200,000	-0,001	0,031
-352,766	800,000	-0,063	0,179
-351,752	208,251	-0,010	0,012
-350,737	171,136	-0,065	0,069
-349,723	-0,119	0,098	0,051
-348,708	-164,498	0,051	0,002
-347,693	-0,373	0,057	0,029
-346,679	-115,514	-0,064	-0,009
-345,664	-54,829	0,115	0,038
-344,650	800,000	0,024	0,073
-343,635	-11,451	0,073	0,035
-342,620	-104,084	0,072	-0,012
-341,606	-40,492	0,098	0,037
-340,591	-151,376	0,035	0,002
-339,577	-140,388	-0,142	-0,011
-338,562	800,000	0,049	-0,108
-337,548	-149,689	0,040	0,002
-336,533	-200,000	0,021	0,159
-335,518	-200,000	-0,004	0,134
-334,504	614,782	0,017	-0,031
-333,489	800,000	-0,042	-0,132
-332,475	-200,000	-0,004	-0,061
-331,460	-200,000	0,043	-0,150
-330,445	800,000	0,019	-0,040
-329,431	-166,066	0,132	0,004
-328,416	154,044	0,099	-0,099
-327,402	31,436	0,107	0,067
-326,387	-200,000	-0,016	0,053
-325,372	542,255	-0,075	-0,131
-324,358	-200,000	0,007	0,044
-323,343	-130,622	0,060	-0,006
-322,329	-45,218	-0,041	-0,015
-321,314	234,337	0,058	-0,070
-320,299	-116,361	0,011	0,001
-319,285	800,000	0,051	0,121
-318,270	104,662	-0,061	0,053
-317,256	142,585	-0,059	-0,058
-316,241	-49,063	-0,057	-0,020
-315,226	-200,000	-0,012	0,089
-314,212	800,000	0,057	0,180
-313,197	97,219	0,070	-0,059
-312,183	-19,917	0,072	-0,032
-311,168	552,931	0,023	-0,040
-310,153	141,109	-0,098	-0,094
-309,139	-111,473	-0,121	-0,018
-308,124	-200,000	-0,026	0,140
-307,110	3,823	-0,102	-0,054
-306,095	-200,000	-0,004	-0,025
-305,080	-200,000	-0,007	-0,120
-304,066	83,176	-0,070	0,055
-303,051	800,000	-0,027	-0,058
-302,037	-200,000	-0,036	0,115
-301,022	432,693	-0,041	-0,065
-300,008	171,830	0,059	0,062
-298,993	185,773	-0,086	0,093
-297,978	-57,501	0,116	-0,037
-296,964	-98,306	0,116	-0,022
-295,949	-77,695	0,108	-0,027
-294,935	-200,000	0,012	-0,094
-293,920	439,090	-0,097	-0,155
-292,905	72,614	0,063	-0,048
-291,891	-200,000	-0,043	0,178
-290,876	187,610	-0,049	-0,053
-289,862	-200,000	0,007	-0,133
-288,847	-83,494	-0,172	0,040
-287,832	256,292	-0,056	-0,070
-286,818	178,994	0,109	-0,116
-285,803	262,806	0,114	-0,145
-284,789	34,952	0,188	0,120
-283,774	-80,824	0,019	0,004
-282,759	-200,000	-0,017	-0,067
-281,745	17,731	-0,094	-0,054
-280,730	-200,000	0,005	0,119
-279,716	-200,000	-0,013	-0,056
-278,701	83,670	0,017	0,013
-277,686	11,813	0,090	0,050
-276,672	-200,000	0,038	0,147
-275,657	800,000	-0,055	-0,171
-274,643	-77,227	0,140	-0,035
-273,628	800,000	-0,037	-0,107
-272,613	171,676	-0,045	-0,047
-271,599	-10,088	0,076	0,036
-270,584	-114,133	0,015	0,002
-269,570	-9,867	0,049	-0,024
-268,555	-200,000	0,007	-0,199
-267,540	206,026	-0,033	-0,037
-266,526	99,827	-0,021	0,018
-265,511	-69,519	-0,054	-0,015
-264,497	-140,176	0,166	-0,013
-263,482	180,073	0,042	-0,045
-262,467	-26,614	-0,055	-0,023
-261,453	-200,000	0,004	0,021
-260,438	800,000	0,028	0,062
-259,424	92,117	0,036	-0,029
-258,409	-27,840	-0,086	-0,036
-257,395	-200,000	-0,006	0,033
-256,380	-59,959	0,073	-0,022
-255,365	154,715	-0,083	-0,083
-254,351	800,000	-0,044	0,110
-253,336	315,883	0,027	0,037
-252,322	-200,000	-0,033	-0,162
-251,307	-200,000	0,008	0,128
-250,292	116,054	-0,070	-0,063
-249,278	-79,257	0,073	0,018
-248,263	-105,322	-0,091	-0,015
-247,249	800,000	0,019	-0,052
-246,234	-200,000	-0,017	-0,122
-245,219	-124,345	-0,071	-0,008
-244,205	-124,406	-0,119	0,013
-243,190	-38,733	-0,099	0,038
-242,176	-3,743	0,106	0,053
-241,161	143,431	0,017	-0,017
-240,146	89,389	-0,097	-0,078
-239,132	513,401	-0,046	-0,078
-238,117	-60,988	0,047	-0,014
-237,103	-47,931	-0,064	-0,023
-236,088	-164,589	-0,049	-0,002
-235,073	-200,000	-0,011	-0,077
-234,059	588,013	0,106	0,190
-233,044	43,784	0,091	-0,060
-232,030	800,000	-0,029	-0,075
-231,015	-200,000	0,007	-0,059
-230,000	-200,000	0,002	-0,040
-228,986	717,935	-0,025	-0,048
-227,971	-22,529	-0,060	0,026
-226,957	172,473	0,113	0,118
-225,942	-200,000	0,058	0,230
-224,927	-200,000	-0,016	0,092
-223,913	-77,506	0,070	0,018
-222,898	409,556	0,007	0,010
-221,884	276,361	-0,038	-0,049
-220,869	22,503	-0,082	0,048
-219,855	38,592	0,083	0,053
-218,840	527,912	0,036	0,062
-217,825	-155,253	-0,065	0,003
-216,811	117,831	-0,074	-0,067
-215,796	-200,000	-0,042	-0,179
-214,782	-200,000	-0,001	0,016
-213,767	74,778	0,098	0,075
-212,752	800,000	0,040	-0,098
-211,738	-163,498	0,271	-0,009
-210,723	96,670	-0,077	-0,064
-209,709	-24,803	0,041	0,018
-208,694	-200,000	-0,013	0,074
-207,679	-200,000	-0,015	-0,062
-206,665	-41,097	0,017	0,006
-205,650	-200,000	0,026	0,103
-204,636	-200,000	0,027	0,175
-203,621	-200,000	0,027	-0,097
-202,606	-18,101	-0,118	0,053
-201,592	-200,000	0,003	0,019
-200,577	-36,095	-0,056	0,022
-199,563	28,096	0,161	-0,099
-198,548	-83,771	0,073	-0,017
-197,533	145,363	-0,040	0,039
-196,519	-200,000	-0,118	-0,000
-195,504	-200,000	-0,016	0,101
-194,490	149,717	0,035	-0,035
-193,475	-18,764	-0,056	-0,025
-192,460	109,974	0,111	0,097
-191,446	-121,092	-0,116	-0,014
-190,431	800,000	0,033	0,072
-189,417	-74,057	-0,059	-0,016
-188,402	-59,191	0,031	0,010
-187,387	288,690	0,070	-0,092
-186,373	-153,663	-0,100	0,005
-185,358	-58,691	0,063	0,020
-184,344	12,027	0,094	-0,052
-183,329	487,366	0,083	-0,139
-182,315	-175,851	-0,077	-0,001
-181,300	129,034	0,083	0,077
-180,285	800,000	-0,043	-0,090
-179,271	145,636	-0,152	-0,148
-178,256	-138,231	-0,068	-0,005
-177,242	81,211	0,035	0,027
-176,227	-92,252	0,041	0,008
-175,212	-200,000	0,020	-0,134
-174,198	177,942	0,086	0,092
-173,183	198,322	0,065	-0,072
-172,169	469,322	0,025	0,041
-171,154	-61,977	-0,161	0,049
-170,139	-200,000	0,023	-0,087
-169,125	733,760	-0,032	0,062
-168,110	-31,851	0,129	0,052
-167,096	201,737	-0,071	0,080
-166,081	29,216	-0,092	0,057
-165,066	221,346	0,109	-0,128
-164,052	32,920	-0,034	0,021
-163,037	76,297	-0,090	-0,069
-162,023	551,734	0,051	0,089
-161,008	-78,801	0,176	0,043
-159,993	29,564	0,125	0,077
-158,979	-11,933	-0,117	0,056
-157,964	-48,119	0,035	0,012
-156,950	601,619	-0,042	-0,077
-155,935	-200,000	-0,005	0,068
-154,920	-62,743	0,045	-0,013
-153,906	134,562	-0,041	-0,038
-152,891	-49,292	-0,060	0,021
-151,877	-200,000	0,017	-0,056
-150,862	18,115	-0,061	-0,035
-149,847	-80,422	-0,038	0,009
-148,833	800,000	0,008	0,018
-147,818	-200,000	-0,013	0,202
-146,804	111,161	0,096	0,084
-145,789	119,059	-0,151	0,135
-144,775	788,207	0,038	-0,075
-143,760	324,065	0,025	-0,035
-142,745	249,389	0,104	-0,128
-141,731	800,000	-0,011	0,022
-140,716	-98,725	0,094	-0,017
-139,702	-114,428	0,085	0,012
-138,687	-200,000	0,003	0,022
-137,672	34,561	0,067	-0,042
-136,658	-200,000	0,017	-0,079
-135,643	-105,947	-0,123	-0,020
-134,629	-6,444	-0,061	-0,030
-133,614	45,114	-0,021	0,014
-132,599	16,711	0,133	-0,076
-131,585	-90,314	-0,029	0,006
-130,570	-112,490	0,153	-0,022
-129,556	-91,630	-0,050	0,010
-128,541	198,320	0,080	-0,088
-127,526	-95,406	-0,090	-0,017
-126,512	449,838	-0,051	0,082
-125,497	78,698	-0,087	0,067
-124,483	164,721	-0,036	-0,036
-123,468	800,000	0,028	-0,088
-122,453	-47,533	-0,104	-0,036
-121,439	-200,000	0,004	0,096
-120,424	-68,217	-0,133	-0,037
-119,410	25,879	0,049	-0,029
-118,395	15,083	0,067	-0,038
-117,380	-200,000	0,013	0,058
-116,366	138,739	0,054	-0,051
-115,351	-29,592	-0,056	-0,023
-114,337	800,000	-0,051	0,154
-113,322	18,772	0,005	-0,003
-112,307	-200,000	-0,018	-0,106
-111,293	800,000	-0,027	0,078
-110,278	-158,591	0,177	0,007
-109,264	146,427	0,084	0,082
-108,249	800,000	0,038	0,092
-107,234	-200,000	-0,016	0,081
-106,220	800,000	0,052	0,146
-105,205	-200,000	-0,014	-0,066
-104,191	-55,514	-0,073	-0,023
-103,176	6,053	-0,094	-0,050
-102,162	-200,000	-0,012	0,038
-101,147	-200,000	-0,025	-0,099
-100,132	800,000	0,025	0,058
-99,118	-107,043	-0,088	0,014
-98,103	-16,467	0,086	0,039
-97,089	222,837	0,019	0,022
-96,074	-19,385	0,019	-0,008
-95,059	-200,000	0,015	-0,064
-94,045	800,000	-0,048	-0,107
-93,030	481,792	0,077	0,127
-92,016	207,568	0,124	-0,140
-91,001	422,893	-0,046	-0,071
-89,986	800,000	-0,034	0,080
-88,972	-200,000	-0,018	0,084
-87,957	-106,879	-0,074	0,012
-86,943	-101,250	-0,053	0,009
-85,928	-200,000	0,021	-0,119
-84,913	80,143	-0,088	-0,068
-83,899	495,688	0,027	0,045
-82,884	112,361	0,059	-0,052
-81,870	12,866	-0,153	-0,085
-80,855	-82,966	0,096	-0,022
-79,840	80,879	-0,151	-0,117
-78,826	-54,758	0,106	0,034
-77,811	182,352	0,149	-0,159
-76,797	-200,000	-0,011	-0,035
-75,782	-93,647	-0,044	-0,009
-74,767	-137,066	0,129	0,011
-73,753	-141,710	0,159	0,011
-72,738	800,000	0,012	-0,031
-71,724	800,000	-0,038	0,096
-70,709	-40,614	-0,071	-0,026
-69,694	88,201	-0,026	0,021
-68,680	171,618	-0,041	0,043
-67,665	800,000	0,064	0,149
-66,651	-59,302	-0,044	0,014
-65,636	-119,768	-0,124	0,015
-64,622	347,935	-0,030	-0,043
-63,607	287,606	-0,022	-0,029
-62,592	48,975	0,082	-0,056
-61,578	70,938	0,113	-0,085
-60,563	-134,738	0,133	0,011
-59,549	800,000	0,041	0,083
-58,534	-14,187	-1,837	-0,853
-57,519	800,000	-0,364	-0,930
-56,505	-200,000	-1,224	-4,794
-55,490	-34,116	0,744	0,294
-54,476	800,000	5,355	12,258
-53,461	-200,000	16,736	272,046
-52,446	800,000	713,376	2206,851
-51,432	556,866	1623,889	2838,976
-50,417	115,059	1620,673	1428,983
-49,403	80,131	1281,955	995,344
-48,388	34,479	1027,832	647,052
-47,373	20,775	990,021	577,810
-46,359	19,496	978,397	566,782
-45,344	17,355	974,423	557,407
-44,330	17,451	972,939	556,850
-43,315	17,147	971,364	554,927
-42,300	17,093	970,109	554,013
-41,286	17,050	969,161	553,306
-40,271	17,068	968,101	552,738
-39,257	17,145	967,237	552,475
-38,242	17,079	966,567	551,856
-37,227	17,063	965,757	551,319
-36,213	17,032	964,994	550,761
-35,198	17,040	964,050	550,225
-34,184	17,060	963,354	549,872
-33,169	17,030	962,351	549,180
-32,154	17,099	961,268	548,765
-31,140	17,089	960,539	548,295
-30,125	17,066	959,651	547,691
-29,111	17,082	958,767	547,216
-28,096	17,060	958,227	546,816
-27,082	17,095	957,442	546,457
-26,067	17,063	956,698	545,908
-25,052	17,061	955,909	545,430
-24,038	17,105	955,214	545,154
-23,023	17,064	954,792	544,761
-22,009	17,114	953,934	544,411
-20,994	17,089	953,276	543,931
-19,979	17,081	952,509	543,448
-18,965	17,031	952,247	543,114
-17,950	17,050	951,393	542,669
-16,936	16,975	950,870	542,105
-15,921	16,976	950,104	541,652
-14,906	16,938	949,288	541,042
-13,892	16,953	948,678	540,723
-12,877	16,975	948,019	540,395
-11,863	16,883	947,516	539,793
-10,848	16,898	946,976	539,510
-9,833	16,966	946,445	539,407
-8,819	16,999	945,626	539,021
-7,804	16,951	944,969	538,473
-6,790	16,938	944,447	538,114
-5,775	16,952	944,062	537,918
-4,760	16,968	943,365	537,549
-3,746	16,935	942,572	536,969
-2,731	16,802	942,045	536,226
-1,717	16,760	941,323	535,661
-0,702	16,837	940,543	535,439
0,313	16,587	940,090	535,195
1,327	19,941	938,188	544,698
2,342	29,435	794,132	486,329
3,356	25,985	447,461	268,837
4,371	-5,359	295,383	145,966
5,386	-9,466	276,956	132,932
6,400	-10,897	271,060	128,754
7,415	-11,008	268,683	127,510
8,429	-10,856	267,429	127,044
9,444	-10,657	266,672	126,856
10,459	-10,469	265,889	126,645
11,473	-10,589	265,415	126,297
12,488	-10,588	264,942	126,063
13,502	-10,658	264,496	125,775
14,517	-10,445	263,944	125,695
15,531	-10,165	263,763	125,852
16,546	-9,807	263,376	125,981
17,561	-9,795	262,956	125,779
18,575	-9,947	262,900	125,604
19,590	-10,023	262,533	125,348
20,604	-9,839	262,167	125,329
21,619	-10,039	261,820	124,972
22,634	-10,020	261,685	124,913
23,648	-10,221	261,227	124,503
24,663	-9,977	261,016	124,610
25,677	-9,942	260,704	124,482
26,692	-9,768	260,509	124,533
27,707	-9,904	260,127	124,218
28,721	-9,979	259,986	124,072
29,736	-9,773	259,510	124,018
30,750	-9,980	259,277	123,711
31,765	-10,001	259,258	123,672
32,780	-9,943	258,862	123,524
33,794	-9,991	258,774	123,428
34,809	-9,988	258,513	123,295
35,823	-9,926	258,251	123,215
36,838	-10,229	257,990	122,810
37,853	-10,050	257,967	122,947
38,867	-10,050	257,577	122,750
39,882	-9,981	257,377	122,705
40,896	-9,812	257,039	122,682
41,911	-9,812	256,843	122,577
42,926	-10,033	256,634	122,272
43,940	-9,928	256,384	122,235
44,955	-10,019	256,082	121,999
45,969	-10,110	255,986	121,863
46,984	-10,179	255,774	121,691
47,999	-10,225	255,639	121,575
49,013	-10,203	255,492	121,514
50,028	-10,194	255,049	121,300
51,042	-10,399	254,937	121,057
52,057	-10,291	254,608	120,984
53,071	-10,266	254,510	120,949
54,086	-10,094	254,250	120,964
55,101	-10,182	254,103	120,807
56,115	-10,286	253,948	120,631
57,130	-9,977	253,653	120,750
58,144	-10,089	253,429	120,535
59,159	-9,902	253,247	120,600
60,174	-10,056	253,030	120,352
61,188	-10,134	252,683	120,109
62,203	-9,957	252,618	120,220
63,217	-10,073	252,373	119,993
64,232	-10,037	252,177	119,920
65,247	-10,306	251,824	119,510
66,261	-10,080	251,687	119,628
67,276	-10,105	251,448	119,483
68,290	-10,070	251,157	119,364
69,305	-10,359	251,110	119,083
70,320	-10,337	250,945	119,012
71,334	-10,128	250,728	119,079
72,349	-10,086	250,499	118,995
73,363	-10,080	250,291	118,891
74,378	-10,129	250,033	118,716
75,393	-10,037	249,791	118,669
76,407	-10,178	249,789	118,537
77,422	-10,299	249,684	118,373
78,436	-9,862	249,191	118,501
79,451	-10,176	249,039	118,151
80,466	-10,036	248,704	118,101
81,480	-10,160	248,643	117,956
82,495	-10,155	248,468	117,866
83,509	-10,072	248,168	117,784
84,524	-10,156	248,031	117,637
85,539	-10,337	247,915	117,418
86,553	-10,129	247,651	117,459
87,568	-10,084	247,495	117,413
88,582	-10,353	247,252	117,060
89,597	-10,384	247,090	116,946
90,611	-10,233	246,793	116,923
91,626	-10,137	246,919	117,053
92,641	-10,064	246,537	116,923
93,655	-10,182	246,280	116,691
94,670	-10,202	246,048	116,553
95,684	-10,186	246,006	116,537
96,699	-10,307	245,749	116,303
97,714	-10,292	245,592	116,231
98,728	-10,149	245,377	116,239
99,743	-10,121	245,257	116,195
100,757	-10,106	244,990	116,071
101,772	-10,030	244,814	116,041
102,787	-10,404	244,620	115,626
103,801	-10,300	244,440	115,617
104,816	-10,152	244,206	115,620
105,830	-10,138	244,069	115,556
106,845	-10,117	243,867	115,468
107,860	-10,276	243,652	115,223
108,874	-10,326	243,499	115,099
109,889	-10,274	243,241	115,011
110,903	-10,282	243,007	114,882
111,918	-10,330	242,958	114,810
112,933	-10,352	242,762	114,688
113,947	-10,225	242,519	114,669
114,962	-10,065	242,367	114,719
115,976	-10,301	242,212	114,440
116,991	-10,173	242,122	114,493
118,006	-10,270	241,904	114,300
119,020	-10,229	241,699	114,227
120,035	-9,924	241,552	114,398
121,049	-9,977	241,442	114,292
122,064	-10,177	241,198	114,002
123,079	-10,313	240,995	113,784
124,093	-10,156	240,667	113,748
125,108	-10,274	240,817	113,712
126,122	-10,283	240,463	113,527
127,137	-10,317	240,313	113,418
128,151	-10,173	240,098	113,425
129,166	-10,152	239,833	113,307
130,181	-10,367	239,619	113,019
131,195	-10,128	239,406	113,104
132,210	-10,190	239,308	112,997
133,224	-10,403	239,182	112,754
134,239	-10,314	239,058	112,758
135,254	-10,396	238,733	112,527
136,268	-10,252	238,531	112,540
137,283	-10,251	238,386	112,462
138,297	-10,372	238,218	112,274
139,312	-10,348	238,017	112,190
140,327	-10,332	237,973	112,172
141,341	-10,048	237,740	112,281
142,356	-10,239	237,762	112,127
143,370	-10,224	237,565	112,037
144,385	-10,118	237,294	111,984
145,400	-9,842	237,047	112,080
146,414	-9,925	237,016	111,989
147,429	-9,944	236,722	111,825
148,443	-10,133	236,606	111,608
149,458	-9,963	236,427	111,650
150,473	-10,202	236,155	111,319
151,487	-10,194	235,979	111,234
152,502	-10,318	235,980	111,124
153,516	-9,755	235,694	111,431
154,531	-10,064	235,501	111,083
155,546	-10,046	235,365	111,023
156,560	-9,894	235,136	111,027
157,575	-10,258	234,885	110,607
158,589	-10,095	234,822	110,698
159,604	-9,922	234,607	110,724
160,619	-9,721	234,490	110,820
161,633	-9,637	234,341	110,806
162,648	-9,970	234,189	110,460
163,662	-10,165	234,033	110,222
164,677	-10,192	233,801	110,081
165,692	-9,944	233,720	110,229
166,706	-9,993	233,820	110,228
167,721	-9,988	233,407	110,028
168,735	-9,937	233,339	110,026
169,750	-10,067	233,148	109,823
170,764	-10,010	232,922	109,752
171,779	-10,061	232,888	109,685
172,794	-9,908	232,700	109,708
173,808	-10,277	232,408	109,269
174,823	-10,232	232,200	109,198
175,837	-10,131	232,101	109,221
176,852	-10,314	231,889	108,967
177,867	-10,282	231,739	108,913
178,881	-10,025	231,684	109,079
179,896	-10,009	231,498	108,994
180,910	-10,026	231,296	108,876
181,925	-10,059	231,069	108,734
182,940	-9,817	230,879	108,824
183,954	-10,081	230,842	108,590
184,969	-9,693	230,744	108,838
185,983	-9,800	230,710	108,728
186,998	-10,004	230,508	108,464
188,013	-10,064	230,219	108,272
189,027	-9,832	230,131	108,402
190,042	-10,038	230,001	108,170
191,056	-9,827	229,684	108,175
192,071	-10,130	229,486	107,837
193,086	-10,217	229,438	107,737
194,100	-10,746	229,013	107,117
195,115	-11,873	228,291	105,898
196,129	-11,446	228,522	106,326
197,144	-7,072	230,011	110,418
198,159	-1,848	231,435	115,178
199,173	0,997	232,142	117,747
200,188	1,802	232,487	118,541
201,202	2,379	232,486	118,982
202,217	3,029	232,306	119,387
203,232	3,193	232,264	119,483
204,246	3,253	232,055	119,412
205,261	3,340	232,008	119,445
206,275	3,426	231,948	119,470
207,290	3,319	231,627	119,211
208,304	3,238	231,622	119,135
209,319	3,154	231,334	118,910
210,334	3,076	231,144	118,742
211,348	2,659	230,759	118,210
212,363	2,475	230,602	117,976
213,377	2,063	230,204	117,443
214,392	1,974	230,167	117,346
215,407	1,809	230,024	117,135
216,421	1,875	229,775	117,048
217,436	1,892	229,556	116,939
218,450	1,624	229,452	116,669
219,465	1,489	229,258	116,456
220,480	1,614	229,100	116,461
221,494	1,632	229,026	116,427
222,509	1,978	228,865	116,601
223,523	2,021	228,822	116,602
224,538	2,023	228,709	116,536
225,553	2,096	228,497	116,473
226,567	1,642	228,368	116,049
227,582	1,750	228,278	116,075
228,596	1,845	228,127	116,061
229,611	1,839	227,808	115,884
230,626	2,169	227,747	116,095
231,640	1,762	227,538	115,667
232,655	1,857	227,434	115,677
233,669	1,870	227,215	115,564
234,684	2,067	227,056	115,624
235,699	1,950	226,987	115,489
236,713	2,021	226,885	115,481
237,728	2,006	226,739	115,385
238,742	2,128	226,515	115,353
239,757	2,108	226,247	115,191
240,772	2,315	226,210	115,320
241,786	2,118	226,197	115,153
242,801	2,222	226,137	115,191
243,815	2,431	225,929	115,233
244,830	2,507	225,730	115,179
245,844	2,245	225,712	114,961
246,859	2,275	225,388	114,808
247,874	2,410	225,154	114,781
248,888	2,159	225,078	114,543
249,903	2,297	224,945	114,569
250,917	2,101	224,915	114,396
251,932	2,430	224,770	114,559
252,947	2,319	224,638	114,399
253,961	2,110	224,440	114,130
254,976	2,113	224,242	114,022
255,990	2,272	224,195	114,107
257,005	2,458	223,950	114,112
258,020	2,157	223,912	113,856
259,034	2,344	223,771	113,914
260,049	2,491	223,711	113,984
261,063	2,432	223,414	113,778
262,078	2,243	223,445	113,643
263,093	2,328	223,154	113,548
264,107	2,292	223,189	113,529
265,122	2,345	222,816	113,368
266,136	2,485	222,665	113,386
267,151	2,251	222,539	113,137
268,166	2,280	222,465	113,111
269,180	2,064	222,215	112,813
270,195	2,177	222,065	112,811
271,209	2,227	221,807	112,707
272,224	2,065	221,873	112,610
273,239	2,106	221,518	112,451
274,253	2,024	221,557	112,400
275,268	2,001	221,307	112,245
276,282	1,813	221,094	111,988
277,297	2,032	221,000	112,093
278,312	2,222	220,805	112,124
279,326	2,160	220,820	112,076
280,341	2,322	220,697	112,123
281,355	2,239	220,468	111,936
282,370	2,161	220,321	111,793
283,384	2,145	220,227	111,724
284,399	2,105	220,024	111,582
285,414	2,300	219,910	111,657
286,428	2,136	219,896	111,520
287,443	2,250	219,789	111,539
288,457	2,304	219,435	111,389
289,472	2,309	219,447	111,389
290,487	1,943	219,157	110,964
291,501	1,981	219,080	110,942
292,516	2,164	218,910	110,981
293,530	2,489	218,835	111,170
294,545	2,420	218,588	110,985
295,560	2,270	218,452	110,796
296,574	2,303	218,362	110,765
297,589	2,426	218,262	110,794
298,603	2,181	218,132	110,539
299,618	2,384	218,121	110,672
300,633	2,365	217,863	110,518
301,647	2,512	217,754	110,559
302,662	2,350	217,710	110,409
303,676	2,556	217,454	110,419
304,691	2,514	217,347	110,324
305,706	2,117	217,261	109,983
306,720	2,370	217,009	110,029
307,735	2,461	216,858	110,008
308,749	2,354	216,800	109,891
309,764	2,492	216,610	109,885
310,779	2,444	216,402	109,735
311,793	2,287	216,420	109,621
312,808	2,259	216,118	109,438
313,822	2,337	216,112	109,481
314,837	2,111	215,983	109,243
315,852	2,226	215,764	109,206
316,866	2,134	215,797	109,147
317,881	2,086	215,498	108,951
318,895	2,138	215,326	108,892
319,910	2,075	215,226	108,787
320,925	2,008	215,010	108,620
321,939	1,960	214,967	108,554
322,954	1,896	214,922	108,476
323,968	2,096	214,658	108,476
324,983	2,194	214,432	108,422
325,997	2,256	214,289	108,384
327,012	2,245	214,148	108,295
328,027	2,159	214,050	108,175
329,041	2,199	213,894	108,115
330,056	2,406	213,830	108,220
331,070	2,169	213,731	107,992
332,085	2,246	213,542	107,942
333,100	2,261	213,435	107,889
334,114	2,167	213,298	107,743
335,129	2,145	213,119	107,627
336,143	2,272	212,879	107,587
337,158	2,529	212,836	107,737
338,173	2,170	212,764	107,437
339,187	2,225	212,669	107,418
340,202	2,025	212,395	107,129
341,216	2,228	212,179	107,153
342,231	2,231	212,083	107,098
343,246	2,466	211,984	107,204
344,260	2,262	211,920	107,018
345,275	2,432	211,749	107,042
346,289	2,389	211,561	106,907
347,304	2,266	211,624	106,843
348,319	2,367	211,411	106,796
349,333	2,255	211,257	106,631
350,348	2,226	211,151	106,547
351,362	2,425	210,959	106,580
352,377	2,699	210,765	106,665
353,392	2,108	210,775	106,246
354,406	2,195	210,559	106,189
355,421	194,263	1341,913	1425,385
356,435	155,094	1479,766	1425,408
