DTS Sentinel unit serial number:	SN410029Multiplexer serial number:	ORYXHardware model number:	OX2-SRSoftware version number:	ORYX F/W v4,00 Oryx Data Collector v3.7.2.0data status	okinstallation	B6 Nyhavnadifferential loss correction	single-endedforward channel	channel 2reverse channel	N/Adate	2023/12/09time	02:05:08forward acquisition time	300,00reverse acquisition time	0,00gamma	499,1914k internal	0,3156k external	0,3156temperature offset calibration	1,0000default loss term (dB/km)	0,3820temperature slope calibration	1,0000multiplexer offset coefficient	1,0000multiplexer slope coefficient	1,0000fibre end	0,00T internal ref (°C)	15,91T ext. ref 1 (°C)	-0,37T ext. ref 2 (°C)	-0,38length (m)	temperature (°C)	Stokes	anti-Stokes-744,400	125,582	0,111	-0,104
-743,385	-175,013	-0,309	-0,006
-742,371	-117,991	0,094	0,012
-741,356	-71,113	-0,361	0,099
-740,342	-200,000	-0,001	0,225
-739,327	-31,863	-0,306	0,126
-738,312	4,704	0,123	0,067
-737,298	-101,914	-0,351	0,062
-736,283	800,000	-0,034	-0,077
-735,269	-3,034	-0,232	-0,119
-734,254	0,280	0,129	0,068
-733,239	-30,951	-0,492	-0,204
-732,225	-75,278	0,162	0,042
-731,210	-200,000	-0,007	0,025
-730,196	800,000	-0,022	0,062
-729,181	333,402	0,088	-0,125
-728,167	800,000	-0,015	-0,045
-727,152	800,000	0,054	-0,117
-726,137	168,574	0,030	0,031
-725,123	175,793	-0,102	-0,109
-724,108	11,614	-0,151	-0,085
-723,094	154,472	0,031	-0,032
-722,079	57,155	0,075	-0,054
-721,064	-200,000	-0,006	-0,098
-720,050	34,590	0,062	-0,040
-719,035	800,000	0,024	-0,063
-718,021	-31,745	-0,147	-0,060
-717,006	800,000	0,037	-0,116
-715,991	106,464	0,063	-0,055
-714,977	750,549	-0,040	-0,079
-713,962	-23,582	0,084	-0,037
-712,948	-143,847	0,078	-0,005
-711,933	2,809	-0,069	0,037
-710,918	98,292	0,082	-0,070
-709,904	-62,042	-0,123	-0,038
-708,889	-115,022	0,055	-0,008
-707,875	204,242	0,027	-0,031
-706,860	250,023	0,073	0,092
-705,845	-200,000	-0,004	0,017
-704,831	138,491	0,071	0,068
-703,816	321,535	0,047	-0,066
-702,802	-12,549	-0,097	-0,047
-701,787	279,662	-0,036	0,047
-700,772	-200,000	0,016	-0,068
-699,758	-174,954	0,029	0,001
-698,743	-34,346	0,024	-0,009
-697,729	-200,000	-0,031	-0,137
-696,714	-67,063	0,092	-0,026
-695,699	-108,877	-0,035	0,005
-694,685	-34,323	0,065	-0,026
-693,670	768,200	0,052	-0,105
-692,656	800,000	0,035	-0,075
-691,641	-74,163	0,037	-0,010
-690,627	165,715	-0,070	0,073
-689,612	-25,468	-0,086	0,037
-688,597	605,624	0,075	-0,138
-687,583	376,498	-0,034	-0,052
-686,568	-200,000	0,017	-0,065
-685,554	-200,000	0,011	-0,131
-684,539	295,872	-0,047	-0,064
-683,524	-200,000	0,001	0,006
-682,510	27,664	-0,062	0,039
-681,495	236,948	-0,115	0,140
-680,481	233,878	-0,045	0,055
-679,466	48,280	0,119	0,082
-678,451	-0,113	-0,024	0,012
-677,437	-99,111	0,033	-0,006
-676,422	-200,000	0,013	-0,102
-675,408	78,667	-0,055	-0,043
-674,393	274,317	-0,021	0,027
-673,378	-200,000	0,027	-0,171
-672,364	309,023	-0,102	-0,140
-671,349	-200,000	0,013	-0,060
-670,335	372,385	0,070	-0,106
-669,320	80,018	0,034	0,027
-668,305	51,713	-0,062	0,043
-667,291	-200,000	-0,008	0,142
-666,276	16,322	-0,118	-0,069
-665,262	-2,903	-0,040	0,021
-664,247	-42,516	-0,080	-0,030
-663,232	113,259	-0,071	-0,064
-662,218	-5,472	0,125	0,063
-661,203	-200,000	-0,005	0,135
-660,189	-200,000	0,022	0,120
-659,174	71,737	-0,087	-0,067
-658,159	-15,071	0,068	0,032
-657,145	-200,000	-0,012	-0,078
-656,130	800,000	0,063	0,166
-655,116	98,964	-0,099	-0,084
-654,101	0,423	0,120	-0,063
-653,086	31,455	0,110	-0,069
-652,072	-163,186	-0,126	0,004
-651,057	-48,841	-0,044	-0,015
-650,043	-3,610	0,054	-0,028
-649,028	91,780	0,092	-0,076
-648,014	199,562	-0,100	-0,113
-646,999	33,278	0,030	-0,019
-645,984	-44,655	-0,067	0,024
-644,970	68,490	-0,112	0,085
-643,955	432,475	-0,041	-0,066
-642,941	58,318	-0,158	-0,114
-641,926	176,974	0,061	0,065
-640,911	136,448	0,136	0,131
-639,897	222,060	-0,035	-0,041
-638,882	318,387	0,044	0,061
-637,868	126,340	0,057	-0,053
-636,853	277,837	-0,105	-0,138
-635,838	800,000	-0,034	-0,094
-634,824	-82,252	-0,103	0,024
-633,809	369,875	-0,053	0,080
-632,795	-200,000	-0,015	-0,101
-631,780	200,141	0,062	-0,070
-630,765	6,001	-0,025	-0,013
-629,751	255,038	-0,076	0,095
-628,736	563,272	-0,035	-0,062
-627,722	329,931	0,010	0,015
-626,707	-59,274	0,090	0,028
-625,692	-200,000	0,008	0,057
-624,678	-13,099	-0,026	0,013
-623,663	186,590	0,053	-0,058
-622,649	-6,289	0,087	-0,044
-621,634	-186,434	0,047	0,000
-620,619	-23,542	-0,024	-0,010
-619,605	-200,000	-0,044	0,181
-618,590	-200,000	-0,019	-0,083
-617,576	-127,551	-0,052	-0,005
-616,561	-102,378	0,081	0,014
-615,546	-63,995	0,014	-0,004
-614,532	-200,000	0,019	-0,109
-613,517	-112,125	-0,058	0,008
-612,503	305,611	0,037	0,051
-611,488	-63,128	0,129	-0,039
-610,474	36,878	0,070	0,045
-609,459	-17,999	-0,154	0,070
-608,444	58,748	-0,048	0,034
-607,430	-200,000	-0,007	-0,068
-606,415	-143,510	-0,021	0,001
-605,401	-200,000	-0,043	0,180
-604,386	37,561	-0,031	0,020
-603,371	627,514	0,011	0,021
-602,357	-35,896	0,050	-0,020
-601,342	67,619	-0,022	-0,016
-600,328	-145,781	-0,096	0,006
-599,313	-71,508	0,066	0,018
-598,298	277,171	0,024	-0,031
-597,284	16,770	-0,069	-0,040
-596,269	-14,181	0,070	0,033
-595,255	-111,137	-0,048	-0,007
-594,240	-160,457	0,088	0,003
-593,225	-76,221	0,036	0,009
-592,211	337,109	-0,025	-0,035
-591,196	-200,000	-0,023	-0,082
-590,182	-78,866	-0,113	-0,028
-589,167	800,000	-0,034	0,071
-588,152	-20,265	-0,131	0,059
-587,138	669,762	-0,053	-0,101
-586,123	800,000	-0,071	-0,179
-585,109	-200,000	0,023	-0,103
-584,094	82,992	0,111	-0,089
-583,079	-200,000	-0,025	0,081
-582,065	-200,000	-0,029	0,113
-581,050	-200,000	0,008	-0,050
-580,036	-61,374	0,049	-0,015
-579,021	800,000	-0,071	-0,145
-578,006	800,000	-0,013	-0,041
-576,992	-62,006	-0,041	-0,013
-575,977	418,086	0,054	-0,085
-574,963	167,009	0,086	-0,090
-573,948	-78,303	-0,041	-0,010
-572,934	259,421	0,092	-0,117
-571,919	-68,902	0,055	-0,016
-570,904	800,000	-0,043	-0,115
-569,890	56,243	-0,080	0,057
-568,875	-200,000	0,007	-0,028
-567,861	800,000	0,056	0,137
-566,846	-200,000	0,019	-0,100
-565,831	-200,000	-0,010	0,078
-564,817	18,775	-0,021	0,012
-563,802	-135,891	-0,050	0,004
-562,788	-16,651	-0,077	-0,035
-561,773	-115,406	0,018	0,002
-560,758	-83,006	-0,056	0,013
-559,744	59,862	0,071	-0,052
-558,729	-200,000	-0,002	0,069
-557,715	-73,642	-0,144	-0,038
-556,700	-100,132	-0,069	0,012
-555,685	-151,826	-0,189	-0,010
-554,671	-164,627	-0,025	0,001
-553,656	230,832	-0,057	0,069
-552,642	343,193	0,097	-0,139
-551,627	21,794	-0,038	-0,022
-550,612	-16,010	-0,019	-0,009
-549,598	-200,000	0,004	-0,091
-548,583	188,064	-0,049	-0,054
-547,569	-131,744	-0,046	0,004
-546,554	37,246	0,125	0,081
-545,539	188,283	-0,051	-0,055
-544,525	-148,501	-0,063	0,004
-543,510	54,359	-0,034	0,024
-542,496	235,502	-0,052	-0,063
-541,481	394,492	-0,035	0,053
-540,466	-83,160	0,088	-0,020
-539,452	40,317	0,080	-0,052
-538,437	-200,000	0,005	-0,029
-537,423	298,157	0,044	0,059
-536,408	19,700	-0,062	-0,036
-535,393	-59,384	-0,278	-0,087
-534,379	101,411	0,099	-0,084
-533,364	-152,996	-0,067	-0,003
-532,350	-200,000	-0,009	-0,090
-531,335	-200,000	-0,030	-0,103
-530,321	-104,273	-0,133	-0,022
-529,306	-200,000	-0,012	-0,087
-528,291	-138,396	-0,130	0,010
-527,277	-200,000	0,041	-0,188
-526,262	604,530	-0,013	0,023
-525,248	89,605	0,031	0,025
-524,233	-200,000	0,023	0,110
-523,218	330,366	-0,075	0,106
-522,204	-200,000	-0,007	-0,063
-521,189	54,873	0,092	-0,065
-520,175	800,000	-0,034	-0,074
-519,160	321,890	0,082	-0,115
-518,145	75,493	-0,033	-0,025
-517,131	-200,000	0,024	0,102
-516,116	-200,000	0,022	0,115
-515,102	-102,123	0,085	-0,015
-514,087	14,597	-0,022	0,013
-513,072	800,000	-0,058	0,132
-512,058	-74,827	0,045	-0,012
-511,043	-200,000	0,009	0,059
-510,029	-200,000	-0,014	0,082
-509,014	282,670	0,049	0,065
-507,999	127,364	0,027	-0,025
-506,985	-200,000	0,015	0,132
-505,970	-39,071	0,086	-0,033
-504,956	312,600	0,040	-0,055
-503,941	-31,444	0,029	-0,012
-502,926	246,920	-0,027	0,034
-501,912	-200,000	0,001	-0,012
-500,897	110,977	-0,133	-0,117
-499,883	-101,537	-0,070	-0,012
-498,868	325,685	-0,077	0,108
-497,853	20,924	0,070	0,041
-496,839	-27,779	0,026	-0,011
-495,824	-2,116	0,101	-0,052
-494,810	800,000	-0,046	0,143
-493,795	-200,000	0,029	0,114
-492,781	395,570	0,074	-0,113
-491,766	-200,000	0,004	-0,085
-490,751	-111,137	-0,122	-0,018
-489,737	-57,255	0,071	0,023
-488,722	-200,000	-0,032	0,176
-487,708	212,958	0,062	0,071
-486,693	-96,092	0,158	0,030
-485,678	93,493	-0,089	0,073
-484,664	-200,000	-0,001	-0,203
-483,649	-52,269	-0,053	-0,018
-482,635	800,000	0,059	-0,149
-481,620	-134,650	0,152	-0,013
-480,605	67,700	0,045	0,034
-479,591	-160,931	0,056	0,002
-478,576	-135,701	-0,132	0,011
-477,562	11,874	-0,106	0,059
-476,547	112,344	-0,076	-0,067
-475,532	642,098	0,029	0,054
-474,518	-66,691	-0,105	0,030
-473,503	332,200	0,070	0,099
-472,489	-164,096	-0,093	0,003
-471,474	373,241	0,062	0,092
-470,459	594,271	0,023	-0,042
-469,445	-79,381	-0,159	-0,039
-468,430	-96,006	0,029	-0,006
-467,416	-200,000	0,008	0,110
-466,401	-200,000	-0,010	-0,157
-465,386	-200,000	0,031	-0,127
-464,372	-118,086	-0,094	-0,012
-463,357	129,484	-0,012	-0,011
-462,343	-200,000	-0,036	-0,134
-461,328	796,043	0,016	-0,032
-460,313	79,414	-0,062	-0,049
-459,299	-29,438	0,124	-0,051
-458,284	800,000	-0,021	-0,054
-457,270	-200,000	0,022	-0,101
-456,255	150,719	-0,032	0,032
-455,241	12,339	-0,053	0,030
-454,226	-200,000	-0,020	0,134
-453,211	-108,845	0,114	0,018
-452,197	-200,000	-0,011	0,075
-451,182	46,389	-0,044	-0,030
-450,168	-200,000	-0,023	0,226
-449,153	154,026	0,097	-0,097
-448,138	-78,996	-0,050	0,012
-447,124	-200,000	0,005	0,050
-446,109	11,507	-0,017	0,009
-445,095	-143,783	0,094	0,006
-444,080	-47,618	0,061	-0,021
-443,065	800,000	0,029	-0,071
-442,051	-48,405	-0,037	0,013
-441,036	-113,987	-0,124	0,017
-440,022	32,346	-0,031	0,020
-439,007	211,272	0,071	-0,082
-437,992	-0,523	-0,031	0,016
-436,978	-31,276	0,048	0,020
-435,963	254,577	-0,052	0,065
-434,949	15,145	0,040	0,023
-433,934	-200,000	-0,009	0,091
-432,919	800,000	-0,011	-0,031
-431,905	32,889	-0,100	0,063
-430,890	737,701	-0,083	0,163
-429,876	-200,000	0,012	0,053
-428,861	-72,452	0,116	-0,031
-427,846	-200,000	0,014	-0,105
-426,832	-158,032	-0,124	0,005
-425,817	-142,831	-0,118	0,008
-424,803	738,105	-0,041	0,081
-423,788	-5,569	0,117	0,058
-422,773	-200,000	-0,010	0,140
-421,759	620,359	0,024	0,045
-420,744	-31,247	0,143	-0,058
-419,730	-48,145	0,021	-0,007
-418,715	-129,954	-0,164	0,016
-417,701	62,614	0,086	0,063
-416,686	800,000	0,055	0,133
-415,671	-36,609	-0,096	-0,038
-414,657	18,781	-0,075	0,043
-413,642	-200,000	0,013	0,055
-412,628	63,742	-0,093	0,068
-411,613	88,365	-0,104	-0,084
-410,598	-130,873	-0,133	0,013
-409,584	-200,000	0,018	0,100
-408,569	800,000	0,007	-0,016
-407,555	793,297	0,034	0,068
-406,540	-200,000	-0,042	0,148
-405,525	393,474	-0,041	0,062
-404,511	-171,034	-0,180	0,004
-403,496	-200,000	-0,016	0,057
-402,482	61,037	0,083	-0,060
-401,467	-200,000	0,023	-0,089
-400,452	264,676	0,035	0,044
-399,438	-92,863	-0,098	0,020
-398,423	48,346	0,052	0,035
-397,409	800,000	0,043	-0,111
-396,394	81,884	-0,138	-0,108
-395,379	-200,000	0,050	0,227
-394,365	216,621	0,077	0,089
-393,350	-200,000	0,005	-0,081
-392,336	-200,000	0,008	0,075
-391,321	20,271	0,063	0,037
-390,306	800,000	0,019	-0,056
-389,292	-200,000	-0,012	-0,066
-388,277	-112,284	-0,140	0,020
-387,263	-200,000	0,017	0,091
-386,248	-200,000	0,060	0,225
-385,233	-122,350	0,074	-0,009
-384,219	260,151	-0,060	-0,076
-383,204	161,056	-0,022	0,023
-382,190	9,781	-0,039	-0,021
-381,175	83,045	-0,093	-0,073
-380,160	107,215	0,023	-0,020
-379,146	-136,539	0,130	0,011
-378,131	-23,868	0,105	0,045
-377,117	-121,848	-0,165	0,020
-376,102	-200,000	0,023	0,080
-375,088	80,874	-0,034	0,026
-374,073	445,934	0,014	0,022
-373,058	194,120	-0,079	-0,088
-372,044	282,309	0,033	0,043
-371,029	-22,696	0,126	-0,055
-370,015	-148,073	-0,075	0,004
-369,000	125,402	0,028	0,026
-367,985	56,210	0,108	-0,076
-366,971	800,000	0,052	-0,107
-365,956	-104,177	0,108	-0,018
-364,942	790,969	0,029	0,059
-363,927	-200,000	-0,007	0,030
-362,912	800,000	0,024	-0,062
-361,898	33,229	-0,051	-0,032
-360,883	-103,532	0,054	0,009
-359,869	-200,000	-0,014	-0,177
-358,854	400,111	0,055	0,084
-357,839	-110,920	0,074	-0,011
-356,825	294,837	0,084	0,112
-355,810	800,000	-0,027	-0,076
-354,796	-200,000	-0,023	-0,116
-353,781	708,314	-0,041	0,079
-352,766	-200,000	-0,008	0,146
-351,752	557,804	-0,043	0,076
-350,737	-140,098	0,095	-0,007
-349,723	-114,184	0,175	0,024
-348,708	-157,913	0,129	0,005
-347,693	-75,132	0,055	0,014
-346,679	311,324	-0,056	-0,076
-345,664	51,938	-0,115	-0,079
-344,650	-98,461	0,133	-0,025
-343,635	-22,348	0,102	-0,045
-342,620	800,000	0,069	-0,177
-341,606	22,088	0,102	-0,060
-340,591	-3,336	-0,083	-0,042
-339,577	228,011	0,073	-0,086
-338,562	-200,000	-0,017	-0,060
-337,548	-200,000	-0,000	-0,076
-336,533	237,838	-0,084	-0,101
-335,518	-30,718	0,029	-0,012
-334,504	-5,670	-0,079	0,039
-333,489	214,938	0,039	0,045
-332,475	800,000	0,031	0,069
-331,460	190,644	-0,078	-0,085
-330,445	-2,005	-0,008	-0,004
-329,431	-152,553	0,141	-0,007
-328,416	-200,000	-0,004	-0,066
-327,402	-200,000	-0,000	-0,035
-326,387	-200,000	-0,007	-0,031
-325,372	218,215	-0,018	0,021
-324,358	800,000	-0,037	-0,085
-323,343	18,895	0,032	0,018
-322,329	-200,000	-0,032	-0,117
-321,314	-200,000	-0,010	-0,148
-320,299	-108,414	0,148	0,023
-319,285	-200,000	0,000	-0,103
-318,270	43,317	-0,066	0,044
-317,256	-200,000	0,000	0,028
-316,241	-99,373	-0,079	-0,014
-315,226	-19,956	0,064	0,029
-314,212	-67,669	0,110	-0,031
-313,197	-200,000	0,008	0,043
-312,183	-200,000	-0,017	0,063
-311,168	-60,872	-0,128	0,039
-310,153	542,274	0,041	-0,072
-309,139	51,542	0,069	0,048
-308,124	-200,000	0,000	-0,139
-307,110	800,000	0,048	0,139
-306,095	-26,090	0,209	0,089
-305,080	29,751	0,094	0,058
-304,066	49,979	-0,024	-0,017
-303,051	170,060	-0,046	0,048
-302,037	-200,000	-0,015	0,065
-301,022	-200,000	0,011	0,065
-300,008	-200,000	-0,014	0,175
-298,993	153,134	0,107	0,107
-297,978	16,335	-0,069	0,039
-296,964	8,586	-0,092	-0,050
-295,949	-144,150	0,012	0,001
-294,935	-200,000	0,012	-0,117
-293,920	311,391	0,087	0,119
-292,905	-109,032	0,067	-0,010
-291,891	638,481	0,025	0,047
-290,876	-200,000	-0,001	0,061
-289,862	-108,065	-0,072	0,011
-288,847	129,607	-0,060	-0,055
-287,832	-115,439	0,038	0,005
-286,818	-200,000	-0,003	-0,018
-285,803	-107,585	0,101	0,016
-284,789	-134,561	0,014	0,001
-283,774	-15,441	0,049	0,023
-282,759	-93,084	0,154	-0,031
-281,745	800,000	0,037	-0,085
-280,730	-16,823	-0,049	-0,023
-279,716	-24,584	0,130	0,056
-278,701	800,000	-0,044	0,140
-277,686	309,582	0,082	0,112
-276,672	391,175	0,108	0,163
-275,657	435,130	-0,055	0,087
-274,643	156,477	-0,044	0,044
-273,628	491,075	0,031	-0,051
-272,613	-30,392	-0,090	0,037
-271,599	177,749	0,033	0,035
-270,584	-119,236	0,113	0,014
-269,570	14,569	-0,126	-0,071
-268,555	-200,000	-0,007	0,051
-267,540	-58,329	-0,059	0,019
-266,526	547,351	-0,077	-0,134
-265,511	154,524	0,078	-0,077
-264,497	-17,597	-0,080	0,036
-263,482	-16,178	0,121	0,055
-262,467	23,641	-0,109	0,065
-261,453	-9,648	0,048	-0,023
-260,438	106,995	-0,127	-0,109
-259,424	86,340	0,060	-0,048
-258,409	800,000	-0,029	0,071
-257,395	75,813	-0,048	-0,037
-256,380	-169,790	0,028	-0,001
-255,365	284,014	-0,031	-0,040
-254,351	383,706	0,037	0,055
-253,336	65,947	-0,191	-0,140
-252,322	-200,000	-0,006	-0,030
-251,307	800,000	0,016	0,037
-250,292	319,260	-0,051	0,070
-249,278	-171,259	0,089	-0,002
-248,263	345,039	0,064	0,091
-247,249	-200,000	-0,031	0,151
-246,234	20,983	-0,037	0,022
-245,219	-200,000	0,004	0,014
-244,205	-10,123	-0,069	-0,033
-243,190	-200,000	-0,016	-0,096
-242,176	-200,000	0,014	0,067
-241,161	-200,000	-0,018	0,145
-240,146	-122,225	-0,080	0,009
-239,132	800,000	0,039	0,092
-238,117	800,000	0,012	0,029
-237,103	-200,000	0,034	-0,119
-236,088	-200,000	0,018	0,150
-235,073	-200,000	0,008	0,046
-234,059	21,359	0,062	0,036
-233,044	800,000	0,030	0,064
-232,030	800,000	0,046	-0,144
-231,015	-200,000	-0,008	-0,115
-230,000	-200,000	-0,001	-0,113
-228,986	26,346	-0,057	0,034
-227,971	800,000	0,037	0,082
-226,957	44,569	-0,026	0,017
-225,942	227,209	0,112	-0,132
-224,927	613,796	-0,039	-0,070
-223,913	-4,030	-0,091	-0,045
-222,898	436,219	0,039	-0,061
-221,884	-200,000	0,002	-0,087
-220,869	-91,990	0,074	0,015
-219,855	-140,893	0,055	0,004
-218,840	499,201	-0,011	-0,018
-217,825	-110,803	0,132	0,019
-216,811	-200,000	0,010	-0,090
-215,796	411,764	0,147	-0,227
-214,782	50,930	0,058	-0,039
-213,767	-115,442	0,113	0,015
-212,752	63,582	-0,026	-0,019
-211,738	78,012	0,115	0,089
-210,723	-125,990	-0,087	-0,009
-209,709	351,834	-0,062	-0,089
-208,694	-200,000	0,026	0,086
-207,679	-11,454	-0,015	0,007
-206,665	78,898	0,045	0,034
-205,650	208,975	0,121	0,137
-204,636	-200,000	0,019	0,086
-203,621	-200,000	-0,025	0,108
-202,606	-200,000	0,000	-0,148
-201,592	25,731	-0,157	-0,094
-200,577	-51,520	0,093	0,031
-199,563	-32,810	-0,117	-0,047
-198,548	78,998	0,071	0,055
-197,533	148,719	0,085	0,083
-196,519	107,625	-0,007	-0,006
-195,504	-200,000	-0,013	-0,132
-194,490	-200,000	-0,024	-0,177
-193,475	-83,309	-0,094	-0,022
-192,460	-72,097	0,066	0,018
-191,446	-200,000	-0,007	0,106
-190,431	125,040	0,127	0,115
-189,417	209,154	0,055	0,062
-188,402	800,000	-0,032	0,092
-187,387	800,000	-0,033	-0,074
-186,373	263,086	-0,077	-0,097
-185,358	16,165	-0,046	-0,026
-184,344	800,000	-0,035	0,103
-183,329	800,000	-0,023	0,050
-182,315	-200,000	-0,049	0,182
-181,300	126,718	-0,142	0,130
-180,285	-87,680	-0,039	-0,008
-179,271	-23,573	-0,172	-0,074
-178,256	286,868	0,093	-0,121
-177,242	767,063	0,042	-0,083
-176,227	-200,000	-0,017	0,060
-175,212	116,472	0,023	0,020
-174,198	472,383	0,132	-0,214
-173,183	19,555	-0,051	-0,030
-172,169	148,928	0,071	0,070
-171,154	-71,163	-0,093	0,025
-170,139	186,430	0,110	0,118
-169,125	-200,000	0,003	0,098
-168,110	-101,468	-0,041	-0,007
-167,096	800,000	0,014	-0,036
-166,081	-5,848	-0,167	-0,082
-165,066	800,000	-0,047	0,099
-164,052	-53,680	0,110	0,036
-163,037	-148,845	0,044	-0,003
-162,023	-76,155	0,078	0,020
-161,008	84,316	0,013	-0,011
-159,993	475,334	0,060	0,099
-158,979	800,000	0,038	-0,081
-157,964	-95,875	-0,052	0,010
-156,950	15,638	-0,068	-0,038
-155,935	-138,324	0,159	-0,012
-154,920	800,000	0,066	-0,144
-153,906	82,857	-0,139	0,109
-152,891	-200,000	-0,008	0,049
-151,877	800,000	0,039	-0,093
-150,862	308,495	-0,041	-0,056
-149,847	47,690	0,074	0,049
-148,833	-200,000	0,015	0,061
-147,818	-200,000	-0,006	0,047
-146,804	-75,286	0,055	0,014
-145,789	719,687	0,081	-0,157
-144,775	-19,068	0,129	-0,058
-143,760	-68,349	-0,174	0,048
-142,745	800,000	-0,054	-0,134
-141,731	-200,000	0,020	-0,078
-140,716	97,141	0,071	0,059
-139,702	800,000	0,027	0,055
-138,687	-200,000	0,031	-0,104
-137,672	625,784	0,054	-0,099
-136,658	114,514	-0,080	-0,070
-135,643	218,748	0,064	-0,074
-134,629	-200,000	0,007	-0,126
-133,614	9,819	0,161	0,088
-132,599	-200,000	0,005	0,192
-131,585	228,579	-0,070	0,082
-130,570	800,000	0,044	-0,101
-129,556	566,876	-0,023	-0,040
-128,541	438,227	0,027	-0,043
-127,526	573,841	0,013	0,023
-126,512	-200,000	-0,006	0,068
-125,497	-168,184	-0,085	-0,002
-124,483	-71,914	-0,072	-0,019
-123,468	-200,000	-0,012	0,042
-122,453	308,039	0,065	-0,088
-121,439	-33,565	-0,033	0,013
-120,424	-117,899	-0,089	0,011
-119,410	371,861	0,039	0,057
-118,395	195,140	0,040	-0,043
-117,380	-111,267	0,125	0,018
-116,366	-200,000	0,014	0,091
-115,351	67,084	-0,131	-0,096
-114,337	-200,000	0,016	-0,119
-113,322	402,689	0,039	0,060
-112,307	-74,340	0,087	0,022
-111,293	59,994	0,116	0,082
-110,278	800,000	0,046	0,134
-109,264	326,786	-0,015	0,020
-108,249	-200,000	0,001	-0,021
-107,234	195,300	0,081	0,089
-106,220	-18,304	0,089	-0,040
-105,205	800,000	0,012	0,035
-104,191	10,356	0,165	0,090
-103,176	160,388	-0,063	0,064
-102,162	42,645	0,039	-0,026
-101,147	-200,000	-0,018	-0,085
-100,132	-41,294	0,049	0,018
-99,118	103,501	0,028	-0,024
-98,103	-200,000	0,010	0,043
-97,089	-200,000	-0,046	-0,181
-96,074	275,750	0,060	0,076
-95,059	463,198	0,063	0,102
-94,045	-78,493	-0,115	-0,028
-93,030	-200,000	-0,029	0,131
-92,016	-48,684	-0,030	-0,010
-91,001	608,586	0,079	0,143
-89,986	-66,881	0,048	-0,014
-88,972	-200,000	0,009	0,047
-87,957	-61,571	-0,084	0,025
-86,943	-26,514	-0,141	0,059
-85,928	-200,000	-0,008	-0,070
-84,913	-19,734	0,054	-0,024
-83,899	-95,404	-0,053	-0,010
-82,884	-200,000	-0,014	0,185
-81,870	-140,609	-0,054	-0,004
-80,855	499,164	0,100	-0,166
-79,840	-97,571	-0,049	-0,009
-78,826	140,553	-0,080	-0,076
-77,811	800,000	-0,005	0,013
-76,797	-34,298	0,165	0,065
-75,782	52,179	-0,117	0,080
-74,767	-131,409	-0,162	0,015
-73,753	554,666	-0,026	0,045
-72,738	-76,952	0,060	-0,015
-71,724	2,447	-0,092	0,048
-70,709	800,000	-0,036	0,081
-69,694	687,214	-0,061	0,115
-68,680	-200,000	-0,016	0,133
-67,665	344,689	0,026	0,037
-66,651	-173,884	-0,049	0,001
-65,636	578,683	-0,024	0,042
-64,622	-8,767	0,016	-0,008
-63,607	-182,596	0,022	-0,000
-62,592	-200,000	0,022	0,126
-61,578	-200,000	-0,004	0,090
-60,563	-19,228	0,130	0,058
-59,549	-200,000	0,032	-0,114
-58,534	22,050	-2,001	-1,169
-57,519	-200,000	-0,208	-1,002
-56,505	-200,000	-1,224	-5,034
-55,490	-0,090	0,838	0,427
-54,476	800,000	5,330	12,460
-53,461	-200,000	17,589	283,476
-52,446	800,000	721,993	2212,689
-51,432	534,627	1635,029	2794,103
-50,417	111,432	1627,411	1408,847
-49,403	74,681	1285,206	969,976
-48,388	32,684	1029,451	637,952
-47,373	20,084	991,593	572,847
-46,359	18,649	979,766	561,276
-45,344	16,222	975,967	551,112
-44,330	16,397	974,280	550,712
-43,315	16,016	972,575	548,479
-42,300	15,921	971,578	547,584
-41,286	15,944	970,510	547,036
-40,271	15,880	969,631	546,309
-39,257	15,980	968,737	546,110
-38,242	16,019	967,641	545,597
-37,227	15,952	966,982	544,984
-36,213	15,953	966,218	544,536
-35,198	15,916	965,268	543,860
-34,184	16,000	964,542	543,702
-33,169	15,900	963,479	542,756
-32,154	15,917	962,619	542,307
-31,140	15,890	961,885	541,784
-30,125	15,957	960,888	541,417
-29,111	15,968	959,943	540,897
-28,096	15,922	959,572	540,520
-27,082	15,983	958,774	540,244
-26,067	15,957	957,935	539,666
-25,052	15,888	957,388	539,117
-24,038	15,942	956,684	538,871
-23,023	15,842	956,189	538,249
-22,009	15,941	955,283	538,035
-20,994	15,956	954,866	537,829
-19,979	15,938	954,228	537,391
-18,965	16,014	953,360	537,124
-17,950	15,922	952,988	536,598
-16,936	15,936	952,203	536,178
-15,921	15,845	951,735	535,604
-14,906	15,849	950,890	535,120
-13,892	15,847	950,260	534,737
-12,877	15,809	949,606	534,227
-11,863	15,747	949,139	533,745
-10,848	15,868	948,415	533,702
-9,833	15,928	947,832	533,543
-8,819	15,915	947,069	533,052
-7,804	15,853	946,714	532,633
-6,790	15,836	946,056	532,189
-5,775	15,879	945,327	531,895
-4,760	15,862	944,844	531,547
-3,746	15,867	944,123	531,137
-2,731	15,709	943,635	530,340
-1,717	15,641	943,020	529,757
-0,702	15,696	942,144	529,419
0,313	15,466	941,647	529,208
1,327	18,841	939,686	538,723
2,342	28,063	793,526	479,333
3,356	24,736	446,951	265,008
4,371	-4,684	295,944	146,021
5,386	-8,699	277,669	133,178
6,400	-10,057	271,889	129,130
7,415	-10,103	269,642	128,009
8,429	-10,076	268,165	127,321
9,444	-10,244	267,280	126,736
10,459	-10,295	266,762	126,432
11,473	-10,284	266,079	126,108
12,488	-10,536	265,588	125,634
13,502	-10,624	264,953	125,243
14,517	-10,619	264,618	125,079
15,531	-10,636	264,388	124,943
16,546	-10,350	263,740	124,884
17,561	-10,534	263,424	124,557
18,575	-10,374	263,123	124,547
19,590	-10,621	262,893	124,206
20,604	-10,440	262,528	124,184
21,619	-10,546	262,064	123,859
22,634	-10,552	261,742	123,690
23,648	-10,629	261,396	123,447
24,663	-10,612	261,191	123,354
25,677	-10,663	260,966	123,191
26,692	-10,582	260,607	123,084
27,707	-10,653	260,440	122,930
28,721	-10,406	260,079	122,969
29,736	-10,572	259,912	122,732
30,750	-10,496	259,670	122,674
31,765	-10,588	259,354	122,431
32,780	-10,770	259,249	122,210
33,794	-10,877	259,107	122,037
34,809	-10,641	258,624	122,008
35,823	-10,723	258,365	121,802
36,838	-10,752	258,184	121,680
37,853	-10,933	257,984	121,416
38,867	-10,923	257,782	121,318
39,882	-10,822	257,436	121,234
40,896	-10,832	257,200	121,103
41,911	-10,878	257,135	121,021
42,926	-10,605	256,633	121,013
43,940	-10,773	256,551	120,817
44,955	-10,906	256,283	120,564
45,969	-10,984	256,229	120,459
46,984	-11,316	255,815	119,964
47,999	-11,416	255,529	119,731
49,013	-11,517	255,263	119,508
50,028	-11,567	254,944	119,305
51,042	-11,780	254,730	119,009
52,057	-12,018	254,539	118,702
53,071	-11,509	254,278	119,012
54,086	-11,582	254,124	118,865
55,101	-11,482	253,974	118,872
56,115	-11,192	253,853	119,056
57,130	-10,874	253,966	119,373
58,144	-10,425	253,677	119,615
59,159	-10,328	253,378	119,547
60,174	-10,601	253,182	119,209
61,188	-10,617	253,002	119,099
62,203	-10,637	252,745	118,950
63,217	-10,625	252,561	118,864
64,232	-10,431	252,363	118,926
65,247	-10,544	252,088	118,690
66,261	-10,429	251,860	118,670
67,276	-10,869	251,605	118,163
68,290	-11,083	251,363	117,855
69,305	-11,118	251,023	117,655
70,320	-11,182	250,685	117,431
71,334	-10,824	250,845	117,802
72,349	-10,416	250,674	118,059
73,363	-10,583	250,523	117,835
74,378	-10,737	250,546	117,704
75,393	-10,703	250,039	117,484
76,407	-10,592	249,721	117,419
77,422	-10,836	249,688	117,185
78,436	-10,776	249,323	117,054
79,451	-10,671	249,191	117,071
80,466	-10,992	249,031	116,713
81,480	-11,006	248,867	116,614
82,495	-11,123	248,645	116,401
83,509	-10,943	248,372	116,414
84,524	-11,026	248,279	116,291
85,539	-11,212	247,796	115,897
86,553	-11,191	247,776	115,896
87,568	-11,169	247,608	115,825
88,582	-10,953	247,240	115,824
89,597	-11,137	247,252	115,665
90,611	-10,798	247,124	115,880
91,626	-10,807	246,940	115,775
92,641	-10,711	246,723	115,744
93,655	-10,777	246,515	115,580
94,670	-10,806	246,273	115,433
95,684	-10,810	246,129	115,352
96,699	-10,925	245,754	115,069
97,714	-11,070	245,724	114,923
98,728	-11,189	245,475	114,698
99,743	-11,387	245,278	114,430
100,757	-11,148	244,941	114,462
101,772	-11,461	244,973	114,206
102,787	-11,021	244,605	114,391
103,801	-10,933	244,593	114,447
104,816	-10,778	244,233	114,398
105,830	-10,684	244,321	114,506
106,845	-10,675	244,194	114,444
107,860	-10,727	243,873	114,241
108,874	-10,752	243,686	114,123
109,889	-10,872	243,468	113,910
110,903	-10,847	243,109	113,753
111,918	-10,964	243,047	113,618
112,933	-11,010	243,035	113,564
113,947	-10,587	242,666	113,730
114,962	-10,696	242,389	113,500
115,976	-10,739	242,400	113,460
116,991	-10,758	242,249	113,363
118,006	-10,848	242,137	113,226
119,020	-10,789	241,942	113,174
120,035	-10,828	241,855	113,091
121,049	-10,613	241,615	113,145
122,064	-10,582	241,357	113,039
123,079	-10,763	241,192	112,804
124,093	-10,931	241,028	112,580
125,108	-11,170	240,796	112,266
126,122	-11,300	240,389	111,961
127,137	-11,395	240,211	111,791
128,151	-11,400	240,288	111,812
129,166	-11,055	239,969	111,935
130,181	-11,045	239,681	111,798
131,195	-11,155	239,544	111,635
132,210	-11,122	239,349	111,561
133,224	-10,802	239,119	111,703
134,239	-10,800	239,137	111,703
135,254	-10,789	239,068	111,670
136,268	-11,118	238,728	111,235
137,283	-11,560	238,563	110,791
138,297	-11,319	238,270	110,839
139,312	-11,243	238,169	110,845
140,327	-10,942	238,032	111,013
141,341	-10,664	237,996	111,210
142,356	-10,346	237,932	111,426
143,370	-10,455	237,820	111,277
144,385	-10,475	237,516	111,108
145,400	-10,392	237,340	111,082
146,414	-10,229	237,155	111,117
147,429	-10,380	237,021	110,924
148,443	-10,407	236,878	110,825
149,458	-10,413	236,712	110,732
150,473	-10,567	236,477	110,489
151,487	-10,700	236,273	110,278
152,502	-10,695	236,208	110,242
153,516	-10,340	236,066	110,450
154,531	-10,531	235,887	110,203
155,546	-10,504	235,638	110,098
156,560	-10,619	235,557	109,960
157,575	-10,728	235,228	109,710
158,589	-10,630	234,993	109,668
159,604	-10,372	234,828	109,786
160,619	-10,334	235,023	109,898
161,633	-10,421	234,752	109,691
162,648	-10,166	234,623	109,824
163,662	-10,527	234,496	109,469
164,677	-10,420	234,189	109,400
165,692	-10,470	234,006	109,265
166,706	-10,437	233,989	109,274
167,721	-10,331	233,809	109,264
168,735	-10,325	233,775	109,243
169,750	-10,316	233,476	109,101
170,764	-10,396	233,370	108,978
171,779	-10,311	233,230	108,970
172,794	-10,154	233,042	108,996
173,808	-10,505	232,833	108,612
174,823	-11,037	232,282	107,929
175,837	-11,305	232,305	107,720
176,852	-10,907	232,238	107,991
177,867	-10,451	232,266	108,352
178,881	-10,618	232,193	108,177
179,896	-10,473	231,823	108,109
180,910	-10,250	231,875	108,297
181,925	-10,358	231,746	108,143
182,940	-10,223	231,450	108,101
183,954	-10,123	231,263	108,082
184,969	-10,298	231,228	107,920
185,983	-10,096	230,984	107,953
186,998	-10,098	230,927	107,915
188,013	-10,174	230,688	107,735
189,027	-10,018	230,435	107,729
190,042	-10,209	230,346	107,529
191,056	-9,950	230,225	107,664
192,071	-10,375	230,105	107,269
193,086	-10,378	229,979	107,197
194,100	-10,098	229,858	107,348
195,115	-10,284	229,475	107,017
196,129	-10,169	229,620	107,163
197,144	-5,239	231,174	111,714
198,159	0,013	232,630	116,507
199,173	2,923	233,463	119,188
200,188	3,459	233,475	119,602
201,202	3,427	233,419	119,538
202,217	3,631	233,213	119,581
203,232	3,696	233,182	119,605
204,246	4,115	232,960	119,806
205,261	4,066	232,772	119,661
206,275	3,842	232,703	119,441
207,290	4,040	232,512	119,485
208,304	3,951	232,537	119,419
209,319	4,253	232,094	119,414
210,334	4,175	232,065	119,329
211,348	3,850	231,821	118,941
212,363	3,528	231,485	118,509
213,377	3,324	231,429	118,312
214,392	3,192	231,242	118,104
215,407	3,427	231,020	118,161
216,421	3,717	230,873	118,299
217,436	3,199	230,794	117,849
218,450	3,033	230,526	117,574
219,465	2,936	230,418	117,434
220,480	3,116	230,286	117,494
221,494	3,140	230,192	117,454
222,509	3,346	230,018	117,513
223,523	3,379	229,807	117,420
224,538	3,331	229,599	117,266
225,553	3,462	229,472	117,292
226,567	3,165	229,471	117,053
227,582	3,321	229,424	117,138
228,596	3,652	229,336	117,336
229,611	3,474	229,061	117,049
230,626	3,131	228,723	116,604
231,640	3,202	228,674	116,623
232,655	3,628	228,605	116,902
233,669	3,718	228,555	116,934
234,684	3,909	228,409	116,995
235,699	3,689	228,241	116,731
236,713	3,533	228,005	116,481
237,728	3,197	227,751	116,087
238,742	3,140	227,650	115,981
239,757	3,347	227,372	115,986
240,772	3,362	227,174	115,886
241,786	3,067	227,106	115,618
242,801	3,362	227,155	115,855
243,815	3,716	226,944	116,005
244,830	3,793	226,791	115,975
245,844	3,414	226,628	115,595
246,859	3,288	226,566	115,458
247,874	3,657	226,445	115,665
248,888	3,539	226,213	115,447
249,903	3,570	225,949	115,325
250,917	3,395	225,930	115,174
251,932	3,397	225,696	115,046
252,947	3,372	225,503	114,918
253,961	3,252	225,265	114,696
254,976	3,097	225,397	114,637
255,990	3,427	225,085	114,716
257,005	3,511	225,210	114,832
258,020	3,861	224,769	114,858
259,034	3,880	224,785	114,871
260,049	3,577	224,619	114,549
261,063	3,747	224,367	114,537
262,078	3,741	224,356	114,517
263,093	3,837	224,226	114,511
264,107	3,731	224,004	114,310
265,122	3,724	223,940	114,261
266,136	3,816	223,787	114,242
267,151	3,650	223,852	114,141
268,166	3,455	223,283	113,696
269,180	3,273	223,231	113,525
270,195	3,067	223,228	113,360
271,209	3,163	222,894	113,251
272,224	3,265	222,872	113,306
273,239	3,343	222,742	113,288
274,253	3,099	222,473	112,960
275,268	3,018	222,386	112,846
276,282	2,847	222,214	112,622
277,297	3,054	221,955	112,633
278,312	3,162	221,960	112,706
279,326	3,244	221,831	112,690
280,341	3,281	221,781	112,682
281,355	3,452	221,624	112,718
282,370	3,293	221,454	112,505
283,384	3,218	221,242	112,332
284,399	2,958	221,019	112,018
285,414	3,076	220,805	111,986
286,428	3,154	220,880	112,071
287,443	3,366	220,844	112,198
288,457	3,410	220,684	112,139
289,472	3,405	220,299	111,930
290,487	2,999	220,032	111,488
291,501	2,798	219,929	111,279
292,516	3,041	219,888	111,426
293,530	3,120	219,837	111,448
294,545	2,867	219,691	111,179
295,560	3,128	219,594	111,310
296,574	3,313	219,396	111,335
297,589	3,402	219,229	111,305
298,603	3,280	219,194	111,188
299,618	3,370	219,080	111,186
300,633	3,242	218,987	111,036
301,647	3,409	218,917	111,112
302,662	3,679	218,665	111,169
303,676	3,499	218,433	110,911
304,691	3,429	218,439	110,854
305,706	3,481	218,290	110,806
306,720	3,762	218,163	110,935
307,735	3,254	217,870	110,409
308,749	3,008	217,732	110,152
309,764	3,389	217,573	110,336
310,779	3,479	217,494	110,351
311,793	3,523	217,305	110,277
312,808	3,365	217,205	110,103
313,822	3,343	217,081	110,014
314,837	3,233	216,967	109,868
315,852	3,185	216,790	109,734
316,866	3,213	216,637	109,667
317,881	3,331	216,648	109,748
318,895	3,405	216,335	109,631
319,910	3,384	216,055	109,465
320,925	2,881	215,968	109,052
321,939	2,828	215,724	108,882
322,954	3,196	215,923	109,235
323,968	3,832	215,749	109,591
324,983	3,604	215,583	109,335
325,997	3,382	215,534	109,141
327,012	3,735	215,319	109,274
328,027	3,234	215,267	108,882
329,041	3,575	215,259	109,111
330,056	3,878	214,906	109,137
331,070	3,398	214,742	108,703
332,085	3,302	214,569	108,538
333,100	3,273	214,429	108,437
334,114	3,414	214,277	108,450
335,129	3,580	214,271	108,555
336,143	3,166	214,211	108,222
337,158	3,400	213,946	108,244
338,173	3,617	213,474	108,149
339,187	3,099	213,537	107,805
340,202	3,236	213,452	107,849
341,216	2,996	213,341	107,615
342,231	3,132	213,266	107,663
343,246	3,133	213,102	107,571
344,260	3,086	212,839	107,396
345,275	3,197	212,755	107,422
346,289	3,244	212,872	107,504
347,304	3,411	212,598	107,474
348,319	3,398	212,388	107,348
349,333	3,250	212,296	107,189
350,348	3,240	212,264	107,156
351,362	3,608	212,052	107,297
352,377	3,671	211,956	107,283
353,392	3,422	211,773	107,007
354,406	3,481	211,694	106,998
355,421	196,783	1340,565	1423,262
356,435	157,247	1478,088	1423,249
