DTS Sentinel unit serial number:	SN410029Multiplexer serial number:	ORYXHardware model number:	OX2-SRSoftware version number:	ORYX F/W v4,00 Oryx Data Collector v3.7.2.0data status	okinstallation	B6 Nyhavnadifferential loss correction	single-endedforward channel	channel 2reverse channel	N/Adate	2023/12/09time	21:15:08forward acquisition time	300,00reverse acquisition time	0,00gamma	499,1914k internal	0,3128k external	0,3128temperature offset calibration	1,0000default loss term (dB/km)	0,3820temperature slope calibration	1,0000multiplexer offset coefficient	1,0000multiplexer slope coefficient	1,0000fibre end	0,00T internal ref (°C)	21,51T ext. ref 1 (°C)	5,39T ext. ref 2 (°C)	5,39length (m)	temperature (°C)	Stokes	anti-Stokes-744,400	29,228	0,072	0,045
-743,385	155,877	-0,143	0,147
-742,371	-65,882	0,185	-0,055
-741,356	-36,037	-0,301	0,121
-740,342	21,963	0,114	-0,069
-739,327	72,361	-0,151	-0,117
-738,312	385,291	-0,017	0,026
-737,298	-71,898	-0,283	0,078
-736,283	-99,895	-0,087	-0,016
-735,269	29,385	-0,170	0,107
-734,254	-11,777	0,068	-0,033
-733,239	-128,620	-0,350	-0,036
-732,225	-200,000	0,002	0,059
-731,210	800,000	0,034	-0,096
-730,196	-138,586	-0,019	-0,002
-729,181	255,427	0,006	-0,008
-728,167	-200,000	-0,005	-0,034
-727,152	-21,932	-0,022	-0,010
-726,137	-192,233	-0,027	0,000
-725,123	558,518	0,065	-0,117
-724,108	84,580	-0,134	-0,109
-723,094	61,494	-0,139	0,103
-722,079	84,598	-0,055	0,045
-721,064	-16,986	-0,074	0,035
-720,050	-200,000	0,020	-0,113
-719,035	-200,000	0,025	-0,122
-718,021	-200,000	0,018	-0,149
-717,006	-200,000	-0,002	-0,070
-715,991	17,926	-0,119	-0,070
-714,977	180,429	-0,078	-0,085
-713,962	-80,648	-0,175	-0,043
-712,948	743,998	-0,049	-0,099
-711,933	-200,000	-0,013	-0,108
-710,918	800,000	-0,003	0,010
-709,904	-200,000	-0,004	-0,088
-708,889	-84,359	-0,189	0,044
-707,875	175,281	-0,031	0,033
-706,860	200,495	0,087	-0,099
-705,845	800,000	0,030	-0,093
-704,831	800,000	0,043	0,116
-703,816	-200,000	-0,046	0,191
-702,802	-200,000	0,043	0,165
-701,787	-168,257	-0,137	0,004
-700,772	370,671	-0,067	-0,102
-699,758	428,005	-0,035	0,056
-698,743	115,320	0,067	0,061
-697,729	800,000	0,076	0,160
-696,714	-200,000	-0,017	0,121
-695,699	129,949	0,085	0,081
-694,685	-200,000	0,030	-0,188
-693,670	663,919	0,033	-0,064
-692,656	-88,601	0,126	-0,028
-691,641	288,901	-0,066	-0,089
-690,627	320,582	0,068	0,096
-689,612	-200,000	0,005	0,050
-688,597	-9,650	-0,082	0,040
-687,583	-112,552	-0,101	0,015
-686,568	-200,000	0,044	-0,210
-685,554	768,111	0,034	0,069
-684,539	455,692	-0,057	0,094
-683,524	-68,689	0,045	0,013
-682,510	426,453	-0,059	0,094
-681,495	-195,211	-0,065	-0,000
-680,481	168,016	-0,078	0,082
-679,466	-200,000	0,021	-0,190
-678,451	142,944	-0,076	0,075
-677,437	-200,000	-0,028	0,146
-676,422	-181,825	0,073	0,001
-675,408	-200,000	-0,004	0,084
-674,393	800,000	0,019	0,046
-673,378	-200,000	-0,004	-0,038
-672,364	800,000	0,015	-0,046
-671,349	41,702	-0,094	-0,063
-670,335	-73,473	-0,121	-0,033
-669,320	89,426	0,062	0,051
-668,305	-200,000	0,005	-0,017
-667,291	-163,182	-0,116	0,004
-666,276	-59,557	-0,164	-0,052
-665,262	221,689	-0,073	-0,087
-664,247	-46,434	-0,138	-0,050
-663,232	800,000	0,026	0,072
-662,218	-200,000	-0,022	-0,139
-661,203	800,000	0,021	0,047
-660,189	-87,347	-0,067	-0,015
-659,174	-200,000	-0,010	-0,045
-658,159	203,968	-0,066	-0,076
-657,145	-200,000	-0,005	-0,076
-656,130	320,089	0,028	-0,039
-655,116	784,714	-0,028	0,056
-654,101	289,270	-0,021	0,028
-653,086	-144,485	-0,212	0,014
-652,072	800,000	-0,046	-0,112
-651,057	-84,976	-0,164	0,038
-650,043	84,796	-0,054	0,044
-649,028	121,406	0,041	0,038
-648,014	-200,000	0,013	0,071
-646,999	-59,258	0,042	-0,013
-645,984	800,000	0,015	0,034
-644,970	-73,161	-0,050	0,013
-643,955	7,956	-0,141	0,078
-642,941	746,946	0,049	-0,099
-641,926	270,346	-0,043	-0,056
-640,911	-38,971	0,016	-0,006
-639,897	-93,580	-0,118	-0,024
-638,882	42,115	0,069	0,047
-637,868	6,696	-0,150	-0,082
-636,853	-200,000	-0,013	-0,156
-635,838	-86,526	-0,054	-0,012
-634,824	-40,453	0,049	-0,019
-633,809	-135,474	0,084	0,007
-632,795	-200,000	0,022	0,105
-631,780	-200,000	0,019	0,065
-630,765	-176,432	-0,140	-0,003
-629,751	170,919	0,085	-0,091
-628,736	202,043	-0,119	-0,136
-627,722	-200,000	0,027	-0,145
-626,707	172,242	0,043	-0,046
-625,692	16,771	0,101	-0,059
-624,678	-200,000	-0,012	-0,059
-623,663	-142,730	-0,166	0,012
-622,649	-137,959	-0,119	0,010
-621,634	145,764	-0,078	0,077
-620,619	800,000	-0,014	-0,031
-619,605	800,000	0,040	0,118
-618,590	-14,839	0,072	0,034
-617,576	-200,000	-0,007	0,031
-616,561	128,666	-0,076	-0,071
-615,546	75,159	-0,128	-0,100
-614,532	-77,357	-0,122	0,031
-613,517	54,132	-0,084	0,060
-612,503	109,869	-0,085	-0,075
-611,488	-100,905	0,045	-0,008
-610,474	800,000	0,067	0,174
-609,459	127,958	0,067	0,064
-608,444	1,552	-0,056	0,030
-607,430	-179,397	0,133	-0,002
-606,415	263,468	-0,058	0,075
-605,401	-200,000	-0,023	-0,101
-604,386	285,932	0,038	-0,051
-603,371	19,453	-0,095	-0,056
-602,357	-200,000	-0,026	0,157
-601,342	-102,973	0,054	-0,009
-600,328	351,888	-0,025	-0,036
-599,313	705,871	-0,051	-0,100
-598,298	-200,000	0,003	-0,018
-597,284	-104,403	0,065	0,011
-596,269	390,198	-0,024	0,036
-595,255	208,207	-0,034	0,039
-594,240	191,360	0,067	-0,075
-593,225	331,825	-0,085	-0,122
-592,211	-149,097	-0,122	-0,007
-591,196	-121,931	0,062	-0,007
-590,182	78,710	-0,037	-0,029
-589,167	74,391	0,058	0,045
-588,152	340,112	-0,023	-0,033
-587,138	75,213	0,019	-0,015
-586,123	738,222	0,086	-0,171
-585,109	-108,684	-0,059	-0,009
-584,094	800,000	0,008	0,018
-583,079	-200,000	0,013	0,051
-582,065	-0,367	-0,057	-0,030
-581,050	17,874	-0,108	0,063
-580,036	-96,386	-0,111	0,022
-579,021	-200,000	-0,000	-0,025
-578,006	416,493	-0,119	-0,188
-576,992	-200,000	-0,022	0,085
-575,977	800,000	-0,035	-0,111
-574,963	-200,000	-0,030	-0,097
-573,948	-200,000	0,010	0,111
-572,934	-55,066	0,038	0,013
-571,919	-88,249	-0,203	-0,045
-570,904	81,336	-0,034	0,027
-569,890	-200,000	-0,008	0,115
-568,875	-142,499	-0,064	0,005
-567,861	-67,671	-0,029	0,008
-566,846	-200,000	0,004	0,050
-565,831	-94,885	-0,050	0,010
-564,817	31,198	-0,025	-0,016
-563,802	-200,000	0,006	-0,044
-562,788	65,431	0,019	-0,014
-561,773	-176,550	0,019	-0,000
-560,758	-169,004	0,210	-0,006
-559,744	-62,089	0,138	-0,042
-558,729	-200,000	0,025	-0,123
-557,715	614,655	-0,030	0,056
-556,700	-200,000	0,025	0,086
-555,685	-97,577	-0,053	0,010
-554,671	637,195	0,038	-0,071
-553,656	87,609	-0,038	0,031
-552,642	-131,805	-0,079	-0,008
-551,627	-200,000	-0,017	0,181
-550,612	426,030	0,034	0,054
-549,598	800,000	0,032	-0,104
-548,583	-4,300	0,041	0,021
-547,569	149,079	-0,064	-0,064
-546,554	-200,000	0,045	0,157
-545,539	140,005	0,108	0,105
-544,525	170,041	-0,048	-0,051
-543,510	800,000	0,017	0,049
-542,496	443,656	0,007	-0,012
-541,481	-73,427	-0,093	0,025
-540,466	255,593	-0,036	-0,046
-539,452	15,288	-0,047	0,027
-538,437	-100,774	0,053	-0,010
-537,423	703,976	0,040	0,079
-536,408	49,845	-0,086	0,060
-535,393	40,262	-0,057	-0,038
-534,379	503,759	0,024	0,042
-533,364	444,336	0,033	-0,053
-532,350	-200,000	0,002	-0,060
-531,335	38,678	0,078	0,051
-530,321	-200,000	0,000	0,030
-529,306	631,385	-0,067	0,125
-528,291	116,593	-0,084	-0,076
-527,277	-50,911	-0,084	0,029
-526,262	170,539	-0,085	0,089
-525,248	-200,000	-0,003	0,012
-524,233	367,417	0,107	0,159
-523,218	-200,000	0,000	0,028
-522,204	31,674	0,109	0,069
-521,189	-200,000	-0,005	0,036
-520,175	53,098	-0,115	0,081
-519,160	-141,198	0,196	-0,014
-518,145	-200,000	-0,009	-0,043
-517,131	169,274	0,090	0,095
-516,116	46,864	0,138	0,095
-515,102	126,415	0,120	0,112
-514,087	-200,000	-0,005	-0,049
-513,072	-128,791	-0,160	0,016
-512,058	-61,519	-0,083	0,026
-511,043	81,506	0,114	0,091
-510,029	-200,000	0,012	-0,081
-509,014	-88,291	0,124	-0,027
-507,999	800,000	0,052	0,128
-506,985	-200,000	0,002	0,056
-505,970	-38,888	0,117	-0,045
-504,956	-200,000	-0,010	0,032
-503,941	-82,696	0,089	-0,021
-502,926	800,000	0,050	0,161
-501,912	120,426	0,161	0,147
-500,897	800,000	0,017	0,044
-499,883	-6,360	0,096	0,048
-498,868	96,525	0,105	-0,089
-497,853	-40,238	-0,092	0,035
-496,839	800,000	-0,037	0,111
-495,824	-193,517	0,077	0,000
-494,810	-200,000	0,002	-0,081
-493,795	441,885	-0,033	-0,054
-492,781	-109,835	0,141	0,022
-491,766	-72,291	0,100	0,027
-490,751	287,688	0,030	-0,040
-489,737	-200,000	0,010	-0,075
-488,722	191,866	-0,068	0,075
-487,708	-140,839	-0,185	0,014
-486,693	107,349	0,054	0,047
-485,678	389,488	0,022	-0,033
-484,664	-200,000	0,005	0,057
-483,649	-200,000	-0,009	-0,030
-482,635	297,329	0,068	0,092
-481,620	300,047	-0,038	0,051
-480,605	63,194	0,083	0,061
-479,591	-200,000	0,001	0,044
-478,576	-92,684	-0,105	0,021
-477,562	-200,000	-0,017	-0,066
-476,547	-115,684	0,075	0,010
-475,532	211,759	-0,049	0,057
-474,518	-102,338	-0,015	0,003
-473,503	-200,000	-0,001	0,011
-472,489	-123,125	0,058	0,007
-471,474	390,627	-0,079	-0,120
-470,459	357,091	-0,119	-0,176
-469,445	11,017	0,032	-0,018
-468,430	800,000	0,066	0,154
-467,416	-105,126	0,128	0,021
-466,401	-200,000	0,017	0,062
-465,386	-21,955	0,144	0,064
-464,372	279,159	0,096	-0,126
-463,357	800,000	-0,031	-0,082
-462,343	416,878	-0,056	0,088
-461,328	320,141	-0,070	0,099
-460,313	800,000	-0,030	0,088
-459,299	-200,000	-0,035	0,174
-458,284	-200,000	0,043	-0,152
-457,270	-200,000	0,024	-0,133
-456,255	-40,701	0,115	0,044
-455,241	-136,642	-0,196	0,016
-454,226	-200,000	-0,004	-0,068
-453,211	-157,610	0,171	-0,007
-452,197	461,565	0,044	-0,073
-451,182	63,786	0,096	-0,071
-450,168	184,875	0,011	0,012
-449,153	-200,000	-0,026	0,106
-448,138	800,000	-0,022	-0,052
-447,124	254,747	0,069	-0,087
-446,109	-200,000	0,000	-0,007
-445,095	-43,735	0,051	0,019
-444,080	696,648	0,064	-0,125
-443,065	-107,741	0,040	0,006
-442,051	100,266	0,114	-0,097
-441,036	241,484	0,104	0,127
-440,022	352,935	0,025	0,037
-439,007	379,150	0,032	0,049
-437,992	-75,466	-0,105	0,027
-436,978	-57,965	-0,015	0,005
-435,963	400,912	0,050	-0,077
-434,949	-40,364	-0,119	0,045
-433,934	-200,000	0,036	-0,136
-432,919	-200,000	-0,062	-0,000
-431,905	-67,591	-0,119	-0,034
-430,890	6,155	0,038	-0,020
-429,876	448,756	-0,068	0,111
-428,861	-200,000	-0,016	-0,090
-427,846	-27,796	-0,084	0,036
-426,832	333,691	-0,072	-0,102
-425,817	-18,654	-0,171	-0,078
-424,803	-200,000	0,007	-0,023
-423,788	92,581	-0,131	-0,108
-422,773	266,397	-0,025	-0,033
-421,759	-47,907	-0,092	-0,033
-420,744	800,000	-0,015	-0,033
-419,730	183,147	0,065	0,071
-418,715	371,339	-0,077	-0,115
-417,701	-200,000	-0,004	0,057
-416,686	779,995	0,054	0,108
-415,671	-139,577	0,042	-0,003
-414,657	-200,000	0,009	0,028
-413,642	-200,000	-0,009	0,063
-412,628	535,733	-0,019	-0,033
-411,613	-160,386	-0,115	-0,004
-410,598	294,483	0,084	0,113
-409,584	33,813	0,098	-0,063
-408,569	800,000	-0,007	-0,016
-407,555	484,432	0,022	0,037
-406,540	65,429	0,124	0,092
-405,525	-45,332	0,067	-0,024
-404,511	800,000	0,042	-0,102
-403,496	800,000	0,046	-0,119
-402,482	-126,684	-0,076	-0,008
-401,467	-84,119	0,124	-0,029
-400,452	-89,249	-0,024	-0,005
-399,438	-127,765	0,093	0,010
-398,423	492,494	-0,041	-0,070
-397,409	84,824	-0,088	-0,070
-396,394	-200,000	0,007	0,039
-395,379	240,314	-0,016	-0,019
-394,365	38,524	0,047	0,031
-393,350	-107,441	0,107	0,017
-392,336	-159,289	-0,114	-0,005
-391,321	-55,509	-0,178	0,058
-390,306	-200,000	0,004	-0,170
-389,292	-200,000	-0,011	-0,132
-388,277	-200,000	0,001	-0,008
-387,263	102,758	0,046	-0,040
-386,248	194,016	0,073	0,081
-385,233	-200,000	-0,035	-0,124
-384,219	382,017	-0,027	0,041
-383,204	141,101	0,011	0,010
-382,190	-78,426	0,032	-0,008
-381,175	114,805	-0,051	-0,046
-380,160	-85,313	0,161	-0,037
-379,146	728,703	-0,014	0,027
-378,131	91,384	-0,085	-0,070
-377,117	57,673	-0,102	-0,073
-376,102	-72,420	-0,083	0,022
-375,088	-200,000	0,004	-0,024
-374,073	-200,000	-0,009	0,076
-373,058	-154,433	-0,051	0,002
-372,044	-44,101	0,106	-0,039
-371,029	-116,681	-0,142	0,019
-370,015	-176,531	0,049	0,001
-369,000	-200,000	0,012	-0,156
-367,985	-7,933	-0,179	-0,088
-366,971	-200,000	0,010	-0,110
-365,956	-62,578	0,120	0,036
-364,942	-82,983	0,102	-0,024
-363,927	182,705	0,024	0,026
-362,912	-166,607	0,050	0,001
-361,898	8,410	-0,146	-0,080
-360,883	24,971	-0,082	0,050
-359,869	-24,715	0,061	0,026
-358,854	800,000	0,023	0,056
-357,839	-46,762	0,092	0,033
-356,825	-139,291	-0,125	-0,010
-355,810	-42,781	0,053	-0,020
-354,796	-200,000	-0,022	0,103
-353,781	-24,820	0,029	0,013
-352,766	225,012	-0,027	0,032
-351,752	-92,741	-0,114	0,023
-350,737	-161,082	-0,111	0,004
-349,723	800,000	-0,020	0,049
-348,708	-200,000	-0,009	0,038
-347,693	-200,000	-0,007	-0,135
-346,679	36,471	-0,042	-0,027
-345,664	800,000	-0,049	-0,101
-344,650	9,723	0,066	0,036
-343,635	389,976	0,019	0,029
-342,620	242,129	0,101	0,125
-341,606	451,042	-0,042	0,068
-340,591	-200,000	-0,026	0,092
-339,577	-135,348	-0,122	-0,011
-338,562	-77,224	0,098	0,025
-337,548	294,211	0,140	0,188
-336,533	-200,000	-0,023	-0,094
-335,518	-77,593	-0,065	0,016
-334,504	128,325	0,090	-0,084
-333,489	-26,797	-0,106	0,045
-332,475	8,171	-0,079	-0,044
-331,460	-142,715	-0,061	-0,004
-330,445	131,782	-0,091	0,086
-329,431	139,006	-0,061	0,058
-328,416	-200,000	0,007	0,141
-327,402	800,000	0,029	-0,070
-326,387	-6,522	0,155	-0,077
-325,372	-200,000	-0,005	-0,020
-324,358	116,565	-0,049	0,044
-323,343	48,952	0,084	0,057
-322,329	-200,000	0,020	0,207
-321,314	41,833	-0,045	0,030
-320,299	292,030	0,044	0,059
-319,285	31,051	-0,055	0,034
-318,270	-200,000	0,005	-0,072
-317,256	-200,000	-0,012	-0,095
-316,241	-200,000	0,010	0,104
-315,226	67,564	0,111	0,083
-314,212	116,315	0,056	-0,050
-313,197	131,605	0,023	-0,021
-312,183	26,086	0,108	0,066
-311,168	28,629	-0,020	-0,012
-310,153	353,531	-0,034	-0,050
-309,139	533,732	-0,021	0,037
-308,124	-82,769	0,178	-0,042
-307,110	-200,000	-0,030	0,100
-306,095	-106,269	0,077	-0,013
-305,080	511,554	-0,068	0,116
-304,066	-104,721	0,168	0,028
-303,051	-80,418	-0,068	0,017
-302,037	800,000	0,012	0,035
-301,022	-138,841	-0,038	0,003
-300,008	2,286	-0,036	-0,019
-298,993	-200,000	-0,023	-0,141
-297,978	123,443	0,021	-0,020
-296,964	-200,000	0,015	-0,106
-295,949	81,271	-0,063	-0,049
-294,935	-200,000	-0,028	-0,089
-293,920	28,319	0,094	-0,058
-292,905	95,462	0,042	-0,035
-291,891	-66,775	-0,111	0,032
-290,876	-200,000	-0,003	-0,102
-289,862	773,169	-0,030	0,060
-288,847	19,625	-0,017	-0,010
-287,832	800,000	-0,058	-0,132
-286,818	-158,980	-0,089	-0,004
-285,803	429,646	-0,003	-0,004
-284,789	-119,508	0,089	-0,011
-283,774	-125,927	0,060	0,007
-282,759	29,549	0,048	-0,030
-281,745	-88,857	0,030	-0,006
-280,730	800,000	-0,009	0,020
-279,716	557,318	-0,032	-0,056
-278,701	47,755	-0,102	0,069
-277,686	28,696	-0,035	0,022
-276,672	800,000	-0,051	-0,121
-275,657	-7,612	-0,183	-0,090
-274,643	800,000	-0,038	0,102
-273,628	800,000	-0,023	-0,060
-272,613	133,181	0,045	0,043
-271,599	69,367	-0,068	-0,051
-270,584	161,602	0,143	-0,146
-269,570	-200,000	0,020	-0,094
-268,555	-127,502	0,128	0,013
-267,540	-125,711	-0,044	-0,005
-266,526	-200,000	0,009	-0,038
-265,511	-51,957	0,038	0,013
-264,497	-200,000	-0,013	-0,087
-263,482	100,796	-0,036	-0,030
-262,467	572,790	0,058	0,103
-261,453	71,607	-0,067	0,051
-260,438	83,030	-0,115	-0,091
-259,424	800,000	-0,050	-0,113
-258,409	254,980	-0,048	-0,061
-257,395	-70,755	0,032	0,009
-256,380	-200,000	-0,002	0,029
-255,365	-36,828	0,122	0,047
-254,351	800,000	0,043	0,108
-253,336	97,038	0,099	0,083
-252,322	109,614	0,050	0,043
-251,307	800,000	-0,009	-0,026
-250,292	258,742	-0,073	0,092
-249,278	-21,970	0,138	0,061
-248,263	92,971	0,068	-0,056
-247,249	-200,000	-0,032	-0,109
-246,234	-200,000	-0,013	-0,124
-245,219	-200,000	-0,006	0,154
-244,205	301,202	0,030	0,041
-243,190	503,777	-0,044	-0,075
-242,176	182,415	-0,028	0,030
-241,161	648,079	-0,052	0,097
-240,146	331,738	0,072	-0,102
-239,132	296,721	0,092	0,123
-238,117	-69,875	0,056	0,015
-237,103	314,665	-0,057	-0,078
-236,088	667,854	0,060	-0,114
-235,073	-200,000	0,013	-0,093
-234,059	-57,052	-0,103	0,033
-233,044	-132,988	0,026	0,002
-232,030	66,458	-0,020	0,015
-231,015	509,631	-0,015	-0,026
-230,000	-63,649	-0,045	0,013
-228,986	177,130	0,108	0,115
-227,971	-103,258	-0,080	-0,014
-226,957	238,223	0,026	0,031
-225,942	325,892	-0,061	0,085
-224,927	115,674	-0,057	-0,051
-223,913	242,549	-0,063	0,076
-222,898	-22,369	-0,042	0,019
-221,884	43,265	-0,107	-0,071
-220,869	-17,203	0,101	-0,046
-219,855	800,000	0,064	0,167
-218,840	800,000	0,024	0,052
-217,825	-31,330	-0,113	0,046
-216,811	800,000	-0,069	0,152
-215,796	800,000	-0,044	0,103
-214,782	800,000	0,028	0,074
-213,767	800,000	-0,040	0,103
-212,752	129,400	-0,016	-0,015
-211,738	-113,883	0,128	-0,018
-210,723	94,299	0,025	-0,021
-209,709	-200,000	-0,022	-0,118
-208,694	29,977	-0,035	-0,022
-207,679	4,692	-0,080	-0,043
-206,665	72,004	-0,038	0,029
-205,650	-86,750	0,101	0,022
-204,636	76,053	0,095	0,073
-203,621	-200,000	-0,008	0,179
-202,606	-200,000	-0,015	0,145
-201,592	-171,785	-0,062	0,001
-200,577	106,076	-0,051	0,044
-199,563	800,000	-0,037	-0,079
-198,548	286,254	0,054	0,072
-197,533	364,167	-0,026	0,039
-196,519	-43,246	0,032	-0,012
-195,504	-200,000	-0,042	-0,137
-194,490	800,000	-0,029	-0,064
-193,475	800,000	0,054	-0,145
-192,460	-200,000	0,020	-0,106
-191,446	-26,004	0,152	0,065
-190,431	472,267	-0,049	0,080
-189,417	800,000	0,020	0,054
-188,402	800,000	-0,002	-0,006
-187,387	321,854	0,043	0,060
-186,373	-200,000	0,014	-0,093
-185,358	298,435	0,060	-0,081
-184,344	14,827	-0,030	-0,017
-183,329	280,803	-0,018	-0,024
-182,315	-41,867	0,084	-0,031
-181,300	-97,833	0,097	-0,018
-180,285	590,385	-0,019	-0,034
-179,271	-128,684	0,043	-0,004
-178,256	720,844	-0,108	-0,209
-177,242	695,762	-0,036	0,070
-176,227	800,000	-0,032	0,071
-175,212	-125,995	-0,052	-0,006
-174,198	-92,696	0,068	-0,014
-173,183	800,000	0,029	-0,064
-172,169	167,438	-0,055	-0,057
-171,154	800,000	0,065	-0,202
-170,139	-86,748	-0,140	0,031
-169,125	0,163	0,088	0,045
-168,110	-200,000	-0,003	-0,035
-167,096	68,663	0,077	0,057
-166,081	337,017	-0,021	0,029
-165,066	251,164	-0,044	-0,055
-164,052	97,337	0,111	0,093
-163,037	-178,111	-0,073	0,001
-162,023	-98,316	0,035	-0,006
-161,008	-172,777	0,110	-0,002
-159,993	83,538	0,155	-0,123
-158,979	-105,525	-0,043	-0,007
-157,964	-52,259	-0,105	-0,035
-156,950	-200,000	0,021	0,083
-155,935	65,373	-0,063	0,047
-154,920	-18,108	0,079	-0,036
-153,906	-159,642	0,203	-0,008
-152,891	800,000	-0,074	-0,153
-151,877	800,000	-0,050	-0,115
-150,862	-200,000	-0,002	-0,027
-149,847	247,265	0,069	-0,085
-148,833	-162,263	0,071	0,003
-147,818	-200,000	0,019	0,101
-146,804	511,012	-0,048	-0,082
-145,789	131,206	0,135	-0,126
-144,775	427,595	-0,050	-0,079
-143,760	-200,000	-0,009	0,064
-142,745	56,577	-0,122	0,086
-141,731	800,000	0,026	-0,068
-140,716	-151,694	0,034	0,002
-139,702	-76,652	-0,023	0,006
-138,687	800,000	0,045	-0,128
-137,672	56,357	-0,030	-0,021
-136,658	78,303	0,104	-0,081
-135,643	-200,000	-0,008	0,084
-134,629	-1,863	-0,088	0,045
-133,614	-200,000	0,007	-0,038
-132,599	-200,000	-0,003	-0,036
-131,585	115,000	-0,031	-0,027
-130,570	-200,000	0,001	-0,018
-129,556	450,158	0,023	-0,036
-128,541	-68,405	-0,181	0,051
-127,526	108,835	-0,070	-0,061
-126,512	44,331	-0,088	0,059
-125,497	-200,000	0,001	0,015
-124,483	-200,000	-0,012	0,046
-123,468	-4,054	-0,063	0,032
-122,453	27,226	0,145	-0,088
-121,439	-76,271	-0,091	-0,023
-120,424	-200,000	-0,001	0,057
-119,410	-200,000	0,028	0,122
-118,395	-45,525	0,104	-0,037
-117,380	703,145	-0,038	0,073
-116,366	-200,000	0,025	0,102
-115,351	6,764	-0,072	0,039
-114,337	-52,141	-0,140	-0,047
-113,322	-56,772	0,104	-0,033
-112,307	-140,985	0,118	0,009
-111,293	40,151	0,053	0,034
-110,278	622,393	-0,032	0,058
-109,264	47,573	-0,062	-0,042
-108,249	147,853	-0,087	-0,085
-107,234	800,000	-0,043	-0,108
-106,220	35,429	-0,048	-0,031
-105,205	-200,000	0,003	-0,013
-104,191	800,000	0,029	0,092
-103,176	-13,864	0,085	0,040
-102,162	-200,000	-0,012	-0,179
-101,147	-64,575	0,072	-0,021
-100,132	-168,751	0,058	0,002
-99,118	254,737	-0,045	-0,056
-98,103	800,000	-0,030	-0,060
-97,089	347,688	0,086	-0,123
-96,074	800,000	0,039	-0,082
-95,059	-90,106	0,061	0,013
-94,045	21,906	-0,038	-0,023
-93,030	-69,965	0,096	-0,026
-92,016	571,627	0,021	0,038
-91,001	248,726	-0,079	0,097
-89,986	-200,000	-0,012	0,046
-88,972	-200,000	-0,008	-0,064
-87,957	800,000	0,017	0,035
-86,943	-200,000	0,028	-0,103
-85,928	-3,322	0,066	-0,033
-84,913	-52,820	-0,041	0,014
-83,899	86,508	-0,056	-0,045
-82,884	217,213	0,039	0,045
-81,870	800,000	0,040	0,112
-80,855	-200,000	0,017	0,074
-79,840	212,639	-0,069	-0,079
-78,826	-200,000	-0,076	0,000
-77,811	-97,877	0,070	-0,013
-76,797	-200,000	-0,003	0,073
-75,782	-74,013	-0,018	0,005
-74,767	-30,841	0,117	-0,048
-73,753	-200,000	0,007	0,027
-72,738	-200,000	0,001	-0,048
-71,724	-200,000	0,038	-0,181
-70,709	264,401	-0,054	-0,068
-69,694	800,000	-0,025	-0,054
-68,680	351,816	0,039	-0,056
-67,665	142,719	0,069	-0,066
-66,651	358,917	0,034	-0,049
-65,636	35,228	-0,085	0,054
-64,622	189,501	-0,050	0,054
-63,607	122,702	-0,031	-0,028
-62,592	-200,000	-0,001	-0,072
-61,578	-10,362	0,015	0,007
-60,563	35,397	0,114	0,073
-59,549	800,000	0,033	-0,070
-58,534	-102,864	-1,385	-0,236
-57,519	523,657	-0,767	-1,312
-56,505	-200,000	-0,955	-4,429
-55,490	-93,276	0,654	-0,130
-54,476	800,000	4,890	11,851
-53,461	-200,000	14,267	253,432
-52,446	800,000	696,783	2227,279
-51,432	564,701	1624,719	2863,941
-50,417	116,685	1630,605	1449,263
-49,403	73,197	1284,397	971,972
-48,388	37,453	1022,200	655,296
-47,373	23,541	980,944	583,176
-46,359	22,802	970,396	574,464
-45,344	21,807	965,908	568,541
-44,330	21,696	964,561	567,363
-43,315	21,550	963,117	566,018
-42,300	21,576	962,038	565,445
-41,286	21,563	961,181	564,875
-40,271	21,533	960,174	564,166
-39,257	21,516	959,043	563,424
-38,242	21,518	958,262	562,949
-37,227	21,541	957,425	562,508
-36,213	21,436	956,444	561,570
-35,198	21,484	955,368	561,073
-34,184	21,550	954,980	561,035
-33,169	21,520	954,178	560,446
-32,154	21,586	953,136	560,024
-31,140	21,551	952,255	559,369
-30,125	21,562	951,524	558,953
-29,111	21,553	950,612	558,367
-28,096	21,563	950,081	558,065
-27,082	21,574	949,401	557,678
-26,067	21,519	948,645	557,037
-25,052	21,543	947,777	556,580
-24,038	21,529	947,192	556,170
-23,023	21,531	946,510	555,755
-22,009	21,525	945,937	555,377
-20,994	21,570	945,197	555,065
-19,979	21,555	944,542	554,608
-18,965	21,590	943,967	554,360
-17,950	21,551	943,314	553,831
-16,936	21,544	942,480	553,300
-15,921	21,475	942,012	552,781
-14,906	21,462	941,113	552,191
-13,892	21,460	940,571	551,845
-12,877	21,442	940,146	551,517
-11,863	21,402	939,502	550,989
-10,848	21,440	938,853	550,710
-9,833	21,542	938,569	550,841
-8,819	21,512	937,870	550,316
-7,804	21,463	937,186	549,738
-6,790	21,459	936,594	549,357
-5,775	21,417	936,089	548,905
-4,760	21,493	935,205	548,603
-3,746	21,384	934,742	547,969
-2,731	21,300	933,925	547,201
-1,717	21,188	933,375	546,507
-0,702	21,205	932,714	546,149
0,313	21,071	932,023	546,150
1,327	24,133	930,009	554,527
2,342	33,494	793,756	498,133
3,356	31,171	450,298	279,076
4,371	0,806	294,238	152,028
5,386	-3,560	275,189	138,039
6,400	-4,763	269,424	134,017
7,415	-5,168	267,007	132,431
8,429	-5,091	265,909	131,945
9,444	-5,034	265,013	131,540
10,459	-4,910	264,279	131,277
11,473	-5,272	263,834	130,716
12,488	-5,165	263,270	130,522
13,502	-5,319	262,839	130,156
14,517	-5,275	262,396	129,966
15,531	-5,176	261,900	129,797
16,546	-5,183	261,513	129,588
17,561	-5,243	261,205	129,370
18,575	-5,242	260,879	129,197
19,590	-5,260	260,455	128,960
20,604	-5,169	260,157	128,883
21,619	-5,157	259,834	128,722
22,634	-5,205	259,536	128,520
23,648	-5,420	259,286	128,193
24,663	-5,246	259,055	128,223
25,677	-5,202	258,753	128,100
26,692	-5,245	258,400	127,876
27,707	-5,237	258,157	127,751
28,721	-5,110	258,000	127,775
29,736	-5,317	257,791	127,477
30,750	-5,412	257,474	127,224
31,765	-5,447	257,358	127,125
32,780	-5,412	257,009	126,972
33,794	-5,050	256,659	127,108
34,809	-5,188	256,403	126,848
35,823	-5,340	256,277	126,640
36,838	-5,332	256,006	126,502
37,853	-5,577	255,946	126,245
38,867	-5,284	255,527	126,284
39,882	-5,274	255,212	126,127
40,896	-5,268	255,087	126,059
41,911	-5,399	255,096	125,937
42,926	-5,428	254,629	125,670
43,940	-5,261	254,304	125,644
44,955	-5,583	254,223	125,311
45,969	-5,543	254,040	125,245
46,984	-5,797	253,775	124,882
47,999	-5,752	253,590	124,819
49,013	-5,904	253,216	124,491
50,028	-6,032	253,123	124,324
51,042	-6,122	252,756	124,054
52,057	-6,112	252,560	123,955
53,071	-6,054	252,253	123,844
54,086	-5,998	252,167	123,839
55,101	-5,829	251,971	123,878
56,115	-5,641	251,655	123,874
57,130	-5,144	251,750	124,339
58,144	-5,029	251,600	124,354
59,159	-4,986	251,415	124,288
60,174	-4,973	251,172	124,168
61,188	-5,251	251,009	123,837
62,203	-5,268	250,692	123,655
63,217	-5,254	250,461	123,542
64,232	-5,297	250,403	123,466
65,247	-5,245	250,035	123,317
66,261	-5,332	249,933	123,182
67,276	-5,320	249,568	123,001
68,290	-5,687	249,434	122,610
69,305	-5,777	249,213	122,414
70,320	-5,599	248,933	122,418
71,334	-5,504	248,833	122,438
72,349	-5,180	248,718	122,647
73,363	-4,944	248,408	122,684
74,378	-5,136	248,239	122,426
75,393	-5,228	248,168	122,302
76,407	-5,325	247,987	122,119
77,422	-5,353	247,679	121,933
78,436	-5,201	247,381	121,904
79,451	-5,433	247,190	121,603
80,466	-5,346	246,931	121,538
81,480	-5,368	246,732	121,411
82,495	-5,519	246,619	121,217
83,509	-5,406	246,372	121,180
84,524	-5,451	246,150	121,022
85,539	-5,752	245,998	120,683
86,553	-5,596	245,703	120,659
87,568	-5,691	245,681	120,558
88,582	-5,519	245,512	120,608
89,597	-5,525	245,154	120,416
90,611	-5,492	245,206	120,459
91,626	-5,196	244,848	120,521
92,641	-5,264	244,783	120,421
93,655	-5,197	244,529	120,341
94,670	-5,564	244,446	119,982
95,684	-5,316	244,208	120,062
96,699	-5,420	243,937	119,831
97,714	-5,347	243,775	119,802
98,728	-5,416	243,575	119,636
99,743	-5,492	243,324	119,438
100,757	-5,490	243,124	119,332
101,772	-5,630	242,936	119,112
102,787	-5,856	242,993	118,941
103,801	-5,552	242,688	119,034
104,816	-5,447	242,487	119,012
105,830	-5,340	242,426	119,060
106,845	-5,136	242,398	119,204
107,860	-5,463	242,228	118,840
108,874	-5,214	241,807	118,828
109,889	-5,372	241,607	118,589
110,903	-5,403	241,427	118,465
111,918	-5,459	241,287	118,339
112,933	-5,435	241,117	118,265
113,947	-5,181	240,913	118,363
114,962	-5,270	240,852	118,249
115,976	-5,458	240,624	117,973
116,991	-5,435	240,444	117,892
118,006	-5,393	240,208	117,801
119,020	-5,448	240,246	117,764
120,035	-5,241	240,046	117,825
121,049	-5,245	239,965	117,772
122,064	-5,290	239,724	117,606
123,079	-5,329	239,552	117,480
124,093	-5,501	239,226	117,169
125,108	-5,607	238,917	116,920
126,122	-5,492	238,622	116,859
127,137	-5,655	238,565	116,688
128,151	-5,697	238,507	116,615
129,166	-5,549	238,280	116,615
130,181	-5,629	238,061	116,431
131,195	-5,485	237,786	116,404
132,210	-5,423	237,697	116,400
133,224	-5,262	237,600	116,472
134,239	-5,251	237,352	116,349
135,254	-5,224	237,355	116,362
136,268	-5,464	236,996	115,982
137,283	-5,777	236,867	115,655
138,297	-5,929	236,786	115,484
139,312	-5,690	236,343	115,449
140,327	-5,462	236,516	115,707
141,341	-5,003	236,284	115,953
142,356	-5,010	236,105	115,850
143,370	-4,985	236,031	115,823
144,385	-4,949	235,869	115,761
145,400	-4,943	235,695	115,671
146,414	-5,053	235,486	115,470
147,429	-5,051	235,294	115,367
148,443	-5,372	235,181	115,044
149,458	-5,086	234,851	115,101
150,473	-5,165	234,737	114,971
151,487	-4,978	234,530	115,010
152,502	-4,986	234,433	114,945
153,516	-5,005	234,244	114,827
154,531	-5,126	234,220	114,709
155,546	-4,994	233,844	114,619
156,560	-5,091	233,716	114,470
157,575	-5,287	233,562	114,228
158,589	-5,173	233,531	114,293
159,604	-5,056	233,353	114,288
160,619	-4,987	233,139	114,229
161,633	-5,060	232,975	114,080
162,648	-4,863	232,909	114,194
163,662	-5,077	232,699	113,912
164,677	-4,992	232,292	113,769
165,692	-4,668	232,338	114,037
166,706	-4,916	232,257	113,792
167,721	-4,989	232,213	113,702
168,735	-5,013	231,975	113,557
169,750	-4,996	231,850	113,498
170,764	-5,125	231,697	113,312
171,779	-4,947	231,446	113,319
172,794	-4,881	231,326	113,303
173,808	-5,279	231,198	112,917
174,823	-5,372	230,961	112,718
175,837	-5,529	230,698	112,456
176,852	-5,345	230,594	112,540
177,867	-4,906	230,559	112,856
178,881	-5,154	230,388	112,568
179,896	-4,979	230,253	112,629
180,910	-5,052	230,111	112,493
181,925	-5,024	230,043	112,472
182,940	-4,933	229,827	112,427
183,954	-4,894	229,701	112,386
184,969	-4,757	229,507	112,388
185,983	-4,851	229,460	112,281
186,998	-4,943	229,332	112,137
188,013	-5,030	229,197	111,994
189,027	-4,750	228,818	112,016
190,042	-4,704	228,661	111,964
191,056	-4,824	228,572	111,818
192,071	-4,629	228,505	111,926
193,086	-4,756	228,266	111,701
194,100	-4,831	228,164	111,583
195,115	-5,018	227,782	111,242
196,129	-5,098	227,490	111,027
197,144	-2,366	228,594	113,672
198,159	1,858	229,729	117,508
199,173	3,812	230,165	119,237
200,188	4,040	230,086	119,362
201,202	4,042	229,912	119,263
202,217	4,129	229,850	119,288
203,232	4,412	229,811	119,476
204,246	4,578	229,523	119,443
205,261	4,497	229,418	119,316
206,275	4,376	229,439	119,223
207,290	4,558	229,185	119,221
208,304	4,676	229,189	119,303
209,319	4,542	228,978	119,079
210,334	4,535	228,754	118,947
211,348	4,481	228,297	118,657
212,363	4,026	228,176	118,234
213,377	3,625	228,114	117,883
214,392	3,671	227,869	117,781
215,407	3,826	227,635	117,769
216,421	3,783	227,727	117,773
217,436	3,763	227,402	117,579
218,450	3,485	227,186	117,244
219,465	3,459	227,161	117,200
220,480	3,729	226,998	117,312
221,494	3,624	226,756	117,097
222,509	3,819	226,655	117,183
223,523	3,719	226,567	117,051
224,538	3,635	226,368	116,873
225,553	3,614	226,219	116,771
226,567	3,818	226,107	116,857
227,582	3,924	226,063	116,905
228,596	4,066	225,858	116,896
229,611	3,794	225,652	116,573
230,626	3,341	225,527	116,154
231,640	3,679	225,252	116,258
232,655	3,822	225,243	116,352
233,669	4,280	225,203	116,667
234,684	4,539	225,031	116,763
235,699	3,994	224,954	116,301
236,713	3,759	224,650	115,956
237,728	3,832	224,459	115,902
238,742	3,685	224,199	115,647
239,757	3,547	224,282	115,576
240,772	3,742	224,063	115,599
241,786	3,559	223,856	115,344
242,801	3,870	223,806	115,542
243,815	4,195	223,757	115,751
244,830	4,170	223,579	115,629
245,844	3,923	223,258	115,268
246,859	3,855	223,273	115,214
247,874	3,957	223,138	115,211
248,888	4,189	222,874	115,238
249,903	3,723	222,725	114,802
250,917	3,893	222,613	114,861
251,932	3,940	222,490	114,823
252,947	3,633	222,298	114,484
253,961	3,479	222,169	114,293
254,976	3,799	221,961	114,414
255,990	3,950	221,858	114,463
257,005	3,776	221,866	114,328
258,020	3,903	221,610	114,280
259,034	4,356	221,499	114,549
260,049	4,135	221,407	114,328
261,063	3,786	221,216	113,960
262,078	4,379	221,043	114,299
263,093	4,252	220,953	114,149
264,107	4,058	220,772	113,902
265,122	4,155	220,742	113,948
266,136	4,348	220,641	114,028
267,151	4,124	220,521	113,790
268,166	3,888	220,082	113,380
269,180	3,362	220,005	112,942
270,195	3,692	219,819	113,080
271,209	3,797	219,629	113,049
272,224	3,720	219,552	112,943
273,239	3,853	219,561	113,035
274,253	3,607	219,270	112,695
275,268	3,665	219,022	112,600
276,282	3,611	218,887	112,480
277,297	3,592	218,810	112,417
278,312	3,433	218,660	112,213
279,326	3,612	218,675	112,342
280,341	3,691	218,342	112,219
281,355	3,945	218,317	112,381
282,370	3,786	218,206	112,198
283,384	3,532	217,949	111,870
284,399	3,392	217,766	111,665
285,414	3,665	217,640	111,789
286,428	3,735	217,467	111,741
287,443	3,943	217,564	111,933
288,457	4,050	217,403	111,917
289,472	3,783	217,011	111,512
290,487	3,341	216,845	111,096
291,501	3,501	216,689	111,122
292,516	3,742	216,616	111,250
293,530	3,470	216,522	110,994
294,545	3,683	216,255	111,001
295,560	3,617	216,217	110,924
296,574	3,369	216,371	110,814
297,589	3,695	216,081	110,892
298,603	3,964	215,793	110,927
299,618	3,778	215,917	110,847
300,633	3,910	215,700	110,821
301,647	3,977	215,712	110,865
302,662	3,965	215,500	110,738
303,676	3,982	215,262	110,618
304,691	3,891	215,206	110,514
305,706	4,276	215,028	110,689
306,720	4,246	214,898	110,591
307,735	3,979	214,681	110,278
308,749	3,680	214,535	109,979
309,764	3,753	214,500	110,003
310,779	4,022	214,319	110,093
311,793	3,896	214,167	109,915
312,808	3,867	214,108	109,854
313,822	3,800	213,940	109,711
314,837	3,935	213,658	109,653
315,852	3,761	213,519	109,447
316,866	3,660	213,313	109,261
317,881	3,967	213,264	109,444
318,895	4,066	213,252	109,499
319,910	3,942	213,012	109,278
320,925	3,720	212,815	109,009
321,939	3,254	212,601	108,559
322,954	3,450	212,564	108,669
323,968	3,752	212,489	108,835
324,983	4,006	212,403	108,962
325,997	4,132	212,340	109,009
327,012	3,938	212,019	108,697
328,027	3,847	211,992	108,610
329,041	4,142	211,980	108,802
330,056	4,317	211,853	108,851
331,070	3,956	211,420	108,364
332,085	3,504	211,309	107,979
333,100	3,846	211,147	108,128
334,114	3,882	211,112	108,125
335,129	3,852	210,952	108,013
336,143	3,631	210,833	107,787
337,158	3,691	210,668	107,735
338,173	3,982	210,593	107,891
339,187	3,700	210,406	107,588
340,202	3,506	210,273	107,375
341,216	3,323	210,031	107,114
342,231	3,590	209,984	107,267
343,246	3,341	209,843	107,011
344,260	3,622	209,743	107,147
345,275	3,604	209,688	107,097
346,289	3,716	209,570	107,105
347,304	3,737	209,379	107,013
348,319	3,724	209,222	106,913
349,333	3,527	209,153	106,731
350,348	3,588	209,104	106,739
351,362	3,924	209,052	106,937
352,377	3,952	208,757	106,796
353,392	3,909	208,524	106,637
354,406	3,866	208,525	106,599
355,421	195,333	1343,989	1434,832
356,435	155,921	1482,421	1434,934
