DTS Sentinel unit serial number:	SN410029Multiplexer serial number:	ORYXHardware model number:	OX2-SRSoftware version number:	ORYX F/W v4,00 Oryx Data Collector v3.7.2.0data status	okinstallation	B6 Nyhavnadifferential loss correction	single-endedforward channel	channel 2reverse channel	N/Adate	2023/12/10time	05:15:08forward acquisition time	300,00reverse acquisition time	0,00gamma	499,1914k internal	0,3124k external	0,3124temperature offset calibration	1,0000default loss term (dB/km)	0,3820temperature slope calibration	1,0000multiplexer offset coefficient	1,0000multiplexer slope coefficient	1,0000fibre end	0,00T internal ref (°C)	22,37T ext. ref 1 (°C)	6,43T ext. ref 2 (°C)	6,40length (m)	temperature (°C)	Stokes	anti-Stokes-744,400	535,933	-0,036	-0,064
-743,385	-41,977	-0,114	0,043
-742,371	123,872	0,088	-0,083
-741,356	-63,695	-0,248	0,075
-740,342	-97,815	0,089	-0,017
-739,327	-16,971	-0,166	0,078
-738,312	800,000	-0,068	-0,161
-737,298	-127,959	-0,112	-0,012
-736,283	104,302	-0,044	0,039
-735,269	-47,867	-0,386	0,139
-734,254	800,000	0,087	-0,200
-733,239	-157,025	-0,398	0,018
-732,225	-94,331	0,107	-0,022
-731,210	185,354	0,086	0,095
-730,196	582,754	0,055	-0,100
-729,181	-200,000	0,020	-0,143
-728,167	-190,260	0,075	0,001
-727,152	-200,000	0,007	-0,037
-726,137	-42,454	-0,083	-0,031
-725,123	119,968	0,015	0,014
-724,108	-143,289	-0,170	0,012
-723,094	31,095	-0,156	0,099
-722,079	-200,000	-0,002	-0,218
-721,064	741,233	-0,032	-0,065
-720,050	-200,000	-0,035	-0,116
-719,035	-54,334	-0,093	-0,031
-718,021	800,000	0,055	-0,156
-717,006	-200,000	-0,038	-0,180
-715,991	223,509	-0,139	-0,167
-714,977	800,000	-0,031	-0,103
-713,962	-149,638	-0,113	-0,007
-712,948	-122,310	0,103	-0,012
-711,933	-200,000	0,035	-0,143
-710,918	109,656	-0,040	-0,036
-709,904	-78,101	-0,053	0,014
-708,889	-200,000	0,012	-0,120
-707,875	-200,000	0,001	-0,077
-706,860	334,284	-0,059	0,085
-705,845	719,836	-0,003	0,007
-704,831	-200,000	-0,005	0,180
-703,816	-200,000	-0,002	0,153
-702,802	-200,000	-0,023	-0,199
-701,787	800,000	-0,073	-0,223
-700,772	304,434	-0,073	-0,101
-699,758	-200,000	0,026	-0,126
-698,743	605,359	-0,085	0,158
-697,729	7,886	0,103	-0,057
-696,714	-133,181	0,089	0,008
-695,699	84,597	0,098	-0,079
-694,685	195,389	-0,116	-0,132
-693,670	-40,685	-0,133	-0,051
-692,656	-20,082	-0,084	0,038
-691,641	58,967	-0,032	-0,023
-690,627	34,332	0,085	0,055
-689,612	-46,148	-0,024	0,009
-688,597	-200,000	-0,033	0,172
-687,583	-200,000	-0,040	0,149
-686,568	-200,000	-0,007	0,037
-685,554	19,327	-0,028	-0,017
-684,539	-200,000	0,016	-0,143
-683,524	-200,000	-0,001	-0,031
-682,510	-54,189	0,114	-0,038
-681,495	146,180	0,139	-0,138
-680,481	-60,966	-0,170	-0,053
-679,466	800,000	-0,073	-0,157
-678,451	800,000	-0,059	-0,154
-677,437	-120,433	0,157	-0,020
-676,422	367,186	0,021	-0,032
-675,408	180,254	0,073	-0,079
-674,393	630,298	0,077	-0,146
-673,378	-200,000	-0,020	-0,116
-672,364	197,217	-0,048	-0,054
-671,349	-200,000	-0,156	-0,000
-670,335	-66,283	0,077	-0,022
-669,320	10,194	0,044	0,025
-668,305	-200,000	0,027	-0,185
-667,291	319,602	-0,045	0,063
-666,276	800,000	-0,024	0,067
-665,262	-44,754	-0,123	-0,045
-664,247	4,729	-0,079	0,043
-663,232	800,000	-0,048	-0,142
-662,218	494,377	0,036	-0,062
-661,203	-200,000	0,025	-0,101
-660,189	264,779	-0,025	-0,033
-659,174	-99,455	-0,114	0,021
-658,159	-31,317	-0,086	-0,036
-657,145	800,000	0,057	-0,155
-656,130	-62,324	-0,075	-0,023
-655,116	497,312	-0,023	-0,040
-654,101	6,699	-0,105	0,058
-653,086	459,093	0,057	-0,095
-652,072	-38,371	-0,074	-0,029
-651,057	-2,610	-0,114	-0,059
-650,043	-200,000	0,025	-0,123
-649,028	-46,667	-0,177	0,064
-648,014	-22,177	0,131	-0,059
-646,999	-8,595	0,145	0,072
-645,984	-200,000	-0,007	-0,041
-644,970	-129,017	0,071	-0,007
-643,955	70,378	-0,137	-0,105
-642,941	242,533	-0,093	-0,116
-641,926	800,000	0,025	0,056
-640,911	245,496	-0,050	-0,063
-639,897	208,329	0,048	-0,056
-638,882	19,735	-0,052	-0,031
-637,868	12,288	-0,154	0,088
-636,853	-57,010	-0,114	0,037
-635,838	800,000	-0,098	-0,208
-634,824	54,836	-0,063	-0,045
-633,809	30,287	0,006	0,004
-632,795	754,241	-0,032	-0,065
-631,780	-200,000	-0,009	0,062
-630,765	81,864	-0,045	0,036
-629,751	324,776	-0,044	0,062
-628,736	-200,000	-0,017	0,082
-627,722	-90,855	0,129	-0,027
-626,707	-200,000	-0,029	0,118
-625,692	79,689	-0,043	0,035
-624,678	-200,000	-0,013	0,075
-623,663	-104,366	0,109	-0,018
-622,649	68,123	-0,025	-0,019
-621,634	-127,699	0,153	0,016
-620,619	273,434	0,046	0,061
-619,605	-111,920	0,098	-0,015
-618,590	413,914	-0,055	0,088
-617,576	800,000	0,041	0,127
-616,561	-200,000	-0,008	0,076
-615,546	800,000	-0,037	-0,085
-614,532	211,023	-0,065	-0,076
-613,517	353,846	-0,043	-0,063
-612,503	-25,394	-0,151	-0,066
-611,488	117,149	0,139	-0,127
-610,474	148,938	-0,057	0,057
-609,459	227,399	-0,047	0,057
-608,444	-8,233	-0,079	-0,039
-607,430	-18,981	-0,133	0,061
-606,415	71,573	0,046	0,035
-605,401	223,653	0,064	-0,076
-604,386	-60,679	-0,119	-0,037
-603,371	-13,310	0,004	-0,002
-602,357	-160,202	0,020	-0,001
-601,342	800,000	-0,041	0,106
-600,328	-200,000	-0,006	-0,050
-599,313	73,285	0,042	-0,032
-598,298	-69,677	0,106	-0,030
-597,284	610,027	0,065	-0,121
-596,269	511,945	0,033	0,057
-595,255	297,515	-0,054	0,074
-594,240	145,502	-0,067	-0,066
-593,225	-200,000	0,005	-0,030
-592,211	51,086	0,071	-0,050
-591,196	-39,822	-0,100	-0,039
-590,182	124,868	0,068	0,064
-589,167	286,403	-0,032	-0,043
-588,152	-200,000	0,000	0,061
-587,138	112,994	0,016	0,015
-586,123	-200,000	-0,051	-0,177
-585,109	800,000	-0,042	-0,106
-584,094	278,355	-0,098	-0,130
-583,079	-200,000	0,006	-0,046
-582,065	-57,099	0,081	0,026
-581,050	265,687	-0,019	0,025
-580,036	185,392	0,083	0,092
-579,021	180,769	-0,036	-0,039
-578,006	-21,741	0,099	0,044
-576,992	-132,796	0,085	-0,008
-575,977	-200,000	0,016	-0,122
-574,963	-154,793	0,046	0,002
-573,948	5,649	0,162	-0,088
-572,934	22,679	0,092	0,056
-571,919	-92,070	-0,116	-0,024
-570,904	95,732	-0,061	-0,051
-569,890	227,285	-0,086	-0,104
-568,875	-30,530	0,169	-0,071
-567,861	-80,175	-0,084	0,021
-566,846	-200,000	0,007	0,047
-565,831	800,000	-0,022	0,055
-564,817	170,313	0,114	-0,120
-563,802	358,331	0,069	-0,102
-562,788	357,498	0,025	-0,037
-561,773	447,790	0,128	0,209
-560,758	-200,000	-0,023	0,111
-559,744	-112,090	-0,127	0,019
-558,729	-157,964	0,087	-0,004
-557,715	800,000	0,044	-0,113
-556,700	-200,000	-0,005	-0,091
-555,685	800,000	0,048	-0,119
-554,671	-133,827	0,060	0,005
-553,656	129,163	0,102	-0,096
-552,642	247,831	0,052	-0,065
-551,627	-114,661	-0,047	-0,007
-550,612	361,150	0,020	-0,030
-549,598	-200,000	0,025	-0,134
-548,583	451,019	-0,139	-0,227
-547,569	-5,034	-0,023	0,012
-546,554	215,030	0,010	-0,012
-545,539	-200,000	0,013	-0,135
-544,525	-200,000	-0,114	-0,000
-543,510	14,103	-0,023	-0,013
-542,496	751,355	-0,024	0,049
-541,481	-69,466	-0,061	-0,017
-540,466	800,000	0,017	0,039
-539,452	-200,000	-0,003	-0,063
-538,437	-200,000	0,008	0,033
-537,423	-47,092	-0,190	0,068
-536,408	-200,000	-0,010	0,155
-535,393	-85,589	-0,181	-0,041
-534,379	-200,000	-0,032	-0,169
-533,364	-200,000	-0,015	0,059
-532,350	-200,000	0,013	-0,126
-531,335	708,684	-0,053	0,104
-530,321	-200,000	-0,035	0,133
-529,306	506,890	-0,082	-0,141
-528,291	138,955	-0,036	-0,035
-527,277	-200,000	-0,022	0,106
-526,262	110,940	-0,059	0,052
-525,248	264,174	0,042	-0,054
-524,233	13,368	-0,171	0,098
-523,218	644,125	-0,029	-0,054
-522,204	-200,000	0,022	0,109
-521,189	47,367	-0,132	0,090
-520,175	-112,683	0,063	-0,009
-519,160	800,000	-0,048	0,131
-518,145	63,999	0,038	-0,028
-517,131	-200,000	-0,007	0,075
-516,116	-200,000	-0,015	0,092
-515,102	800,000	0,025	0,083
-514,087	-97,788	-0,207	0,039
-513,072	-25,643	-0,085	-0,037
-512,058	249,996	-0,032	-0,040
-511,043	-57,302	-0,067	-0,022
-510,029	-58,223	-0,114	0,036
-509,014	153,199	0,055	0,055
-507,999	52,142	0,173	0,121
-506,985	-63,585	0,014	-0,004
-505,970	-131,363	-0,033	0,003
-504,956	20,836	0,056	-0,034
-503,941	4,210	0,073	-0,039
-502,926	173,884	0,057	0,061
-501,912	-200,000	0,036	0,137
-500,897	620,950	-0,017	-0,032
-499,883	37,890	-0,131	-0,086
-498,868	-200,000	-0,005	-0,040
-497,853	723,068	0,018	-0,035
-496,839	800,000	0,012	-0,032
-495,824	4,822	0,098	0,053
-494,810	-134,003	0,101	0,009
-493,795	-53,364	0,035	-0,012
-492,781	-200,000	-0,001	-0,093
-491,766	1,318	-0,151	-0,080
-490,751	608,430	-0,023	-0,042
-489,737	14,606	0,122	-0,070
-488,722	51,363	-0,029	0,020
-487,708	88,906	0,087	0,071
-486,693	800,000	0,026	0,085
-485,678	-200,000	-0,013	0,114
-484,664	232,012	0,072	-0,087
-483,649	800,000	-0,035	-0,097
-482,635	267,174	0,056	0,073
-481,620	20,323	0,040	0,024
-480,605	34,879	-0,072	0,046
-479,591	-200,000	-0,005	0,024
-478,576	47,185	-0,059	0,041
-477,562	534,992	-0,032	0,056
-476,547	10,797	0,065	0,037
-475,532	-200,000	0,027	-0,145
-474,518	307,911	0,061	-0,084
-473,503	570,881	-0,018	0,033
-472,489	-48,560	0,085	-0,030
-471,474	-88,089	-0,072	0,016
-470,459	-120,844	0,101	0,012
-469,445	800,000	-0,116	-0,247
-468,430	29,565	-0,115	-0,072
-467,416	63,647	-0,073	-0,054
-466,401	150,241	0,047	-0,047
-465,386	-200,000	0,007	0,073
-464,372	-200,000	0,011	-0,066
-463,357	189,509	-0,126	0,139
-462,343	-136,671	0,070	0,006
-461,328	546,600	-0,009	0,016
-460,313	209,869	0,013	0,015
-459,299	800,000	-0,019	0,053
-458,284	107,711	0,087	0,076
-457,270	-200,000	0,041	0,196
-456,255	212,595	-0,079	-0,091
-455,241	146,915	0,007	0,007
-454,226	-200,000	-0,010	0,067
-453,211	214,045	-0,058	-0,068
-452,197	187,430	-0,019	-0,021
-451,182	-200,000	0,001	0,077
-450,168	-53,816	-0,071	-0,024
-449,153	44,403	-0,082	-0,055
-448,138	-88,771	-0,134	-0,029
-447,124	-200,000	-0,021	-0,080
-446,109	800,000	0,061	-0,148
-445,095	800,000	-0,041	-0,099
-444,080	-121,013	0,084	-0,010
-443,065	-117,527	-0,113	0,015
-442,051	51,853	0,049	-0,034
-441,036	110,353	-0,086	-0,076
-440,022	109,743	-0,031	-0,027
-439,007	17,648	0,037	-0,022
-437,992	800,000	0,037	0,076
-436,978	-200,000	-0,007	0,122
-435,963	800,000	-0,117	0,245
-434,949	275,666	-0,047	0,062
-433,934	-195,080	-0,190	0,001
-432,919	-200,000	-0,000	-0,045
-431,905	-14,743	0,093	-0,044
-430,890	-200,000	0,011	0,076
-429,876	-200,000	-0,004	-0,013
-428,861	223,916	-0,038	-0,045
-427,846	800,000	0,054	-0,128
-426,832	800,000	0,014	-0,033
-425,817	651,406	0,075	-0,141
-424,803	-14,379	-0,076	0,036
-423,788	-200,000	-0,030	-0,122
-422,773	-1,135	-0,040	0,021
-421,759	-200,000	0,028	0,090
-420,744	-200,000	0,029	0,165
-419,730	143,956	-0,085	-0,084
-418,715	800,000	-0,019	-0,039
-417,701	167,486	-0,085	-0,089
-416,686	-26,849	0,117	-0,050
-415,671	-200,000	-0,003	-0,043
-414,657	-124,015	0,083	0,009
-413,642	-200,000	-0,016	-0,052
-412,628	301,898	-0,063	0,085
-411,613	-200,000	-0,022	0,098
-410,598	245,113	0,013	-0,016
-409,584	-145,090	0,175	0,012
-408,569	56,320	0,134	0,096
-407,555	379,133	-0,109	0,165
-406,540	243,355	-0,060	0,074
-405,525	84,315	-0,036	0,029
-404,511	800,000	-0,028	-0,067
-403,496	800,000	-0,029	-0,079
-402,482	-114,259	-0,018	0,003
-401,467	182,218	-0,089	0,096
-400,452	171,486	0,043	0,045
-399,438	-14,878	-0,028	0,013
-398,423	53,456	0,067	-0,047
-397,409	10,657	0,031	-0,017
-396,394	-41,293	-0,085	0,032
-395,379	55,848	-0,127	0,090
-394,365	120,737	-0,079	0,072
-393,350	-109,517	0,167	-0,026
-392,336	-200,000	-0,037	0,178
-391,321	800,000	-0,032	0,090
-390,306	-59,750	-0,057	-0,018
-389,292	-34,842	-0,028	-0,011
-388,277	-46,048	-0,104	-0,037
-387,263	228,244	-0,056	0,067
-386,248	177,480	0,095	-0,102
-385,233	800,000	0,021	0,051
-384,219	-200,000	0,011	0,060
-383,204	-200,000	-0,018	-0,093
-382,190	-95,923	-0,073	0,014
-381,175	121,910	0,097	-0,089
-380,160	367,102	-0,042	0,063
-379,146	-200,000	0,006	0,035
-378,131	195,818	-0,096	0,108
-377,117	-84,900	-0,033	-0,008
-376,102	567,230	0,065	-0,116
-375,088	-51,421	-0,069	-0,024
-374,073	-200,000	-0,010	0,130
-373,058	-200,000	-0,025	0,164
-372,044	236,910	0,009	0,011
-371,029	800,000	0,031	-0,069
-370,015	800,000	0,066	-0,140
-369,000	-90,868	-0,067	0,014
-367,985	487,148	-0,008	0,014
-366,971	-123,151	0,067	0,008
-365,956	86,788	0,142	0,115
-364,942	-111,433	0,046	-0,007
-363,927	92,236	-0,054	0,045
-362,912	139,820	0,058	0,057
-361,898	-82,519	-0,068	-0,016
-360,883	39,468	-0,027	-0,018
-359,869	-200,000	0,009	0,121
-358,854	146,996	0,076	-0,075
-357,839	-200,000	-0,008	0,050
-356,825	-27,200	0,116	0,049
-355,810	128,282	-0,057	-0,053
-354,796	-5,538	-0,035	0,018
-353,781	-200,000	0,001	0,081
-352,766	-200,000	-0,017	-0,086
-351,752	-18,874	0,063	-0,029
-350,737	-30,212	0,076	0,031
-349,723	-13,325	0,114	0,054
-348,708	-35,345	0,096	0,038
-347,693	-170,249	0,065	-0,002
-346,679	-200,000	-0,013	0,107
-345,664	-200,000	0,007	-0,073
-344,650	-200,000	0,006	0,046
-343,635	-89,536	0,100	0,021
-342,620	492,465	0,016	-0,027
-341,606	63,405	-0,104	0,077
-340,591	-69,533	-0,186	-0,052
-339,577	349,422	0,058	-0,084
-338,562	-200,000	-0,017	-0,070
-337,548	-68,582	0,030	0,008
-336,533	-16,464	0,096	0,045
-335,518	-93,446	0,156	-0,031
-334,504	447,191	0,077	-0,125
-333,489	-200,000	0,025	0,099
-332,475	558,148	0,071	-0,125
-331,460	523,198	-0,089	0,155
-330,445	85,063	-0,074	0,060
-329,431	-119,165	0,161	-0,020
-328,416	-35,540	-0,045	0,018
-327,402	-200,000	0,016	-0,105
-326,387	65,129	0,086	0,063
-325,372	-200,000	0,005	0,016
-324,358	-170,618	-0,167	-0,004
-323,343	189,176	0,024	-0,026
-322,329	-43,493	-0,113	0,042
-321,314	65,736	-0,176	0,131
-320,299	206,640	0,110	0,125
-319,285	2,722	-0,047	-0,025
-318,270	800,000	-0,025	0,052
-317,256	-200,000	-0,003	-0,142
-316,241	-126,090	-0,066	-0,007
-315,226	800,000	0,014	0,036
-314,212	77,856	0,148	0,116
-313,197	91,439	-0,037	-0,030
-312,183	-200,000	-0,020	-0,080
-311,168	-200,000	0,018	-0,097
-310,153	670,286	0,006	0,012
-309,139	82,628	-0,101	0,080
-308,124	-127,313	0,062	0,007
-307,110	-79,788	0,089	0,022
-306,095	92,262	-0,068	-0,056
-305,080	174,622	-0,074	-0,079
-304,066	800,000	0,022	0,049
-303,051	-200,000	0,004	-0,055
-302,037	-179,417	-0,024	0,000
-301,022	59,625	-0,140	-0,101
-300,008	-156,425	-0,052	0,002
-298,993	114,429	0,082	-0,073
-297,978	182,091	0,018	-0,020
-296,964	-122,352	0,088	-0,010
-295,949	-183,838	-0,041	0,000
-294,935	800,000	-0,026	0,066
-293,920	228,907	-0,063	-0,075
-292,905	308,355	0,044	0,061
-291,891	321,181	0,072	-0,100
-290,876	565,997	-0,026	0,046
-289,862	530,927	0,028	-0,049
-288,847	766,505	-0,038	-0,076
-287,832	651,591	0,053	-0,101
-286,818	-123,327	0,049	-0,006
-285,803	-109,931	-0,099	0,015
-284,789	-200,000	0,002	0,053
-283,774	800,000	0,020	0,041
-282,759	-200,000	-0,014	0,059
-281,745	-200,000	-0,013	0,083
-280,730	-200,000	-0,016	-0,080
-279,716	68,931	0,070	0,052
-278,701	-26,859	0,029	-0,012
-277,686	800,000	-0,028	0,063
-276,672	-126,633	0,166	0,018
-275,657	-200,000	-0,010	0,053
-274,643	-3,168	-0,055	0,028
-273,628	-200,000	-0,002	-0,057
-272,613	586,875	0,080	0,144
-271,599	147,124	-0,103	-0,101
-270,584	-200,000	0,026	0,097
-269,570	97,573	0,131	0,110
-268,555	33,033	0,085	0,054
-267,540	65,165	-0,051	0,037
-266,526	570,563	0,012	0,021
-265,511	-154,333	-0,128	-0,006
-264,497	-146,770	0,082	-0,005
-263,482	-200,000	0,011	0,129
-262,467	-87,999	0,056	0,012
-261,453	-175,258	0,041	-0,001
-260,438	419,788	0,074	0,116
-259,424	-87,494	-0,059	-0,013
-258,409	66,027	-0,026	-0,020
-257,395	20,788	0,024	0,014
-256,380	-46,498	0,098	-0,035
-255,365	122,704	0,102	0,093
-254,351	-64,493	-0,123	0,036
-253,336	128,205	0,139	-0,129
-252,322	-135,888	-0,180	-0,015
-251,307	-131,360	0,199	0,019
-250,292	-102,776	-0,160	-0,028
-249,278	-87,976	0,086	-0,019
-248,263	149,020	-0,054	-0,053
-247,249	-71,425	0,157	0,043
-246,234	86,965	-0,043	0,035
-245,219	-121,017	0,114	0,014
-244,205	-63,663	0,078	-0,023
-243,190	-200,000	-0,011	-0,059
-242,176	800,000	-0,040	-0,105
-241,161	250,214	0,124	0,154
-240,146	800,000	-0,021	-0,051
-239,132	-57,915	-0,026	-0,008
-238,117	-110,752	0,071	-0,011
-237,103	800,000	-0,033	0,078
-236,088	386,648	0,068	-0,102
-235,073	-36,993	0,151	0,059
-234,059	-200,000	-0,043	0,143
-233,044	-3,130	-0,099	0,050
-232,030	-112,863	0,154	0,022
-231,015	31,180	0,181	0,113
-230,000	-19,173	-0,069	-0,031
-228,986	-113,030	-0,124	0,018
-227,971	164,069	0,020	0,020
-226,957	-200,000	-0,009	0,056
-225,942	800,000	0,022	-0,062
-224,927	-43,969	0,128	0,047
-223,913	310,654	-0,094	-0,129
-222,898	391,989	-0,008	0,012
-221,884	154,692	0,090	-0,090
-220,869	-109,525	0,115	-0,018
-219,855	240,569	-0,035	0,043
-218,840	295,375	0,027	0,036
-217,825	435,902	0,039	0,062
-216,811	644,188	-0,066	-0,124
-215,796	-39,264	-0,058	0,022
-214,782	-53,492	0,095	0,032
-213,767	-124,237	0,041	-0,005
-212,752	33,793	0,047	0,030
-211,738	227,127	-0,054	0,064
-210,723	169,661	-0,138	0,144
-209,709	800,000	-0,009	-0,023
-208,694	800,000	-0,039	0,095
-207,679	90,011	0,057	0,046
-206,665	169,729	0,055	-0,058
-205,650	-200,000	0,010	-0,054
-204,636	-200,000	-0,000	0,004
-203,621	-99,042	-0,118	-0,022
-202,606	-200,000	-0,003	-0,142
-201,592	705,994	-0,053	-0,103
-200,577	380,068	-0,046	-0,069
-199,563	-200,000	-0,007	-0,069
-198,548	451,318	0,066	0,107
-197,533	-200,000	0,017	-0,125
-196,519	42,340	0,035	-0,023
-195,504	-69,906	-0,112	-0,031
-194,490	69,160	-0,021	0,016
-193,475	-141,171	0,050	0,004
-192,460	800,000	0,057	-0,116
-191,446	-81,943	0,224	0,053
-190,431	-140,410	0,129	-0,010
-189,417	-75,022	0,099	0,026
-188,402	331,115	-0,052	-0,074
-187,387	-114,896	-0,110	-0,015
-186,373	110,567	-0,071	-0,062
-185,358	211,077	0,110	0,127
-184,344	48,087	-0,085	0,058
-183,329	800,000	0,034	0,071
-182,315	232,024	0,056	-0,067
-181,300	284,101	0,033	0,044
-180,285	293,665	-0,044	0,058
-179,271	-162,270	0,050	0,002
-178,256	800,000	-0,063	-0,145
-177,242	-75,095	0,151	-0,039
-176,227	-8,609	0,044	-0,021
-175,212	94,971	0,078	-0,064
-174,198	91,522	0,062	0,050
-173,183	207,471	-0,085	-0,096
-172,169	-103,266	-0,090	0,015
-171,154	-200,000	0,001	-0,129
-170,139	230,962	0,021	-0,025
-169,125	-200,000	-0,008	0,040
-168,110	409,067	-0,050	0,078
-167,096	25,002	-0,060	0,036
-166,081	126,087	0,075	0,069
-165,066	800,000	-0,025	0,063
-164,052	-13,455	0,134	-0,063
-163,037	800,000	0,030	-0,066
-162,023	275,588	0,043	0,056
-161,008	-17,006	0,029	-0,013
-159,993	-21,519	-0,089	0,039
-158,979	-91,180	-0,009	-0,002
-157,964	-200,000	-0,030	-0,125
-156,950	-200,000	0,020	-0,075
-155,935	390,267	0,003	-0,005
-154,920	160,604	-0,098	-0,100
-153,906	-200,000	-0,013	0,050
-152,891	-200,000	-0,011	0,104
-151,877	-200,000	-0,004	-0,069
-150,862	-147,346	-0,096	-0,006
-149,847	800,000	0,070	-0,155
-148,833	466,723	0,043	-0,070
-147,818	97,541	-0,092	-0,077
-146,804	431,870	0,070	0,111
-145,789	-21,671	0,140	-0,062
-144,775	-85,158	-0,184	0,042
-143,760	-89,494	-0,114	0,024
-142,745	-200,000	0,038	-0,155
-141,731	187,728	-0,028	0,030
-140,716	-113,337	-0,109	-0,015
-139,702	119,489	0,053	0,048
-138,687	-200,000	0,011	-0,064
-137,672	348,019	-0,009	0,014
-136,658	192,350	0,044	-0,048
-135,643	-200,000	-0,014	-0,142
-134,629	43,077	-0,076	-0,050
-133,614	-200,000	0,014	0,060
-132,599	572,083	0,026	-0,046
-131,585	-56,316	-0,059	-0,019
-130,570	-200,000	0,014	0,049
-129,556	-39,245	-0,184	-0,070
-128,541	-80,065	-0,136	0,033
-127,526	-200,000	-0,014	0,084
-126,512	141,545	0,061	0,059
-125,497	-94,159	0,095	0,019
-124,483	6,077	0,100	-0,054
-123,468	151,529	-0,042	0,042
-122,453	36,063	-0,191	-0,122
-121,439	-200,000	-0,034	-0,159
-120,424	-90,399	0,113	-0,024
-119,410	162,532	0,075	0,077
-118,395	-200,000	0,007	-0,125
-117,380	-50,325	0,124	0,042
-116,366	84,286	0,051	-0,040
-115,351	329,536	0,061	-0,086
-114,337	-134,001	-0,099	-0,009
-113,322	-200,000	0,014	-0,047
-112,307	-200,000	0,006	0,063
-111,293	-14,776	0,077	0,036
-110,278	-61,219	0,124	-0,038
-109,264	136,392	0,100	-0,095
-108,249	800,000	0,054	-0,110
-107,234	-125,659	-0,230	0,025
-106,220	-100,320	-0,121	0,022
-105,205	-200,000	-0,017	0,092
-104,191	-200,000	0,000	0,070
-103,176	800,000	-0,035	0,089
-102,162	82,548	0,066	-0,052
-101,147	142,705	-0,113	-0,109
-100,132	-200,000	-0,027	-0,115
-99,118	482,311	-0,046	-0,076
-98,103	800,000	0,035	-0,099
-97,089	122,642	-0,117	-0,106
-96,074	259,837	0,082	-0,103
-95,059	-200,000	0,022	-0,073
-94,045	360,222	0,026	0,039
-93,030	-200,000	0,025	0,100
-92,016	-115,936	-0,134	0,018
-91,001	-200,000	-0,010	-0,050
-89,986	-200,000	-0,007	0,112
-88,972	800,000	0,033	-0,069
-87,957	-200,000	-0,009	0,177
-86,943	-31,165	0,037	0,015
-85,928	-95,821	-0,087	-0,017
-84,913	148,366	-0,042	0,041
-83,899	784,300	-0,051	-0,102
-82,884	-200,000	-0,008	-0,043
-81,870	64,948	-0,074	0,054
-80,855	-72,030	0,027	-0,007
-79,840	400,966	-0,049	0,075
-78,826	800,000	0,031	-0,073
-77,811	134,723	-0,168	-0,159
-76,797	-114,306	0,052	0,007
-75,782	800,000	0,042	0,096
-74,767	800,000	0,040	-0,095
-73,753	41,147	-0,064	0,042
-72,738	800,000	-0,030	0,066
-71,724	435,415	0,023	0,036
-70,709	348,592	-0,033	0,047
-69,694	-200,000	-0,024	-0,101
-68,680	-200,000	-0,020	-0,110
-67,665	600,631	0,067	0,122
-66,651	-200,000	-0,020	0,107
-65,636	-49,518	0,103	-0,035
-64,622	-150,413	0,174	-0,010
-63,607	33,837	0,077	-0,049
-62,592	228,614	0,046	-0,054
-61,578	-200,000	0,014	0,074
-60,563	469,044	0,066	0,108
-59,549	-42,077	-0,067	-0,025
-58,534	-148,481	-1,398	-0,082
-57,519	668,988	-0,758	-1,429
-56,505	-200,000	-0,933	-4,518
-55,490	15,495	0,474	-0,269
-54,476	800,000	4,911	11,956
-53,461	-200,000	13,525	252,953
-52,446	-200,000	689,617	2257,527
-51,432	589,372	1622,345	2912,168
-50,417	119,721	1635,024	1469,288
-49,403	73,187	1289,002	976,507
-48,388	38,166	1024,123	659,689
-47,373	24,396	981,520	587,006
-46,359	23,588	971,397	578,279
-45,344	22,624	967,113	572,558
-44,330	22,555	965,559	571,391
-43,315	22,408	964,333	570,163
-42,300	22,398	963,202	569,438
-41,286	22,412	962,269	568,911
-40,271	22,408	961,259	568,279
-39,257	22,387	960,269	567,603
-38,242	22,412	959,196	567,025
-37,227	22,419	958,500	566,613
-36,213	22,382	957,558	565,916
-35,198	22,330	956,908	565,342
-34,184	22,378	956,180	565,045
-33,169	22,380	955,217	564,460
-32,154	22,437	954,402	564,139
-31,140	22,460	953,441	563,622
-30,125	22,457	952,681	563,141
-29,111	22,380	951,812	562,356
-28,096	22,384	951,416	562,113
-27,082	22,438	950,318	561,615
-26,067	22,408	950,000	561,310
-25,052	22,378	949,318	560,787
-24,038	22,415	948,496	560,400
-23,023	22,400	947,862	559,955
-22,009	22,458	947,102	559,669
-20,994	22,379	946,586	559,089
-19,979	22,456	945,779	558,837
-18,965	22,466	945,282	558,553
-17,950	22,474	944,669	558,192
-16,936	22,328	944,029	557,326
-15,921	22,323	943,432	556,937
-14,906	22,318	942,537	556,371
-13,892	22,288	941,893	555,873
-12,877	22,293	941,340	555,540
-11,863	22,254	940,673	555,001
-10,848	22,331	940,085	554,877
-9,833	22,425	939,664	554,905
-8,819	22,312	939,144	554,217
-7,804	22,315	938,308	553,710
-6,790	22,318	937,850	553,430
-5,775	22,334	937,164	553,053
-4,760	22,344	936,617	552,737
-3,746	22,330	936,014	552,315
-2,731	22,197	935,239	551,417
-1,717	22,154	934,642	550,908
-0,702	22,062	934,089	550,270
0,313	21,917	933,301	550,180
1,327	24,896	931,348	558,340
2,342	34,331	795,884	502,250
3,356	32,338	450,989	281,577
4,371	1,721	292,705	152,326
5,386	-2,916	273,675	138,041
6,400	-4,197	267,973	133,969
7,415	-4,487	265,444	132,427
8,429	-4,237	264,341	132,093
9,444	-4,135	263,448	131,728
10,459	-4,320	262,741	131,195
11,473	-4,388	262,229	130,866
12,488	-4,471	261,755	130,543
13,502	-4,475	261,180	130,240
14,517	-4,426	260,651	130,009
15,531	-4,465	260,349	129,812
16,546	-4,266	259,891	129,750
17,561	-4,468	259,726	129,475
18,575	-4,478	259,342	129,263
19,590	-4,600	258,899	128,922
20,604	-4,609	258,783	128,846
21,619	-4,748	258,300	128,470
22,634	-4,556	257,934	128,447
23,648	-4,617	257,852	128,340
24,663	-4,526	257,364	128,166
25,677	-4,516	257,004	127,985
26,692	-4,474	256,944	127,981
27,707	-4,502	256,583	127,765
28,721	-4,532	256,392	127,632
29,736	-4,689	256,136	127,355
30,750	-4,696	255,905	127,221
31,765	-4,753	255,689	127,053
32,780	-4,598	255,471	127,069
33,794	-4,512	255,174	126,986
34,809	-4,461	254,925	126,896
35,823	-4,567	254,616	126,638
36,838	-4,695	254,353	126,384
37,853	-4,525	254,143	126,417
38,867	-4,643	253,963	126,212
39,882	-4,435	253,641	126,222
40,896	-4,786	253,535	125,852
41,911	-4,800	253,431	125,778
42,926	-4,832	253,194	125,621
43,940	-4,610	252,939	125,676
44,955	-4,715	252,600	125,406
45,969	-4,659	252,323	125,305
46,984	-4,869	252,228	125,065
47,999	-5,031	251,739	124,671
49,013	-5,132	251,770	124,588
50,028	-5,271	251,428	124,288
51,042	-5,458	251,083	123,944
52,057	-5,511	251,100	123,895
53,071	-5,472	250,698	123,720
54,086	-5,439	250,636	123,707
55,101	-5,114	250,425	123,871
56,115	-5,091	250,560	123,947
57,130	-4,662	250,371	124,211
58,144	-4,243	249,981	124,366
59,159	-4,495	249,943	124,121
60,174	-4,393	249,677	124,065
61,188	-4,354	249,409	123,954
62,203	-4,379	249,143	123,789
63,217	-4,677	249,078	123,491
64,232	-4,466	248,869	123,557
65,247	-4,294	248,630	123,573
66,261	-4,160	248,364	123,545
67,276	-4,678	248,026	122,925
68,290	-5,045	247,911	122,544
69,305	-5,026	247,642	122,417
70,320	-4,996	247,534	122,378
71,334	-4,759	247,333	122,469
72,349	-4,507	247,138	122,575
73,363	-4,303	246,970	122,654
74,378	-4,402	246,752	122,451
75,393	-4,543	246,574	122,232
76,407	-4,478	246,421	122,201
77,422	-4,726	246,267	121,904
78,436	-4,485	246,049	121,988
79,451	-4,425	245,788	121,899
80,466	-4,534	245,481	121,644
81,480	-4,944	245,329	121,213
82,495	-4,850	245,255	121,244
83,509	-4,780	244,934	121,134
84,524	-4,794	244,843	121,066
85,539	-4,995	244,567	120,750
86,553	-4,834	244,338	120,761
87,568	-4,894	244,062	120,564
88,582	-4,824	243,947	120,554
89,597	-4,778	243,845	120,532
90,611	-4,685	243,785	120,569
91,626	-4,590	243,507	120,500
92,641	-4,479	243,430	120,544
93,655	-4,677	243,126	120,218
94,670	-4,654	242,903	120,116
95,684	-4,828	242,742	119,881
96,699	-4,627	242,531	119,933
97,714	-4,588	242,237	119,809
98,728	-5,061	242,288	119,432
99,743	-4,758	242,006	119,532
100,757	-4,890	241,687	119,255
101,772	-4,839	241,647	119,267
102,787	-4,713	241,378	119,228
103,801	-4,749	241,324	119,161
104,816	-4,713	241,105	119,071
105,830	-4,563	241,053	119,159
106,845	-4,478	240,874	119,130
107,860	-4,467	240,660	119,023
108,874	-4,598	240,298	118,726
109,889	-4,842	240,192	118,462
110,903	-4,485	239,996	118,648
111,918	-4,643	239,771	118,397
112,933	-4,671	239,693	118,324
113,947	-4,589	239,479	118,275
114,962	-4,425	239,375	118,347
115,976	-4,375	239,123	118,253
116,991	-4,490	239,026	118,101
118,006	-4,692	238,802	117,814
119,020	-4,719	238,944	117,853
120,035	-4,466	238,711	117,933
121,049	-4,515	238,551	117,803
122,064	-4,466	238,384	117,750
123,079	-4,587	238,189	117,545
124,093	-4,703	237,871	117,284
125,108	-4,907	237,709	117,027
126,122	-4,858	237,354	116,882
127,137	-5,123	237,188	116,576
128,151	-5,121	236,990	116,470
129,166	-4,822	236,994	116,703
130,181	-4,886	236,789	116,540
131,195	-4,804	236,518	116,462
132,210	-4,651	236,431	116,532
133,224	-4,636	236,236	116,438
134,239	-4,664	236,227	116,400
135,254	-4,430	235,895	116,415
136,268	-4,753	235,827	116,111
137,283	-4,882	235,535	115,853
138,297	-5,059	235,361	115,615
139,312	-5,055	235,001	115,432
140,327	-4,890	235,177	115,640
141,341	-4,241	235,033	116,079
142,356	-4,297	234,950	115,983
143,370	-4,255	234,685	115,875
144,385	-4,259	234,553	115,797
145,400	-4,371	234,456	115,649
146,414	-4,197	234,107	115,606
147,429	-4,275	234,034	115,496
148,443	-4,256	233,817	115,394
149,458	-4,456	233,684	115,159
150,473	-4,399	233,491	115,099
151,487	-4,175	233,172	115,109
152,502	-4,233	233,216	115,075
153,516	-4,384	232,959	114,818
154,531	-4,257	232,933	114,896
155,546	-4,464	232,800	114,656
156,560	-4,514	232,461	114,439
157,575	-4,413	232,335	114,446
158,589	-4,403	232,154	114,356
159,604	-4,323	232,015	114,340
160,619	-4,263	231,853	114,297
161,633	-4,206	231,732	114,273
162,648	-4,198	231,550	114,178
163,662	-4,230	231,516	114,126
164,677	-4,438	231,157	113,776
165,692	-4,300	231,169	113,880
166,706	-4,369	231,073	113,768
167,721	-4,086	230,817	113,854
168,735	-4,033	230,725	113,840
169,750	-4,053	230,438	113,672
170,764	-4,485	230,445	113,328
171,779	-4,262	230,306	113,424
172,794	-4,147	230,183	113,443
173,808	-4,426	229,889	113,070
174,823	-4,727	229,544	112,655
175,837	-4,750	229,296	112,505
176,852	-4,497	229,455	112,771
177,867	-4,199	229,208	112,871
178,881	-4,074	229,220	112,965
179,896	-4,345	229,066	112,668
180,910	-4,165	228,892	112,712
181,925	-4,231	228,689	112,551
182,940	-4,094	228,499	112,554
183,954	-4,079	228,360	112,487
184,969	-3,993	228,195	112,462
185,983	-4,066	228,015	112,307
186,998	-4,239	228,105	112,208
188,013	-4,095	227,727	112,122
189,027	-3,988	227,586	112,126
190,042	-4,046	227,447	112,003
191,056	-3,891	227,372	112,075
192,071	-4,099	227,159	111,801
193,086	-4,134	227,096	111,732
194,100	-4,267	226,971	111,558
195,115	-4,435	226,544	111,209
196,129	-4,540	226,249	110,974
197,144	-2,421	227,074	113,000
198,159	0,682	228,047	115,871
199,173	3,808	228,589	118,550
200,188	4,213	228,667	118,892
201,202	4,118	228,551	118,748
202,217	4,376	228,375	118,845
203,232	4,515	228,192	118,846
204,246	4,541	228,237	118,879
205,261	4,435	228,111	118,721
206,275	4,741	227,925	118,849
207,290	4,705	227,841	118,767
208,304	4,804	227,634	118,724
209,319	4,597	227,724	118,601
210,334	4,617	227,302	118,387
211,348	4,345	227,022	118,022
212,363	4,017	226,814	117,653
213,377	3,782	226,641	117,373
214,392	3,725	226,423	117,206
215,407	4,138	226,260	117,426
216,421	4,242	226,039	117,381
217,436	3,921	226,008	117,109
218,450	3,836	225,684	116,867
219,465	3,442	225,583	116,504
220,480	3,710	225,510	116,660
221,494	3,717	225,351	116,573
222,509	3,723	225,320	116,550
223,523	4,012	225,090	116,640
224,538	3,689	224,970	116,323
225,553	3,798	224,855	116,335
226,567	3,867	224,784	116,340
227,582	4,272	224,603	116,543
228,596	4,221	224,477	116,428
229,611	4,242	224,200	116,290
230,626	3,689	223,984	115,751
231,640	3,869	223,849	115,807
232,655	3,991	223,913	115,921
233,669	4,305	223,752	116,063
234,684	4,486	223,706	116,165
235,699	4,197	223,421	115,790
236,713	4,040	223,215	115,555
237,728	3,954	223,033	115,386
238,742	3,844	222,898	115,223
239,757	3,772	222,759	115,088
240,772	3,621	222,616	114,890
241,786	3,860	222,490	114,995
242,801	4,076	222,360	115,078
243,815	4,222	222,404	115,200
244,830	4,127	222,144	114,984
245,844	3,994	221,890	114,743
246,859	3,965	221,841	114,685
247,874	4,137	221,767	114,766
248,888	4,055	221,658	114,638
249,903	4,066	221,261	114,430
250,917	3,894	221,331	114,328
251,932	3,899	221,086	114,196
252,947	3,740	220,792	113,915
253,961	3,782	220,634	113,855
254,976	3,678	220,698	113,801
255,990	4,096	220,490	113,993
257,005	4,029	220,407	113,890
258,020	4,095	220,293	113,870
259,034	4,340	220,246	114,017
260,049	4,024	219,915	113,602
261,063	3,984	219,808	113,507
262,078	4,178	219,793	113,632
263,093	4,243	219,577	113,558
264,107	4,145	219,462	113,416
265,122	4,115	219,325	113,313
266,136	4,318	219,272	113,425
267,151	4,369	219,008	113,316
268,166	3,922	218,755	112,848
269,180	3,815	218,492	112,623
270,195	3,795	218,393	112,548
271,209	3,672	218,310	112,404
272,224	3,660	218,181	112,319
273,239	3,981	218,062	112,483
274,253	3,838	217,848	112,258
275,268	3,765	217,649	112,092
276,282	3,576	217,485	111,860
277,297	3,507	217,342	111,726
278,312	3,748	217,379	111,911
279,326	3,910	217,182	111,917
280,341	3,953	217,168	111,931
281,355	4,053	216,986	111,900
282,370	3,823	216,751	111,602
283,384	3,498	216,615	111,286
284,399	3,571	216,449	111,244
285,414	3,621	216,255	111,170
286,428	3,822	216,308	111,333
287,443	3,888	216,147	111,288
288,457	3,939	216,068	111,275
289,472	3,985	215,777	111,148
290,487	3,490	215,519	110,647
291,501	3,365	215,414	110,494
292,516	3,584	215,373	110,621
293,530	3,640	215,238	110,582
294,545	3,621	215,068	110,471
295,560	3,668	214,893	110,405
296,574	3,872	214,846	110,518
297,589	3,902	214,688	110,449
298,603	3,754	214,806	110,393
299,618	3,545	214,520	110,086
300,633	3,824	214,369	110,199
301,647	3,878	214,242	110,163
302,662	3,870	214,147	110,098
303,676	4,033	213,999	110,128
304,691	4,137	213,911	110,148
305,706	4,247	213,809	110,165
306,720	4,276	213,436	109,983
307,735	3,822	213,448	109,656
308,749	3,617	213,257	109,401
309,764	3,789	213,254	109,513
310,779	4,170	213,053	109,671
311,793	3,946	213,011	109,480
312,808	3,824	212,793	109,271
313,822	3,786	212,545	109,107
314,837	3,825	212,363	109,032
315,852	3,699	212,213	108,856
316,866	3,847	212,180	108,934
317,881	4,007	212,093	108,993
318,895	4,148	211,734	108,899
319,910	3,854	211,717	108,672
320,925	3,756	211,490	108,477
321,939	3,396	211,423	108,179
322,954	3,654	211,263	108,269
323,968	3,827	211,295	108,398
324,983	3,984	211,129	108,413
325,997	4,125	211,019	108,447
327,012	3,819	210,902	108,162
328,027	3,735	210,760	108,020
329,041	4,280	210,673	108,349
330,056	4,257	210,598	108,285
331,070	3,893	210,267	107,850
332,085	3,734	210,002	107,592
333,100	3,658	210,013	107,536
334,114	3,846	209,845	107,571
335,129	3,905	209,691	107,524
336,143	3,718	209,476	107,274
337,158	3,946	209,353	107,360
338,173	3,766	209,336	107,217
339,187	3,586	209,139	106,980
340,202	3,477	208,969	106,808
341,216	3,525	208,800	106,745
342,231	3,823	208,697	106,891
343,246	3,648	208,630	106,725
344,260	3,756	208,544	106,747
345,275	3,861	208,422	106,748
346,289	3,995	208,256	106,746
347,304	3,870	208,202	106,623
348,319	3,832	208,007	106,486
349,333	3,809	207,775	106,342
350,348	3,671	207,727	106,212
351,362	4,282	207,595	106,558
352,377	4,269	207,435	106,458
353,392	3,690	207,407	106,034
354,406	4,099	207,248	106,225
355,421	193,968	1346,614	1434,769
356,435	154,726	1485,529	1434,881
