DTS Sentinel unit serial number:	SN410029Multiplexer serial number:	ORYXHardware model number:	OX2-SRSoftware version number:	ORYX F/W v4,00 Oryx Data Collector v3.7.2.0data status	okinstallation	B6 Nyhavnadifferential loss correction	single-endedforward channel	channel 2reverse channel	N/Adate	2023/12/08time	18:20:08forward acquisition time	300,00reverse acquisition time	0,00gamma	499,1914k internal	0,3158k external	0,3158temperature offset calibration	1,0000default loss term (dB/km)	0,3820temperature slope calibration	1,0000multiplexer offset coefficient	1,0000multiplexer slope coefficient	1,0000fibre end	0,00T internal ref (°C)	15,25T ext. ref 1 (°C)	-1,25T ext. ref 2 (°C)	-1,25length (m)	temperature (°C)	Stokes	anti-Stokes-744,400	225,199	0,086	0,102
-743,385	-10,817	-0,282	-0,137
-742,371	135,977	0,038	-0,037
-741,356	-96,024	-0,246	0,048
-740,342	742,488	0,032	0,063
-739,327	-112,915	-0,288	-0,042
-738,312	224,951	0,092	0,110
-737,298	-179,776	-0,325	-0,005
-736,283	6,337	0,125	-0,068
-735,269	32,823	-0,106	-0,068
-734,254	253,040	0,059	0,074
-733,239	-52,302	-0,490	-0,166
-732,225	-165,151	0,139	-0,004
-731,210	104,322	0,016	-0,014
-730,196	58,383	0,069	0,050
-729,181	103,052	-0,029	-0,025
-728,167	-200,000	-0,010	-0,060
-727,152	-82,652	-0,119	-0,028
-726,137	-131,520	-0,216	0,021
-725,123	191,668	-0,054	-0,060
-724,108	800,000	-0,060	-0,136
-723,094	-165,822	-0,227	0,007
-722,079	-80,212	-0,176	-0,043
-721,064	-20,300	-0,081	0,037
-720,050	800,000	-0,039	-0,092
-719,035	180,005	0,052	-0,057
-718,021	-112,921	-0,091	-0,013
-717,006	-157,929	-0,120	0,005
-715,991	14,848	-0,138	-0,079
-714,977	-153,434	0,048	0,002
-713,962	-138,129	-0,181	-0,015
-712,948	-11,918	0,156	0,075
-711,933	75,834	0,048	-0,038
-710,918	-200,000	-0,034	-0,133
-709,904	63,618	-0,139	-0,102
-708,889	341,965	-0,065	-0,094
-707,875	36,860	-0,114	0,074
-706,860	-13,231	-0,064	-0,030
-705,845	35,972	0,097	-0,063
-704,831	-200,000	0,030	-0,098
-703,816	156,829	-0,023	0,024
-702,802	241,506	0,039	-0,048
-701,787	702,824	-0,055	0,108
-700,772	600,195	-0,015	-0,028
-699,758	-200,000	-0,009	-0,128
-698,743	495,156	0,036	0,061
-697,729	-76,359	-0,019	-0,005
-696,714	157,851	-0,090	0,092
-695,699	800,000	-0,029	-0,076
-694,685	800,000	0,037	0,079
-693,670	-119,093	-0,075	-0,010
-692,656	17,265	-0,099	-0,058
-691,641	541,118	0,060	-0,106
-690,627	800,000	0,018	0,050
-689,612	770,393	0,027	0,055
-688,597	-103,406	0,068	-0,012
-687,583	259,676	0,013	0,016
-686,568	29,737	0,012	0,008
-685,554	-200,000	0,006	0,056
-684,539	-89,469	0,036	-0,008
-683,524	1,452	0,115	0,061
-682,510	435,079	-0,080	0,128
-681,495	301,906	0,042	0,057
-680,481	114,456	0,031	-0,028
-679,466	-200,000	0,002	-0,105
-678,451	336,773	0,022	-0,031
-677,437	-76,258	0,132	-0,034
-676,422	-200,000	0,011	-0,074
-675,408	800,000	0,027	0,056
-674,393	-200,000	-0,004	-0,043
-673,378	9,691	-0,119	-0,066
-672,364	115,931	-0,100	-0,090
-671,349	436,113	0,012	0,019
-670,335	241,386	-0,081	-0,099
-669,320	-95,120	-0,069	-0,014
-668,305	-47,588	-0,036	0,013
-667,291	310,942	-0,048	0,067
-666,276	-107,906	-0,020	0,003
-665,262	648,760	0,033	-0,063
-664,247	50,799	-0,005	-0,004
-663,232	-200,000	0,006	0,126
-662,218	-200,000	0,007	0,120
-661,203	50,903	-0,094	-0,066
-660,189	163,243	-0,078	-0,081
-659,174	-120,014	0,080	-0,010
-658,159	25,232	-0,034	-0,021
-657,145	178,963	-0,114	-0,123
-656,130	48,976	-0,061	-0,042
-655,116	800,000	-0,025	-0,057
-654,101	114,829	0,093	0,083
-653,086	220,271	0,076	-0,090
-652,072	-99,189	-0,011	-0,002
-651,057	800,000	-0,018	0,052
-650,043	14,283	-0,148	0,084
-649,028	-200,000	0,008	-0,065
-648,014	-197,917	-0,144	-0,001
-646,999	111,677	-0,127	0,113
-645,984	-135,503	0,146	0,013
-644,970	-200,000	0,035	-0,158
-643,955	-33,651	-0,206	-0,083
-642,941	24,950	0,108	-0,066
-641,926	-200,000	-0,005	-0,038
-640,911	166,748	0,018	0,019
-639,897	-111,229	0,106	-0,016
-638,882	23,109	-0,007	0,004
-637,868	128,480	0,015	-0,014
-636,853	800,000	-0,039	-0,125
-635,838	-30,978	-0,110	0,045
-634,824	-17,906	-0,047	0,022
-633,809	-171,438	0,051	0,001
-632,795	247,845	-0,059	0,073
-631,780	-200,000	-0,019	0,111
-630,765	-40,118	-0,100	0,038
-629,751	-113,065	-0,128	0,018
-628,736	304,875	-0,122	-0,167
-627,722	800,000	0,008	0,019
-626,707	-200,000	0,021	0,111
-625,692	186,665	0,109	0,119
-624,678	-38,607	0,060	0,023
-623,663	800,000	-0,015	-0,035
-622,649	800,000	-0,048	-0,143
-621,634	17,033	-0,039	0,023
-620,619	134,928	-0,060	-0,057
-619,605	800,000	0,039	0,085
-618,590	-200,000	-0,008	0,044
-617,576	-147,393	-0,065	-0,004
-616,561	64,492	-0,101	-0,074
-615,546	-150,229	-0,065	0,004
-614,532	130,283	-0,120	0,113
-613,517	-200,000	-0,017	-0,152
-612,503	440,237	-0,079	-0,127
-611,488	-200,000	-0,015	0,065
-610,474	170,559	-0,042	0,044
-609,459	-98,144	0,013	0,002
-608,444	-22,426	-0,088	0,039
-607,430	467,501	-0,081	0,133
-606,415	-200,000	0,003	-0,094
-605,401	295,154	0,101	-0,136
-604,386	28,944	-0,028	0,017
-603,371	108,714	-0,092	0,081
-602,357	-200,000	-0,012	0,100
-601,342	-200,000	-0,009	0,043
-600,328	-200,000	0,024	-0,149
-599,313	800,000	-0,026	-0,074
-598,298	215,865	-0,010	0,011
-597,284	170,492	-0,068	0,072
-596,269	-200,000	-0,021	-0,068
-595,255	57,175	0,134	0,096
-594,240	-182,846	0,059	-0,001
-593,225	-138,178	-0,167	-0,013
-592,211	800,000	-0,040	-0,093
-591,196	369,138	-0,037	0,055
-590,182	-70,299	-0,057	0,016
-589,167	800,000	-0,055	0,156
-588,152	-200,000	0,002	0,010
-587,138	-57,583	-0,096	-0,031
-586,123	-200,000	-0,021	-0,136
-585,109	-200,000	-0,028	-0,097
-584,094	553,974	-0,031	0,055
-583,079	307,942	0,065	-0,088
-582,065	-103,358	-0,117	-0,020
-581,050	23,005	0,112	0,067
-580,036	445,157	-0,026	-0,042
-579,021	800,000	-0,079	-0,168
-578,006	-200,000	0,024	-0,147
-576,992	-13,167	0,150	0,071
-575,977	-23,531	0,055	-0,024
-574,963	-25,469	0,018	0,008
-573,948	64,425	-0,079	-0,058
-572,934	-200,000	-0,010	0,033
-571,919	57,326	-0,159	-0,114
-570,904	-200,000	0,000	-0,101
-569,890	-200,000	0,010	0,102
-568,875	276,698	-0,032	0,041
-567,861	-57,671	0,034	-0,011
-566,846	118,668	-0,072	0,065
-565,831	-124,476	0,096	-0,011
-564,817	115,514	0,085	-0,076
-563,802	-200,000	-0,017	-0,080
-562,788	800,000	0,035	-0,107
-561,773	-200,000	0,007	0,025
-560,758	-42,943	0,043	-0,016
-559,744	800,000	-0,042	0,092
-558,729	-90,582	0,157	-0,033
-557,715	120,290	-0,058	-0,053
-556,700	-200,000	0,012	-0,170
-555,685	551,672	0,079	0,139
-554,671	1,233	-0,013	-0,007
-553,656	-200,000	0,009	0,058
-552,642	-88,693	-0,044	0,010
-551,627	-10,787	-0,069	0,033
-550,612	-200,000	-0,018	-0,096
-549,598	3,861	-0,072	-0,038
-548,583	-25,393	0,021	-0,009
-547,569	800,000	-0,008	-0,022
-546,554	-200,000	-0,013	0,046
-545,539	-71,314	-0,042	0,011
-544,525	-26,055	0,020	0,008
-543,510	-200,000	0,013	0,119
-542,496	-200,000	0,061	-0,200
-541,481	-40,216	-0,082	-0,031
-540,466	800,000	-0,041	-0,093
-539,452	13,776	0,176	-0,100
-538,437	-200,000	0,011	-0,057
-537,423	800,000	-0,043	0,091
-536,408	389,339	0,046	-0,069
-535,393	305,745	-0,031	-0,042
-534,379	174,385	-0,069	0,073
-533,364	240,744	0,068	-0,083
-532,350	-64,939	0,105	0,031
-531,335	56,227	-0,054	0,038
-530,321	421,585	0,116	0,183
-529,306	8,701	-0,100	0,055
-528,291	-200,000	-0,044	-0,192
-527,277	-142,791	-0,045	0,003
-526,262	-121,463	0,102	0,012
-525,248	210,636	-0,017	-0,020
-524,233	432,836	0,049	0,077
-523,218	-200,000	-0,006	-0,026
-522,204	-17,997	-0,059	0,027
-521,189	-47,948	0,041	0,015
-520,175	-45,672	-0,089	-0,032
-519,160	-129,258	-0,095	-0,010
-518,145	365,830	0,059	0,087
-517,131	129,375	0,222	0,207
-516,116	-200,000	0,026	-0,153
-515,102	167,875	0,014	0,014
-514,087	-167,993	-0,210	0,006
-513,072	-200,000	-0,012	0,045
-512,058	-70,803	0,075	0,021
-511,043	240,541	0,035	-0,043
-510,029	52,674	0,078	-0,055
-509,014	-200,000	0,000	-0,055
-507,999	-200,000	0,013	-0,046
-506,985	57,646	-0,122	-0,087
-505,970	-200,000	0,049	-0,160
-504,956	-54,832	-0,058	-0,019
-503,941	623,365	-0,084	0,155
-502,926	-200,000	-0,005	0,089
-501,912	34,297	0,135	-0,086
-500,897	-33,264	0,127	0,051
-499,883	-12,283	-0,109	-0,052
-498,868	-200,000	-0,026	-0,117
-497,853	318,588	0,033	0,046
-496,839	-100,393	0,034	0,006
-495,824	-200,000	-0,032	0,145
-494,810	-11,071	0,048	0,023
-493,795	64,820	0,075	0,055
-492,781	-200,000	0,001	0,050
-491,766	-130,042	-0,056	-0,005
-490,751	-200,000	-0,016	0,076
-489,737	636,395	0,040	-0,075
-488,722	16,967	0,057	0,033
-487,708	800,000	0,054	0,123
-486,693	-125,610	0,078	-0,009
-485,678	-97,681	-0,037	0,007
-484,664	236,611	0,076	0,092
-483,649	105,579	-0,083	-0,072
-482,635	800,000	-0,053	-0,162
-481,620	563,124	0,034	-0,060
-480,605	-200,000	0,003	0,145
-479,591	254,730	0,033	0,041
-478,576	44,387	0,038	0,025
-477,562	800,000	-0,011	-0,028
-476,547	40,000	-0,107	-0,070
-475,532	134,117	-0,037	-0,035
-474,518	-21,834	-0,119	-0,053
-473,503	80,880	-0,034	-0,027
-472,489	-122,991	0,122	0,014
-471,474	-200,000	-0,019	0,116
-470,459	-200,000	0,008	0,067
-469,445	800,000	-0,027	-0,063
-468,430	194,241	-0,087	-0,096
-467,416	-90,727	0,105	0,022
-466,401	55,308	-0,133	-0,093
-465,386	-200,000	0,016	-0,058
-464,372	-200,000	-0,013	0,077
-463,357	202,629	0,058	0,066
-462,343	800,000	-0,024	-0,071
-461,328	675,640	-0,032	-0,061
-460,313	130,451	0,100	0,094
-459,299	800,000	-0,008	0,018
-458,284	-86,789	0,068	0,015
-457,270	133,432	0,127	0,120
-456,255	-200,000	-0,002	0,149
-455,241	226,323	-0,058	-0,069
-454,226	-57,770	0,079	-0,025
-453,211	402,964	-0,039	0,060
-452,197	-2,859	-0,056	-0,029
-451,182	-71,832	-0,146	-0,039
-450,168	99,551	-0,030	-0,026
-449,153	-200,000	0,038	-0,146
-448,138	10,417	0,046	0,025
-447,124	215,907	-0,088	-0,102
-446,109	-200,000	-0,007	-0,059
-445,095	-2,054	-0,102	0,052
-444,080	127,861	0,110	0,102
-443,065	800,000	-0,018	-0,041
-442,051	36,133	0,060	-0,038
-441,036	-200,000	-0,015	-0,105
-440,022	548,920	-0,066	-0,115
-439,007	-200,000	-0,029	-0,164
-437,992	196,382	0,035	-0,039
-436,978	800,000	0,052	-0,109
-435,963	-200,000	-0,001	0,105
-434,949	-18,838	-0,122	-0,055
-433,934	80,128	0,079	-0,062
-432,919	116,519	-0,061	-0,055
-431,905	-151,462	0,114	-0,006
-430,890	-41,792	-0,057	-0,021
-429,876	-200,000	0,011	0,038
-428,861	3,794	0,111	-0,059
-427,846	-141,709	-0,147	-0,011
-426,832	140,214	-0,033	0,032
-425,817	119,325	0,070	-0,063
-424,803	-200,000	0,003	-0,063
-423,788	-113,168	0,097	0,014
-422,773	-180,992	-0,028	-0,000
-421,759	-107,804	-0,032	0,005
-420,744	-200,000	-0,001	-0,088
-419,730	21,977	-0,081	-0,048
-418,715	800,000	-0,045	0,097
-417,701	-132,828	-0,034	0,003
-416,686	60,750	0,097	0,070
-415,671	-119,965	0,073	0,009
-414,657	-136,445	0,068	-0,006
-413,642	-200,000	-0,008	0,065
-412,628	-153,016	-0,033	0,002
-411,613	-68,118	-0,230	0,065
-410,598	-173,321	0,118	-0,003
-409,584	118,621	-0,055	-0,050
-408,569	-74,364	0,195	0,051
-407,555	-200,000	0,025	0,247
-406,540	-98,054	-0,054	0,010
-405,525	256,980	-0,034	-0,042
-404,511	800,000	-0,021	0,048
-403,496	-200,000	-0,003	0,064
-402,482	60,628	0,080	0,057
-401,467	-23,888	0,103	-0,045
-400,452	628,149	0,039	0,072
-399,438	-200,000	-0,016	0,090
-398,423	128,027	0,110	-0,101
-397,409	800,000	-0,053	-0,142
-396,394	39,998	-0,024	-0,016
-395,379	-52,832	-0,043	0,014
-394,365	-124,187	0,054	-0,006
-393,350	522,677	0,034	0,058
-392,336	-29,012	-0,054	0,023
-391,321	-167,544	-0,042	-0,001
-390,306	172,037	0,079	0,083
-389,292	327,862	0,054	-0,076
-388,277	800,000	0,019	-0,045
-387,263	181,731	-0,104	-0,112
-386,248	-117,587	0,067	0,009
-385,233	749,372	-0,026	-0,051
-384,219	-49,773	-0,023	0,008
-383,204	800,000	-0,108	-0,219
-382,190	238,897	0,053	-0,064
-381,175	93,237	-0,144	-0,118
-380,160	-17,903	0,098	0,045
-379,146	-200,000	0,008	0,097
-378,131	-200,000	-0,004	0,014
-377,117	-112,351	0,035	-0,005
-376,102	7,531	0,018	0,010
-375,088	142,125	0,048	-0,046
-374,073	-90,191	0,122	0,026
-373,058	-166,862	-0,077	0,002
-372,044	-200,000	-0,010	0,082
-371,029	113,088	0,017	-0,015
-370,015	-200,000	0,008	-0,081
-369,000	511,770	-0,093	-0,158
-367,985	-200,000	-0,012	-0,136
-366,971	38,929	-0,058	-0,037
-365,956	199,499	-0,047	0,052
-364,942	-200,000	0,046	0,159
-363,927	-52,517	-0,046	0,015
-362,912	612,156	0,054	-0,098
-361,898	-200,000	-0,001	0,065
-360,883	192,139	-0,113	-0,124
-359,869	325,224	-0,038	-0,053
-358,854	-140,999	0,066	-0,005
-357,839	-200,000	-0,026	-0,106
-356,825	36,366	0,010	0,006
-355,810	-200,000	-0,025	0,152
-354,796	71,506	0,098	-0,074
-353,781	800,000	-0,075	-0,152
-352,766	448,649	-0,029	-0,046
-351,752	-169,489	0,078	-0,002
-350,737	-25,603	0,051	-0,022
-349,723	-98,764	-0,131	0,024
-348,708	-72,737	0,185	-0,049
-347,693	-32,285	-0,136	-0,055
-346,679	-200,000	0,005	-0,095
-345,664	259,488	0,096	-0,121
-344,650	-44,341	0,023	0,008
-343,635	109,761	-0,032	-0,028
-342,620	-200,000	-0,030	0,104
-341,606	574,866	0,104	0,185
-340,591	-62,883	-0,175	0,052
-339,577	-93,992	-0,084	0,017
-338,562	-200,000	-0,033	-0,115
-337,548	218,035	0,095	-0,110
-336,533	235,794	0,013	0,016
-335,518	290,695	-0,122	-0,161
-334,504	-83,439	0,124	0,029
-333,489	-200,000	-0,024	-0,095
-332,475	-200,000	0,007	-0,144
-331,460	-175,806	-0,220	-0,004
-330,445	380,969	-0,012	0,018
-329,431	-72,038	0,090	0,024
-328,416	-14,656	0,068	-0,031
-327,402	-200,000	0,021	-0,081
-326,387	-122,626	-0,060	0,007
-325,372	-56,715	-0,059	-0,019
-324,358	-96,764	0,075	-0,014
-323,343	-200,000	0,001	-0,044
-322,329	800,000	-0,051	0,148
-321,314	800,000	0,059	0,130
-320,299	31,945	0,087	0,054
-319,285	493,607	0,054	0,090
-318,270	-200,000	-0,014	0,090
-317,256	29,807	-0,088	-0,054
-316,241	601,215	0,034	0,061
-315,226	178,976	0,010	0,011
-314,212	761,292	0,069	0,136
-313,197	-140,455	0,010	-0,001
-312,183	-200,000	-0,011	-0,134
-311,168	-2,161	-0,135	-0,068
-310,153	688,008	-0,059	-0,112
-309,139	410,982	0,077	-0,119
-308,124	-42,012	-0,028	-0,010
-307,110	-200,000	0,016	0,079
-306,095	78,769	0,045	0,035
-305,080	-141,092	-0,040	0,003
-304,066	-69,256	-0,202	-0,056
-303,051	86,747	-0,067	-0,053
-302,037	-25,831	-0,051	0,022
-301,022	50,404	0,046	0,031
-300,008	-200,000	0,022	0,097
-298,993	-200,000	-0,015	0,164
-297,978	-200,000	-0,014	0,095
-296,964	-154,759	0,031	-0,001
-295,949	-200,000	0,002	-0,047
-294,935	-200,000	0,011	-0,073
-293,920	592,538	-0,036	0,064
-292,905	8,532	-0,076	0,041
-291,891	198,232	0,056	0,062
-290,876	-200,000	0,000	0,078
-289,862	-140,342	0,106	0,008
-288,847	-70,380	-0,090	0,025
-287,832	167,858	-0,118	0,122
-286,818	-175,226	-0,081	-0,002
-285,803	-32,886	0,159	-0,064
-284,789	-64,859	-0,034	0,010
-283,774	42,492	0,062	0,041
-282,759	-171,672	0,052	0,001
-281,745	207,302	0,048	0,054
-280,730	-200,000	-0,110	-0,000
-279,716	800,000	0,029	-0,059
-278,701	-185,521	0,107	-0,001
-277,686	-82,293	0,121	-0,028
-276,672	-200,000	-0,027	0,097
-275,657	303,134	0,083	0,112
-274,643	-67,061	0,034	0,010
-273,628	-200,000	-0,014	-0,070
-272,613	22,712	-0,146	-0,086
-271,599	60,768	0,078	0,056
-270,584	800,000	-0,059	0,146
-269,570	447,524	0,049	0,078
-268,555	-200,000	-0,013	-0,068
-267,540	130,946	0,015	-0,014
-266,526	-101,016	-0,106	0,019
-265,511	766,131	0,026	0,051
-264,497	-200,000	0,018	0,113
-263,482	730,331	0,020	0,039
-262,467	800,000	-0,038	0,088
-261,453	30,719	-0,075	-0,046
-260,438	-24,407	-0,044	0,019
-259,424	-200,000	0,055	0,248
-258,409	633,273	-0,051	0,093
-257,395	55,155	0,132	0,092
-256,380	153,986	0,112	-0,112
-255,365	5,831	0,034	0,018
-254,351	-200,000	-0,004	0,080
-253,336	20,446	0,175	-0,102
-252,322	-200,000	0,011	0,054
-251,307	-200,000	0,049	-0,184
-250,292	125,664	-0,043	-0,039
-249,278	-200,000	-0,022	0,092
-248,263	-80,713	0,160	0,038
-247,249	7,423	-0,200	0,108
-246,234	-200,000	-0,040	0,156
-245,219	293,484	-0,080	0,106
-244,205	422,930	-0,080	-0,125
-243,190	-40,454	-0,091	0,034
-242,176	-200,000	0,017	0,081
-241,161	70,119	0,135	0,101
-240,146	233,651	0,094	0,112
-239,132	800,000	-0,032	-0,072
-238,117	-178,961	0,181	-0,003
-237,103	-13,109	-0,063	0,029
-236,088	-4,793	0,020	-0,010
-235,073	187,739	-0,064	0,070
-234,059	17,864	0,121	0,070
-233,044	800,000	-0,054	0,124
-232,030	-200,000	-0,018	0,092
-231,015	324,296	0,087	-0,120
-230,000	-200,000	0,004	-0,020
-228,986	364,594	0,113	0,165
-227,971	800,000	0,037	0,107
-226,957	-200,000	0,014	0,065
-225,942	68,806	0,087	0,064
-224,927	800,000	0,031	0,095
-223,913	256,337	-0,073	-0,090
-222,898	105,630	-0,085	-0,073
-221,884	-135,654	-0,095	-0,008
-220,869	-139,197	0,186	-0,014
-219,855	-95,412	0,048	-0,009
-218,840	-73,627	-0,048	-0,013
-217,825	-116,203	-0,070	-0,009
-216,811	-133,395	0,122	0,011
-215,796	-27,667	0,078	0,033
-214,782	-29,324	0,066	0,027
-213,767	-200,000	-0,012	0,115
-212,752	405,132	0,074	0,114
-211,738	7,727	0,104	0,056
-210,723	-200,000	0,022	0,140
-209,709	800,000	-0,020	0,052
-208,694	765,776	-0,039	-0,076
-207,679	800,000	-0,063	-0,152
-206,665	45,630	0,064	-0,042
-205,650	-200,000	0,012	0,086
-204,636	800,000	-0,019	-0,051
-203,621	800,000	0,034	0,079
-202,606	148,551	0,039	-0,038
-201,592	147,496	0,098	-0,095
-200,577	800,000	0,054	-0,109
-199,563	-200,000	0,010	0,170
-198,548	129,928	-0,055	-0,051
-197,533	-110,889	0,064	-0,009
-196,519	-200,000	0,037	0,128
-195,504	-83,208	-0,136	-0,031
-194,490	220,439	0,099	-0,114
-193,475	-200,000	0,007	0,051
-192,460	-4,687	0,027	0,013
-191,446	449,658	-0,046	-0,074
-190,431	-200,000	-0,006	0,021
-189,417	-143,257	0,093	-0,006
-188,402	-200,000	-0,002	0,025
-187,387	355,160	-0,040	0,058
-186,373	-43,068	-0,086	0,031
-185,358	800,000	0,039	0,115
-184,344	-200,000	0,027	0,092
-183,329	-200,000	0,002	0,038
-182,315	435,803	0,045	0,071
-181,300	237,190	-0,084	0,101
-180,285	-69,182	0,129	-0,035
-179,271	-200,000	0,003	0,017
-178,256	-200,000	0,021	-0,146
-177,242	404,917	0,107	0,163
-176,227	-200,000	0,002	0,082
-175,212	43,835	-0,132	-0,087
-174,198	-200,000	-0,002	-0,065
-173,183	-75,413	0,159	-0,040
-172,169	-200,000	-0,032	-0,141
-171,154	-200,000	-0,019	-0,063
-170,139	800,000	-0,025	-0,053
-169,125	-200,000	0,004	-0,079
-168,110	-52,897	0,223	0,073
-167,096	-75,929	0,015	0,004
-166,081	57,361	-0,093	-0,065
-165,066	800,000	0,079	-0,206
-164,052	159,558	-0,025	-0,025
-163,037	449,617	0,070	0,112
-162,023	365,836	-0,042	0,061
-161,008	-200,000	0,034	0,111
-159,993	-58,773	0,015	0,005
-158,979	-200,000	-0,026	-0,145
-157,964	-195,698	-0,128	0,001
-156,950	-36,987	-0,114	-0,044
-155,935	200,545	-0,037	0,040
-154,920	800,000	0,057	0,117
-153,906	-141,694	0,117	-0,008
-152,891	-200,000	-0,014	-0,048
-151,877	365,132	0,029	-0,043
-150,862	-49,187	-0,126	-0,043
-149,847	120,462	0,060	0,054
-148,833	-200,000	0,005	-0,098
-147,818	602,089	0,031	-0,056
-146,804	-200,000	-0,001	0,084
-145,789	102,855	0,056	-0,047
-144,775	190,361	-0,020	-0,021
-143,760	669,544	-0,010	-0,019
-142,745	518,534	-0,010	-0,016
-141,731	-200,000	-0,018	-0,095
-140,716	1,512	0,050	0,026
-139,702	-90,671	-0,091	-0,019
-138,687	-200,000	0,006	0,077
-137,672	-200,000	0,019	0,104
-136,658	331,626	-0,128	0,178
-135,643	-100,329	-0,101	0,018
-134,629	-200,000	0,023	-0,117
-133,614	-161,846	0,124	-0,004
-132,599	-53,343	0,152	0,050
-131,585	-200,000	0,022	-0,114
-130,570	-102,102	-0,034	-0,006
-129,556	295,056	-0,082	-0,108
-128,541	4,033	-0,118	-0,062
-127,526	265,877	-0,014	-0,017
-126,512	800,000	-0,088	-0,178
-125,497	-64,672	0,045	0,013
-124,483	800,000	-0,011	-0,023
-123,468	-200,000	-0,024	-0,130
-122,453	-200,000	-0,007	-0,071
-121,439	-9,565	-0,064	-0,031
-120,424	-200,000	0,000	0,041
-119,410	-115,687	-0,025	0,003
-118,395	278,634	-0,021	0,027
-117,380	800,000	-0,004	0,010
-116,366	120,371	0,026	-0,023
-115,351	-200,000	0,008	0,046
-114,337	-21,153	-0,105	-0,046
-113,322	67,198	-0,112	-0,082
-112,307	-5,782	-0,069	0,034
-111,293	477,587	0,058	0,095
-110,278	-40,378	-0,134	-0,050
-109,264	245,788	-0,058	0,071
-108,249	152,633	-0,077	0,076
-107,234	-61,123	-0,091	0,027
-106,220	135,885	0,043	0,040
-105,205	-200,000	0,010	-0,095
-104,191	185,213	0,063	0,067
-103,176	-145,934	0,107	-0,007
-102,162	138,981	0,035	-0,033
-101,147	-10,949	-0,096	0,045
-100,132	-20,823	-0,095	0,042
-99,118	800,000	0,022	0,063
-98,103	311,793	0,048	0,065
-97,089	-200,000	-0,010	0,086
-96,074	800,000	0,035	-0,108
-95,059	119,455	-0,038	-0,034
-94,045	321,810	-0,043	0,059
-93,030	18,645	0,064	0,037
-92,016	-128,228	0,032	0,003
-91,001	783,552	0,068	0,135
-89,986	-46,438	0,042	0,015
-88,972	-200,000	-0,014	0,160
-87,957	-200,000	0,004	0,031
-86,943	172,377	0,032	0,033
-85,928	17,496	0,059	-0,034
-84,913	-200,000	-0,012	-0,101
-83,899	-200,000	0,006	0,096
-82,884	-200,000	0,017	0,070
-81,870	-200,000	-0,023	0,124
-80,855	213,442	0,087	-0,099
-79,840	-5,667	-0,145	-0,071
-78,826	-8,493	0,050	-0,024
-77,811	-8,229	0,093	-0,045
-76,797	277,623	0,068	-0,087
-75,782	10,826	0,110	-0,060
-74,767	-24,847	0,201	0,085
-73,753	-85,704	0,065	-0,014
-72,738	157,827	0,045	-0,044
-71,724	68,629	0,019	-0,014
-70,709	-66,675	-0,120	0,034
-69,694	-200,000	-0,010	0,080
-68,680	646,783	-0,034	-0,064
-67,665	297,439	-0,064	-0,084
-66,651	-200,000	0,024	-0,099
-65,636	155,612	-0,089	-0,089
-64,622	-172,475	0,102	0,002
-63,607	-87,871	-0,129	-0,028
-62,592	-200,000	-0,005	-0,180
-61,578	800,000	0,048	0,112
-60,563	38,500	-0,077	-0,049
-59,549	-200,000	0,031	0,115
-58,534	24,944	-1,982	-1,177
-57,519	-200,000	-0,117	-0,769
-56,505	-200,000	-1,380	-4,970
-55,490	79,159	0,949	0,729
-54,476	800,000	5,160	11,675
-53,461	-200,000	17,806	290,129
-52,446	800,000	726,400	2231,417
-51,432	537,197	1639,253	2804,640
-50,417	109,774	1629,050	1401,275
-49,403	73,327	1283,315	962,385
-48,388	31,549	1026,103	631,533
-47,373	19,899	988,152	569,804
-46,359	18,279	976,207	557,590
-45,344	15,615	972,046	546,487
-44,330	15,798	970,866	546,398
-43,315	15,322	968,951	543,747
-42,300	15,333	967,856	543,149
-41,286	15,246	966,913	542,313
-40,271	15,285	965,918	541,860
-39,257	15,266	964,961	541,241
-38,242	15,283	964,158	540,823
-37,227	15,302	963,421	540,451
-36,213	15,240	962,644	539,793
-35,198	15,222	961,784	539,230
-34,184	15,290	961,092	539,042
-33,169	15,283	959,929	538,346
-32,154	15,253	959,269	537,857
-31,140	15,320	958,154	537,426
-30,125	15,363	957,321	537,076
-29,111	15,278	956,631	536,392
-28,096	15,288	956,102	536,108
-27,082	15,258	955,425	535,610
-26,067	15,323	954,499	535,278
-25,052	15,274	953,708	534,656
-24,038	15,323	953,075	534,438
-23,023	15,307	952,308	533,935
-22,009	15,283	951,820	533,564
-20,994	15,297	951,138	533,205
-19,979	15,283	950,405	532,727
-18,965	15,277	950,040	532,484
-17,950	15,291	949,338	532,113
-16,936	15,235	948,636	531,520
-15,921	15,212	948,094	531,124
-14,906	15,184	947,297	530,567
-13,892	15,137	946,876	530,158
-12,877	15,166	946,165	529,832
-11,863	15,212	945,326	529,487
-10,848	15,165	944,993	529,131
-9,833	15,257	944,382	529,061
-8,819	15,217	943,821	528,597
-7,804	15,182	943,099	528,060
-6,790	15,163	942,622	527,714
-5,775	15,228	942,164	527,641
-4,760	15,240	941,493	527,283
-3,746	15,215	940,777	526,781
-2,731	15,074	939,977	525,866
-1,717	15,058	939,468	525,512
-0,702	14,986	938,860	524,923
0,313	14,825	938,211	524,845
1,327	18,214	936,104	534,284
2,342	27,332	789,736	474,755
3,356	23,866	444,339	261,966
4,371	-5,471	294,847	144,574
5,386	-9,544	276,588	131,757
6,400	-10,708	270,890	127,952
7,415	-10,913	268,607	126,674
8,429	-11,049	267,294	125,919
9,444	-10,876	266,224	125,561
10,459	-11,104	265,739	125,114
11,473	-11,048	265,146	124,875
12,488	-10,947	264,457	124,631
13,502	-11,295	263,864	124,025
14,517	-11,153	263,497	123,970
15,531	-11,289	263,133	123,666
16,546	-11,048	262,829	123,728
17,561	-11,123	262,363	123,430
18,575	-11,013	262,180	123,432
19,590	-11,265	261,641	122,942
20,604	-11,211	261,430	122,880
21,619	-11,194	261,129	122,743
22,634	-11,203	260,609	122,479
23,648	-11,277	260,485	122,345
24,663	-11,241	260,232	122,247
25,677	-11,351	259,833	121,951
26,692	-11,360	259,756	121,896
27,707	-11,431	259,352	121,632
28,721	-11,255	259,047	121,634
29,736	-11,440	258,727	121,310
30,750	-11,208	258,480	121,388
31,765	-11,388	258,207	121,090
32,780	-11,412	258,062	120,990
33,794	-11,150	257,765	121,071
34,809	-11,274	257,691	120,915
35,823	-11,440	257,331	120,590
36,838	-11,557	257,149	120,392
37,853	-11,086	256,732	120,598
38,867	-11,393	256,453	120,188
39,882	-11,388	256,422	120,167
40,896	-11,403	256,254	120,065
41,911	-11,354	256,019	119,986
42,926	-11,431	255,592	119,708
43,940	-11,257	255,347	119,734
44,955	-11,481	255,206	119,463
45,969	-11,507	254,964	119,316
46,984	-11,661	254,780	119,085
47,999	-11,917	254,525	118,734
49,013	-11,835	254,131	118,610
50,028	-12,266	253,949	118,141
51,042	-12,160	253,714	118,114
52,057	-12,366	253,530	117,839
53,071	-12,097	253,268	117,939
54,086	-12,115	253,119	117,844
55,101	-12,049	253,048	117,857
56,115	-11,627	252,917	118,149
57,130	-11,299	252,625	118,285
58,144	-10,974	252,598	118,541
59,159	-11,102	252,433	118,343
60,174	-11,255	252,123	118,056
61,188	-11,115	251,996	118,106
62,203	-11,245	251,830	117,906
63,217	-11,206	251,479	117,765
64,232	-10,976	251,153	117,799
65,247	-11,120	251,104	117,642
66,261	-11,252	250,830	117,390
67,276	-11,492	250,594	117,064
68,290	-11,670	250,335	116,781
69,305	-11,753	250,071	116,577
70,320	-11,634	249,913	116,594
71,334	-11,386	249,739	116,714
72,349	-11,195	249,667	116,832
73,363	-11,029	249,433	116,853
74,378	-11,161	249,335	116,684
75,393	-11,259	248,946	116,409
76,407	-11,310	248,748	116,263
77,422	-11,133	248,585	116,326
78,436	-11,342	248,417	116,061
79,451	-11,184	248,105	116,037
80,466	-11,430	247,979	115,761
81,480	-11,409	247,595	115,589
82,495	-11,583	247,338	115,312
83,509	-11,462	247,405	115,435
84,524	-11,676	246,988	115,050
85,539	-11,547	246,786	115,054
86,553	-11,626	246,703	114,939
87,568	-11,550	246,510	114,903
88,582	-11,555	246,291	114,786
89,597	-11,668	246,224	114,650
90,611	-11,472	245,951	114,677
91,626	-11,200	245,820	114,833
92,641	-11,412	245,761	114,618
93,655	-11,368	245,457	114,502
94,670	-11,350	245,252	114,411
95,684	-11,337	245,038	114,313
96,699	-11,363	244,856	114,195
97,714	-11,445	244,718	114,053
98,728	-11,644	244,434	113,745
99,743	-11,869	244,305	113,488
100,757	-11,885	243,987	113,318
101,772	-11,618	243,753	113,420
102,787	-11,644	243,749	113,386
103,801	-11,667	243,674	113,322
104,816	-11,528	243,479	113,336
105,830	-11,248	243,267	113,458
106,845	-11,215	243,054	113,376
107,860	-11,314	242,925	113,225
108,874	-11,420	242,575	112,964
109,889	-11,511	242,402	112,798
110,903	-11,570	242,131	112,613
111,918	-11,544	242,015	112,571
112,933	-11,472	241,852	112,544
113,947	-11,210	241,657	112,658
114,962	-11,348	241,618	112,517
115,976	-11,420	241,427	112,359
116,991	-11,339	241,230	112,323
118,006	-11,411	240,997	112,147
119,020	-11,488	240,950	112,052
120,035	-11,314	240,847	112,136
121,049	-11,367	240,731	112,028
122,064	-11,478	240,537	111,837
123,079	-11,391	240,240	111,760
124,093	-11,552	239,983	111,500
125,108	-11,666	239,732	111,280
126,122	-11,718	239,512	111,126
127,137	-11,686	239,226	111,010
128,151	-11,714	239,256	110,991
129,166	-11,622	239,029	110,950
130,181	-11,561	238,785	110,876
131,195	-11,848	238,661	110,577
132,210	-11,673	238,516	110,641
133,224	-11,411	238,410	110,794
134,239	-11,409	238,268	110,720
135,254	-11,259	238,045	110,727
136,268	-11,479	237,787	110,420
137,283	-11,847	237,590	110,023
138,297	-11,595	237,372	110,114
139,312	-11,851	237,020	109,736
140,327	-11,624	237,206	109,994
141,341	-11,137	237,063	110,309
142,356	-11,088	236,943	110,283
143,370	-11,102	236,714	110,155
144,385	-10,953	236,583	110,204
145,400	-10,873	236,408	110,176
146,414	-11,053	236,356	109,998
147,429	-11,184	236,067	109,749
148,443	-10,983	235,740	109,748
149,458	-11,052	235,676	109,653
150,473	-10,991	235,562	109,639
151,487	-11,211	235,243	109,305
152,502	-11,197	235,246	109,309
153,516	-10,865	235,032	109,463
154,531	-10,971	234,838	109,279
155,546	-11,041	234,623	109,114
156,560	-11,081	234,574	109,050
157,575	-11,265	234,355	108,792
158,589	-11,225	234,118	108,704
159,604	-10,873	233,917	108,880
160,619	-10,985	233,934	108,789
161,633	-10,930	233,791	108,756
162,648	-10,931	233,515	108,617
163,662	-11,200	233,505	108,390
164,677	-11,101	233,213	108,323
165,692	-11,035	233,178	108,350
166,706	-10,851	233,044	108,422
167,721	-10,901	232,841	108,278
168,735	-10,803	232,731	108,295
169,750	-11,026	232,492	107,999
170,764	-11,155	232,434	107,861
171,779	-10,991	232,168	107,857
172,794	-10,812	231,873	107,851
173,808	-10,953	231,750	107,673
174,823	-11,659	231,488	106,990
175,837	-11,731	231,256	106,818
176,852	-11,434	231,328	107,073
177,867	-11,024	231,349	107,393
178,881	-10,960	231,157	107,344
179,896	-11,030	230,962	107,190
180,910	-10,872	230,802	107,229
181,925	-10,879	230,623	107,131
182,940	-10,932	230,521	107,033
183,954	-11,080	230,503	106,900
184,969	-10,941	230,218	106,866
185,983	-11,051	230,147	106,738
186,998	-10,584	229,857	106,955
188,013	-10,742	229,707	106,754
189,027	-10,946	229,573	106,525
190,042	-10,919	229,444	106,475
191,056	-10,843	229,246	106,433
192,071	-10,868	229,004	106,292
193,086	-10,837	228,870	106,245
194,100	-10,749	228,683	106,216
195,115	-11,193	228,418	105,742
196,129	-11,356	228,473	105,632
197,144	-5,963	230,212	110,603
198,159	0,055	231,835	116,052
199,173	3,093	232,738	118,858
200,188	3,546	232,679	119,169
201,202	3,385	232,509	118,947
202,217	3,386	232,518	118,942
203,232	3,728	232,255	119,062
204,246	3,840	232,076	119,045
205,261	3,774	232,016	118,954
206,275	3,899	231,948	119,005
207,290	4,042	231,735	118,996
208,304	3,863	231,530	118,742
209,319	3,810	231,401	118,623
210,334	3,580	231,204	118,335
211,348	3,453	231,095	118,170
212,363	3,417	230,727	117,944
213,377	3,036	230,490	117,519
214,392	3,126	230,335	117,499
215,407	3,242	230,208	117,512
216,421	3,331	230,106	117,519
217,436	3,298	229,807	117,330
218,450	3,011	229,656	117,022
219,465	2,810	229,419	116,737
220,480	3,239	229,271	116,980
221,494	2,715	229,269	116,568
222,509	3,362	229,301	117,068
223,523	3,288	229,025	116,860
224,538	3,090	228,782	116,575
225,553	2,939	228,770	116,443
226,567	2,994	228,573	116,375
227,582	3,371	228,407	116,566
228,596	3,324	228,425	116,530
229,611	3,047	228,237	116,213
230,626	2,939	227,983	115,991
231,640	2,890	227,849	115,875
232,655	3,286	227,772	116,127
233,669	3,537	227,648	116,243
234,684	3,508	227,675	116,224
235,699	3,553	227,465	116,141
236,713	3,175	227,156	115,687
237,728	2,941	227,029	115,435
238,742	2,904	226,702	115,231
239,757	3,032	226,735	115,334
240,772	3,128	226,429	115,240
241,786	3,028	226,407	115,143
242,801	3,300	226,307	115,287
243,815	3,473	226,162	115,333
244,830	3,485	225,938	115,217
245,844	3,116	225,773	114,846
246,859	3,083	225,618	114,732
247,874	3,533	225,616	115,059
248,888	3,297	225,475	114,799
249,903	3,273	225,300	114,682
250,917	3,277	225,126	114,586
251,932	3,137	224,891	114,352
252,947	3,068	224,772	114,230
253,961	3,104	224,500	114,108
254,976	3,112	224,430	114,068
255,990	3,373	224,449	114,262
257,005	3,433	224,329	114,236
258,020	3,355	224,179	114,091
259,034	3,244	224,044	113,930
260,049	3,531	223,853	114,035
261,063	3,385	223,691	113,835
262,078	3,401	223,578	113,779
263,093	3,595	223,360	113,802
264,107	3,432	223,297	113,639
265,122	3,349	223,204	113,520
266,136	3,648	222,981	113,617
267,151	3,561	222,795	113,448
268,166	3,268	222,578	113,111
269,180	2,976	222,282	112,735
270,195	3,100	222,251	112,800
271,209	2,989	222,134	112,650
272,224	3,192	222,045	112,744
273,239	3,416	221,838	112,793
274,253	3,224	221,666	112,555
275,268	2,993	221,464	112,273
276,282	2,755	221,406	112,058
277,297	2,852	221,197	112,014
278,312	3,224	221,138	112,246
279,326	3,076	220,903	112,009
280,341	3,104	220,732	111,933
281,355	3,324	220,710	112,072
282,370	3,151	220,499	111,829
283,384	2,854	220,210	111,456
284,399	2,784	220,350	111,465
285,414	2,815	220,141	111,372
286,428	3,182	219,985	111,552
287,443	3,423	219,821	111,633
288,457	3,275	219,748	111,479
289,472	3,075	219,470	111,182
290,487	2,444	219,277	110,616
291,501	2,838	219,179	110,843
292,516	2,809	219,150	110,798
293,530	2,808	218,926	110,673
294,545	2,905	218,841	110,691
295,560	3,123	218,640	110,737
296,574	3,021	218,631	110,649
297,589	3,078	218,417	110,572
298,603	3,077	218,420	110,563
299,618	3,267	218,276	110,618
300,633	3,119	218,141	110,432
301,647	3,425	218,009	110,577
302,662	3,501	217,784	110,507
303,676	3,391	217,726	110,389
304,691	3,565	217,483	110,381
305,706	3,397	217,386	110,201
306,720	3,458	217,228	110,155
307,735	3,045	217,082	109,774
308,749	3,097	216,925	109,723
309,764	3,340	216,771	109,809
310,779	3,334	216,734	109,777
311,793	3,436	216,431	109,686
312,808	3,382	216,351	109,598
313,822	3,198	216,237	109,399
314,837	3,099	216,087	109,242
315,852	2,921	216,001	109,061
316,866	2,932	215,826	108,971
317,881	3,060	215,923	109,102
318,895	3,426	215,526	109,152
319,910	3,157	215,431	108,903
320,925	2,740	215,218	108,489
321,939	2,757	215,045	108,404
322,954	2,820	214,992	108,412
323,968	3,086	214,966	108,579
324,983	3,275	214,729	108,583
325,997	3,533	214,637	108,710
327,012	3,277	214,416	108,407
328,027	3,156	214,479	108,344
329,041	3,296	214,301	108,343
330,056	3,468	214,088	108,347
331,070	2,925	213,949	107,884
332,085	3,074	213,672	107,839
333,100	3,151	213,578	107,836
334,114	3,319	213,589	107,951
335,129	3,279	213,367	107,801
336,143	3,067	213,194	107,555
337,158	3,262	213,208	107,689
338,173	3,235	213,027	107,569
339,187	3,120	212,790	107,359
340,202	2,908	212,667	107,139
341,216	2,862	212,384	106,955
342,231	2,823	212,425	106,938
343,246	2,665	212,238	106,724
344,260	2,933	212,146	106,856
345,275	3,101	212,052	106,917
346,289	3,241	212,002	106,979
347,304	3,112	211,838	106,798
348,319	3,032	211,664	106,644
349,333	3,134	211,554	106,650
350,348	3,095	211,539	106,607
351,362	3,274	211,283	106,593
352,377	3,428	211,143	106,619
353,392	3,065	211,048	106,310
354,406	3,332	210,757	106,339
355,421	196,583	1340,847	1421,815
356,435	157,046	1478,510	1421,780
