DTS Sentinel unit serial number:	SN410029Multiplexer serial number:	ORYXHardware model number:	OX2-SRSoftware version number:	ORYX F/W v4,00 Oryx Data Collector v3.7.2.0data status	okinstallation	B6 Nyhavnadifferential loss correction	single-endedforward channel	channel 2reverse channel	N/Adate	2023/12/08time	17:20:08forward acquisition time	300,00reverse acquisition time	0,00gamma	499,1914k internal	0,3158k external	0,3158temperature offset calibration	1,0000default loss term (dB/km)	0,3820temperature slope calibration	1,0000multiplexer offset coefficient	1,0000multiplexer slope coefficient	1,0000fibre end	0,00T internal ref (°C)	15,16T ext. ref 1 (°C)	-1,39T ext. ref 2 (°C)	-1,40length (m)	temperature (°C)	Stokes	anti-Stokes-744,400	800,000	0,032	-0,074
-743,385	-3,948	-0,288	0,147
-742,371	-4,550	0,173	-0,088
-741,356	-77,595	-0,302	0,077
-740,342	800,000	0,101	0,242
-739,327	-59,934	-0,288	-0,090
-738,312	-134,331	0,079	-0,007
-737,298	-43,889	-0,345	-0,127
-736,283	-29,502	0,159	0,067
-735,269	-66,981	-0,227	-0,066
-734,254	-200,000	0,045	0,171
-733,239	-115,835	-0,362	-0,049
-732,225	-90,839	0,245	0,052
-731,210	-128,288	0,075	-0,008
-730,196	77,156	0,076	0,059
-729,181	-61,038	-0,140	0,043
-728,167	-36,820	0,094	0,037
-727,152	-200,000	0,032	-0,131
-726,137	99,700	-0,045	0,039
-725,123	-34,258	-0,116	0,047
-724,108	54,364	-0,109	-0,078
-723,094	-145,963	0,139	-0,009
-722,079	54,320	-0,111	-0,079
-721,064	317,192	-0,063	-0,088
-720,050	-116,316	-0,094	0,013
-719,035	-24,722	0,045	-0,019
-718,021	91,413	-0,122	-0,101
-717,006	119,815	-0,075	0,068
-715,991	-83,409	-0,144	-0,034
-714,977	159,597	-0,104	0,106
-713,962	-34,497	-0,056	-0,023
-712,948	-200,000	0,001	-0,048
-711,933	-110,116	-0,070	0,011
-710,918	-200,000	0,010	0,118
-709,904	-81,028	0,107	0,026
-708,889	-68,687	-0,149	-0,042
-707,875	800,000	0,029	-0,088
-706,860	41,163	-0,112	0,074
-705,845	29,019	-0,059	-0,037
-704,831	800,000	0,033	-0,096
-703,816	211,134	-0,106	0,123
-702,802	-99,064	-0,116	0,022
-701,787	189,786	0,030	-0,034
-700,772	-80,895	0,088	0,021
-699,758	291,908	-0,045	0,061
-698,743	517,426	0,037	-0,063
-697,729	-140,469	-0,142	0,011
-696,714	696,655	-0,025	-0,048
-695,699	8,687	0,047	-0,026
-694,685	513,581	0,056	-0,097
-693,670	-105,381	-0,070	-0,012
-692,656	-176,527	-0,077	0,001
-691,641	-200,000	0,016	-0,115
-690,627	800,000	-0,021	-0,052
-689,612	46,079	-0,181	-0,123
-688,597	-99,468	-0,188	-0,034
-687,583	31,678	-0,114	0,072
-686,568	433,499	0,042	-0,067
-685,554	-22,621	-0,111	-0,049
-684,539	-34,945	-0,071	-0,028
-683,524	330,539	-0,030	0,042
-682,510	-83,312	-0,123	-0,029
-681,495	-55,260	-0,086	0,028
-680,481	348,276	-0,008	0,012
-679,466	197,509	-0,060	-0,068
-678,451	13,349	0,125	-0,071
-677,437	-94,390	-0,034	0,007
-676,422	-161,601	0,056	0,002
-675,408	131,564	-0,021	0,020
-674,393	54,169	-0,031	-0,022
-673,378	128,985	-0,074	0,070
-672,364	785,263	-0,012	-0,024
-671,349	800,000	-0,019	-0,058
-670,335	108,993	-0,047	-0,041
-669,320	72,570	-0,003	0,002
-668,305	-82,141	-0,077	0,018
-667,291	-200,000	-0,001	0,064
-666,276	-34,994	-0,042	-0,017
-665,262	-200,000	0,025	-0,129
-664,247	800,000	-0,006	0,012
-663,232	-200,000	0,009	-0,053
-662,218	-115,740	0,162	0,022
-661,203	-133,305	-0,072	-0,007
-660,189	49,169	0,124	-0,086
-659,174	-24,660	-0,136	0,059
-658,159	-200,000	-0,034	-0,113
-657,145	-200,000	0,000	0,028
-656,130	471,631	-0,040	0,066
-655,116	-167,757	-0,099	0,003
-654,101	112,951	0,040	0,035
-653,086	-154,533	-0,132	-0,006
-652,072	103,543	0,105	-0,091
-651,057	153,794	-0,049	-0,050
-650,043	763,728	-0,051	-0,101
-649,028	-200,000	-0,012	-0,101
-648,014	800,000	0,028	0,074
-646,999	76,378	0,133	0,104
-645,984	229,163	0,041	0,049
-644,970	483,276	-0,053	0,089
-643,955	-200,000	0,029	-0,163
-642,941	-200,000	-0,004	-0,070
-641,926	800,000	0,035	0,080
-640,911	-0,509	0,055	-0,028
-639,897	-63,962	-0,060	0,018
-638,882	-11,882	-0,103	-0,049
-637,868	-81,535	0,024	-0,006
-636,853	800,000	-0,054	-0,147
-635,838	229,223	-0,032	0,039
-634,824	156,695	-0,061	0,062
-633,809	800,000	0,011	0,032
-632,795	-200,000	0,001	0,054
-631,780	800,000	0,018	0,051
-630,765	800,000	0,028	0,059
-629,751	-128,178	-0,126	0,013
-628,736	-47,280	-0,209	-0,074
-627,722	-127,956	-0,014	-0,001
-626,707	-83,040	0,119	-0,028
-625,692	5,991	0,141	0,076
-624,678	-123,319	0,076	0,009
-623,663	56,745	-0,085	0,061
-622,649	-200,000	-0,004	-0,128
-621,634	-97,455	-0,070	0,013
-620,619	-19,999	0,157	0,071
-619,605	9,140	0,042	0,023
-618,590	-35,365	-0,024	0,010
-617,576	180,692	0,016	0,018
-616,561	-200,000	0,017	0,059
-615,546	-148,291	-0,052	-0,003
-614,532	-200,000	0,025	-0,094
-613,517	520,204	-0,037	0,064
-612,503	-200,000	0,001	0,089
-611,488	35,526	-0,051	0,033
-610,474	-200,000	0,004	0,063
-609,459	800,000	-0,076	-0,198
-608,444	610,213	-0,056	-0,103
-607,430	122,017	-0,023	0,021
-606,415	217,209	-0,018	0,021
-605,401	607,256	0,031	-0,057
-604,386	800,000	0,034	0,108
-603,371	-200,000	0,001	-0,019
-602,357	210,704	-0,067	-0,077
-601,342	-200,000	-0,036	-0,144
-600,328	160,966	-0,066	-0,068
-599,313	-200,000	0,011	-0,124
-598,298	-88,951	-0,081	0,017
-597,284	-67,875	0,051	0,015
-596,269	174,790	0,057	-0,061
-595,255	800,000	-0,036	0,109
-594,240	474,020	-0,039	0,065
-593,225	-70,999	-0,063	-0,017
-592,211	-200,000	0,006	-0,128
-591,196	311,043	0,106	-0,146
-590,182	61,852	0,083	-0,061
-589,167	-85,039	0,081	-0,019
-588,152	-200,000	-0,049	0,000
-587,138	56,164	-0,216	0,153
-586,123	-200,000	-0,003	0,019
-585,109	-87,884	-0,106	0,023
-584,094	800,000	-0,043	0,091
-583,079	48,264	-0,054	-0,037
-582,065	-200,000	-0,037	-0,165
-581,050	336,890	-0,060	0,085
-580,036	668,450	0,030	-0,056
-579,021	-49,890	0,087	-0,030
-578,006	328,282	-0,095	-0,135
-576,992	419,873	-0,060	-0,094
-575,977	181,969	-0,052	-0,056
-574,963	127,397	0,059	-0,055
-573,948	97,301	-0,090	-0,076
-572,934	800,000	-0,016	-0,043
-571,919	296,262	0,023	0,031
-570,904	424,609	0,069	-0,109
-569,890	417,059	-0,009	-0,013
-568,875	-34,467	-0,030	0,012
-567,861	6,625	0,197	0,107
-566,846	-79,770	0,023	0,006
-565,831	-200,000	-0,006	-0,111
-564,817	-112,085	-0,130	0,019
-563,802	96,664	-0,048	0,041
-562,788	-58,496	-0,109	0,034
-561,773	800,000	-0,065	0,138
-560,758	227,890	-0,014	-0,016
-559,744	735,192	0,048	0,095
-558,729	152,747	-0,037	-0,037
-557,715	-5,690	0,070	0,035
-556,700	800,000	-0,011	-0,035
-555,685	250,031	-0,078	0,098
-554,671	800,000	0,017	-0,051
-553,656	215,090	-0,086	0,100
-552,642	800,000	0,061	0,158
-551,627	25,570	-0,052	0,032
-550,612	343,854	0,033	0,048
-549,598	403,492	-0,063	-0,097
-548,583	167,303	-0,036	-0,037
-547,569	-21,826	0,074	-0,033
-546,554	-200,000	0,002	0,148
-545,539	84,464	-0,116	0,093
-544,525	-42,443	-0,061	0,023
-543,510	405,836	0,030	-0,047
-542,496	39,997	-0,021	0,014
-541,481	-200,000	-0,157	-0,000
-540,466	-35,619	0,107	0,042
-539,452	-151,054	-0,082	-0,004
-538,437	800,000	0,043	-0,122
-537,423	85,570	-0,046	0,037
-536,408	138,224	0,103	-0,098
-535,393	61,995	-0,053	-0,038
-534,379	215,792	0,040	-0,047
-533,364	187,240	0,040	0,043
-532,350	-144,817	0,147	-0,010
-531,335	53,702	0,028	-0,020
-530,321	240,727	-0,056	0,069
-529,306	-1,576	0,035	0,018
-528,291	105,361	-0,076	-0,065
-527,277	-158,963	-0,114	0,005
-526,262	238,230	0,140	0,170
-525,248	122,394	0,025	-0,023
-524,233	684,195	0,059	-0,113
-523,218	-200,000	0,000	-0,047
-522,204	122,590	-0,064	-0,058
-521,189	-51,881	0,059	0,020
-520,175	-200,000	-0,012	-0,084
-519,160	-200,000	0,065	0,000
-518,145	122,017	-0,123	0,112
-517,131	800,000	0,024	0,074
-516,116	-41,207	0,114	0,043
-515,102	503,202	-0,054	0,091
-514,087	-64,517	0,091	0,027
-513,072	59,785	-0,052	-0,037
-512,058	26,417	-0,019	-0,012
-511,043	-200,000	0,013	0,113
-510,029	42,075	-0,079	0,052
-509,014	135,851	0,090	0,086
-507,999	59,235	0,036	0,026
-506,985	-126,150	0,044	-0,005
-505,970	-183,593	-0,037	0,000
-504,956	-200,000	0,003	0,019
-503,941	-98,716	0,096	0,018
-502,926	101,014	0,027	0,023
-501,912	-188,714	0,096	-0,001
-500,897	18,966	-0,043	0,025
-499,883	-200,000	0,019	-0,109
-498,868	101,289	-0,068	-0,058
-497,853	-131,182	-0,137	0,013
-496,839	455,934	0,092	-0,149
-495,824	105,366	0,059	0,051
-494,810	-174,888	0,016	-0,000
-493,795	-148,125	-0,179	-0,011
-492,781	800,000	0,008	0,019
-491,766	20,224	0,045	-0,026
-490,751	-112,446	-0,189	0,027
-489,737	-88,728	0,081	0,017
-488,722	83,590	-0,066	-0,052
-487,708	-200,000	0,007	0,123
-486,693	139,200	-0,073	0,070
-485,678	-200,000	0,012	-0,059
-484,664	592,567	-0,045	0,081
-483,649	-200,000	-0,019	-0,102
-482,635	-18,293	0,069	-0,031
-481,620	-44,668	0,151	-0,055
-480,605	-200,000	0,004	0,015
-479,591	57,110	0,052	0,037
-478,576	-81,295	-0,127	-0,030
-477,562	-200,000	-0,019	-0,197
-476,547	143,759	0,084	-0,082
-475,532	-88,387	-0,141	0,030
-474,518	-55,917	0,052	-0,017
-473,503	-50,568	0,105	-0,036
-472,489	56,056	0,101	-0,071
-471,474	-87,835	-0,145	-0,032
-470,459	-33,185	-0,106	-0,043
-469,445	21,807	-0,076	-0,045
-468,430	127,549	0,030	-0,028
-467,416	288,653	0,125	0,165
-466,401	-129,210	-0,012	-0,001
-465,386	236,214	-0,028	-0,034
-464,372	-138,911	0,046	0,004
-463,357	-5,924	-0,058	0,029
-462,343	31,843	0,099	-0,062
-461,328	-109,792	-0,043	-0,006
-460,313	-52,062	0,075	-0,025
-459,299	-69,199	0,020	-0,005
-458,284	265,250	-0,055	0,070
-457,270	-26,772	-0,193	-0,082
-456,255	150,609	0,110	0,109
-455,241	191,763	0,074	-0,081
-454,226	-6,055	-0,072	0,036
-453,211	86,491	-0,034	0,027
-452,197	-200,000	0,003	-0,035
-451,182	105,028	0,024	0,021
-450,168	71,087	0,112	0,084
-449,153	49,237	-0,109	0,075
-448,138	777,692	0,076	-0,151
-447,124	140,509	0,024	0,023
-446,109	179,200	0,053	-0,056
-445,095	-74,300	0,090	-0,024
-444,080	-200,000	-0,001	0,045
-443,065	-26,802	-0,061	0,026
-442,051	-57,079	-0,149	0,048
-441,036	173,056	-0,041	-0,043
-440,022	-200,000	0,044	0,154
-439,007	46,739	0,036	0,024
-437,992	-118,453	0,139	-0,018
-436,978	-64,221	0,121	0,036
-435,963	62,363	0,051	-0,037
-434,949	298,013	0,041	-0,055
-433,934	-9,204	-0,046	-0,022
-432,919	-200,000	0,013	-0,158
-431,905	713,947	-0,080	-0,156
-430,890	800,000	0,097	0,203
-429,876	-200,000	-0,012	0,072
-428,861	-100,655	-0,050	0,009
-427,846	-200,000	-0,020	-0,088
-426,832	-200,000	-0,018	-0,256
-425,817	263,876	0,080	-0,101
-424,803	59,503	-0,144	-0,103
-423,788	161,179	0,057	-0,058
-422,773	-200,000	-0,004	0,057
-421,759	498,241	0,019	0,032
-420,744	681,885	-0,086	-0,164
-419,730	-77,911	-0,126	-0,031
-418,715	41,052	0,025	0,016
-417,701	100,857	-0,110	0,093
-416,686	519,200	-0,088	-0,150
-415,671	-200,000	0,015	0,175
-414,657	800,000	0,050	0,121
-413,642	-200,000	0,004	0,000
-412,628	278,219	0,052	-0,068
-411,613	499,435	0,084	-0,142
-410,598	-159,447	-0,158	0,006
-409,584	800,000	0,057	0,166
-408,569	152,439	-0,151	0,150
-407,555	-200,000	-0,012	0,131
-406,540	-200,000	0,014	0,095
-405,525	413,816	0,038	0,059
-404,511	293,208	-0,080	-0,106
-403,496	-200,000	-0,029	-0,120
-402,482	800,000	0,021	0,068
-401,467	-200,000	-0,016	0,074
-400,452	435,381	-0,091	0,145
-399,438	62,974	0,061	0,045
-398,423	234,771	-0,072	-0,087
-397,409	-50,552	-0,157	0,054
-396,394	800,000	0,021	0,048
-395,379	248,632	-0,070	-0,087
-394,365	-200,000	-0,005	0,015
-393,350	-200,000	-0,002	-0,017
-392,336	-82,518	0,117	-0,027
-391,321	-83,650	0,197	0,045
-390,306	42,419	0,044	0,029
-389,292	800,000	-0,025	-0,078
-388,277	-200,000	0,021	-0,128
-387,263	-200,000	0,001	-0,018
-386,248	-200,000	0,010	-0,094
-385,233	800,000	0,035	0,072
-384,219	381,989	-0,051	-0,077
-383,204	-200,000	-0,016	-0,057
-382,190	-15,830	0,133	-0,061
-381,175	-200,000	0,015	0,080
-380,160	16,324	0,100	0,057
-379,146	-200,000	0,017	-0,092
-378,131	104,895	0,042	0,036
-377,117	-44,472	0,072	-0,026
-376,102	-103,411	0,125	-0,021
-375,088	268,672	0,046	0,059
-374,073	-84,314	-0,057	-0,013
-373,058	614,225	0,048	0,088
-372,044	800,000	0,018	0,050
-371,029	-130,552	-0,107	0,010
-370,015	59,352	0,115	0,082
-369,000	-123,662	-0,079	0,009
-367,985	151,034	-0,140	-0,138
-366,971	-200,000	-0,018	0,125
-365,956	401,537	0,063	0,096
-364,942	-132,464	0,112	0,010
-363,927	687,895	0,050	0,095
-362,912	140,723	-0,048	-0,046
-361,898	23,380	-0,109	0,065
-360,883	-170,850	-0,022	-0,001
-359,869	-72,995	-0,091	-0,024
-358,854	-95,230	0,043	-0,008
-357,839	717,083	0,074	0,144
-356,825	-200,000	0,000	0,018
-355,810	-200,000	0,013	0,177
-354,796	-101,258	-0,065	0,011
-353,781	149,251	-0,133	-0,131
-352,766	-200,000	-0,001	-0,135
-351,752	-184,284	0,063	-0,001
-350,737	800,000	0,028	0,065
-349,723	-117,125	-0,052	0,007
-348,708	-200,000	-0,020	-0,086
-347,693	-200,000	0,030	-0,125
-346,679	-121,851	0,068	-0,008
-345,664	-41,746	-0,043	-0,016
-344,650	511,464	-0,029	-0,049
-343,635	244,234	0,046	0,056
-342,620	800,000	-0,037	0,105
-341,606	356,532	0,037	0,053
-340,591	-200,000	0,014	-0,045
-339,577	233,205	0,022	-0,026
-338,562	-200,000	0,023	-0,162
-337,548	-102,988	-0,142	0,024
-336,533	56,206	0,035	0,025
-335,518	710,311	0,059	-0,113
-334,504	-200,000	0,027	-0,167
-333,489	384,351	-0,012	0,018
-332,475	31,720	-0,099	0,062
-331,460	-150,397	0,133	-0,007
-330,445	-200,000	-0,011	-0,142
-329,431	-200,000	-0,001	0,126
-328,416	-91,968	-0,084	0,017
-327,402	59,844	-0,051	0,036
-326,387	-61,387	-0,138	-0,042
-325,372	-200,000	-0,002	-0,066
-324,358	-98,458	-0,086	0,016
-323,343	22,838	0,046	0,027
-322,329	-22,555	0,045	0,020
-321,314	486,188	0,032	-0,053
-320,299	-86,874	0,077	-0,017
-319,285	454,900	-0,087	-0,141
-318,270	-200,000	0,005	-0,017
-317,256	543,391	-0,012	0,021
-316,241	-39,282	0,027	-0,010
-315,226	29,956	-0,050	-0,031
-314,212	-37,218	0,113	0,044
-313,197	165,210	-0,055	0,057
-312,183	14,542	0,147	-0,083
-311,168	-200,000	-0,014	0,083
-310,153	800,000	-0,015	0,035
-309,139	800,000	-0,015	0,044
-308,124	-21,274	0,035	0,015
-307,110	-127,042	0,070	0,007
-306,095	-200,000	0,010	0,119
-305,080	-51,953	-0,042	-0,014
-304,066	330,923	0,066	-0,093
-303,051	-200,000	-0,001	0,030
-302,037	-200,000	0,000	0,021
-301,022	-12,405	0,099	0,047
-300,008	-200,000	0,016	0,144
-298,993	85,825	-0,024	-0,019
-297,978	-30,417	0,094	0,038
-296,964	407,252	0,034	-0,052
-295,949	-68,913	-0,164	-0,045
-294,935	-200,000	0,007	-0,044
-293,920	446,946	0,007	0,011
-292,905	143,825	0,027	-0,026
-291,891	157,465	0,059	0,059
-290,876	-200,000	0,007	0,048
-289,862	-89,846	0,028	-0,006
-288,847	-21,207	-0,109	-0,048
-287,832	12,074	0,044	-0,024
-286,818	-159,427	0,174	-0,007
-285,803	306,678	0,020	-0,026
-284,789	-200,000	-0,041	0,150
-283,774	12,092	0,034	-0,019
-282,759	36,021	-0,040	0,026
-281,745	181,487	-0,043	0,046
-280,730	-200,000	-0,015	-0,124
-279,716	6,601	0,031	-0,016
-278,701	388,503	-0,055	-0,082
-277,686	-200,000	0,030	-0,111
-276,672	-200,000	0,003	-0,065
-275,657	626,415	0,041	-0,076
-274,643	-127,262	-0,125	0,013
-273,628	-155,112	-0,093	-0,004
-272,613	13,636	-0,071	0,040
-271,599	800,000	-0,016	-0,049
-270,584	734,384	0,066	0,129
-269,570	-110,171	0,127	0,019
-268,555	169,677	0,045	-0,046
-267,540	-200,000	0,017	-0,089
-266,526	-142,671	-0,028	-0,002
-265,511	-200,000	0,006	0,163
-264,497	-200,000	-0,024	0,137
-263,482	-200,000	-0,037	0,144
-262,467	800,000	-0,019	-0,053
-261,453	-66,322	0,046	0,013
-260,438	800,000	-0,060	0,138
-259,424	7,994	0,043	0,023
-258,409	-69,955	0,019	0,005
-257,395	-200,000	0,003	-0,050
-256,380	-72,846	-0,076	-0,020
-255,365	-32,781	0,041	0,017
-254,351	284,297	0,098	0,128
-253,336	86,274	-0,082	-0,066
-252,322	-9,262	-0,079	0,038
-251,307	-200,000	0,002	-0,112
-250,292	88,986	-0,108	-0,087
-249,278	444,044	-0,012	-0,019
-248,263	-7,780	0,080	0,039
-247,249	91,705	-0,060	0,049
-246,234	72,939	-0,044	0,033
-245,219	-200,000	-0,007	-0,122
-244,205	277,938	-0,059	0,076
-243,190	800,000	-0,066	-0,179
-242,176	-61,974	0,113	0,034
-241,161	-200,000	0,013	0,265
-240,146	800,000	0,028	0,082
-239,132	-200,000	0,015	-0,072
-238,117	-119,245	-0,062	-0,008
-237,103	-47,121	-0,246	-0,086
-236,088	121,535	0,107	-0,097
-235,073	516,189	0,013	0,023
-234,059	-200,000	-0,003	0,009
-233,044	9,656	-0,044	0,024
-232,030	-200,000	-0,009	-0,256
-231,015	147,906	-0,089	-0,086
-230,000	171,150	-0,015	-0,016
-228,986	588,102	-0,036	0,065
-227,971	313,141	-0,025	0,034
-226,957	-16,920	0,110	0,050
-225,942	-115,524	0,083	-0,011
-224,927	-82,086	0,069	0,016
-223,913	-200,000	0,016	0,054
-222,898	39,720	-0,085	-0,055
-221,884	-85,578	-0,024	-0,005
-220,869	-110,805	0,065	-0,010
-219,855	-200,000	-0,021	0,165
-218,840	-54,648	0,088	0,029
-217,825	718,298	-0,018	-0,035
-216,811	215,297	0,026	0,030
-215,796	151,019	-0,008	0,008
-214,782	451,925	-0,019	0,031
-213,767	82,993	0,082	-0,064
-212,752	-4,201	0,068	0,034
-211,738	122,322	0,113	0,102
-210,723	657,002	0,076	0,143
-209,709	274,469	0,034	-0,043
-208,694	1,863	0,048	0,025
-207,679	333,711	-0,075	-0,104
-206,665	-200,000	-0,009	-0,068
-205,650	-58,243	0,161	0,050
-204,636	-200,000	0,010	0,046
-203,621	-190,248	0,045	0,000
-202,606	159,092	-0,061	0,062
-201,592	1,495	-0,127	-0,066
-200,577	71,306	0,077	-0,057
-199,563	-51,218	0,106	-0,036
-198,548	60,395	-0,113	-0,081
-197,533	165,934	-0,038	0,038
-196,519	-200,000	-0,008	-0,118
-195,504	-200,000	0,018	-0,122
-194,490	-200,000	0,026	-0,167
-193,475	38,211	0,029	-0,018
-192,460	800,000	0,005	-0,014
-191,446	42,054	0,068	-0,044
-190,431	-200,000	-0,030	0,196
-189,417	-96,321	0,055	-0,010
-188,402	181,828	-0,057	0,061
-187,387	-200,000	0,002	-0,029
-186,373	-200,000	-0,007	-0,067
-185,358	800,000	-0,021	-0,045
-184,344	-53,282	0,026	-0,009
-183,329	-200,000	-0,003	0,025
-182,315	-50,608	-0,034	-0,012
-181,300	-136,691	-0,094	0,008
-180,285	164,653	0,058	0,059
-179,271	-200,000	-0,024	-0,119
-178,256	-200,000	-0,002	-0,053
-177,242	274,260	0,071	-0,091
-176,227	-18,675	0,161	0,072
-175,212	72,300	0,117	0,088
-174,198	55,289	-0,076	-0,053
-173,183	188,341	0,132	-0,142
-172,169	672,526	-0,049	0,092
-171,154	800,000	0,032	0,082
-170,139	-134,717	0,101	-0,009
-169,125	-40,053	-0,049	-0,018
-168,110	224,484	-0,119	0,139
-167,096	240,596	0,073	0,088
-166,081	-17,781	-0,075	0,034
-165,066	-145,142	0,059	0,004
-164,052	-200,000	-0,005	-0,063
-163,037	-200,000	-0,004	0,135
-162,023	196,333	0,056	0,061
-161,008	800,000	0,038	0,103
-159,993	-172,481	0,087	0,002
-158,979	159,967	-0,062	0,062
-157,964	-93,704	-0,048	0,010
-156,950	31,323	0,110	0,068
-155,935	473,720	0,037	0,060
-154,920	-200,000	-0,006	-0,114
-153,906	65,670	0,048	0,035
-152,891	-200,000	-0,036	0,212
-151,877	92,154	0,057	-0,046
-150,862	800,000	0,044	-0,099
-149,847	-200,000	0,011	-0,068
-148,833	-105,104	-0,071	0,012
-147,818	731,852	-0,072	0,139
-146,804	555,167	-0,044	0,077
-145,789	-37,437	-0,094	-0,036
-144,775	209,479	0,048	-0,055
-143,760	388,245	0,039	0,058
-142,745	-200,000	-0,012	0,086
-141,731	-164,535	-0,081	0,003
-140,716	38,296	0,135	-0,087
-139,702	56,074	0,108	0,075
-138,687	240,542	-0,045	0,054
-137,672	-200,000	0,005	-0,052
-136,658	270,023	-0,068	0,087
-135,643	-200,000	-0,016	0,097
-134,629	-200,000	-0,024	0,117
-133,614	800,000	0,037	0,094
-132,599	165,449	-0,067	-0,068
-131,585	-144,410	0,077	0,005
-130,570	85,452	-0,034	-0,027
-129,556	-200,000	-0,022	0,082
-128,541	-53,712	-0,043	0,014
-127,526	253,108	-0,108	-0,133
-126,512	-200,000	0,008	-0,071
-125,497	-200,000	0,010	0,120
-124,483	140,704	0,139	0,132
-123,468	507,198	0,018	0,031
-122,453	564,257	0,013	-0,022
-121,439	-81,003	0,127	-0,030
-120,424	-10,533	-0,041	0,019
-119,410	-200,000	0,000	0,028
-118,395	1,169	0,088	0,045
-117,380	122,098	-0,090	0,081
-116,366	81,379	-0,089	0,069
-115,351	576,822	-0,058	-0,102
-114,337	-200,000	0,001	-0,049
-113,322	112,905	0,131	0,114
-112,307	-120,570	0,078	-0,009
-111,293	800,000	0,011	0,027
-110,278	-200,000	0,005	0,089
-109,264	87,546	-0,077	0,061
-108,249	-71,996	0,080	-0,021
-107,234	31,473	0,115	0,071
-106,220	800,000	-0,023	-0,050
-105,205	90,418	-0,120	0,097
-104,191	-35,847	0,127	-0,049
-103,176	800,000	-0,010	0,022
-102,162	140,391	0,056	0,053
-101,147	22,652	-0,042	-0,025
-100,132	-192,858	-0,082	-0,001
-99,118	23,103	0,129	-0,076
-98,103	-200,000	-0,015	-0,061
-97,089	800,000	0,050	0,154
-96,074	-129,383	0,076	0,007
-95,059	-168,445	0,040	0,001
-94,045	518,667	0,042	0,071
-93,030	-41,138	-0,048	0,018
-92,016	225,558	0,026	0,030
-91,001	-200,000	-0,007	-0,113
-89,986	-114,803	0,089	0,012
-88,972	382,603	-0,136	0,202
-87,957	-99,172	0,044	-0,008
-86,943	240,904	-0,032	0,038
-85,928	-200,000	-0,009	-0,155
-84,913	291,799	0,032	-0,042
-83,899	-200,000	0,023	0,092
-82,884	85,822	0,144	0,113
-81,870	37,297	-0,148	0,094
-80,855	159,898	0,055	0,055
-79,840	-200,000	-0,018	-0,122
-78,826	-200,000	0,029	0,093
-77,811	800,000	0,016	-0,047
-76,797	20,128	0,030	-0,017
-75,782	-113,195	0,057	0,008
-74,767	800,000	-0,023	-0,060
-73,753	800,000	-0,015	0,035
-72,738	300,349	0,076	-0,101
-71,724	303,301	-0,052	-0,069
-70,709	207,395	0,044	-0,049
-69,694	39,738	-0,031	-0,020
-68,680	402,065	-0,064	-0,097
-67,665	-125,564	0,126	-0,014
-66,651	219,562	0,087	0,100
-65,636	-200,000	0,008	-0,040
-64,622	183,807	-0,090	-0,095
-63,607	11,288	-0,045	-0,025
-62,592	387,443	0,032	0,048
-61,578	692,051	0,039	0,073
-60,563	-200,000	0,029	-0,107
-59,549	-45,083	-0,061	-0,022
-58,534	7,415	-2,041	-1,092
-57,519	-200,000	-0,147	-0,884
-56,505	-200,000	-1,357	-4,927
-55,490	125,847	0,812	0,737
-54,476	800,000	5,165	11,528
-53,461	-200,000	17,868	290,402
-52,446	800,000	727,434	2228,317
-51,432	534,728	1640,124	2800,601
-50,417	109,222	1629,281	1398,714
-49,403	72,837	1283,218	960,264
-48,388	31,357	1025,955	630,733
-47,373	19,903	988,128	569,753
-46,359	18,258	976,131	557,426
-45,344	15,503	972,049	546,074
-44,330	15,661	970,762	545,844
-43,315	15,248	969,005	543,486
-42,300	15,187	967,896	542,645
-41,286	15,173	966,776	541,951
-40,271	15,174	965,803	541,388
-39,257	15,236	964,888	541,054
-38,242	15,222	964,113	540,553
-37,227	15,234	963,314	540,123
-36,213	15,224	962,429	539,571
-35,198	15,172	961,488	538,856
-34,184	15,193	960,942	538,595
-33,169	15,138	959,918	537,823
-32,154	15,255	958,708	537,501
-31,140	15,192	957,964	536,859
-30,125	15,255	957,261	536,647
-29,111	15,219	956,482	536,071
-28,096	15,178	956,024	535,663
-27,082	15,223	955,240	535,345
-26,067	15,175	954,317	534,656
-25,052	15,229	953,615	534,413
-24,038	15,172	953,079	533,909
-23,023	15,155	952,453	533,482
-22,009	15,222	951,698	533,251
-20,994	15,200	951,049	532,797
-19,979	15,187	950,467	532,409
-18,965	15,225	949,816	532,144
-17,950	15,215	949,098	531,689
-16,936	15,114	948,711	531,128
-15,921	15,111	948,053	530,730
-14,906	15,062	947,250	530,102
-13,892	15,110	946,564	529,849
-12,877	15,042	945,992	529,292
-11,863	15,055	945,247	528,896
-10,848	15,086	944,645	528,637
-9,833	15,157	944,221	528,604
-8,819	15,102	943,719	528,126
-7,804	15,098	943,034	527,712
-6,790	15,071	942,497	527,304
-5,775	15,144	941,786	527,117
-4,760	15,088	941,329	526,662
-3,746	15,140	940,365	526,268
-2,731	15,038	939,810	525,612
-1,717	14,925	939,199	524,893
-0,702	14,981	938,448	524,631
0,313	14,764	937,906	524,434
1,327	18,167	935,772	533,898
2,342	27,307	789,601	474,566
3,356	23,875	444,870	262,268
4,371	-5,769	296,074	144,862
5,386	-9,680	277,915	132,248
6,400	-10,824	272,142	128,424
7,415	-11,137	269,898	127,065
8,429	-10,989	268,557	126,558
9,444	-10,944	267,505	126,092
10,459	-10,943	266,906	125,799
11,473	-11,266	266,294	125,205
12,488	-11,250	265,756	124,955
13,502	-11,412	265,237	124,554
14,517	-11,275	264,781	124,453
15,531	-11,147	264,371	124,364
16,546	-11,278	264,033	124,076
17,561	-11,415	263,773	123,820
18,575	-11,168	263,424	123,867
19,590	-11,411	262,967	123,423
20,604	-11,167	262,676	123,494
21,619	-11,230	262,378	123,286
22,634	-11,355	262,056	123,012
23,648	-11,194	261,606	122,934
24,663	-11,386	261,472	122,688
25,677	-11,416	261,215	122,530
26,692	-11,307	261,013	122,522
27,707	-11,303	260,700	122,367
28,721	-11,416	260,351	122,092
29,736	-11,398	260,025	121,945
30,750	-11,265	259,700	121,899
31,765	-11,535	259,639	121,620
32,780	-11,360	259,441	121,672
33,794	-11,292	259,132	121,576
34,809	-11,358	258,750	121,327
35,823	-11,301	258,522	121,260
36,838	-11,476	258,504	121,086
37,853	-11,479	258,151	120,908
38,867	-11,517	257,926	120,759
39,882	-11,587	257,614	120,540
40,896	-11,406	257,391	120,584
41,911	-11,556	257,145	120,326
42,926	-11,586	256,965	120,205
43,940	-11,655	256,737	120,027
44,955	-11,504	256,433	120,007
45,969	-11,681	256,183	119,724
46,984	-11,824	256,022	119,513
47,999	-12,079	255,749	119,152
49,013	-12,178	255,423	118,903
50,028	-12,327	255,291	118,702
51,042	-12,385	254,992	118,502
52,057	-12,556	254,650	118,183
53,071	-12,211	254,591	118,446
54,086	-12,145	254,361	118,385
55,101	-11,988	254,124	118,400
56,115	-11,871	254,163	118,509
57,130	-11,157	254,046	119,063
58,144	-10,980	253,716	119,050
59,159	-11,067	253,625	118,922
60,174	-11,111	253,333	118,736
61,188	-11,226	253,221	118,574
62,203	-11,327	253,075	118,408
63,217	-11,258	252,955	118,401
64,232	-11,257	252,565	118,209
65,247	-11,312	252,347	118,049
66,261	-11,414	251,907	117,745
67,276	-11,431	251,636	117,593
68,290	-11,762	251,620	117,291
69,305	-11,973	251,356	116,977
70,320	-11,754	251,100	117,035
71,334	-11,641	251,058	117,101
72,349	-11,116	250,872	117,452
73,363	-10,944	250,563	117,445
74,378	-11,252	250,401	117,096
75,393	-11,410	250,174	116,844
76,407	-11,258	249,949	116,858
77,422	-11,252	249,746	116,757
78,436	-11,358	249,597	116,588
79,451	-11,258	249,393	116,567
80,466	-11,486	249,158	116,253
81,480	-11,533	248,890	116,078
82,495	-11,736	248,696	115,805
83,509	-11,690	248,493	115,740
84,524	-11,753	248,360	115,613
85,539	-11,810	248,020	115,398
86,553	-11,811	247,806	115,287
87,568	-11,631	247,667	115,363
88,582	-11,634	247,571	115,306
89,597	-11,652	247,210	115,113
90,611	-11,556	247,209	115,183
91,626	-11,437	246,977	115,163
92,641	-11,463	246,760	115,031
93,655	-11,562	246,660	114,890
94,670	-11,363	246,259	114,860
95,684	-11,559	246,242	114,678
96,699	-11,494	246,042	114,629
97,714	-11,546	245,852	114,487
98,728	-11,744	245,668	114,226
99,743	-11,879	245,386	113,971
100,757	-11,770	245,157	113,946
101,772	-11,970	245,027	113,709
102,787	-11,757	244,922	113,828
103,801	-11,720	244,705	113,747
104,816	-11,568	244,529	113,782
105,830	-11,601	244,512	113,736
106,845	-11,305	244,232	113,840
107,860	-11,414	244,177	113,715
108,874	-11,483	243,784	113,464
109,889	-11,715	243,607	113,180
110,903	-11,556	243,487	113,246
111,918	-11,638	243,195	113,032
112,933	-11,598	243,082	113,002
113,947	-11,600	242,815	112,866
114,962	-11,197	242,722	113,145
115,976	-11,332	242,548	112,943
116,991	-11,527	242,433	112,719
118,006	-11,442	242,222	112,680
119,020	-11,601	242,153	112,507
120,035	-11,322	242,035	112,672
121,049	-11,255	241,782	112,600
122,064	-11,546	241,651	112,290
123,079	-11,502	241,448	112,221
124,093	-11,520	241,184	112,074
125,108	-11,607	240,765	111,798
126,122	-11,854	240,762	111,586
127,137	-12,063	240,635	111,346
128,151	-12,052	240,339	111,208
129,166	-11,795	240,279	111,380
130,181	-11,889	240,054	111,189
131,195	-11,969	239,824	111,007
132,210	-11,518	239,616	111,268
133,224	-11,310	239,384	111,319
134,239	-11,619	239,447	111,087
135,254	-11,383	239,233	111,169
136,268	-11,450	238,966	110,981
137,283	-11,709	238,627	110,605
138,297	-11,905	238,410	110,336
139,312	-11,800	238,146	110,289
140,327	-11,751	238,206	110,345
141,341	-11,141	238,174	110,813
142,356	-11,037	237,920	110,769
143,370	-10,986	237,854	110,769
144,385	-11,126	237,862	110,650
145,400	-10,819	237,563	110,748
146,414	-11,139	237,395	110,403
147,429	-11,117	237,075	110,262
148,443	-11,112	236,919	110,184
149,458	-10,970	236,783	110,224
150,473	-11,081	236,491	109,989
151,487	-11,294	236,371	109,754
152,502	-11,349	236,511	109,765
153,516	-11,112	236,329	109,860
154,531	-10,950	235,916	109,787
155,546	-11,142	235,756	109,550
156,560	-11,002	235,507	109,536
157,575	-11,141	235,276	109,309
158,589	-11,255	235,259	109,200
159,604	-11,046	235,113	109,289
160,619	-11,187	234,961	109,096
161,633	-11,060	234,888	109,154
162,648	-11,088	234,838	109,098
163,662	-10,952	234,406	108,995
164,677	-11,150	234,319	108,789
165,692	-11,068	234,226	108,800
166,706	-10,877	234,147	108,906
167,721	-10,977	233,935	108,718
168,735	-11,114	233,904	108,585
169,750	-11,215	233,762	108,430
170,764	-11,153	233,665	108,424
171,779	-11,137	233,443	108,324
172,794	-10,979	233,082	108,271
173,808	-11,155	232,979	108,076
174,823	-11,465	232,383	107,547
175,837	-11,612	232,331	107,398
176,852	-11,423	232,367	107,553
177,867	-11,071	232,369	107,820
178,881	-10,968	232,048	107,742
179,896	-11,018	231,903	107,626
180,910	-11,037	232,044	107,667
181,925	-11,059	231,751	107,504
182,940	-11,063	231,550	107,399
183,954	-10,948	231,490	107,451
184,969	-10,965	231,259	107,321
185,983	-10,759	231,113	107,404
186,998	-10,903	230,983	107,222
188,013	-10,698	230,827	107,299
189,027	-10,800	230,617	107,113
190,042	-10,754	230,477	107,074
191,056	-10,814	230,366	106,966
192,071	-10,793	230,074	106,838
193,086	-11,033	229,982	106,600
194,100	-10,953	229,973	106,648
195,115	-11,166	229,390	106,203
196,129	-11,384	229,539	106,094
197,144	-5,888	231,228	111,140
198,159	-0,182	233,038	116,459
199,173	3,056	233,850	119,386
200,188	3,371	233,708	119,549
201,202	3,285	233,533	119,382
202,217	3,633	233,450	119,600
203,232	3,718	233,375	119,617
204,246	3,775	233,162	119,542
205,261	3,941	233,081	119,619
206,275	3,801	233,065	119,491
207,290	3,942	232,961	119,537
208,304	3,808	232,829	119,354
209,319	3,752	232,587	119,176
210,334	3,788	232,437	119,116
211,348	3,550	232,014	118,705
212,363	3,422	231,751	118,461
213,377	3,010	231,655	118,083
214,392	2,976	231,429	117,930
215,407	2,958	231,337	117,859
216,421	3,305	231,316	118,105
217,436	3,147	230,984	117,804
218,450	3,017	230,762	117,580
219,465	2,907	230,626	117,416
220,480	2,983	230,403	117,350
221,494	2,640	230,515	117,133
222,509	3,155	230,363	117,441
223,523	3,299	230,149	117,432
224,538	2,934	229,981	117,056
225,553	3,163	229,881	117,170
226,567	3,248	229,614	117,089
227,582	3,393	229,604	117,183
228,596	3,559	229,470	117,232
229,611	3,169	229,214	116,793
230,626	2,904	229,159	116,552
231,640	2,957	228,849	116,424
232,655	3,286	228,830	116,655
233,669	3,717	228,739	116,927
234,684	3,678	228,702	116,867
235,699	3,664	228,399	116,691
236,713	3,410	228,356	116,466
237,728	3,307	227,865	116,128
238,742	2,978	227,834	115,852
239,757	2,860	227,743	115,706
240,772	2,862	227,570	115,609
241,786	3,171	227,412	115,752
242,801	3,191	227,411	115,756
243,815	3,578	227,491	116,080
244,830	3,713	226,974	115,908
245,844	3,277	226,873	115,517
246,859	3,166	226,721	115,345
247,874	3,421	226,518	115,424
248,888	3,564	226,404	115,463
249,903	3,416	226,243	115,259
250,917	3,091	226,157	114,961
251,932	2,844	225,977	114,673
252,947	2,972	225,742	114,640
253,961	3,096	225,668	114,686
254,976	2,897	225,627	114,505
255,990	3,238	225,430	114,650
257,005	3,325	225,253	114,615
258,020	3,128	225,281	114,472
259,034	3,574	225,055	114,680
260,049	3,389	225,005	114,506
261,063	3,185	224,752	114,215
262,078	3,493	224,698	114,407
263,093	3,626	224,545	114,418
264,107	3,379	224,367	114,133
265,122	3,270	224,296	114,006
266,136	3,484	224,101	114,055
267,151	3,571	223,893	114,005
268,166	3,080	223,644	113,503
269,180	2,944	223,407	113,272
270,195	3,002	223,367	113,284
271,209	2,901	223,289	113,159
272,224	2,975	223,168	113,143
273,239	3,177	223,000	113,197
274,253	3,142	222,800	113,060
275,268	2,940	222,503	112,750
276,282	2,761	222,500	112,606
277,297	2,778	222,278	112,496
278,312	3,013	222,033	112,535
279,326	3,071	222,150	112,627
280,341	3,289	221,980	112,691
281,355	3,286	221,806	112,591
282,370	3,125	221,684	112,401
283,384	2,802	221,443	112,031
284,399	2,765	221,453	111,999
285,414	2,901	221,194	111,959
286,428	3,154	221,104	112,088
287,443	3,081	221,122	112,034
288,457	3,239	221,019	112,087
289,472	3,214	220,557	111,824
290,487	2,599	220,535	111,354
291,501	2,735	220,315	111,333
292,516	3,078	220,021	111,424
293,530	2,747	220,077	111,201
294,545	2,704	220,002	111,122
295,560	3,113	219,833	111,324
296,574	3,405	219,605	111,412
297,589	2,996	219,597	111,100
298,603	3,225	219,506	111,211
299,618	3,171	219,216	111,014
300,633	3,148	219,197	110,978
301,647	3,398	219,217	111,160
302,662	3,517	218,941	111,096
303,676	3,212	218,920	110,854
304,691	2,995	218,802	110,627
305,706	3,380	218,386	110,686
306,720	3,272	218,434	110,622
307,735	3,101	218,148	110,344
308,749	2,935	218,025	110,152
309,764	3,428	217,846	110,407
310,779	3,206	217,824	110,227
311,793	3,412	217,694	110,299
312,808	3,332	217,538	110,153
313,822	3,333	217,401	110,074
314,837	3,065	217,166	109,753
315,852	3,143	216,879	109,654
316,866	3,072	216,895	109,601
317,881	3,492	216,704	109,796
318,895	3,334	216,591	109,615
319,910	3,080	216,485	109,371
320,925	2,961	216,367	109,216
321,939	2,682	216,184	108,915
322,954	2,860	216,046	108,963
323,968	3,244	215,988	109,198
324,983	3,392	215,936	109,267
325,997	3,541	215,601	109,194
327,012	3,301	215,576	109,001
328,027	3,102	215,497	108,810
329,041	3,444	215,321	108,954
330,056	3,119	215,201	108,653
331,070	2,713	214,951	108,228
332,085	2,391	214,870	107,950
333,100	3,022	214,777	108,341
334,114	3,167	214,647	108,368
335,129	3,305	214,523	108,394
336,143	3,369	214,231	108,282
337,158	3,240	214,098	108,114
338,173	3,216	214,130	108,104
339,187	3,260	213,877	107,997
340,202	2,905	213,642	107,618
341,216	2,699	213,563	107,424
342,231	2,861	213,464	107,479
343,246	2,994	213,305	107,483
344,260	3,160	213,105	107,489
345,275	3,183	213,130	107,508
346,289	3,417	213,023	107,609
347,304	3,150	212,987	107,394
348,319	3,150	212,722	107,250
349,333	3,107	212,634	107,167
350,348	3,062	212,574	107,095
351,362	3,463	212,246	107,200
352,377	3,471	212,132	107,139
353,392	3,080	212,159	106,870
354,406	3,238	211,934	106,857
355,421	195,113	1341,538	1417,683
356,435	155,849	1479,134	1417,655
