DTS Sentinel unit serial number:	SN410029Multiplexer serial number:	ORYXHardware model number:	OX2-SRSoftware version number:	ORYX F/W v4,00 Oryx Data Collector v3.7.2.0data status	okinstallation	B6 Nyhavnadifferential loss correction	single-endedforward channel	channel 2reverse channel	N/Adate	2023/12/09time	04:05:08forward acquisition time	300,00reverse acquisition time	0,00gamma	499,1914k internal	0,3150k external	0,3150temperature offset calibration	1,0000default loss term (dB/km)	0,3820temperature slope calibration	1,0000multiplexer offset coefficient	1,0000multiplexer slope coefficient	1,0000fibre end	0,00T internal ref (°C)	16,73T ext. ref 1 (°C)	1,17T ext. ref 2 (°C)	1,17length (m)	temperature (°C)	Stokes	anti-Stokes-744,400	193,471	0,065	-0,073
-743,385	-134,100	-0,328	0,029
-742,371	120,189	0,127	0,117
-741,356	-62,211	-0,277	0,085
-740,342	109,481	-0,015	-0,013
-739,327	-59,857	-0,365	-0,115
-738,312	223,067	-0,057	0,068
-737,298	-135,433	-0,371	0,032
-736,283	26,682	0,125	0,077
-735,269	-98,836	-0,366	0,068
-734,254	18,771	0,091	-0,054
-733,239	-32,515	-0,557	-0,228
-732,225	-41,319	0,274	-0,104
-731,210	800,000	0,017	0,044
-730,196	-200,000	-0,004	-0,028
-729,181	53,565	-0,114	0,081
-728,167	-200,000	0,010	0,076
-727,152	336,118	0,059	0,085
-726,137	61,563	-0,076	0,056
-725,123	-55,940	0,039	0,013
-724,108	725,773	-0,030	-0,060
-723,094	-200,000	-0,004	-0,070
-722,079	800,000	-0,048	-0,130
-721,064	-200,000	0,022	-0,150
-720,050	146,537	-0,120	-0,119
-719,035	-96,537	-0,039	0,007
-718,021	-176,537	-0,092	0,002
-717,006	800,000	-0,069	-0,161
-715,991	453,409	-0,082	-0,135
-714,977	800,000	-0,081	-0,176
-713,962	169,658	-0,040	-0,042
-712,948	463,895	-0,038	0,063
-711,933	-34,045	-0,038	0,015
-710,918	800,000	0,041	-0,094
-709,904	800,000	-0,036	-0,107
-708,889	158,634	-0,028	-0,029
-707,875	800,000	-0,089	-0,186
-706,860	24,253	0,034	-0,021
-705,845	-200,000	-0,007	0,042
-704,831	176,618	-0,080	-0,086
-703,816	800,000	-0,025	-0,060
-702,802	-200,000	-0,035	-0,127
-701,787	129,895	-0,061	0,058
-700,772	-83,015	-0,091	-0,022
-699,758	-200,000	-0,007	0,028
-698,743	-42,357	0,080	-0,030
-697,729	-77,662	0,167	-0,042
-696,714	-51,462	-0,039	0,014
-695,699	-50,384	-0,123	-0,043
-694,685	643,493	-0,026	-0,049
-693,670	48,920	0,068	-0,047
-692,656	255,622	0,058	0,074
-691,641	-200,000	-0,021	0,073
-690,627	349,489	-0,096	-0,140
-689,612	475,291	-0,073	-0,121
-688,597	-133,322	-0,071	0,006
-687,583	-137,415	-0,039	0,003
-686,568	-200,000	0,022	-0,072
-685,554	-200,000	0,037	-0,167
-684,539	77,078	-0,096	0,075
-683,524	676,915	0,024	0,047
-682,510	800,000	0,043	0,121
-681,495	13,056	-0,092	0,052
-680,481	383,478	-0,062	-0,094
-679,466	510,465	-0,055	-0,095
-678,451	-38,378	-0,096	-0,037
-677,437	800,000	0,027	-0,069
-676,422	-200,000	0,037	0,159
-675,408	470,438	-0,066	0,111
-674,393	69,047	-0,047	-0,036
-673,378	-200,000	0,019	-0,148
-672,364	-166,572	-0,058	0,002
-671,349	-200,000	0,014	-0,068
-670,335	565,575	0,066	0,118
-669,320	-200,000	0,011	0,085
-668,305	-78,069	0,069	-0,017
-667,291	-200,000	0,010	-0,165
-666,276	494,620	-0,041	-0,069
-665,262	-200,000	0,020	-0,095
-664,247	-200,000	0,038	0,148
-663,232	152,495	0,092	-0,093
-662,218	-200,000	0,009	0,068
-661,203	-180,742	0,058	0,001
-660,189	-200,000	-0,027	0,123
-659,174	-200,000	-0,012	0,168
-658,159	-200,000	-0,009	-0,058
-657,145	-200,000	-0,017	0,075
-656,130	-200,000	0,008	-0,086
-655,116	4,758	-0,059	0,032
-654,101	-200,000	0,035	-0,162
-653,086	-66,008	-0,111	0,032
-652,072	-200,000	0,024	0,089
-651,057	122,454	0,012	0,011
-650,043	199,356	0,051	0,057
-649,028	89,068	-0,040	-0,033
-648,014	-200,000	-0,003	0,018
-646,999	-58,245	0,078	0,025
-645,984	300,833	-0,052	-0,070
-644,970	333,423	0,064	0,092
-643,955	123,067	-0,082	-0,076
-642,941	-83,073	-0,002	0,001
-641,926	372,437	-0,079	-0,119
-640,911	800,000	0,060	-0,156
-639,897	94,337	0,102	-0,086
-638,882	-200,000	0,044	-0,197
-637,868	-120,025	-0,050	0,006
-636,853	800,000	-0,012	-0,032
-635,838	-45,168	-0,080	-0,029
-634,824	147,805	0,033	-0,032
-633,809	72,844	0,202	0,155
-632,795	8,094	-0,041	0,022
-631,780	39,983	0,089	-0,059
-630,765	244,053	-0,090	0,112
-629,751	383,706	-0,123	-0,187
-628,736	-200,000	-0,010	-0,101
-627,722	-200,000	-0,020	0,072
-626,707	-28,426	-0,098	-0,041
-625,692	17,145	0,083	0,048
-624,678	-200,000	0,011	0,141
-623,663	393,979	-0,027	0,042
-622,649	128,844	-0,011	-0,011
-621,634	285,503	-0,076	-0,101
-620,619	-189,969	-0,136	-0,001
-619,605	800,000	0,037	-0,099
-618,590	-93,946	-0,075	-0,015
-617,576	-116,512	-0,131	0,018
-616,561	-200,000	0,009	-0,060
-615,546	77,277	-0,117	-0,092
-614,532	-104,401	-0,062	0,010
-613,517	-178,762	0,034	0,001
-612,503	-200,000	-0,035	-0,124
-611,488	52,314	-0,115	0,080
-610,474	-200,000	0,033	0,140
-609,459	-200,000	0,034	-0,153
-608,444	210,253	-0,086	-0,100
-607,430	53,301	-0,154	-0,108
-606,415	-200,000	-0,010	0,135
-605,401	-37,221	0,053	0,021
-604,386	343,521	-0,108	-0,155
-603,371	-200,000	-0,019	0,088
-602,357	-57,142	-0,038	-0,012
-601,342	-200,000	0,022	-0,130
-600,328	-69,880	-0,074	-0,021
-599,313	-59,938	-0,130	-0,041
-598,298	9,042	0,058	0,032
-597,284	-29,604	0,143	-0,060
-596,269	738,569	-0,034	-0,068
-595,255	-94,742	-0,139	-0,028
-594,240	463,760	-0,028	-0,046
-593,225	-107,166	-0,072	0,011
-592,211	46,895	-0,131	-0,089
-591,196	372,884	0,066	-0,099
-590,182	42,288	0,171	0,114
-589,167	800,000	0,025	0,075
-588,152	-66,617	0,075	-0,022
-587,138	-200,000	0,024	0,122
-586,123	800,000	-0,030	-0,085
-585,109	-200,000	-0,002	0,043
-584,094	-168,789	-0,052	-0,001
-583,079	464,039	0,072	0,119
-582,065	151,307	0,171	0,171
-581,050	98,691	-0,073	0,062
-580,036	55,148	0,089	-0,063
-579,021	-200,000	-0,012	-0,085
-578,006	-200,000	0,005	-0,040
-576,992	-46,794	-0,054	0,019
-575,977	154,249	-0,082	0,083
-574,963	-144,184	0,181	0,012
-573,948	-200,000	-0,011	0,097
-572,934	53,960	-0,028	-0,019
-571,919	-32,997	-0,039	0,016
-570,904	241,630	-0,069	-0,085
-569,890	-200,000	-0,004	0,043
-568,875	107,898	0,074	0,064
-567,861	199,475	0,042	0,047
-566,846	225,567	0,091	0,109
-565,831	26,154	-0,012	0,007
-564,817	800,000	-0,048	-0,104
-563,802	-200,000	-0,037	-0,168
-562,788	-49,122	0,064	-0,022
-561,773	-34,211	-0,071	-0,029
-560,758	239,601	0,089	0,109
-559,744	158,086	-0,073	0,074
-558,729	115,318	-0,104	-0,094
-557,715	162,182	-0,065	-0,067
-556,700	140,446	-0,022	-0,021
-555,685	-15,942	0,104	-0,048
-554,671	-200,000	0,001	0,017
-553,656	358,542	-0,079	-0,116
-552,642	-200,000	0,003	-0,011
-551,627	209,755	0,012	-0,014
-550,612	287,895	-0,087	-0,115
-549,598	-112,615	-0,087	0,013
-548,583	-200,000	0,013	0,084
-547,569	-76,141	0,299	0,077
-546,554	245,726	-0,128	0,159
-545,539	87,547	0,063	-0,051
-544,525	-44,641	-0,061	-0,022
-543,510	-120,015	0,031	0,004
-542,496	-200,000	0,032	-0,149
-541,481	141,670	-0,078	-0,076
-540,466	-131,554	0,065	0,006
-539,452	-200,000	-0,014	-0,095
-538,437	-200,000	0,011	0,104
-537,423	800,000	-0,021	0,056
-536,408	152,857	-0,063	-0,063
-535,393	-200,000	0,000	-0,045
-534,379	179,019	-0,116	-0,125
-533,364	-33,601	-0,223	-0,090
-532,350	242,471	0,023	-0,028
-531,335	-86,306	0,286	0,064
-530,321	26,973	-0,148	0,091
-529,306	15,250	-0,068	-0,039
-528,291	-200,000	-0,001	0,054
-527,277	-151,819	-0,055	-0,003
-526,262	800,000	-0,001	-0,003
-525,248	-170,419	0,104	-0,003
-524,233	89,681	-0,049	0,040
-523,218	800,000	0,024	0,057
-522,204	800,000	-0,010	-0,021
-521,189	-57,322	0,005	0,002
-520,175	225,660	-0,069	-0,083
-519,160	1,157	-0,033	-0,017
-518,145	-68,238	0,145	0,041
-517,131	107,097	-0,084	0,073
-516,116	-56,907	0,059	0,019
-515,102	-39,939	-0,054	-0,021
-514,087	-200,000	-0,001	0,165
-513,072	-48,652	-0,049	-0,017
-512,058	800,000	-0,077	-0,173
-511,043	222,888	0,034	-0,041
-510,029	800,000	0,009	0,024
-509,014	-200,000	-0,006	0,036
-507,999	-77,485	0,071	-0,018
-506,985	244,262	-0,075	0,092
-505,970	-200,000	-0,009	0,042
-504,956	86,521	-0,140	0,113
-503,941	800,000	0,039	0,095
-502,926	306,908	-0,044	-0,060
-501,912	521,724	0,024	-0,041
-500,897	235,437	-0,030	0,036
-499,883	25,119	-0,078	-0,047
-498,868	218,325	-0,078	-0,092
-497,853	116,279	0,121	-0,109
-496,839	14,084	-0,074	-0,042
-495,824	800,000	0,047	-0,132
-494,810	-200,000	-0,033	0,144
-493,795	266,469	0,035	-0,045
-492,781	773,011	-0,055	0,110
-491,766	-200,000	-0,025	-0,086
-490,751	800,000	-0,046	-0,104
-489,737	-200,000	0,054	0,187
-488,722	-81,683	0,045	-0,011
-487,708	-200,000	0,013	0,058
-486,693	-38,621	0,055	0,021
-485,678	-2,606	0,062	-0,032
-484,664	-83,202	0,092	0,021
-483,649	800,000	-0,019	-0,040
-482,635	-81,124	0,084	0,020
-481,620	313,779	0,075	0,104
-480,605	66,297	0,075	0,055
-479,591	-200,000	0,012	-0,091
-478,576	-200,000	-0,040	-0,141
-477,562	800,000	0,031	0,072
-476,547	405,579	-0,084	-0,130
-475,532	9,151	0,030	-0,016
-474,518	234,573	0,058	-0,070
-473,503	700,108	0,023	0,045
-472,489	-132,828	-0,049	0,005
-471,474	-200,000	0,001	0,061
-470,459	-56,962	-0,138	0,044
-469,445	800,000	-0,058	0,133
-468,430	800,000	0,038	-0,093
-467,416	-142,523	-0,103	0,007
-466,401	66,017	-0,149	0,110
-465,386	-53,682	-0,046	0,015
-464,372	116,171	0,012	-0,010
-463,357	457,843	0,054	-0,088
-462,343	462,479	0,047	-0,077
-461,328	-63,038	-0,012	0,003
-460,313	-200,000	0,030	-0,197
-459,299	36,611	0,121	-0,078
-458,284	337,079	-0,031	0,045
-457,270	-5,917	-0,049	-0,025
-456,255	164,297	0,037	0,038
-455,241	800,000	0,033	0,070
-454,226	570,942	0,018	-0,032
-453,211	368,270	0,066	-0,098
-452,197	-200,000	-0,007	0,095
-451,182	233,549	0,116	0,140
-450,168	116,934	-0,050	0,045
-449,153	800,000	-0,018	-0,045
-448,138	513,386	0,016	0,028
-447,124	-43,344	0,074	0,027
-446,109	800,000	-0,036	-0,075
-445,095	-44,400	0,088	-0,032
-444,080	-200,000	0,001	-0,009
-443,065	-200,000	-0,044	0,197
-442,051	-200,000	0,006	0,113
-441,036	-200,000	-0,018	0,074
-440,022	-56,783	-0,100	-0,032
-439,007	72,027	0,149	-0,113
-437,992	19,488	-0,101	-0,059
-436,978	-200,000	0,024	0,095
-435,963	149,988	0,090	0,089
-434,949	-16,362	-0,025	0,012
-433,934	102,063	0,099	-0,084
-432,919	-69,314	0,061	0,017
-431,905	27,632	-0,100	-0,061
-430,890	-200,000	0,013	-0,115
-429,876	-115,616	0,094	0,013
-428,861	319,933	-0,057	0,079
-427,846	256,555	0,053	-0,066
-426,832	32,053	-0,099	-0,062
-425,817	-200,000	0,026	-0,115
-424,803	603,186	-0,010	-0,017
-423,788	190,955	0,102	-0,112
-422,773	-4,373	0,063	0,032
-421,759	-200,000	0,005	-0,065
-420,744	-43,377	-0,053	0,019
-419,730	-200,000	-0,002	0,103
-418,715	-51,891	-0,054	-0,018
-417,701	23,452	0,038	-0,023
-416,686	800,000	-0,051	0,149
-415,671	-137,534	0,128	-0,010
-414,657	800,000	-0,016	-0,039
-413,642	800,000	-0,019	0,041
-412,628	405,377	0,027	0,042
-411,613	-200,000	0,029	-0,191
-410,598	558,951	0,041	-0,072
-409,584	-200,000	0,016	-0,074
-408,569	-184,520	0,105	0,001
-407,555	800,000	-0,066	0,143
-406,540	-9,116	0,072	0,035
-405,525	-29,248	0,045	0,019
-404,511	119,623	-0,132	-0,120
-403,496	210,234	-0,060	0,069
-402,482	-159,843	0,105	0,004
-401,467	527,984	-0,034	-0,059
-400,452	-121,928	-0,015	0,002
-399,438	-27,792	-0,169	-0,071
-398,423	800,000	-0,033	-0,068
-397,409	65,261	0,059	-0,043
-396,394	-200,000	-0,024	-0,178
-395,379	418,555	0,107	0,168
-394,365	-200,000	-0,015	0,173
-393,350	-200,000	0,017	0,069
-392,336	48,642	0,120	-0,082
-391,321	-75,085	-0,075	0,020
-390,306	-74,399	-0,076	-0,020
-389,292	20,578	0,075	0,044
-388,277	800,000	-0,041	0,102
-387,263	-200,000	0,000	-0,099
-386,248	172,493	0,025	0,026
-385,233	-200,000	0,002	0,053
-384,219	696,940	0,060	0,115
-383,204	613,287	-0,027	-0,050
-382,190	-106,542	0,048	0,008
-381,175	394,401	-0,118	-0,180
-380,160	10,068	-0,057	0,032
-379,146	724,744	0,057	0,111
-378,131	188,908	0,084	0,091
-377,117	9,029	-0,081	0,045
-376,102	-74,942	0,061	0,016
-375,088	259,744	-0,045	-0,057
-374,073	800,000	-0,027	-0,085
-373,058	414,598	-0,044	0,068
-372,044	800,000	-0,024	0,066
-371,029	336,086	0,026	0,036
-370,015	-15,554	-0,089	-0,041
-369,000	-200,000	0,008	0,031
-367,985	72,902	0,041	-0,031
-366,971	-200,000	-0,009	-0,100
-365,956	319,023	0,012	0,016
-364,942	-200,000	0,013	0,121
-363,927	-200,000	-0,000	0,053
-362,912	-120,469	-0,036	-0,004
-361,898	-71,844	-0,054	0,014
-360,883	-44,612	0,061	0,022
-359,869	800,000	-0,015	0,043
-358,854	241,725	-0,017	-0,021
-357,839	120,005	0,080	0,072
-356,825	-200,000	0,058	0,190
-355,810	800,000	0,057	-0,139
-354,796	-110,497	-0,080	-0,012
-353,781	644,147	-0,032	-0,059
-352,766	-57,580	0,056	-0,018
-351,752	96,717	0,054	0,045
-350,737	330,318	-0,046	0,065
-349,723	-200,000	0,016	0,172
-348,708	188,200	-0,120	0,131
-347,693	145,036	-0,017	0,016
-346,679	800,000	-0,038	-0,077
-345,664	800,000	0,008	0,022
-344,650	-200,000	-0,011	-0,037
-343,635	-200,000	-0,011	-0,056
-342,620	-71,766	0,172	-0,046
-341,606	-200,000	-0,035	0,180
-340,591	39,069	0,079	0,051
-339,577	221,279	-0,047	-0,055
-338,562	-200,000	-0,026	0,122
-337,548	-83,754	0,104	-0,024
-336,533	-26,319	-0,147	0,062
-335,518	283,313	-0,034	0,044
-334,504	115,859	-0,093	-0,083
-333,489	9,703	0,153	-0,084
-332,475	458,251	0,016	-0,026
-331,460	-200,000	-0,001	-0,215
-330,445	-200,000	-0,019	-0,117
-329,431	-118,441	-0,089	0,011
-328,416	-62,278	-0,065	0,019
-327,402	-95,010	-0,050	-0,010
-326,387	-138,087	0,173	0,014
-325,372	304,476	-0,129	-0,175
-324,358	-81,250	0,111	-0,026
-323,343	135,007	0,016	-0,015
-322,329	-200,000	0,027	0,123
-321,314	-200,000	0,027	0,094
-320,299	-200,000	-0,012	0,076
-319,285	-200,000	-0,001	-0,048
-318,270	-200,000	0,035	-0,170
-317,256	-41,099	-0,044	0,017
-316,241	-200,000	0,019	0,064
-315,226	-200,000	-0,017	0,092
-314,212	-56,484	0,047	-0,015
-313,197	426,610	0,052	0,081
-312,183	-200,000	-0,015	-0,095
-311,168	46,965	0,095	-0,064
-310,153	-200,000	-0,009	-0,044
-309,139	113,012	0,035	0,031
-308,124	57,305	-0,105	0,074
-307,110	-177,075	0,019	0,000
-306,095	-200,000	0,019	-0,065
-305,080	289,099	-0,053	-0,069
-304,066	-103,834	-0,078	0,013
-303,051	-200,000	0,006	-0,046
-302,037	-200,000	0,004	0,039
-301,022	-18,500	-0,023	-0,010
-300,008	122,906	0,120	0,109
-298,993	668,329	-0,037	0,069
-297,978	800,000	0,036	-0,078
-296,964	8,901	-0,036	-0,019
-295,949	4,184	-0,030	-0,016
-294,935	800,000	-0,017	-0,039
-293,920	790,079	0,024	0,048
-292,905	-85,284	0,036	-0,008
-291,891	-200,000	-0,005	0,037
-290,876	-125,674	0,126	-0,014
-289,862	-200,000	0,006	0,036
-288,847	-200,000	0,000	-0,045
-287,832	106,737	-0,034	-0,029
-286,818	-77,881	0,090	-0,022
-285,803	-200,000	-0,004	0,033
-284,789	-195,951	-0,112	0,001
-283,774	-75,247	0,172	-0,044
-282,759	-8,711	-0,135	0,066
-281,745	800,000	0,017	-0,036
-280,730	649,341	0,013	0,025
-279,716	-90,267	0,125	-0,026
-278,701	252,574	-0,066	-0,081
-277,686	752,242	0,017	0,034
-276,672	-137,927	0,166	-0,013
-275,657	800,000	0,019	0,059
-274,643	800,000	-0,036	-0,087
-273,628	508,750	0,029	-0,050
-272,613	256,409	-0,094	-0,118
-271,599	244,297	-0,010	0,012
-270,584	800,000	0,036	-0,088
-269,570	-200,000	0,004	-0,061
-268,555	-46,517	0,170	-0,060
-267,540	-9,766	0,044	-0,021
-266,526	-200,000	0,018	0,118
-265,511	800,000	-0,027	0,086
-264,497	-200,000	0,009	-0,036
-263,482	-105,482	-0,049	-0,008
-262,467	-54,977	-0,007	-0,002
-261,453	800,000	0,038	-0,090
-260,438	62,110	-0,154	-0,111
-259,424	-200,000	-0,008	-0,084
-258,409	800,000	-0,022	-0,045
-257,395	-200,000	-0,051	-0,200
-256,380	327,876	0,092	-0,128
-255,365	228,599	0,089	0,105
-254,351	-200,000	0,005	-0,117
-253,336	-200,000	0,049	-0,177
-252,322	-125,420	-0,033	-0,004
-251,307	-101,601	0,139	0,024
-250,292	179,001	0,009	-0,009
-249,278	252,786	0,040	0,050
-248,263	-63,271	-0,039	0,012
-247,249	547,203	0,048	-0,083
-246,234	-200,000	0,025	-0,125
-245,219	321,103	-0,008	0,011
-244,205	-167,928	-0,109	0,003
-243,190	800,000	0,048	0,142
-242,176	-147,601	-0,119	0,007
-241,161	-200,000	0,005	0,040
-240,146	-5,473	0,038	-0,019
-239,132	-200,000	0,043	0,163
-238,117	-36,317	-0,052	-0,020
-237,103	-200,000	-0,020	-0,104
-236,088	-200,000	0,010	0,072
-235,073	102,378	0,088	-0,075
-234,059	-19,062	0,156	0,070
-233,044	-200,000	0,000	0,093
-232,030	-200,000	-0,026	-0,100
-231,015	-200,000	0,009	0,073
-230,000	170,597	0,048	-0,050
-228,986	11,200	0,069	-0,038
-227,971	-200,000	0,043	0,175
-226,957	-89,471	0,078	-0,017
-225,942	188,336	-0,062	0,067
-224,927	186,560	0,044	0,048
-223,913	365,245	0,026	-0,038
-222,898	-50,936	-0,177	0,060
-221,884	-13,680	-0,032	-0,015
-220,869	-166,043	0,133	-0,004
-219,855	-200,000	-0,003	0,071
-218,840	245,000	0,074	0,090
-217,825	-132,342	0,040	-0,004
-216,811	219,462	-0,066	0,077
-215,796	53,731	-0,114	-0,079
-214,782	-200,000	0,001	-0,065
-213,767	-200,000	-0,023	0,172
-212,752	45,611	0,112	0,075
-211,738	-52,004	0,193	0,064
-210,723	-200,000	-0,012	-0,065
-209,709	-200,000	0,020	0,099
-208,694	141,592	0,038	0,037
-207,679	193,725	-0,038	0,041
-206,665	-200,000	0,021	-0,068
-205,650	-200,000	0,029	0,165
-204,636	546,325	0,039	-0,068
-203,621	307,180	0,114	0,155
-202,606	25,535	-0,048	0,029
-201,592	591,722	0,023	-0,042
-200,577	39,953	-0,035	-0,023
-199,563	202,322	-0,102	-0,114
-198,548	800,000	-0,057	0,163
-197,533	-88,026	0,164	0,035
-196,519	164,223	-0,141	0,143
-195,504	-200,000	-0,002	-0,074
-194,490	-22,420	0,061	0,026
-193,475	-200,000	-0,021	0,075
-192,460	626,561	0,049	-0,090
-191,446	800,000	0,072	0,197
-190,431	737,426	-0,085	0,165
-189,417	324,768	-0,036	0,049
-188,402	-24,679	-0,132	0,056
-187,387	-27,580	-0,047	0,020
-186,373	344,408	0,044	-0,062
-185,358	800,000	-0,040	-0,098
-184,344	406,405	0,090	-0,137
-183,329	-200,000	-0,020	0,084
-182,315	-57,789	-0,059	-0,019
-181,300	-50,688	-0,170	-0,057
-180,285	-200,000	0,023	0,128
-179,271	-200,000	0,000	0,077
-178,256	800,000	0,038	0,090
-177,242	-200,000	-0,000	0,012
-176,227	745,741	-0,017	-0,033
-175,212	245,884	-0,064	0,078
-174,198	303,229	0,036	-0,049
-173,183	-41,132	-0,134	0,050
-172,169	-200,000	0,007	0,060
-171,154	-96,124	-0,044	-0,008
-170,139	109,922	0,089	-0,077
-169,125	800,000	-0,042	0,088
-168,110	411,544	-0,064	0,098
-167,096	800,000	-0,010	-0,023
-166,081	-67,733	0,106	-0,030
-165,066	-115,213	-0,124	0,017
-164,052	83,122	-0,040	0,031
-163,037	7,862	0,110	0,060
-162,023	62,211	0,041	0,030
-161,008	112,914	0,050	-0,044
-159,993	41,669	0,065	0,042
-158,979	255,926	0,059	-0,073
-157,964	-108,606	-0,056	-0,009
-156,950	-200,000	-0,028	0,150
-155,935	800,000	-0,061	0,129
-154,920	223,962	0,066	-0,077
-153,906	341,130	-0,077	0,109
-152,891	8,446	0,051	0,028
-151,877	-200,000	-0,007	0,091
-150,862	800,000	-0,030	0,066
-149,847	-8,641	0,091	0,044
-148,833	360,703	-0,035	0,051
-147,818	242,235	-0,042	-0,051
-146,804	4,043	-0,100	0,053
-145,789	11,652	0,090	-0,049
-144,775	-142,841	-0,108	0,007
-143,760	-21,596	0,103	-0,045
-142,745	177,478	0,068	-0,071
-141,731	-92,160	0,112	0,023
-140,716	-5,583	-0,053	-0,026
-139,702	-200,000	-0,001	-0,023
-138,687	47,643	0,045	-0,030
-137,672	-34,657	-0,191	-0,075
-136,658	94,373	-0,060	0,049
-135,643	-200,000	0,037	-0,134
-134,629	48,940	0,126	0,085
-133,614	436,209	0,031	0,049
-132,599	800,000	-0,030	-0,094
-131,585	149,864	-0,038	-0,037
-130,570	273,128	0,056	-0,072
-129,556	217,901	-0,072	0,083
-128,541	-140,496	-0,143	-0,011
-127,526	215,258	-0,087	-0,099
-126,512	117,311	0,030	0,027
-125,497	800,000	0,032	-0,076
-124,483	-200,000	0,007	-0,089
-123,468	-55,512	0,093	-0,030
-122,453	-200,000	-0,001	-0,035
-121,439	-200,000	-0,021	-0,082
-120,424	800,000	0,017	0,037
-119,410	101,229	-0,101	-0,085
-118,395	761,438	-0,045	0,088
-117,380	-200,000	0,016	0,078
-116,366	228,977	0,095	-0,111
-115,351	-200,000	-0,012	-0,056
-114,337	-21,505	-0,134	-0,059
-113,322	-59,100	-0,062	0,019
-112,307	-200,000	0,001	-0,002
-111,293	384,548	-0,089	0,133
-110,278	39,987	0,071	0,046
-109,264	117,355	-0,103	0,091
-108,249	-14,728	-0,037	-0,017
-107,234	154,758	0,064	-0,064
-106,220	-200,000	0,001	-0,106
-105,205	-27,737	-0,045	0,019
-104,191	64,771	0,078	0,056
-103,176	-65,020	0,208	-0,060
-102,162	-200,000	0,022	-0,123
-101,147	-92,393	-0,155	0,031
-100,132	-108,011	-0,089	0,014
-99,118	126,894	-0,091	-0,083
-98,103	-200,000	0,001	-0,012
-97,089	247,809	-0,049	-0,060
-96,074	665,366	0,041	-0,077
-95,059	112,635	0,054	0,047
-94,045	93,375	-0,022	0,018
-93,030	-200,000	-0,001	-0,022
-92,016	-97,632	0,008	-0,001
-91,001	32,385	-0,055	-0,034
-89,986	378,327	0,079	-0,116
-88,972	-200,000	0,006	-0,053
-87,957	493,898	0,035	-0,058
-86,943	-200,000	-0,031	-0,125
-85,928	264,782	0,042	-0,053
-84,913	-136,605	-0,115	-0,009
-83,899	800,000	0,032	-0,069
-82,884	-200,000	-0,022	0,103
-81,870	-200,000	-0,001	0,110
-80,855	-200,000	-0,016	-0,074
-79,840	-200,000	0,006	0,044
-78,826	-4,784	-0,098	-0,049
-77,811	-46,048	-0,063	-0,022
-76,797	-28,003	-0,178	0,074
-75,782	92,087	0,099	0,080
-74,767	800,000	0,049	-0,106
-73,753	-200,000	0,005	0,068
-72,738	36,283	-0,138	0,087
-71,724	800,000	-0,018	-0,040
-70,709	-200,000	-0,001	-0,131
-69,694	198,660	0,089	0,099
-68,680	800,000	0,056	0,116
-67,665	-55,745	0,065	0,021
-66,651	-102,596	-0,083	-0,014
-65,636	-200,000	0,023	0,117
-64,622	72,033	-0,050	-0,037
-63,607	800,000	0,021	0,050
-62,592	471,891	-0,084	-0,137
-61,578	-200,000	-0,022	-0,106
-60,563	192,580	0,066	0,072
-59,549	178,372	0,026	0,027
-58,534	5,668	-1,827	-0,969
-57,519	800,000	-0,343	-1,063
-56,505	-200,000	-1,167	-4,838
-55,490	-39,268	0,697	0,262
-54,476	800,000	5,220	12,334
-53,461	-200,000	17,079	273,805
-52,446	800,000	716,533	2189,999
-51,432	532,939	1629,824	2786,517
-50,417	113,601	1625,089	1419,621
-49,403	76,948	1285,910	981,297
-48,388	33,834	1032,682	645,018
-47,373	20,466	995,008	577,112
-46,359	19,188	983,413	566,140
-45,344	17,049	979,272	556,684
-44,330	17,193	977,795	556,296
-43,315	16,845	976,278	554,266
-42,300	16,804	975,054	553,417
-41,286	16,741	974,160	552,678
-40,271	16,754	973,076	552,085
-39,257	16,765	972,157	551,577
-38,242	16,811	971,458	551,309
-37,227	16,847	970,819	551,043
-36,213	16,712	969,954	550,090
-35,198	16,804	968,901	549,769
-34,184	16,830	968,200	549,436
-33,169	16,747	967,328	548,647
-32,154	16,768	966,411	548,174
-31,140	16,776	965,502	547,664
-30,125	16,771	964,708	547,176
-29,111	16,788	963,714	546,645
-28,096	16,827	963,206	546,461
-27,082	16,748	962,558	545,815
-26,067	16,757	961,571	545,263
-25,052	16,778	960,785	544,864
-24,038	16,743	960,403	544,512
-23,023	16,771	959,507	544,073
-22,009	16,766	958,992	543,745
-20,994	16,833	958,284	543,536
-19,979	16,806	957,638	543,063
-18,965	16,762	957,146	542,619
-17,950	16,784	956,480	542,292
-16,936	16,691	955,728	541,546
-15,921	16,683	954,908	541,034
-14,906	16,683	954,103	540,555
-13,892	16,638	953,588	540,098
-12,877	16,576	953,007	539,549
-11,863	16,561	952,421	539,148
-10,848	16,602	951,926	538,978
-9,833	16,731	951,254	538,988
-8,819	16,675	950,704	538,475
-7,804	16,648	949,989	537,963
-6,790	16,618	949,398	537,510
-5,775	16,718	948,745	537,439
-4,760	16,651	948,384	537,000
-3,746	16,628	947,629	536,477
-2,731	16,449	947,030	535,546
-1,717	16,445	946,287	535,092
-0,702	16,431	945,712	534,703
0,313	16,244	945,060	534,545
1,327	19,663	943,102	544,241
2,342	28,861	797,938	484,967
3,356	26,183	449,020	268,874
4,371	-3,343	296,194	147,762
5,386	-7,426	277,594	134,589
6,400	-8,538	271,679	130,674
7,415	-8,824	269,446	129,324
8,429	-8,952	268,034	128,517
9,444	-8,948	267,056	128,041
10,459	-9,024	266,415	127,652
11,473	-9,135	265,857	127,272
12,488	-9,406	265,275	126,736
13,502	-9,378	264,718	126,484
14,517	-9,484	264,110	126,086
15,531	-9,743	263,601	125,597
16,546	-9,770	263,361	125,449
17,561	-9,676	262,954	125,328
18,575	-9,652	262,596	125,168
19,590	-9,834	262,349	124,875
20,604	-9,704	261,994	124,812
21,619	-9,859	261,664	124,504
22,634	-9,645	261,270	124,497
23,648	-9,857	261,025	124,179
24,663	-9,787	260,729	124,090
25,677	-9,799	260,466	123,944
26,692	-9,798	260,153	123,784
27,707	-9,754	259,939	123,711
28,721	-9,924	259,637	123,405
29,736	-9,974	259,488	123,279
30,750	-9,913	259,110	123,142
31,765	-10,052	258,977	122,945
32,780	-9,963	258,618	122,842
33,794	-10,106	258,614	122,703
34,809	-9,879	258,260	122,725
35,823	-9,986	257,853	122,426
36,838	-10,028	257,651	122,282
37,853	-10,123	257,376	122,057
38,867	-10,008	257,178	122,053
39,882	-9,846	256,939	122,071
40,896	-10,006	256,801	121,854
41,911	-9,984	256,475	121,708
42,926	-10,140	256,315	121,485
43,940	-10,212	256,080	121,299
44,955	-10,223	255,944	121,214
45,969	-10,263	255,645	121,027
46,984	-10,552	255,275	120,588
47,999	-10,706	255,106	120,364
49,013	-10,884	254,839	120,071
50,028	-10,959	254,558	119,863
51,042	-11,006	254,278	119,681
52,057	-10,935	254,144	119,668
53,071	-10,688	253,739	119,681
54,086	-10,744	253,814	119,657
55,101	-10,567	253,625	119,711
56,115	-10,318	253,428	119,823
57,130	-9,893	253,264	120,102
58,144	-9,640	253,222	120,290
59,159	-9,582	253,087	120,265
60,174	-9,607	252,889	120,139
61,188	-9,662	252,593	119,941
62,203	-9,766	252,454	119,774
63,217	-9,965	252,120	119,433
64,232	-9,803	251,979	119,496
65,247	-9,619	251,706	119,514
66,261	-9,600	251,389	119,369
67,276	-10,319	251,269	118,685
68,290	-10,276	250,851	118,513
69,305	-10,411	250,655	118,295
70,320	-10,501	250,618	118,190
71,334	-10,076	250,264	118,375
72,349	-9,790	250,325	118,638
73,363	-9,673	250,079	118,610
74,378	-9,785	249,948	118,442
75,393	-9,933	249,778	118,225
76,407	-9,853	249,359	118,084
77,422	-9,720	249,188	118,106
78,436	-9,779	248,994	117,953
79,451	-9,840	248,838	117,817
80,466	-10,033	248,371	117,422
81,480	-10,250	248,288	117,188
82,495	-10,332	248,021	116,982
83,509	-10,272	247,977	117,002
84,524	-10,338	247,682	116,797
85,539	-10,490	247,428	116,538
86,553	-10,364	247,169	116,512
87,568	-10,556	247,164	116,338
88,582	-10,362	246,957	116,393
89,597	-10,052	246,745	116,543
90,611	-10,017	246,624	116,505
91,626	-9,807	246,380	116,556
92,641	-9,969	246,264	116,355
93,655	-9,913	245,932	116,235
94,670	-10,073	245,873	116,062
95,684	-10,109	245,603	115,894
96,699	-10,310	245,668	115,747
97,714	-10,331	245,209	115,503
98,728	-10,317	245,086	115,446
99,743	-10,335	244,784	115,278
100,757	-10,338	244,572	115,166
101,772	-10,382	244,349	115,014
102,787	-10,316	244,315	115,043
103,801	-10,127	244,144	115,108
104,816	-10,122	244,009	115,039
105,830	-10,043	243,970	115,076
106,845	-9,694	243,619	115,189
107,860	-9,904	243,489	114,944
108,874	-10,028	243,232	114,709
109,889	-9,992	243,122	114,677
110,903	-10,179	242,866	114,392
111,918	-9,991	242,677	114,448
112,933	-9,956	242,555	114,408
113,947	-10,054	242,388	114,239
114,962	-9,914	242,152	114,233
115,976	-10,031	242,010	114,059
116,991	-9,881	241,792	114,070
118,006	-10,023	241,666	113,884
119,020	-10,043	241,621	113,836
120,035	-9,540	241,357	114,114
121,049	-9,657	241,289	113,975
122,064	-9,680	240,942	113,783
123,079	-10,069	240,833	113,403
124,093	-10,048	240,502	113,254
125,108	-10,107	240,229	113,067
126,122	-10,367	240,006	112,740
127,137	-10,430	239,794	112,579
128,151	-10,388	239,815	112,614
129,166	-10,355	239,754	112,601
130,181	-10,462	239,382	112,329
131,195	-10,417	239,240	112,290
132,210	-10,315	239,223	112,354
133,224	-10,130	239,133	112,453
134,239	-10,021	238,743	112,347
135,254	-9,943	238,711	112,385
136,268	-10,067	238,450	112,152
137,283	-10,393	238,208	111,765
138,297	-10,461	237,969	111,588
139,312	-10,383	237,847	111,583
140,327	-10,150	237,635	111,661
141,341	-9,574	237,708	112,151
142,356	-9,387	237,393	112,142
143,370	-9,450	237,415	112,092
144,385	-9,414	237,322	112,067
145,400	-9,603	237,143	111,820
146,414	-9,554	236,796	111,687
147,429	-9,651	236,620	111,515
148,443	-9,376	236,405	111,625
149,458	-9,704	236,466	111,381
150,473	-9,720	236,244	111,253
151,487	-9,554	236,047	111,283
152,502	-9,576	235,795	111,137
153,516	-9,700	235,630	110,951
154,531	-9,745	235,504	110,845
155,546	-9,590	235,377	110,899
156,560	-9,693	235,076	110,666
157,575	-9,840	234,852	110,434
158,589	-9,775	234,891	110,494
159,604	-9,392	234,690	110,693
160,619	-9,309	234,403	110,614
161,633	-9,347	234,240	110,497
162,648	-9,472	234,186	110,363
163,662	-9,457	233,901	110,230
164,677	-9,746	233,897	109,990
165,692	-9,579	233,747	110,042
166,706	-9,325	233,626	110,175
167,721	-9,288	233,312	110,047
168,735	-9,127	233,206	110,114
169,750	-9,426	233,237	109,883
170,764	-9,498	233,028	109,718
171,779	-9,369	232,787	109,696
172,794	-9,475	232,714	109,569
173,808	-9,607	232,447	109,329
174,823	-10,028	232,071	108,813
175,837	-10,329	231,905	108,490
176,852	-9,959	232,026	108,826
177,867	-9,515	231,947	109,128
178,881	-9,361	231,791	109,165
179,896	-9,333	231,580	109,078
180,910	-9,471	231,328	108,842
181,925	-9,327	231,275	108,919
182,940	-9,168	231,066	108,935
183,954	-9,428	231,065	108,722
184,969	-9,299	230,922	108,746
185,983	-9,225	230,677	108,678
186,998	-9,323	230,460	108,491
188,013	-9,273	230,450	108,515
189,027	-9,231	230,231	108,434
190,042	-9,251	230,095	108,346
191,056	-9,343	229,904	108,174
192,071	-9,259	229,799	108,180
193,086	-9,047	229,600	108,242
194,100	-8,886	229,548	108,332
195,115	-8,798	229,529	108,381
196,129	-7,651	229,760	109,370
197,144	-3,830	230,792	112,821
198,159	-0,130	232,092	116,332
199,173	3,029	232,769	119,126
200,188	3,542	232,974	119,620
201,202	3,634	232,694	119,538
202,217	3,633	232,649	119,503
203,232	3,831	232,520	119,581
204,246	3,800	232,324	119,445
205,261	4,018	232,196	119,538
206,275	4,135	232,176	119,608
207,290	4,017	232,012	119,421
208,304	4,132	231,844	119,413
209,319	4,243	231,538	119,330
210,334	3,960	231,392	119,026
211,348	3,831	231,130	118,781
212,363	3,494	230,829	118,356
213,377	3,225	230,614	118,027
214,392	3,197	230,371	117,871
215,407	3,236	230,429	117,920
216,421	3,460	230,333	118,033
217,436	3,261	230,125	117,763
218,450	3,095	229,787	117,451
219,465	3,035	229,630	117,315
220,480	3,100	229,641	117,360
221,494	3,031	229,415	117,181
222,509	3,320	229,409	117,389
223,523	3,339	229,266	117,320
224,538	3,166	229,095	117,090
225,553	3,365	228,854	117,109
226,567	3,395	228,885	117,137
227,582	3,531	228,741	117,157
228,596	3,815	228,544	117,261
229,611	3,450	228,272	116,833
230,626	3,142	228,030	116,465
231,640	3,089	228,010	116,404
232,655	3,413	227,931	116,600
233,669	3,814	228,002	116,931
234,684	3,921	227,681	116,837
235,699	3,782	227,407	116,581
236,713	3,226	227,358	116,123
237,728	3,169	227,170	115,973
238,742	3,101	227,026	115,838
239,757	3,173	226,752	115,742
240,772	3,162	226,661	115,677
241,786	3,108	226,560	115,574
242,801	3,338	226,507	115,711
243,815	3,660	226,437	115,908
244,830	3,547	226,308	115,747
245,844	3,515	225,917	115,513
246,859	3,430	225,845	115,401
247,874	3,567	225,637	115,387
248,888	3,521	225,638	115,343
249,903	3,468	225,358	115,150
250,917	3,301	225,273	114,971
251,932	3,036	225,164	114,706
252,947	3,295	224,944	114,778
253,961	3,142	224,796	114,577
254,976	3,136	224,483	114,403
255,990	3,298	224,572	114,559
257,005	3,536	224,320	114,598
258,020	3,529	224,227	114,536
259,034	3,629	224,160	114,566
260,049	3,455	224,074	114,382
261,063	3,564	223,782	114,304
262,078	3,645	223,708	114,316
263,093	3,620	223,705	114,286
264,107	3,549	223,381	114,058
265,122	3,603	223,384	114,088
266,136	3,730	223,161	114,059
267,151	3,707	223,003	113,951
268,166	3,266	222,800	113,510
269,180	3,201	222,437	113,267
270,195	3,079	222,385	113,140
271,209	3,277	222,210	113,187
272,224	3,006	222,390	113,068
273,239	3,255	222,040	113,065
274,253	3,213	221,984	112,995
275,268	3,018	221,813	112,754
276,282	3,004	221,490	112,570
277,297	2,919	221,485	112,494
278,312	3,203	221,289	112,594
279,326	3,202	221,105	112,489
280,341	3,308	221,123	112,566
281,355	3,249	221,016	112,459
282,370	3,256	220,719	112,302
283,384	3,007	220,631	112,064
284,399	3,002	220,307	111,887
285,414	2,953	220,344	111,859
286,428	3,312	220,210	112,045
287,443	3,575	220,052	112,146
288,457	3,487	219,898	111,993
289,472	3,325	219,780	111,805
290,487	2,725	219,600	111,265
291,501	2,811	219,439	111,237
292,516	2,880	219,321	111,217
293,530	3,157	219,070	111,282
294,545	2,800	219,025	110,990
295,560	3,006	218,950	111,091
296,574	3,144	218,776	111,094
297,589	3,426	218,520	111,158
298,603	3,404	218,592	111,169
299,618	3,279	218,467	111,005
300,633	3,198	218,286	110,844
301,647	3,543	218,155	111,017
302,662	3,668	217,974	111,006
303,676	3,515	217,937	110,867
304,691	3,488	217,785	110,760
305,706	3,465	217,604	110,641
306,720	3,396	217,386	110,471
307,735	3,218	217,233	110,255
308,749	3,240	217,068	110,177
309,764	3,127	217,152	110,129
310,779	3,179	216,962	110,060
311,793	3,362	216,771	110,085
312,808	3,236	216,543	109,869
313,822	3,496	216,407	109,977
314,837	3,205	216,177	109,641
315,852	3,211	216,107	109,600
316,866	3,196	216,160	109,606
317,881	3,390	215,876	109,592
318,895	3,342	215,861	109,540
319,910	3,081	215,427	109,124
320,925	3,362	215,402	109,302
321,939	3,189	215,258	109,096
322,954	3,160	215,174	109,022
323,968	3,367	215,110	109,128
324,983	3,559	214,997	109,198
325,997	3,501	214,961	109,128
327,012	3,546	214,677	109,006
328,027	3,283	214,603	108,772
329,041	3,789	214,568	109,104
330,056	3,878	214,404	109,074
331,070	3,263	214,167	108,508
332,085	3,078	213,906	108,234
333,100	3,060	213,880	108,199
334,114	3,269	213,759	108,277
335,129	3,628	213,550	108,415
336,143	3,344	213,461	108,159
337,158	3,287	213,314	108,035
338,173	3,337	213,198	108,002
339,187	3,077	213,054	107,736
340,202	2,889	212,801	107,466
341,216	2,911	212,663	107,402
342,231	3,103	212,596	107,494
343,246	3,190	212,345	107,418
344,260	3,223	212,257	107,388
345,275	3,408	212,216	107,487
346,289	3,152	212,147	107,263
347,304	3,518	211,986	107,428
348,319	3,432	211,866	107,298
349,333	3,450	211,748	107,241
350,348	3,251	211,442	106,937
351,362	3,798	211,335	107,256
352,377	3,658	211,381	107,172
353,392	3,426	211,168	106,892
354,406	3,403	211,181	106,873
355,421	196,377	1340,883	1424,805
356,435	156,891	1478,531	1424,823
