DTS Sentinel unit serial number:	SN410029Multiplexer serial number:	ORYXHardware model number:	OX2-SRSoftware version number:	ORYX F/W v4,00 Oryx Data Collector v3.7.2.0data status	okinstallation	B6 Nyhavnadifferential loss correction	single-endedforward channel	channel 2reverse channel	N/Adate	2023/12/07time	17:15:08forward acquisition time	300,00reverse acquisition time	0,00gamma	499,1914k internal	0,3164k external	0,3164temperature offset calibration	1,0000default loss term (dB/km)	0,3820temperature slope calibration	1,0000multiplexer offset coefficient	1,0000multiplexer slope coefficient	1,0000fibre end	0,00T internal ref (°C)	14,49T ext. ref 1 (°C)	-2,38T ext. ref 2 (°C)	-2,38length (m)	temperature (°C)	Stokes	anti-Stokes-744,400	365,505	0,088	0,131
-743,385	-93,579	-0,187	0,038
-742,371	-92,267	0,235	0,048
-741,356	-123,527	-0,246	-0,028
-740,342	-188,450	0,090	0,001
-739,327	-83,874	-0,318	-0,074
-738,312	-19,683	0,100	0,045
-737,298	-108,137	-0,344	-0,054
-736,283	318,287	0,036	0,050
-735,269	-109,826	-0,319	0,049
-734,254	438,479	-0,055	0,088
-733,239	-57,095	-0,485	-0,156
-732,225	78,372	0,088	0,069
-731,210	69,551	-0,051	0,039
-730,196	261,589	-0,022	0,028
-729,181	20,367	-0,033	0,020
-728,167	376,571	-0,075	-0,113
-727,152	-200,000	-0,024	-0,197
-726,137	96,444	0,061	-0,051
-725,123	800,000	-0,054	-0,136
-724,108	73,444	-0,066	0,051
-723,094	800,000	-0,063	-0,138
-722,079	419,226	0,096	-0,152
-721,064	800,000	0,017	-0,038
-720,050	-93,539	-0,175	-0,035
-719,035	800,000	0,035	-0,076
-718,021	50,994	-0,077	0,053
-717,006	-32,233	-0,229	-0,093
-715,991	-55,210	-0,117	0,038
-714,977	-200,000	0,004	-0,120
-713,962	-140,613	-0,107	0,008
-712,948	-98,806	0,032	0,006
-711,933	800,000	0,059	-0,127
-710,918	305,841	-0,079	-0,109
-709,904	192,685	-0,006	-0,007
-708,889	-88,485	-0,065	-0,014
-707,875	-111,200	-0,050	-0,008
-706,860	211,447	0,070	-0,082
-705,845	-14,185	0,052	0,024
-704,831	-200,000	-0,015	0,139
-703,816	-140,995	-0,046	0,003
-702,802	-21,099	0,024	0,011
-701,787	-200,000	-0,015	-0,060
-700,772	-200,000	0,009	-0,194
-699,758	-200,000	-0,026	0,097
-698,743	271,378	-0,089	-0,115
-697,729	526,188	0,084	-0,146
-696,714	800,000	0,053	0,108
-695,699	-200,000	-0,024	-0,163
-694,685	-39,728	-0,121	0,046
-693,670	-193,600	-0,080	-0,000
-692,656	370,594	-0,075	-0,112
-691,641	-15,882	-0,106	-0,049
-690,627	-70,418	0,128	0,035
-689,612	-200,000	0,008	-0,156
-688,597	53,095	0,021	0,015
-687,583	-200,000	-0,005	0,034
-686,568	118,835	0,041	0,037
-685,554	800,000	0,030	0,067
-684,539	-83,060	-0,086	-0,020
-683,524	-104,775	0,155	-0,026
-682,510	-200,000	-0,003	0,036
-681,495	-69,045	-0,054	-0,015
-680,481	-200,000	-0,008	0,029
-679,466	-92,372	-0,046	0,009
-678,451	-200,000	0,008	-0,070
-677,437	391,582	-0,045	0,068
-676,422	367,561	-0,056	0,083
-675,408	-15,386	0,031	-0,014
-674,393	141,470	0,069	-0,067
-673,378	27,891	-0,181	-0,112
-672,364	117,103	-0,100	0,090
-671,349	494,858	0,084	-0,143
-670,335	800,000	-0,014	0,044
-669,320	491,276	-0,075	0,126
-668,305	-147,416	0,041	0,003
-667,291	-200,000	0,024	0,180
-666,276	-200,000	-0,036	-0,149
-665,262	51,154	-0,033	-0,023
-664,247	-6,265	-0,093	-0,047
-663,232	-1,236	-0,094	0,049
-662,218	-46,851	0,081	0,029
-661,203	-8,773	-0,051	-0,025
-660,189	-153,882	-0,084	0,004
-659,174	-200,000	-0,002	0,028
-658,159	84,010	0,032	0,025
-657,145	22,801	-0,083	-0,050
-656,130	-200,000	0,044	-0,172
-655,116	197,739	0,050	-0,057
-654,101	-200,000	-0,001	-0,045
-653,086	218,906	-0,033	0,039
-652,072	121,437	-0,064	0,058
-651,057	800,000	0,065	-0,176
-650,043	552,720	-0,079	-0,140
-649,028	212,227	-0,056	-0,065
-648,014	-92,780	0,107	0,022
-646,999	800,000	0,037	0,076
-645,984	162,419	-0,035	-0,036
-644,970	428,975	0,047	0,074
-643,955	800,000	0,020	-0,043
-642,941	800,000	0,024	-0,060
-641,926	-200,000	-0,016	0,119
-640,911	-23,125	-0,109	-0,048
-639,897	-92,305	0,111	0,023
-638,882	119,842	0,047	0,043
-637,868	102,023	0,050	-0,043
-636,853	800,000	0,023	0,067
-635,838	216,281	-0,094	-0,110
-634,824	-200,000	0,003	-0,037
-633,809	-150,833	0,132	-0,007
-632,795	38,482	-0,054	-0,035
-631,780	-30,929	0,134	0,055
-630,765	212,954	0,050	0,058
-629,751	-42,139	-0,069	-0,026
-628,736	-109,495	-0,163	-0,025
-627,722	-0,505	0,070	0,036
-626,707	8,946	-0,050	-0,028
-625,692	-200,000	0,053	0,175
-624,678	800,000	-0,036	0,075
-623,663	712,368	0,004	0,008
-622,649	30,487	-0,015	0,010
-621,634	235,788	-0,098	-0,119
-620,619	-200,000	0,016	-0,076
-619,605	-180,789	0,050	-0,001
-618,590	-200,000	-0,009	-0,060
-617,576	50,032	0,055	0,038
-616,561	682,057	-0,062	-0,120
-615,546	-130,374	0,024	0,002
-614,532	-80,325	-0,068	-0,017
-613,517	-167,599	0,065	0,002
-612,503	-67,067	0,014	0,004
-611,488	368,762	0,016	0,024
-610,474	4,531	0,038	0,021
-609,459	497,143	-0,063	0,107
-608,444	-200,000	0,009	-0,133
-607,430	-64,328	-0,092	-0,027
-606,415	-200,000	0,001	-0,063
-605,401	-115,480	-0,133	-0,018
-604,386	-200,000	0,014	0,113
-603,371	32,443	-0,013	0,008
-602,357	-65,924	-0,112	0,033
-601,342	-104,941	0,082	0,014
-600,328	800,000	0,010	0,023
-599,313	-200,000	0,002	0,019
-598,298	-61,082	0,025	-0,008
-597,284	-9,437	-0,133	0,065
-596,269	-200,000	0,001	-0,018
-595,255	-200,000	0,023	0,105
-594,240	-46,796	0,052	0,019
-593,225	800,000	0,032	-0,079
-592,211	-133,031	0,094	0,009
-591,196	-37,155	0,072	0,028
-590,182	-133,668	0,066	0,006
-589,167	-140,336	-0,169	-0,013
-588,152	-200,000	-0,013	0,122
-587,138	42,958	-0,077	0,051
-586,123	-89,969	-0,040	-0,008
-585,109	-180,873	-0,170	-0,002
-584,094	-16,600	-0,109	0,050
-583,079	180,057	-0,023	0,025
-582,065	282,477	-0,034	-0,044
-581,050	-200,000	-0,013	0,122
-580,036	800,000	0,028	0,061
-579,021	800,000	-0,038	0,099
-578,006	750,092	-0,071	0,141
-576,992	38,518	0,080	-0,052
-575,977	-115,555	0,087	-0,012
-574,963	-13,376	-0,019	-0,009
-573,948	800,000	0,051	0,129
-572,934	188,565	-0,057	-0,063
-571,919	-200,000	0,012	0,043
-570,904	-200,000	-0,015	-0,088
-569,890	-200,000	0,014	-0,049
-568,875	-134,288	0,182	0,016
-567,861	-200,000	0,003	0,107
-566,846	615,119	0,052	0,095
-565,831	461,194	0,026	-0,043
-564,817	408,329	0,018	0,027
-563,802	94,287	-0,058	0,048
-562,788	249,022	0,085	-0,105
-561,773	800,000	0,011	0,030
-560,758	272,926	0,069	0,089
-559,744	800,000	0,017	0,040
-558,729	105,287	0,075	0,065
-557,715	617,980	0,070	0,128
-556,700	-200,000	0,001	0,038
-555,685	800,000	-0,060	0,154
-554,671	145,479	0,075	-0,074
-553,656	-2,909	-0,037	-0,019
-552,642	388,501	0,055	-0,083
-551,627	800,000	0,027	-0,060
-550,612	89,458	-0,075	-0,061
-549,598	63,864	-0,041	0,030
-548,583	-200,000	-0,003	-0,146
-547,569	163,482	-0,020	-0,021
-546,554	-48,230	-0,019	-0,007
-545,539	-129,036	-0,079	-0,008
-544,525	96,615	-0,048	0,040
-543,510	-135,781	-0,013	0,001
-542,496	-92,023	-0,074	-0,015
-541,481	-195,688	-0,116	0,001
-540,466	25,980	-0,089	-0,054
-539,452	317,986	0,079	0,109
-538,437	235,128	0,105	0,127
-537,423	512,809	0,085	0,145
-536,408	-68,187	-0,235	-0,066
-535,393	46,607	0,100	0,068
-534,379	-124,724	-0,038	0,004
-533,364	-200,000	-0,014	0,046
-532,350	-108,287	0,105	0,016
-531,335	-96,174	-0,055	-0,011
-530,321	268,557	0,013	-0,016
-529,306	324,051	0,049	-0,069
-528,291	-115,131	-0,125	-0,017
-527,277	20,743	-0,061	-0,036
-526,262	41,942	0,100	0,066
-525,248	189,326	0,007	0,007
-524,233	63,396	-0,096	0,070
-523,218	-200,000	0,018	-0,082
-522,204	800,000	0,013	0,029
-521,189	-200,000	-0,032	0,121
-520,175	800,000	-0,024	-0,050
-519,160	-200,000	-0,005	-0,072
-518,145	-159,313	0,043	-0,002
-517,131	34,599	0,016	-0,010
-516,116	-200,000	-0,000	-0,138
-515,102	-46,078	0,116	-0,042
-514,087	-111,094	-0,055	-0,008
-513,072	-45,461	0,074	-0,027
-512,058	-18,298	-0,129	-0,059
-511,043	-200,000	-0,016	-0,100
-510,029	800,000	0,056	0,152
-509,014	58,607	-0,004	0,003
-507,999	-87,448	0,100	0,022
-506,985	-123,988	-0,100	-0,011
-505,970	43,312	0,090	-0,060
-504,956	71,905	-0,033	-0,025
-503,941	-2,732	0,100	-0,051
-502,926	-31,745	0,077	0,031
-501,912	800,000	-0,063	0,162
-500,897	-68,514	0,171	-0,048
-499,883	274,585	0,049	-0,063
-498,868	361,292	-0,065	-0,095
-497,853	-49,551	-0,088	-0,031
-496,839	589,295	0,010	-0,019
-495,824	-91,708	-0,054	-0,011
-494,810	-200,000	0,005	-0,111
-493,795	16,942	-0,076	0,044
-492,781	-200,000	0,010	-0,047
-491,766	390,974	0,072	-0,109
-490,751	484,174	0,045	-0,075
-489,737	46,909	0,069	-0,046
-488,722	24,470	0,100	-0,060
-487,708	-105,393	0,145	-0,024
-486,693	-200,000	0,005	0,046
-485,678	-84,110	0,027	-0,006
-484,664	800,000	-0,031	-0,096
-483,649	-49,658	-0,054	-0,019
-482,635	218,472	-0,126	-0,147
-481,620	-58,018	-0,030	0,010
-480,605	-24,250	0,107	0,046
-479,591	4,483	0,056	0,030
-478,576	-200,000	0,040	-0,135
-477,562	-60,747	0,179	-0,055
-476,547	154,359	-0,136	-0,136
-475,532	-200,000	-0,025	-0,122
-474,518	228,707	-0,051	-0,061
-473,503	-53,824	0,090	0,030
-472,489	16,727	-0,085	-0,049
-471,474	-93,153	-0,160	0,032
-470,459	16,712	-0,066	0,038
-469,445	-84,146	0,001	0,000
-468,430	249,711	-0,089	-0,110
-467,416	256,585	-0,063	0,079
-466,401	260,324	0,081	0,102
-465,386	112,212	0,114	0,100
-464,372	800,000	0,027	-0,068
-463,357	-200,000	-0,000	-0,104
-462,343	-81,473	-0,066	0,016
-461,328	112,379	-0,043	-0,038
-460,313	-155,965	-0,077	-0,004
-459,299	100,746	-0,041	0,034
-458,284	-108,498	-0,082	0,013
-457,270	-200,000	0,002	0,030
-456,255	-200,000	0,034	-0,150
-455,241	-71,009	-0,033	0,009
-454,226	199,900	-0,086	-0,096
-453,211	390,988	-0,031	-0,047
-452,197	313,180	-0,006	0,008
-451,182	51,731	-0,055	0,038
-450,168	800,000	-0,042	-0,095
-449,153	13,551	0,055	0,031
-448,138	51,967	-0,061	-0,042
-447,124	116,776	-0,072	0,064
-446,109	800,000	-0,027	0,063
-445,095	-200,000	0,009	0,112
-444,080	114,474	0,101	0,089
-443,065	800,000	-0,004	0,010
-442,051	24,483	-0,176	0,106
-441,036	-128,113	-0,049	-0,005
-440,022	27,851	-0,047	-0,029
-439,007	229,855	0,045	-0,054
-437,992	289,597	0,050	0,066
-436,978	-71,743	0,120	0,032
-435,963	-50,556	-0,083	0,028
-434,949	-68,088	0,056	0,016
-433,934	-200,000	0,001	-0,033
-432,919	98,861	0,049	0,041
-431,905	-200,000	-0,049	-0,162
-430,890	-75,934	0,077	0,020
-429,876	-200,000	0,011	0,095
-428,861	218,613	-0,021	0,025
-427,846	-200,000	0,006	0,060
-426,832	339,537	-0,024	0,035
-425,817	31,982	-0,053	-0,033
-424,803	-4,382	-0,067	0,033
-423,788	-26,959	0,092	0,039
-422,773	299,582	0,078	-0,105
-421,759	-200,000	0,027	0,104
-420,744	-172,051	-0,067	0,002
-419,730	103,353	0,078	0,066
-418,715	215,545	-0,074	-0,086
-417,701	800,000	-0,019	-0,040
-416,686	-90,354	0,051	0,011
-415,671	-150,367	0,054	0,003
-414,657	63,883	-0,045	0,033
-413,642	800,000	0,035	0,081
-412,628	703,547	0,073	-0,140
-411,613	-89,232	-0,076	0,016
-410,598	108,140	-0,049	0,043
-409,584	-126,840	-0,114	0,012
-408,569	-31,834	0,091	0,037
-407,555	800,000	0,051	0,124
-406,540	473,833	0,029	0,047
-405,525	-200,000	0,004	-0,019
-404,511	74,288	-0,116	-0,089
-403,496	-138,070	0,055	-0,004
-402,482	-200,000	-0,033	0,141
-401,467	-51,858	0,066	0,022
-400,452	-200,000	0,013	0,161
-399,438	800,000	-0,040	-0,119
-398,423	24,748	-0,064	0,039
-397,409	36,420	0,070	-0,045
-396,394	319,646	-0,094	-0,130
-395,379	-200,000	-0,019	0,094
-394,365	23,109	0,045	0,027
-393,350	61,097	-0,100	-0,072
-392,336	89,630	-0,058	0,047
-391,321	-136,147	-0,050	0,004
-390,306	-200,000	0,008	0,206
-389,292	181,828	0,038	-0,041
-388,277	-200,000	0,011	-0,050
-387,263	321,669	0,106	-0,147
-386,248	-80,724	0,195	0,047
-385,233	-137,684	0,116	0,009
-384,219	111,608	-0,040	0,035
-383,204	-33,394	0,033	-0,013
-382,190	-67,202	-0,065	0,018
-381,175	104,518	-0,083	-0,071
-380,160	-200,000	-0,008	0,090
-379,146	-200,000	-0,017	0,112
-378,131	-200,000	-0,027	0,127
-377,117	720,936	-0,033	0,065
-376,102	800,000	0,055	-0,126
-375,088	20,121	-0,088	-0,051
-374,073	-93,381	-0,011	0,002
-373,058	735,176	-0,018	0,035
-372,044	136,784	-0,054	0,051
-371,029	-200,000	0,002	-0,006
-370,015	567,946	0,040	-0,071
-369,000	201,507	-0,065	0,073
-367,985	283,760	-0,031	0,040
-366,971	-3,731	-0,048	0,024
-365,956	800,000	0,053	0,141
-364,942	-2,716	0,033	-0,016
-363,927	307,288	0,061	0,083
-362,912	136,930	0,029	0,028
-361,898	-200,000	-0,036	-0,116
-360,883	255,837	-0,095	-0,118
-359,869	90,449	0,062	0,051
-358,854	-200,000	0,006	-0,057
-357,839	580,268	-0,021	-0,037
-356,825	104,446	0,058	-0,049
-355,810	-113,336	-0,073	-0,010
-354,796	-80,543	0,033	-0,008
-353,781	260,327	0,077	-0,097
-352,766	200,177	-0,093	-0,103
-351,752	-7,207	-0,119	-0,058
-350,737	-37,362	0,155	0,060
-349,723	52,993	0,019	0,013
-348,708	-88,630	-0,050	0,011
-347,693	800,000	0,054	-0,119
-346,679	101,928	0,025	-0,021
-345,664	-200,000	-0,016	-0,081
-344,650	-200,000	-0,001	0,027
-343,635	-149,988	-0,066	-0,004
-342,620	53,803	0,046	0,032
-341,606	-105,051	-0,118	-0,019
-340,591	76,689	0,065	0,050
-339,577	-200,000	0,019	-0,104
-338,562	-200,000	0,009	-0,069
-337,548	-200,000	-0,045	-0,177
-336,533	224,605	-0,055	0,065
-335,518	364,242	0,081	-0,118
-334,504	90,380	0,095	0,077
-333,489	140,937	0,037	0,035
-332,475	800,000	-0,046	-0,117
-331,460	-200,000	-0,008	-0,093
-330,445	-63,505	0,124	0,037
-329,431	-80,996	0,077	-0,018
-328,416	-131,187	0,184	-0,017
-327,402	-169,613	0,062	-0,002
-326,387	196,113	-0,068	-0,075
-325,372	-89,641	0,062	-0,013
-324,358	-200,000	0,002	-0,122
-323,343	-200,000	0,009	-0,202
-322,329	134,607	-0,025	-0,023
-321,314	-88,110	0,080	0,017
-320,299	63,239	-0,012	-0,009
-319,285	-52,477	0,060	0,020
-318,270	800,000	0,021	-0,049
-317,256	315,114	-0,040	-0,054
-316,241	-200,000	0,002	-0,038
-315,226	800,000	0,033	-0,093
-314,212	-107,507	0,125	0,020
-313,197	315,869	-0,025	0,035
-312,183	92,887	-0,071	0,058
-311,168	-200,000	0,004	0,032
-310,153	125,958	0,046	-0,042
-309,139	-58,389	0,052	0,016
-308,124	-200,000	0,004	0,100
-307,110	-78,504	-0,016	0,004
-306,095	-200,000	-0,022	0,136
-305,080	800,000	-0,019	0,049
-304,066	-138,868	-0,052	0,004
-303,051	43,977	-0,067	-0,044
-302,037	65,531	0,093	0,068
-301,022	-174,851	-0,148	0,003
-300,008	-94,123	0,074	0,015
-298,993	-127,377	0,028	0,003
-297,978	184,306	-0,056	0,060
-296,964	-26,000	0,178	-0,075
-295,949	-125,389	-0,106	-0,012
-294,935	254,800	-0,146	0,181
-293,920	-200,000	-0,024	-0,124
-292,905	156,104	0,088	-0,088
-291,891	-69,564	-0,138	0,038
-290,876	589,825	-0,054	0,097
-289,862	223,801	-0,091	-0,106
-288,847	-200,000	-0,004	0,149
-287,832	134,142	-0,020	-0,019
-286,818	-46,778	0,117	-0,041
-285,803	14,632	0,066	-0,037
-284,789	-133,131	-0,065	0,006
-283,774	-107,560	0,183	0,029
-282,759	-200,000	-0,009	-0,062
-281,745	574,924	0,075	-0,133
-280,730	-12,725	-0,060	0,028
-279,716	-92,967	0,161	0,032
-278,701	192,418	-0,067	0,073
-277,686	461,232	0,051	0,083
-276,672	-8,086	-0,065	0,032
-275,657	-200,000	-0,003	-0,061
-274,643	20,531	-0,117	-0,068
-273,628	-200,000	-0,011	0,035
-272,613	-200,000	-0,005	0,065
-271,599	146,248	0,077	0,074
-270,584	678,572	0,025	0,047
-269,570	-28,212	-0,056	-0,023
-268,555	93,430	-0,064	0,052
-267,540	254,699	-0,121	-0,150
-266,526	0,313	-0,101	0,052
-265,511	-2,058	-0,036	-0,018
-264,497	-27,603	0,045	0,019
-263,482	-154,167	0,111	-0,005
-262,467	-200,000	0,037	0,128
-261,453	-75,881	-0,055	-0,014
-260,438	135,501	0,175	-0,165
-259,424	95,658	-0,096	-0,079
-258,409	-11,515	0,148	-0,070
-257,395	-44,384	-0,030	0,011
-256,380	295,525	-0,048	-0,064
-255,365	414,749	0,044	0,068
-254,351	67,092	0,073	-0,054
-253,336	-200,000	-0,056	0,205
-252,322	762,958	0,084	-0,165
-251,307	800,000	0,026	-0,071
-250,292	-200,000	0,001	0,022
-249,278	120,015	0,092	0,082
-248,263	-200,000	-0,027	0,123
-247,249	203,007	0,015	0,016
-246,234	800,000	0,047	-0,134
-245,219	-200,000	0,004	-0,108
-244,205	79,030	-0,046	0,036
-243,190	-200,000	0,002	-0,046
-242,176	-200,000	0,017	-0,269
-241,161	333,413	0,052	-0,073
-240,146	800,000	0,061	-0,151
-239,132	-35,855	-0,120	0,047
-238,117	416,853	-0,059	0,091
-237,103	-114,750	0,141	-0,019
-236,088	-16,457	-0,149	0,068
-235,073	684,850	0,051	-0,096
-234,059	800,000	0,008	-0,025
-233,044	91,124	0,020	0,017
-232,030	303,830	0,079	-0,105
-231,015	800,000	-0,034	-0,080
-230,000	23,379	-0,053	0,031
-228,986	-200,000	0,001	0,039
-227,971	196,547	0,051	0,057
-226,957	-200,000	-0,031	0,108
-225,942	282,763	0,041	-0,053
-224,927	-200,000	-0,008	0,046
-223,913	677,877	0,034	-0,064
-222,898	-96,349	-0,077	0,015
-221,884	198,560	-0,072	0,080
-220,869	147,891	0,135	0,131
-219,855	-200,000	-0,017	0,065
-218,840	130,968	-0,065	-0,060
-217,825	51,883	-0,042	-0,029
-216,811	-64,692	-0,251	-0,073
-215,796	-200,000	-0,041	-0,162
-214,782	6,912	0,026	0,014
-213,767	-200,000	-0,005	0,053
-212,752	140,895	0,143	0,136
-211,738	-77,439	0,086	-0,021
-210,723	43,001	-0,112	-0,073
-209,709	-65,243	-0,110	-0,032
-208,694	-44,077	0,033	0,012
-207,679	-161,925	0,051	-0,002
-206,665	-200,000	-0,017	0,143
-205,650	420,314	-0,045	0,069
-204,636	131,338	0,047	0,044
-203,621	-128,469	-0,097	-0,010
-202,606	800,000	-0,055	0,111
-201,592	-155,762	-0,072	0,003
-200,577	276,000	0,082	-0,105
-199,563	800,000	-0,030	0,073
-198,548	-40,134	0,139	0,052
-197,533	-200,000	0,001	0,035
-196,519	-200,000	0,024	0,222
-195,504	187,528	-0,052	0,056
-194,490	470,053	-0,053	-0,087
-193,475	24,907	-0,096	0,057
-192,460	-40,804	0,213	-0,079
-191,446	108,136	0,041	0,035
-190,431	-200,000	-0,011	0,136
-189,417	-93,798	-0,116	-0,023
-188,402	-4,027	-0,047	-0,023
-187,387	276,807	-0,107	-0,137
-186,373	800,000	-0,036	-0,108
-185,358	-200,000	-0,022	0,131
-184,344	-171,694	-0,123	0,003
-183,329	-200,000	0,004	0,090
-182,315	719,112	0,041	0,080
-181,300	800,000	-0,023	0,054
-180,285	800,000	0,004	0,008
-179,271	-187,838	-0,061	0,001
-178,256	16,607	0,025	-0,014
-177,242	135,498	0,121	-0,113
-176,227	17,954	-0,075	-0,043
-175,212	800,000	0,029	-0,062
-174,198	-200,000	-0,007	-0,112
-173,183	-200,000	0,028	-0,094
-172,169	-13,858	-0,027	0,012
-171,154	68,775	0,058	0,043
-170,139	147,915	0,027	-0,026
-169,125	-200,000	-0,010	0,062
-168,110	-40,278	0,115	0,043
-167,096	-122,998	0,072	0,008
-166,081	-146,223	0,020	0,001
-165,066	-200,000	0,014	-0,108
-164,052	-200,000	0,003	-0,086
-163,037	-164,497	0,067	-0,002
-162,023	403,876	0,030	0,046
-161,008	368,273	-0,048	0,069
-159,993	-200,000	-0,009	0,083
-158,979	94,645	0,046	0,037
-157,964	800,000	0,018	0,057
-156,950	5,096	-0,022	-0,011
-155,935	259,137	0,022	0,027
-154,920	800,000	0,071	0,148
-153,906	800,000	-0,053	0,112
-152,891	60,650	-0,076	-0,054
-151,877	-50,600	0,108	-0,036
-150,862	153,911	0,030	-0,030
-149,847	-50,130	-0,016	-0,005
-148,833	800,000	-0,037	-0,078
-147,818	-94,544	-0,100	0,019
-146,804	-179,428	0,111	-0,002
-145,789	800,000	-0,017	-0,034
-144,775	-200,000	-0,041	-0,168
-143,760	117,082	-0,051	0,045
-142,745	-65,048	-0,029	0,008
-141,731	800,000	0,022	0,052
-140,716	105,206	0,076	0,065
-139,702	-120,990	0,068	0,008
-138,687	-200,000	0,001	-0,171
-137,672	-17,818	-0,070	0,032
-136,658	800,000	-0,021	-0,050
-135,643	586,254	0,034	-0,060
-134,629	31,208	-0,127	0,078
-133,614	-73,550	-0,021	0,005
-132,599	226,067	0,170	-0,198
-131,585	-200,000	-0,021	0,098
-130,570	612,157	-0,114	0,206
-129,556	800,000	-0,035	-0,103
-128,541	-200,000	0,018	-0,068
-127,526	186,277	-0,070	0,075
-126,512	688,435	0,058	0,110
-125,497	470,531	0,072	0,117
-124,483	800,000	0,047	-0,101
-123,468	-70,571	0,049	0,013
-122,453	800,000	0,031	-0,073
-121,439	76,948	0,092	-0,070
-120,424	473,254	0,061	-0,099
-119,410	174,161	-0,054	-0,056
-118,395	-200,000	0,014	-0,084
-117,380	78,856	0,027	-0,021
-116,366	44,354	-0,081	-0,053
-115,351	136,083	-0,143	-0,134
-114,337	90,701	-0,030	0,024
-113,322	-122,349	0,049	-0,006
-112,307	-200,000	0,001	-0,105
-111,293	91,291	0,106	-0,086
-110,278	128,789	-0,067	-0,061
-109,264	84,930	0,096	0,076
-108,249	800,000	0,033	-0,084
-107,234	-200,000	0,031	0,100
-106,220	115,101	-0,039	0,034
-105,205	-200,000	-0,022	0,071
-104,191	-4,142	0,038	0,019
-103,176	100,182	0,109	0,091
-102,162	-200,000	0,027	0,107
-101,147	-200,000	-0,018	-0,123
-100,132	37,198	0,049	-0,031
-99,118	-46,505	-0,091	-0,032
-98,103	324,048	-0,006	-0,009
-97,089	800,000	0,048	-0,105
-96,074	133,614	0,075	0,069
-95,059	-81,549	-0,033	0,008
-94,045	176,483	0,087	-0,091
-93,030	-200,000	0,003	-0,067
-92,016	19,170	-0,057	-0,033
-91,001	83,802	0,105	0,082
-89,986	163,185	0,076	-0,077
-88,972	800,000	0,058	0,117
-87,957	-154,466	-0,062	0,003
-86,943	-15,626	0,072	-0,033
-85,928	56,270	-0,222	-0,155
-84,913	379,962	0,083	-0,122
-83,899	800,000	0,079	-0,171
-82,884	-55,913	0,201	-0,064
-81,870	-200,000	-0,012	0,107
-80,855	800,000	-0,027	0,073
-79,840	263,034	0,059	-0,074
-78,826	-0,596	-0,106	-0,054
-77,811	13,235	-0,055	-0,031
-76,797	-200,000	0,004	-0,062
-75,782	-200,000	0,023	-0,081
-74,767	-200,000	-0,027	0,186
-73,753	-97,030	0,164	0,030
-72,738	800,000	0,054	0,124
-71,724	-66,382	-0,076	0,022
-70,709	82,489	0,075	-0,059
-69,694	-200,000	0,020	0,065
-68,680	129,381	0,035	0,032
-67,665	138,373	0,081	0,076
-66,651	800,000	0,054	0,125
-65,636	-200,000	-0,021	0,104
-64,622	-101,754	-0,157	0,027
-63,607	800,000	-0,020	-0,045
-62,592	361,622	-0,074	0,106
-61,578	-200,000	0,019	0,088
-60,563	-61,436	0,050	-0,015
-59,549	-200,000	0,006	0,031
-58,534	42,402	-2,009	-1,306
-57,519	-200,000	-0,163	-0,841
-56,505	-200,000	-1,320	-5,153
-55,490	30,690	0,927	0,567
-54,476	800,000	5,195	12,067
-53,461	-200,000	18,151	290,955
-52,446	800,000	729,065	2218,338
-51,432	525,758	1641,923	2779,475
-50,417	107,858	1631,512	1391,686
-49,403	72,400	1283,715	957,228
-48,388	30,777	1024,688	626,902
-47,373	19,832	986,621	567,666
-46,359	17,928	974,320	554,352
-45,344	14,807	970,511	541,994
-44,330	15,106	968,947	542,074
-43,315	14,579	967,089	539,301
-42,300	14,516	965,893	538,408
-41,286	14,483	965,120	537,847
-40,271	14,551	963,887	537,359
-39,257	14,512	963,257	536,861
-38,242	14,497	962,349	536,285
-37,227	14,518	961,354	535,778
-36,213	14,505	960,546	535,262
-35,198	14,445	959,640	534,545
-34,184	14,478	959,173	534,370
-33,169	14,500	958,134	533,840
-32,154	14,496	957,062	533,209
-31,140	14,517	956,133	532,736
-30,125	14,515	955,540	532,380
-29,111	14,585	954,514	532,012
-28,096	14,498	954,160	531,513
-27,082	14,455	953,529	531,004
-26,067	14,524	952,614	530,695
-25,052	14,577	951,639	530,300
-24,038	14,476	951,230	529,726
-23,023	14,501	950,453	529,352
-22,009	14,591	949,735	529,221
-20,994	14,571	949,212	528,845
-19,979	14,557	948,666	528,474
-18,965	14,529	947,933	527,955
-17,950	14,508	947,401	527,571
-16,936	14,527	946,704	527,224
-15,921	14,462	946,019	526,615
-14,906	14,396	945,247	525,953
-13,892	14,417	944,792	525,747
-12,877	14,406	944,132	525,322
-11,863	14,397	943,400	524,865
-10,848	14,396	943,035	524,639
-9,833	14,543	942,388	524,723
-8,819	14,505	941,739	524,220
-7,804	14,457	941,352	523,833
-6,790	14,421	940,618	523,288
-5,775	14,449	940,116	523,078
-4,760	14,405	939,536	522,597
-3,746	14,388	938,755	522,087
-2,731	14,250	938,191	521,319
-1,717	14,240	937,537	520,904
-0,702	14,265	936,800	520,553
0,313	14,049	936,186	520,315
1,327	17,534	934,041	530,008
2,342	26,671	786,893	470,460
3,356	22,903	442,768	259,144
4,371	-6,738	295,052	143,137
5,386	-10,623	276,838	130,616
6,400	-11,959	271,073	126,647
7,415	-12,058	268,775	125,470
8,429	-12,196	267,392	124,688
9,444	-12,093	266,439	124,326
10,459	-12,160	265,861	123,985
11,473	-12,327	265,156	123,494
12,488	-12,516	264,720	123,109
13,502	-12,496	264,125	122,839
14,517	-12,452	263,689	122,665
15,531	-12,499	263,207	122,388
16,546	-12,320	262,850	122,371
17,561	-12,412	262,422	122,078
18,575	-12,101	262,074	122,184
19,590	-12,547	261,821	121,657
20,604	-12,330	261,498	121,690
21,619	-12,524	261,194	121,364
22,634	-12,483	260,679	121,151
23,648	-12,424	260,473	121,096
24,663	-12,496	260,312	120,947
25,677	-12,509	260,062	120,808
26,692	-12,506	259,868	120,710
27,707	-12,494	259,551	120,563
28,721	-12,570	259,100	120,276
29,736	-12,524	258,936	120,229
30,750	-12,545	258,653	120,068
31,765	-12,419	258,403	120,053
32,780	-12,532	258,371	119,928
33,794	-12,570	258,056	119,737
34,809	-12,635	257,749	119,527
35,823	-12,411	257,388	119,546
36,838	-12,346	257,082	119,450
37,853	-12,340	256,750	119,290
38,867	-12,449	256,697	119,160
39,882	-12,643	256,624	118,945
40,896	-12,488	256,321	118,929
41,911	-12,784	256,058	118,538
42,926	-12,500	255,729	118,623
43,940	-12,831	255,492	118,214
44,955	-12,509	255,247	118,371
45,969	-12,561	255,043	118,220
46,984	-12,731	254,802	117,950
47,999	-13,033	254,622	117,595
49,013	-12,981	254,208	117,438
50,028	-13,228	254,133	117,179
51,042	-13,192	253,858	117,072
52,057	-13,436	253,685	116,771
53,071	-12,981	253,275	116,965
54,086	-13,153	253,257	116,798
55,101	-12,848	253,136	116,994
56,115	-12,891	252,985	116,878
57,130	-12,582	252,929	117,107
58,144	-12,323	252,609	117,171
59,159	-12,107	252,322	117,213
60,174	-12,264	252,200	117,011
61,188	-12,494	252,060	116,739
62,203	-12,363	251,642	116,647
63,217	-12,508	251,607	116,496
64,232	-12,363	251,285	116,461
65,247	-12,599	251,372	116,289
66,261	-12,450	250,795	116,138
67,276	-12,567	250,466	115,876
68,290	-12,848	250,420	115,605
69,305	-12,838	250,173	115,490
70,320	-12,751	249,869	115,413
71,334	-12,542	249,737	115,519
72,349	-12,291	249,620	115,668
73,363	-12,315	249,466	115,565
74,378	-12,325	249,101	115,378
75,393	-12,642	249,020	115,062
76,407	-12,554	248,891	115,066
77,422	-12,394	248,518	115,018
78,436	-12,495	248,369	114,854
79,451	-12,520	248,177	114,734
80,466	-12,703	247,890	114,437
81,480	-12,642	247,661	114,372
82,495	-12,608	247,407	114,273
83,509	-12,500	247,258	114,285
84,524	-12,652	247,182	114,112
85,539	-12,683	246,873	113,933
86,553	-12,757	246,830	113,841
87,568	-12,763	246,608	113,724
88,582	-12,785	246,296	113,551
89,597	-12,734	246,235	113,556
90,611	-12,612	246,062	113,568
91,626	-12,441	245,858	113,606
92,641	-12,409	245,593	113,500
93,655	-12,406	245,389	113,399
94,670	-12,616	245,180	113,117
95,684	-12,613	245,174	113,107
96,699	-12,494	244,864	113,052
97,714	-12,709	244,764	112,818
98,728	-12,668	244,513	112,726
99,743	-12,681	244,225	112,572
100,757	-12,862	244,145	112,375
101,772	-12,819	243,984	112,326
102,787	-12,711	243,752	112,299
103,801	-12,525	243,478	112,316
104,816	-12,586	243,513	112,272
105,830	-12,371	243,205	112,298
106,845	-12,405	242,913	112,125
107,860	-12,334	242,790	112,116
108,874	-12,451	242,728	111,982
109,889	-12,493	242,366	111,770
110,903	-12,464	242,063	111,644
111,918	-12,624	242,148	111,542
112,933	-12,308	241,859	111,658
113,947	-12,512	241,761	111,436
114,962	-12,324	241,475	111,448
115,976	-12,456	241,390	111,290
116,991	-12,538	241,267	111,157
118,006	-12,435	240,966	111,093
119,020	-12,456	240,919	111,044
120,035	-12,625	240,840	110,860
121,049	-12,349	240,604	110,966
122,064	-12,518	240,474	110,759
123,079	-12,520	240,204	110,623
124,093	-12,628	239,995	110,428
125,108	-12,570	239,754	110,355
126,122	-12,765	239,514	110,077
127,137	-13,009	239,447	109,839
128,151	-12,755	239,144	109,895
129,166	-12,763	239,096	109,857
130,181	-12,666	238,629	109,711
131,195	-12,725	238,683	109,678
132,210	-12,651	238,447	109,619
133,224	-12,524	238,213	109,605
134,239	-12,481	238,182	109,615
135,254	-12,341	238,020	109,644
136,268	-12,712	237,792	109,230
137,283	-12,733	237,473	109,057
138,297	-12,901	237,356	108,859
139,312	-12,793	237,114	108,825
140,327	-12,635	236,996	108,888
141,341	-12,267	236,889	109,123
142,356	-12,310	236,839	109,056
143,370	-12,225	236,707	109,054
144,385	-12,271	236,575	108,947
145,400	-12,094	236,154	108,884
146,414	-12,356	236,034	108,610
147,429	-12,270	235,898	108,606
148,443	-12,294	235,699	108,486
149,458	-12,554	235,667	108,255
150,473	-12,315	235,412	108,318
151,487	-12,434	235,220	108,125
152,502	-12,350	235,094	108,125
153,516	-12,262	234,770	108,035
154,531	-12,345	234,713	107,934
155,546	-12,485	234,663	107,790
156,560	-12,317	234,404	107,795
157,575	-12,528	234,146	107,500
158,589	-12,440	234,073	107,526
159,604	-12,360	233,945	107,521
160,619	-12,209	233,754	107,542
161,633	-12,243	233,619	107,444
162,648	-12,149	233,490	107,449
163,662	-12,235	233,297	107,283
164,677	-12,392	232,967	106,999
165,692	-12,206	232,998	107,149
166,706	-12,038	232,885	107,220
167,721	-12,152	232,744	107,056
168,735	-11,952	232,591	107,132
169,750	-12,360	232,431	106,730
170,764	-12,183	232,120	106,716
171,779	-12,204	232,058	106,662
172,794	-12,285	232,005	106,564
173,808	-12,440	231,708	106,297
174,823	-12,939	231,273	105,699
175,837	-12,949	231,151	105,626
176,852	-12,302	231,116	106,105
177,867	-12,075	231,067	106,249
178,881	-12,386	231,014	105,974
179,896	-12,152	230,809	106,052
180,910	-12,149	230,531	105,917
181,925	-12,179	230,405	105,827
182,940	-12,334	230,302	105,650
183,954	-12,090	230,147	105,759
184,969	-12,127	230,123	105,709
185,983	-11,896	229,880	105,766
186,998	-11,992	229,683	105,592
188,013	-12,121	229,527	105,412
189,027	-12,044	229,349	105,380
190,042	-12,204	229,254	105,203
191,056	-12,318	229,078	105,025
192,071	-12,087	228,966	105,143
193,086	-12,185	228,738	104,953
194,100	-11,922	228,590	105,078
195,115	-12,325	228,210	104,585
196,129	-12,321	228,234	104,590
197,144	-7,261	229,982	109,290
198,159	-2,343	231,320	113,729
199,173	1,368	232,182	117,023
200,188	1,864	232,395	117,504
201,202	1,375	232,164	116,998
202,217	1,826	232,021	117,264
203,232	1,974	231,928	117,321
204,246	1,705	231,769	117,022
205,261	1,901	231,621	117,089
206,275	2,183	231,483	117,226
207,290	2,278	231,319	117,206
208,304	2,264	231,268	117,159
209,319	1,982	231,026	116,808
210,334	2,198	230,808	116,854
211,348	1,916	230,532	116,487
212,363	1,462	230,483	116,103
213,377	1,205	230,268	115,787
214,392	1,631	229,967	115,953
215,407	1,552	230,046	115,921
216,421	1,451	229,841	115,730
217,436	1,583	229,626	115,712
218,450	1,367	229,529	115,488
219,465	1,451	229,155	115,354
220,480	1,367	229,130	115,267
221,494	1,275	228,985	115,113
222,509	1,800	228,886	115,454
223,523	1,647	228,892	115,330
224,538	1,566	228,475	115,047
225,553	1,657	228,419	115,078
226,567	1,547	228,366	114,958
227,582	1,723	228,339	115,068
228,596	1,898	228,051	115,045
229,611	1,827	227,693	114,801
230,626	1,152	227,592	114,228
231,640	1,263	227,480	114,245
232,655	1,640	227,474	114,518
233,669	1,889	227,503	114,711
234,684	2,080	227,302	114,743
235,699	1,861	227,076	114,454
236,713	1,665	226,894	114,204
237,728	1,790	226,527	114,103
238,742	1,232	226,455	113,637
239,757	1,812	226,271	113,970
240,772	1,612	226,033	113,690
241,786	1,291	226,120	113,482
242,801	1,701	225,957	113,699
243,815	2,061	226,168	114,066
244,830	2,136	225,659	113,855
245,844	1,871	225,390	113,510
246,859	1,749	225,333	113,380
247,874	1,425	225,312	113,116
248,888	1,787	225,095	113,269
249,903	1,687	224,862	113,067
250,917	1,807	224,801	113,115
251,932	1,696	224,626	112,934
252,947	1,481	224,336	112,618
253,961	1,319	224,177	112,408
254,976	1,362	224,140	112,411
255,990	1,750	224,218	112,729
257,005	1,839	224,014	112,683
258,020	1,665	223,844	112,458
259,034	1,809	223,699	112,482
260,049	1,858	223,539	112,428
261,063	1,785	223,244	112,216
262,078	2,001	223,106	112,296
263,093	2,189	223,070	112,407
264,107	1,943	223,033	112,197
265,122	1,928	222,860	112,088
266,136	2,213	222,810	112,264
267,151	2,074	222,549	112,019
268,166	1,561	222,334	111,523
269,180	1,204	222,188	111,177
270,195	1,235	221,955	111,073
271,209	1,488	221,875	111,210
272,224	1,697	221,611	111,220
273,239	1,555	221,576	111,089
274,253	1,422	221,396	110,891
275,268	1,485	221,049	110,754
276,282	1,359	220,990	110,621
277,297	1,339	220,920	110,562
278,312	1,411	220,751	110,521
279,326	1,697	220,772	110,730
280,341	1,790	220,574	110,689
281,355	1,560	220,478	110,463
282,370	1,635	220,410	110,474
283,384	1,228	220,213	110,069
284,399	1,255	219,881	109,912
285,414	1,204	219,798	109,824
286,428	1,406	219,799	109,961
287,443	1,844	219,693	110,217
288,457	1,813	219,518	110,097
289,472	1,490	219,407	109,797
290,487	1,187	218,999	109,364
291,501	1,095	218,862	109,218
292,516	1,266	218,819	109,311
293,530	1,386	218,635	109,296
294,545	1,234	218,588	109,153
295,560	1,602	218,448	109,340
296,574	1,647	218,325	109,301
297,589	1,576	218,117	109,135
298,603	1,675	217,954	109,116
299,618	1,737	217,981	109,164
300,633	1,680	217,887	109,067
301,647	1,924	217,640	109,109
302,662	1,778	217,525	108,936
303,676	1,885	217,559	109,020
304,691	1,726	217,364	108,799
305,706	1,734	217,271	108,748
306,720	2,160	216,962	108,890
307,735	1,587	216,878	108,427
308,749	1,505	216,721	108,280
309,764	1,654	216,608	108,320
310,779	2,002	216,462	108,487
311,793	1,705	216,188	108,128
312,808	1,697	216,150	108,093
313,822	1,662	216,063	108,015
314,837	1,690	215,892	107,940
315,852	1,494	215,696	107,693
316,866	1,600	215,594	107,708
317,881	1,918	215,366	107,810
318,895	1,943	215,261	107,766
319,910	1,629	214,983	107,394
320,925	1,221	214,924	107,065
321,939	0,954	214,764	106,787
322,954	1,180	214,673	106,893
323,968	1,686	214,657	107,234
324,983	1,914	214,494	107,304
325,997	1,953	214,411	107,281
327,012	2,030	214,168	107,204
328,027	1,949	214,056	107,081
329,041	2,135	214,004	107,176
330,056	1,883	213,802	106,888
331,070	1,698	213,617	106,656
332,085	1,480	213,514	106,441
333,100	1,783	213,402	106,589
334,114	2,026	213,321	106,711
335,129	2,292	213,048	106,751
336,143	1,624	212,901	106,199
337,158	1,477	212,815	106,043
338,173	1,787	212,618	106,153
339,187	1,538	212,541	105,931
340,202	1,307	212,365	105,672
341,216	1,359	212,370	105,701
342,231	1,478	212,131	105,656
343,246	1,389	211,930	105,485
344,260	1,455	211,654	105,383
345,275	1,897	211,825	105,768
346,289	2,202	211,785	105,951
347,304	2,195	211,642	105,865
348,319	2,107	211,245	105,596
349,333	1,892	211,297	105,463
350,348	1,953	211,108	105,402
351,362	2,148	211,035	105,491
352,377	2,052	210,860	105,328
353,392	1,870	210,643	105,084
354,406	2,002	210,556	105,123
355,421	197,665	1314,916	1395,186
356,435	158,077	1449,432	1395,150
