DTS Sentinel unit serial number:	SN410029Multiplexer serial number:	ORYXHardware model number:	OX2-SRSoftware version number:	ORYX F/W v4,00 Oryx Data Collector v3.7.2.0data status	okinstallation	B6 Nyhavnadifferential loss correction	single-endedforward channel	channel 2reverse channel	N/Adate	2023/12/07time	20:25:08forward acquisition time	300,00reverse acquisition time	0,00gamma	499,1914k internal	0,3164k external	0,3164temperature offset calibration	1,0000default loss term (dB/km)	0,3820temperature slope calibration	1,0000multiplexer offset coefficient	1,0000multiplexer slope coefficient	1,0000fibre end	0,00T internal ref (°C)	13,82T ext. ref 1 (°C)	-3,11T ext. ref 2 (°C)	-3,11length (m)	temperature (°C)	Stokes	anti-Stokes-744,400	17,286	0,124	0,073
-743,385	-134,547	-0,236	0,021
-742,371	-200,000	-0,011	0,092
-741,356	-133,532	-0,321	0,029
-740,342	92,865	0,029	0,024
-739,327	-116,854	-0,205	0,027
-738,312	-119,381	0,091	-0,012
-737,298	-187,628	-0,351	0,003
-736,283	206,068	0,044	-0,051
-735,269	-56,537	-0,263	-0,085
-734,254	-62,225	0,206	-0,063
-733,239	-74,723	-0,496	-0,130
-732,225	-182,169	0,205	-0,003
-731,210	-200,000	0,011	0,057
-730,196	636,017	-0,028	-0,052
-729,181	-46,661	-0,107	-0,038
-728,167	314,289	0,095	-0,132
-727,152	-200,000	-0,009	-0,169
-726,137	-124,581	-0,074	-0,008
-725,123	220,106	-0,046	-0,054
-724,108	146,506	-0,145	-0,143
-723,094	-200,000	-0,021	-0,275
-722,079	279,621	-0,078	-0,103
-721,064	5,420	-0,117	-0,064
-720,050	800,000	0,032	0,071
-719,035	-66,235	-0,160	0,047
-718,021	800,000	0,003	0,007
-717,006	-35,377	-0,017	0,007
-715,991	4,594	-0,028	-0,015
-714,977	-144,562	-0,219	0,015
-713,962	800,000	-0,071	-0,147
-712,948	188,910	-0,037	-0,041
-711,933	800,000	-0,021	0,056
-710,918	800,000	0,007	0,016
-709,904	-200,000	-0,001	-0,109
-708,889	15,225	-0,038	0,022
-707,875	800,000	-0,064	0,162
-706,860	-200,000	-0,021	0,116
-705,845	-200,000	0,039	0,000
-704,831	-200,000	-0,006	-0,141
-703,816	22,772	-0,072	-0,043
-702,802	264,936	0,043	0,055
-701,787	285,455	0,065	-0,087
-700,772	-120,884	0,040	0,005
-699,758	800,000	-0,058	-0,170
-698,743	93,927	-0,073	0,060
-697,729	800,000	0,068	-0,212
-696,714	192,290	-0,075	-0,083
-695,699	-200,000	0,008	-0,092
-694,685	800,000	0,045	-0,140
-693,670	-133,406	-0,069	-0,006
-692,656	137,162	0,061	-0,059
-691,641	800,000	-0,055	0,127
-690,627	722,028	0,054	0,107
-689,612	-20,267	-0,201	0,090
-688,597	290,615	0,060	0,081
-687,583	-200,000	-0,003	0,039
-686,568	544,690	-0,066	0,116
-685,554	55,691	0,038	-0,027
-684,539	176,104	0,139	0,148
-683,524	800,000	0,042	0,134
-682,510	-140,955	0,091	0,007
-681,495	-15,860	-0,114	0,053
-680,481	-94,390	-0,127	-0,025
-679,466	-98,675	0,198	-0,037
-678,451	-200,000	0,012	-0,068
-677,437	-40,515	0,080	-0,030
-676,422	-11,564	-0,148	0,071
-675,408	750,540	-0,056	-0,111
-674,393	747,514	-0,046	-0,092
-673,378	-200,000	-0,005	-0,025
-672,364	-153,774	0,027	-0,001
-671,349	315,580	0,060	-0,083
-670,335	591,448	-0,106	-0,194
-669,320	800,000	0,029	0,089
-668,305	-42,340	-0,103	-0,038
-667,291	-200,000	-0,026	-0,086
-666,276	800,000	0,023	-0,068
-665,262	800,000	0,012	-0,039
-664,247	-200,000	-0,006	-0,087
-663,232	-200,000	-0,007	0,077
-662,218	-136,501	0,060	0,005
-661,203	461,767	0,032	-0,052
-660,189	46,873	0,086	-0,059
-659,174	182,746	-0,152	-0,164
-658,159	-200,000	0,036	-0,154
-657,145	180,504	0,056	-0,060
-656,130	-71,809	-0,021	-0,006
-655,116	-85,837	-0,044	0,010
-654,101	-200,000	0,006	0,064
-653,086	-200,000	0,012	0,134
-652,072	-14,848	-0,114	0,053
-651,057	43,896	-0,046	-0,031
-650,043	-200,000	0,020	-0,074
-649,028	211,924	-0,088	-0,101
-648,014	155,325	-0,054	-0,054
-646,999	99,202	0,059	0,050
-645,984	-160,046	0,112	0,004
-644,970	64,122	-0,045	0,033
-643,955	-69,110	-0,085	0,024
-642,941	-200,000	0,022	0,114
-641,926	-200,000	0,002	-0,009
-640,911	163,059	-0,111	-0,114
-639,897	-200,000	-0,019	-0,114
-638,882	-200,000	0,018	-0,129
-637,868	-200,000	-0,006	-0,149
-636,853	-200,000	-0,013	0,060
-635,838	800,000	-0,026	-0,072
-634,824	-163,964	0,053	0,002
-633,809	270,003	-0,087	-0,112
-632,795	153,174	-0,040	-0,040
-631,780	-200,000	0,047	-0,166
-630,765	-111,934	0,008	0,001
-629,751	800,000	0,025	-0,062
-628,736	600,719	0,011	-0,020
-627,722	-106,110	-0,154	-0,025
-626,707	49,729	-0,019	0,013
-625,692	150,943	0,060	0,059
-624,678	-19,248	0,050	0,023
-623,663	70,331	-0,061	-0,046
-622,649	-200,000	0,024	-0,094
-621,634	-119,846	-0,095	-0,012
-620,619	95,772	0,074	0,062
-619,605	-200,000	0,011	0,122
-618,590	800,000	0,021	-0,050
-617,576	-200,000	0,016	0,104
-616,561	220,717	0,045	-0,052
-615,546	-200,000	0,004	-0,111
-614,532	0,021	-0,121	0,063
-613,517	-35,428	0,170	-0,067
-612,503	800,000	-0,010	0,021
-611,488	-14,613	0,111	-0,052
-610,474	-200,000	0,018	0,102
-609,459	-200,000	-0,013	-0,078
-608,444	-21,717	-0,196	-0,087
-607,430	-58,930	-0,074	-0,023
-606,415	-160,693	-0,052	-0,002
-605,401	-3,784	0,041	0,021
-604,386	-200,000	0,038	-0,210
-603,371	-200,000	-0,015	-0,111
-602,357	104,887	0,015	0,013
-601,342	140,483	-0,079	0,077
-600,328	255,750	0,022	-0,027
-599,313	-200,000	-0,006	-0,053
-598,298	242,903	-0,066	-0,081
-597,284	317,572	0,039	0,054
-596,269	-200,000	-0,026	0,135
-595,255	-51,513	-0,131	-0,045
-594,240	-200,000	0,007	0,092
-593,225	-200,000	0,027	0,163
-592,211	713,806	0,047	0,092
-591,196	-200,000	0,020	-0,106
-590,182	63,055	-0,061	0,044
-589,167	-200,000	0,017	0,166
-588,152	-200,000	-0,010	0,109
-587,138	-200,000	-0,026	0,092
-586,123	59,202	-0,175	0,126
-585,109	-44,136	-0,091	-0,033
-584,094	-200,000	-0,010	-0,058
-583,079	-200,000	0,025	-0,102
-582,065	476,010	-0,048	0,080
-581,050	-18,021	-0,105	0,048
-580,036	-96,086	-0,041	0,008
-579,021	-200,000	0,004	0,052
-578,006	172,105	-0,054	0,057
-576,992	800,000	-0,047	-0,096
-575,977	-186,998	-0,127	-0,001
-574,963	307,283	-0,055	-0,076
-573,948	-145,492	0,143	-0,009
-572,934	800,000	-0,038	0,103
-571,919	140,081	-0,093	0,090
-570,904	-91,056	-0,058	-0,012
-569,890	-200,000	-0,012	-0,063
-568,875	-105,756	0,060	-0,010
-567,861	-35,316	0,111	-0,044
-566,846	61,197	-0,067	0,049
-565,831	67,754	0,117	-0,087
-564,817	-200,000	0,003	0,073
-563,802	283,423	-0,016	0,022
-562,788	-122,255	-0,114	0,013
-561,773	198,387	-0,118	0,132
-560,758	-48,809	-0,010	-0,003
-559,744	171,276	-0,101	0,106
-558,729	-4,160	-0,063	-0,032
-557,715	-15,931	-0,015	0,007
-556,700	-98,910	0,126	0,023
-555,685	-200,000	-0,007	-0,096
-554,671	-200,000	0,023	0,116
-553,656	104,559	0,040	-0,035
-552,642	415,958	-0,091	0,143
-551,627	218,256	-0,045	-0,053
-550,612	616,025	-0,028	0,052
-549,598	-200,000	-0,016	0,099
-548,583	-84,669	-0,148	-0,034
-547,569	-200,000	-0,013	0,109
-546,554	800,000	0,020	0,051
-545,539	26,114	-0,190	0,116
-544,525	59,813	-0,100	0,072
-543,510	800,000	0,005	0,016
-542,496	-63,969	-0,116	-0,034
-541,481	475,133	0,028	-0,046
-540,466	780,034	0,032	-0,064
-539,452	230,384	-0,036	-0,043
-538,437	229,734	-0,076	0,090
-537,423	-107,203	0,081	0,013
-536,408	21,240	-0,053	0,031
-535,393	7,479	-0,044	0,024
-534,379	416,450	-0,062	-0,097
-533,364	-200,000	-0,035	-0,170
-532,350	-49,335	0,072	-0,025
-531,335	-200,000	0,018	0,089
-530,321	800,000	0,029	0,068
-529,306	-200,000	-0,032	-0,182
-528,291	196,411	-0,038	0,042
-527,277	-116,578	0,081	0,011
-526,262	-19,629	-0,064	-0,029
-525,248	125,949	0,125	0,115
-524,233	-36,904	0,000	0,000
-523,218	58,145	0,034	0,025
-522,204	-114,955	0,042	0,006
-521,189	-44,944	-0,073	-0,027
-520,175	-61,958	-0,165	0,050
-519,160	-70,722	-0,140	0,038
-518,145	85,519	-0,072	-0,057
-517,131	21,759	0,125	0,074
-516,116	86,136	-0,095	0,076
-515,102	72,558	0,009	-0,007
-514,087	35,265	-0,093	0,059
-513,072	28,169	-0,151	-0,092
-512,058	200,833	0,029	-0,032
-511,043	-200,000	0,012	0,060
-510,029	27,339	0,095	0,058
-509,014	800,000	0,047	0,125
-507,999	-87,168	-0,115	-0,025
-506,985	522,574	-0,084	0,144
-505,970	-200,000	-0,007	-0,049
-504,956	-43,750	0,054	-0,020
-503,941	-200,000	0,043	0,189
-502,926	579,239	0,050	0,089
-501,912	-102,497	0,174	0,030
-500,897	-116,044	-0,094	-0,013
-499,883	800,000	0,069	0,176
-498,868	57,193	0,032	-0,023
-497,853	-200,000	0,006	-0,067
-496,839	-200,000	-0,008	0,071
-495,824	-200,000	-0,021	-0,128
-494,810	-200,000	0,001	-0,034
-493,795	800,000	0,047	0,131
-492,781	-109,386	-0,073	0,011
-491,766	-200,000	0,007	-0,060
-490,751	-200,000	0,006	0,227
-489,737	800,000	-0,018	-0,052
-488,722	800,000	0,022	-0,058
-487,708	150,946	0,035	0,035
-486,693	421,989	0,019	-0,030
-485,678	-177,340	-0,118	-0,002
-484,664	718,835	-0,039	-0,077
-483,649	-200,000	-0,013	-0,043
-482,635	-200,000	-0,002	-0,025
-481,620	-200,000	0,024	-0,102
-480,605	301,910	0,045	0,061
-479,591	156,175	-0,028	0,029
-478,576	-39,665	0,089	0,034
-477,562	-49,850	-0,133	0,046
-476,547	-200,000	-0,111	0,000
-475,532	800,000	-0,040	0,086
-474,518	-200,000	0,039	-0,148
-473,503	-98,961	0,119	-0,022
-472,489	-200,000	-0,022	-0,099
-471,474	222,830	0,020	0,024
-470,459	79,398	-0,099	0,077
-469,445	163,383	0,113	-0,116
-468,430	-83,236	-0,024	-0,006
-467,416	-108,848	-0,042	-0,006
-466,401	424,968	0,031	-0,048
-465,386	-100,288	0,177	0,032
-464,372	-69,021	-0,226	0,063
-463,357	-200,000	-0,012	0,053
-462,343	-100,600	-0,056	0,010
-461,328	-200,000	0,011	0,077
-460,313	398,930	0,023	-0,035
-459,299	228,016	-0,041	0,049
-458,284	-119,578	0,163	0,020
-457,270	262,941	0,071	-0,090
-456,255	-200,000	-0,009	0,057
-455,241	-200,000	-0,021	0,078
-454,226	12,505	-0,013	0,007
-453,211	800,000	0,036	-0,098
-452,197	313,809	0,134	0,183
-451,182	800,000	-0,093	0,189
-450,168	-25,786	0,068	-0,029
-449,153	-200,000	0,035	-0,119
-448,138	-200,000	-0,028	0,098
-447,124	-123,829	-0,028	-0,003
-446,109	30,400	0,090	-0,056
-445,095	-11,427	0,021	0,010
-444,080	800,000	0,036	-0,104
-443,065	-200,000	0,008	-0,128
-442,051	-71,856	0,015	0,004
-441,036	-10,285	0,101	-0,049
-440,022	86,319	0,057	-0,046
-439,007	-57,658	-0,026	0,008
-437,992	-1,143	0,094	-0,048
-436,978	-200,000	0,198	-0,001
-435,963	-61,213	-0,150	0,046
-434,949	-86,582	-0,140	0,031
-433,934	-200,000	-0,032	-0,113
-432,919	144,415	0,084	-0,082
-431,905	-200,000	-0,012	-0,090
-430,890	103,932	0,022	-0,019
-429,876	800,000	-0,031	0,089
-428,861	-33,669	0,186	0,074
-427,846	800,000	-0,036	0,099
-426,832	-105,298	-0,095	-0,016
-425,817	800,000	0,043	-0,089
-424,803	-63,381	0,029	0,009
-423,788	800,000	0,014	0,037
-422,773	185,426	-0,044	0,047
-421,759	-200,000	0,005	-0,025
-420,744	196,054	-0,034	-0,038
-419,730	4,316	0,024	-0,012
-418,715	-64,609	0,048	0,014
-417,701	-200,000	-0,001	0,065
-416,686	513,797	0,065	0,111
-415,671	789,265	0,026	-0,053
-414,657	-70,364	-0,052	0,014
-413,642	-98,936	0,161	-0,029
-412,628	-90,530	0,116	0,024
-411,613	-200,000	-0,017	-0,061
-410,598	-72,000	0,097	-0,026
-409,584	-23,941	-0,133	0,057
-408,569	-200,000	-0,019	0,108
-407,555	800,000	-0,018	0,054
-406,540	33,568	0,044	-0,027
-405,525	214,752	-0,065	-0,074
-404,511	-105,014	0,124	0,020
-403,496	-200,000	-0,015	0,047
-402,482	800,000	-0,089	-0,200
-401,467	-121,274	0,066	-0,008
-400,452	90,182	0,071	0,058
-399,438	-200,000	0,009	0,037
-398,423	21,748	0,115	-0,068
-397,409	-71,582	-0,033	-0,009
-396,394	250,575	0,055	0,067
-395,379	778,480	0,049	-0,097
-394,365	179,120	-0,073	0,077
-393,350	84,388	0,146	-0,116
-392,336	-200,000	-0,007	-0,025
-391,321	455,394	-0,060	-0,096
-390,306	-200,000	0,042	-0,157
-389,292	641,653	0,044	0,081
-388,277	303,099	0,054	-0,073
-387,263	-70,832	-0,073	-0,020
-386,248	141,100	0,124	0,119
-385,233	275,258	0,029	-0,038
-384,219	197,825	0,038	-0,042
-383,204	800,000	0,024	-0,052
-382,190	46,290	-0,106	-0,071
-381,175	117,159	0,056	-0,050
-380,160	-200,000	0,000	0,006
-379,146	-106,965	0,071	0,011
-378,131	55,398	0,119	0,083
-377,117	800,000	0,069	-0,207
-376,102	-200,000	-0,013	-0,097
-375,088	800,000	-0,051	0,121
-374,073	543,018	-0,018	0,031
-373,058	-51,009	0,076	-0,026
-372,044	-130,258	0,184	-0,018
-371,029	-172,692	-0,012	-0,000
-370,015	-52,860	0,095	0,032
-369,000	482,912	-0,119	-0,197
-367,985	-60,211	0,095	-0,029
-366,971	800,000	-0,049	-0,141
-365,956	9,659	0,142	-0,078
-364,942	112,690	-0,072	-0,064
-363,927	228,089	0,055	0,065
-362,912	-122,067	-0,061	0,007
-361,898	-200,000	-0,016	0,164
-360,883	800,000	0,049	-0,131
-359,869	-200,000	-0,030	-0,104
-358,854	-42,837	0,046	0,017
-357,839	800,000	0,021	-0,055
-356,825	270,542	0,061	0,078
-355,810	199,256	0,044	-0,049
-354,796	-152,733	-0,010	0,000
-353,781	27,524	0,026	0,016
-352,766	-200,000	0,000	-0,122
-351,752	485,988	0,050	-0,084
-350,737	-200,000	-0,013	0,154
-349,723	-17,302	-0,088	-0,040
-348,708	-123,320	0,107	0,012
-347,693	-200,000	0,015	-0,062
-346,679	-168,947	-0,063	0,002
-345,664	-107,330	-0,269	-0,042
-344,650	-60,785	0,138	-0,042
-343,635	-92,977	0,097	-0,019
-342,620	-78,011	0,080	0,020
-341,606	-92,796	-0,065	0,013
-340,591	96,630	0,053	0,044
-339,577	800,000	0,028	-0,079
-338,562	112,998	-0,031	-0,027
-337,548	394,905	0,058	0,087
-336,533	136,394	0,111	0,104
-335,518	-55,539	0,063	-0,020
-334,504	-90,078	-0,054	0,011
-333,489	418,973	-0,045	0,070
-332,475	-8,745	-0,065	0,032
-331,460	-200,000	0,021	-0,113
-330,445	201,982	0,073	-0,082
-329,431	69,810	0,042	0,032
-328,416	-195,633	0,159	-0,001
-327,402	-200,000	0,002	-0,050
-326,387	207,230	-0,063	-0,071
-325,372	-139,016	0,041	-0,003
-324,358	220,109	0,049	-0,057
-323,343	-84,111	0,071	-0,016
-322,329	621,604	0,023	-0,041
-321,314	-200,000	-0,036	0,172
-320,299	-74,225	0,116	0,030
-319,285	18,574	0,034	-0,020
-318,270	-62,074	0,042	0,012
-317,256	-200,000	-0,004	-0,037
-316,241	-35,635	0,059	-0,023
-315,226	800,000	-0,027	0,055
-314,212	378,665	0,022	0,033
-313,197	-200,000	-0,033	0,142
-312,183	90,159	0,053	-0,043
-311,168	537,714	0,028	-0,048
-310,153	17,634	-0,101	-0,058
-309,139	800,000	0,021	-0,045
-308,124	-200,000	-0,008	-0,048
-307,110	339,598	0,049	-0,070
-306,095	300,415	0,107	-0,144
-305,080	800,000	-0,024	0,062
-304,066	331,721	-0,058	0,082
-303,051	-200,000	0,009	0,070
-302,037	375,349	0,054	-0,079
-301,022	17,914	-0,038	-0,022
-300,008	3,289	-0,047	-0,025
-298,993	313,673	0,024	0,032
-297,978	38,884	0,126	-0,081
-296,964	-46,306	-0,073	0,026
-295,949	-78,215	-0,217	-0,054
-294,935	-93,218	-0,118	0,023
-293,920	40,389	-0,159	-0,103
-292,905	-200,000	0,018	0,079
-291,891	579,476	0,054	0,096
-290,876	759,767	0,059	-0,116
-289,862	800,000	-0,079	-0,162
-288,847	-200,000	0,002	-0,035
-287,832	268,829	0,043	-0,055
-286,818	88,656	-0,037	0,030
-285,803	-16,183	0,215	0,098
-284,789	684,512	0,025	-0,047
-283,774	76,726	0,095	0,073
-282,759	27,465	-0,033	0,020
-281,745	800,000	-0,016	0,041
-280,730	-14,815	0,047	-0,022
-279,716	96,408	-0,024	0,019
-278,701	-200,000	0,030	-0,096
-277,686	-44,199	-0,170	-0,061
-276,672	-1,832	0,038	-0,019
-275,657	81,700	-0,090	-0,071
-274,643	-40,723	0,113	0,042
-273,628	-200,000	-0,006	0,063
-272,613	-29,990	0,070	-0,029
-271,599	57,014	0,128	-0,090
-270,584	-200,000	0,050	0,167
-269,570	-69,069	0,090	-0,025
-268,555	-86,535	-0,042	0,009
-267,540	-34,638	-0,107	0,042
-266,526	16,079	0,074	-0,042
-265,511	314,941	0,032	-0,044
-264,497	-200,000	0,022	-0,100
-263,482	296,054	0,037	-0,050
-262,467	574,582	0,016	-0,028
-261,453	-200,000	-0,022	-0,129
-260,438	-66,336	-0,159	-0,045
-259,424	-200,000	-0,012	-0,185
-258,409	93,246	0,047	-0,039
-257,395	800,000	0,015	-0,032
-256,380	67,048	0,130	0,095
-255,365	-81,399	-0,135	-0,032
-254,351	-157,904	-0,122	-0,005
-253,336	-65,025	0,156	0,045
-252,322	-113,976	-0,176	-0,024
-251,307	-24,746	-0,062	-0,026
-250,292	800,000	-0,026	0,053
-249,278	103,367	0,140	0,119
-248,263	88,450	0,042	-0,034
-247,249	-200,000	-0,005	0,078
-246,234	212,461	0,097	0,110
-245,219	45,331	0,048	-0,032
-244,205	800,000	-0,023	-0,046
-243,190	800,000	-0,011	-0,027
-242,176	538,935	-0,064	0,109
-241,161	784,543	-0,045	0,088
-240,146	-200,000	-0,034	-0,112
-239,132	800,000	-0,012	0,029
-238,117	-70,837	-0,076	-0,020
-237,103	-200,000	0,019	-0,194
-236,088	98,593	-0,051	-0,043
-235,073	-106,723	-0,043	-0,007
-234,059	149,492	0,091	0,089
-233,044	-131,925	0,097	0,009
-232,030	-19,731	-0,072	0,032
-231,015	76,600	-0,095	-0,073
-230,000	-102,802	-0,081	-0,014
-228,986	-200,000	0,002	0,107
-227,971	-64,007	0,056	0,016
-226,957	-2,036	0,185	0,093
-225,942	-136,345	0,132	-0,011
-224,927	-171,668	-0,040	-0,001
-223,913	30,989	-0,116	0,071
-222,898	800,000	-0,036	-0,084
-221,884	800,000	0,109	-0,248
-220,869	47,711	0,107	0,072
-219,855	-54,757	0,068	0,022
-218,840	-200,000	0,001	-0,023
-217,825	165,639	-0,076	0,078
-216,811	313,597	0,018	-0,024
-215,796	25,042	0,065	0,039
-214,782	302,250	0,031	0,042
-213,767	-200,000	-0,014	0,066
-212,752	340,367	-0,039	0,055
-211,738	-200,000	-0,004	0,038
-210,723	4,422	0,039	-0,021
-209,709	127,018	0,017	0,016
-208,694	76,621	-0,031	0,024
-207,679	-44,378	0,103	-0,037
-206,665	-200,000	-0,033	0,106
-205,650	-40,280	0,120	-0,045
-204,636	-200,000	-0,058	0,195
-203,621	-91,976	-0,024	0,005
-202,606	-77,323	0,072	0,018
-201,592	-40,588	0,039	-0,015
-200,577	100,224	-0,044	0,037
-199,563	124,024	-0,067	-0,061
-198,548	176,014	0,071	0,075
-197,533	800,000	-0,018	-0,036
-196,519	-76,517	0,077	0,019
-195,504	135,083	-0,060	0,056
-194,490	0,132	0,052	-0,027
-193,475	-123,963	-0,153	-0,017
-192,460	94,673	0,155	0,127
-191,446	-33,760	-0,044	0,017
-190,431	-157,540	0,101	-0,004
-189,417	-200,000	-0,004	0,065
-188,402	-138,260	-0,219	0,017
-187,387	33,843	-0,065	-0,040
-186,373	-200,000	-0,002	0,092
-185,358	800,000	0,032	0,086
-184,344	239,837	0,009	0,011
-183,329	-45,135	-0,073	0,026
-182,315	-200,000	0,010	0,140
-181,300	383,079	-0,065	0,097
-180,285	278,711	0,047	-0,061
-179,271	513,386	0,130	-0,219
-178,256	800,000	-0,016	-0,045
-177,242	-185,624	-0,130	0,001
-176,227	487,836	0,038	0,063
-175,212	85,479	0,035	0,028
-174,198	-48,312	-0,028	-0,010
-173,183	-6,352	-0,165	-0,081
-172,169	433,580	-0,104	-0,163
-171,154	290,074	0,076	0,099
-170,139	-76,966	-0,061	-0,015
-169,125	769,408	0,052	0,103
-168,110	-200,000	-0,004	0,172
-167,096	673,871	-0,036	0,068
-166,081	173,965	-0,105	0,110
-165,066	-120,761	-0,138	-0,017
-164,052	239,766	-0,028	0,033
-163,037	800,000	-0,022	-0,045
-162,023	-200,000	0,052	0,179
-161,008	-200,000	0,000	-0,001
-159,993	-85,813	0,086	0,019
-158,979	800,000	-0,035	-0,111
-157,964	126,323	-0,113	-0,103
-156,950	107,056	-0,052	0,045
-155,935	559,896	-0,051	-0,089
-154,920	289,713	0,057	0,074
-153,906	-6,570	-0,124	0,061
-152,891	-112,108	0,061	-0,009
-151,877	-56,531	0,094	-0,030
-150,862	-116,214	-0,055	0,007
-149,847	-200,000	-0,003	0,072
-148,833	659,832	0,037	0,069
-147,818	-200,000	0,014	0,088
-146,804	550,831	-0,031	0,053
-145,789	-58,081	-0,149	0,046
-144,775	-47,037	0,064	-0,022
-143,760	-85,652	-0,128	-0,028
-142,745	-200,000	-0,013	-0,047
-141,731	-15,104	-0,148	0,068
-140,716	18,023	-0,123	0,070
-139,702	-185,485	0,207	0,002
-138,687	22,978	-0,096	0,056
-137,672	222,392	-0,035	0,041
-136,658	-127,935	0,002	-0,000
-135,643	-200,000	0,018	-0,127
-134,629	-73,680	0,059	-0,015
-133,614	2,223	0,099	-0,051
-132,599	-22,880	-0,111	-0,048
-131,585	9,661	-0,043	0,024
-130,570	516,922	-0,025	-0,042
-129,556	-54,928	-0,121	0,039
-128,541	-88,607	-0,156	-0,033
-127,526	-19,251	-0,004	0,002
-126,512	190,715	0,083	0,089
-125,497	-200,000	0,009	0,139
-124,483	77,075	-0,090	-0,069
-123,468	-82,923	-0,018	0,004
-122,453	5,492	0,100	0,053
-121,439	267,667	0,041	-0,051
-120,424	-200,000	0,018	-0,086
-119,410	-133,916	0,149	0,013
-118,395	-200,000	0,026	0,106
-117,380	800,000	-0,059	0,126
-116,366	383,501	-0,063	0,093
-115,351	-200,000	-0,028	-0,153
-114,337	-162,224	0,037	-0,001
-113,322	-200,000	0,002	-0,055
-112,307	-200,000	0,009	0,068
-111,293	-63,094	-0,097	0,029
-110,278	800,000	-0,029	0,072
-109,264	433,973	-0,059	-0,093
-108,249	478,310	0,057	-0,093
-107,234	-31,980	-0,065	-0,026
-106,220	108,723	-0,099	-0,085
-105,205	391,260	-0,032	-0,048
-104,191	-144,691	0,127	0,008
-103,176	212,731	0,051	0,058
-102,162	212,923	-0,080	0,090
-101,147	447,246	-0,072	0,114
-100,132	-200,000	-0,004	0,028
-99,118	-87,646	-0,146	0,031
-98,103	748,609	0,029	-0,056
-97,089	800,000	0,065	0,169
-96,074	-200,000	-0,025	-0,109
-95,059	-200,000	-0,039	0,208
-94,045	-200,000	-0,019	-0,105
-93,030	-77,475	-0,012	-0,003
-92,016	-21,866	-0,051	0,022
-91,001	460,788	-0,033	0,052
-89,986	-194,107	0,034	0,000
-88,972	-200,000	0,004	0,062
-87,957	248,966	0,109	0,133
-86,943	800,000	-0,060	0,183
-85,928	-200,000	-0,017	0,061
-84,913	172,748	0,032	-0,033
-83,899	-88,816	-0,118	0,025
-82,884	85,015	0,076	0,059
-81,870	-200,000	0,012	-0,060
-80,855	267,557	0,056	-0,071
-79,840	233,229	0,070	-0,083
-78,826	139,864	-0,088	-0,084
-77,811	135,245	0,020	0,019
-76,797	-200,000	0,032	0,120
-75,782	-200,000	-0,001	0,016
-74,767	-15,590	-0,089	0,041
-73,753	-200,000	0,041	0,187
-72,738	582,239	0,075	0,132
-71,724	12,532	-0,076	-0,042
-70,709	-137,828	0,050	-0,004
-69,694	227,124	-0,026	0,031
-68,680	-200,000	0,016	-0,083
-67,665	-70,035	-0,114	0,031
-66,651	800,000	0,030	0,066
-65,636	-200,000	0,011	-0,058
-64,622	800,000	-0,031	-0,065
-63,607	375,353	-0,063	-0,093
-62,592	800,000	0,033	-0,098
-61,578	800,000	-0,045	0,094
-60,563	-3,230	-0,151	0,075
-59,549	800,000	0,053	0,136
-58,534	25,516	-2,169	-1,290
-57,519	-200,000	-0,157	-0,804
-56,505	-200,000	-1,433	-5,091
-55,490	93,467	0,862	0,699
-54,476	800,000	5,369	11,995
-53,461	-200,000	18,418	303,687
-52,446	800,000	736,220	2263,362
-51,432	533,325	1649,280	2808,546
-50,417	107,907	1634,923	1394,932
-49,403	71,789	1285,701	956,327
-48,388	29,853	1026,889	625,154
-47,373	19,628	989,245	568,540
-46,359	17,443	976,772	554,202
-45,344	14,117	973,150	541,250
-44,330	14,501	971,397	541,508
-43,315	13,907	969,490	538,488
-42,300	13,839	968,359	537,614
-41,286	13,834	967,598	537,155
-40,271	13,834	966,680	536,625
-39,257	13,802	965,773	535,997
-38,242	13,849	964,916	535,651
-37,227	13,853	964,105	535,194
-36,213	13,795	963,247	534,507
-35,198	13,812	962,268	533,997
-34,184	13,838	961,705	533,750
-33,169	13,761	960,670	532,904
-32,154	13,859	959,524	532,563
-31,140	13,873	958,904	532,243
-30,125	13,861	958,244	531,817
-29,111	13,879	957,218	531,285
-28,096	13,890	956,615	530,964
-27,082	13,896	955,904	530,567
-26,067	13,821	955,071	529,843
-25,052	13,948	954,306	529,805
-24,038	13,868	953,701	529,191
-23,023	13,869	953,118	528,851
-22,009	13,889	952,573	528,591
-20,994	13,848	951,718	527,965
-19,979	13,911	951,132	527,819
-18,965	13,823	950,694	527,274
-17,950	13,835	950,139	526,984
-16,936	13,806	949,419	526,471
-15,921	13,847	948,476	526,059
-14,906	13,751	947,910	525,417
-13,892	13,775	947,402	525,192
-12,877	13,715	946,772	524,630
-11,863	13,700	945,966	524,117
-10,848	13,716	945,482	523,877
-9,833	13,840	945,123	524,051
-8,819	13,752	944,676	523,505
-7,804	13,751	943,700	522,940
-6,790	13,748	943,110	522,581
-5,775	13,696	942,789	522,218
-4,760	13,779	942,001	522,023
-3,746	13,701	941,414	521,431
-2,731	13,566	940,827	520,658
-1,717	13,600	939,958	520,265
-0,702	13,544	939,354	519,734
0,313	13,387	938,806	519,720
1,327	16,881	936,641	529,469
2,342	26,147	788,207	469,907
3,356	22,313	443,202	258,545
4,371	-7,151	295,165	142,786
5,386	-11,208	277,143	130,215
6,400	-12,559	271,371	126,239
7,415	-12,754	269,240	125,057
8,429	-12,622	267,669	124,436
9,444	-12,677	266,679	123,915
10,459	-12,655	266,190	123,696
11,473	-12,896	265,388	123,094
12,488	-12,928	264,947	122,850
13,502	-13,003	264,356	122,497
14,517	-12,712	263,923	122,549
15,531	-12,913	263,534	122,175
16,546	-12,867	263,272	122,085
17,561	-12,952	262,820	121,787
18,575	-12,891	262,535	121,700
19,590	-12,892	262,127	121,499
20,604	-12,654	261,876	121,584
21,619	-12,982	261,593	121,149
22,634	-12,964	261,091	120,922
23,648	-12,966	260,985	120,860
24,663	-12,891	260,574	120,726
25,677	-12,761	260,189	120,652
26,692	-12,907	260,131	120,485
27,707	-12,871	259,754	120,332
28,721	-12,913	259,572	120,200
29,736	-13,046	259,106	119,855
30,750	-13,012	258,896	119,777
31,765	-12,892	258,685	119,774
32,780	-12,972	258,550	119,631
33,794	-12,884	258,197	119,535
34,809	-12,865	257,939	119,421
35,823	-12,760	257,639	119,364
36,838	-12,935	257,450	119,112
37,853	-13,047	257,158	118,868
38,867	-13,010	257,104	118,865
39,882	-13,011	256,719	118,676
40,896	-12,999	256,517	118,582
41,911	-13,197	256,311	118,303
42,926	-13,079	256,059	118,280
43,940	-12,912	255,655	118,227
44,955	-12,988	255,380	118,024
45,969	-13,104	255,331	117,890
46,984	-13,264	255,069	117,619
47,999	-13,349	254,834	117,427
49,013	-13,541	254,508	117,099
50,028	-13,834	254,388	116,780
51,042	-13,631	253,989	116,762
52,057	-13,935	253,743	116,375
53,071	-13,819	253,767	116,476
54,086	-13,824	253,659	116,412
55,101	-13,436	253,276	116,560
56,115	-13,264	253,132	116,632
57,130	-12,923	253,161	116,929
58,144	-12,767	252,925	116,944
59,159	-12,848	252,720	116,769
60,174	-12,811	252,398	116,641
61,188	-12,724	252,179	116,605
62,203	-12,988	252,077	116,321
63,217	-12,828	251,754	116,298
64,232	-12,847	251,545	116,176
65,247	-12,992	251,348	115,950
66,261	-13,039	251,099	115,785
67,276	-13,305	250,895	115,453
68,290	-13,235	250,731	115,427
69,305	-13,281	250,365	115,209
70,320	-13,263	250,180	115,129
71,334	-13,134	250,125	115,203
72,349	-12,895	249,854	115,272
73,363	-12,794	249,627	115,242
74,378	-12,967	249,506	115,028
75,393	-12,799	249,065	114,958
76,407	-12,924	249,037	114,829
77,422	-12,835	248,856	114,810
78,436	-12,827	248,486	114,636
79,451	-12,861	248,337	114,529
80,466	-13,015	248,117	114,288
81,480	-13,067	247,911	114,138
82,495	-13,154	247,753	113,982
83,509	-12,926	247,441	114,020
84,524	-13,252	247,321	113,681
85,539	-13,075	247,081	113,708
86,553	-13,157	246,834	113,516
87,568	-13,375	246,840	113,326
88,582	-13,239	246,613	113,326
89,597	-13,160	246,285	113,230
90,611	-13,192	246,178	113,145
91,626	-12,929	246,126	113,331
92,641	-12,832	245,939	113,315
93,655	-12,892	245,577	113,089
94,670	-13,103	245,375	112,809
95,684	-12,976	245,343	112,891
96,699	-13,203	245,269	112,657
97,714	-13,205	244,926	112,488
98,728	-13,198	244,652	112,358
99,743	-13,212	244,423	112,231
100,757	-13,592	244,443	111,915
101,772	-13,222	244,012	112,015
102,787	-13,175	243,842	111,965
103,801	-13,112	243,549	111,872
104,816	-13,105	243,507	111,849
105,830	-12,975	243,457	111,923
106,845	-12,897	243,173	111,847
107,860	-12,947	243,083	111,754
108,874	-12,914	242,823	111,652
109,889	-13,012	242,558	111,440
110,903	-12,853	242,264	111,426
111,918	-13,086	242,142	111,169
112,933	-13,200	242,016	111,008
113,947	-12,931	241,860	111,146
114,962	-13,002	241,761	111,033
115,976	-12,921	241,415	110,930
116,991	-13,103	241,352	110,743
118,006	-13,130	241,263	110,670
119,020	-13,051	241,039	110,622
120,035	-12,984	240,961	110,631
121,049	-13,029	240,784	110,503
122,064	-12,949	240,494	110,425
123,079	-13,142	240,335	110,184
124,093	-13,152	240,121	110,069
125,108	-13,136	239,800	109,925
126,122	-13,371	239,713	109,684
127,137	-13,354	239,406	109,548
128,151	-13,104	239,198	109,645
129,166	-13,235	239,148	109,507
130,181	-13,282	238,866	109,330
131,195	-13,459	238,730	109,115
132,210	-13,078	238,530	109,322
133,224	-12,977	238,426	109,345
134,239	-12,910	238,281	109,323
135,254	-13,066	238,112	109,110
136,268	-13,187	237,873	108,894
137,283	-13,350	237,583	108,620
138,297	-13,521	237,405	108,392
139,312	-13,636	237,297	108,241
140,327	-13,168	237,278	108,598
141,341	-12,811	236,996	108,745
142,356	-12,556	237,001	108,942
143,370	-12,993	236,945	108,556
144,385	-12,764	236,723	108,628
145,400	-12,634	236,350	108,551
146,414	-12,659	236,144	108,427
147,429	-12,901	236,085	108,197
148,443	-13,025	235,950	108,027
149,458	-12,743	235,688	108,122
150,473	-12,782	235,539	108,013
151,487	-12,833	235,440	107,917
152,502	-12,682	235,197	107,916
153,516	-12,713	235,024	107,803
154,531	-12,856	234,878	107,612
155,546	-12,768	234,695	107,589
156,560	-13,139	234,578	107,232
157,575	-13,042	234,282	107,163
158,589	-12,965	234,125	107,143
159,604	-12,750	234,098	107,291
160,619	-12,518	233,815	107,335
161,633	-12,609	233,786	107,240
162,648	-12,742	233,603	107,041
163,662	-12,705	233,192	106,873
164,677	-12,835	233,231	106,779
165,692	-13,032	233,140	106,572
166,706	-12,621	233,010	106,827
167,721	-12,722	232,842	106,661
168,735	-12,593	232,699	106,687
169,750	-12,839	232,625	106,451
170,764	-12,610	232,230	106,440
171,779	-12,704	232,082	106,289
172,794	-12,701	232,127	106,302
173,808	-12,666	231,710	106,129
174,823	-13,141	231,500	105,654
175,837	-13,272	231,310	105,455
176,852	-12,898	231,247	105,708
177,867	-12,771	231,176	105,765
178,881	-12,850	231,267	105,736
179,896	-12,575	230,907	105,775
180,910	-12,771	230,760	105,547
181,925	-12,647	230,627	105,572
182,940	-12,726	230,383	105,390
183,954	-12,506	230,229	105,481
184,969	-12,439	230,138	105,482
185,983	-12,733	230,047	105,203
186,998	-12,600	229,883	105,221
188,013	-12,487	229,589	105,165
189,027	-12,537	229,557	105,103
190,042	-12,449	229,236	105,014
191,056	-12,562	229,161	104,883
192,071	-12,650	229,121	104,787
193,086	-12,490	228,801	104,754
194,100	-12,805	228,818	104,511
195,115	-12,950	228,359	104,180
196,129	-13,335	228,365	103,878
197,144	-7,301	230,181	109,361
198,159	-1,430	231,857	114,709
199,173	1,664	232,864	117,604
200,188	2,238	232,825	118,020
201,202	2,150	232,684	117,870
202,217	2,260	232,435	117,819
203,232	2,155	232,490	117,754
204,246	2,519	232,295	117,927
205,261	2,278	232,219	117,691
206,275	2,568	232,086	117,838
207,290	2,668	231,848	117,784
208,304	2,664	231,695	117,693
209,319	2,816	231,454	117,677
210,334	2,334	231,369	117,252
211,348	2,405	230,969	117,092
212,363	2,104	230,730	116,730
213,377	1,865	230,642	116,492
214,392	1,779	230,503	116,345
215,407	1,994	230,442	116,468
216,421	2,013	230,205	116,353
217,436	1,957	230,015	116,203
218,450	1,886	229,908	116,085
219,465	1,573	229,840	115,800
220,480	1,759	229,561	115,792
221,494	1,886	229,347	115,770
222,509	1,990	229,401	115,867
223,523	1,982	229,316	115,807
224,538	2,041	229,048	115,707
225,553	2,012	228,792	115,545
226,567	2,002	228,784	115,524
227,582	2,320	228,617	115,670
228,596	2,266	228,569	115,595
229,611	2,154	228,340	115,384
230,626	1,669	228,136	114,902
231,640	1,731	227,905	114,822
232,655	2,167	227,873	115,127
233,669	2,283	227,800	115,167
234,684	2,555	227,708	115,317
235,699	2,402	227,343	115,006
236,713	2,282	227,181	114,823
237,728	2,065	227,147	114,632
238,742	2,002	226,762	114,380
239,757	2,032	226,891	114,457
240,772	1,831	226,517	114,107
241,786	1,912	226,388	114,093
242,801	1,992	226,456	114,177
243,815	2,558	226,404	114,567
244,830	2,463	226,178	114,371
245,844	1,856	225,917	113,773
246,859	1,954	225,716	113,735
247,874	2,148	225,665	113,845
248,888	2,196	225,387	113,730
249,903	2,254	225,280	113,709
250,917	2,312	225,130	113,666
251,932	2,044	224,982	113,382
252,947	1,824	224,846	113,138
253,961	1,940	224,514	113,048
254,976	1,932	224,514	113,032
255,990	2,209	224,563	113,253
257,005	2,205	224,382	113,149
258,020	2,313	224,097	113,075
259,034	1,958	224,091	112,798
260,049	2,419	223,899	113,034
261,063	2,254	223,794	112,848
262,078	2,485	223,619	112,921
263,093	2,356	223,449	112,730
264,107	2,473	223,491	112,828
265,122	2,404	223,235	112,638
266,136	2,558	223,137	112,691
267,151	2,489	222,960	112,542
268,166	1,962	222,708	112,015
269,180	1,647	222,463	111,649
270,195	2,039	222,272	111,832
271,209	1,954	222,201	111,724
272,224	2,043	222,134	111,746
273,239	2,245	222,058	111,846
274,253	1,969	221,817	111,512
275,268	1,910	221,578	111,339
276,282	1,609	221,547	111,092
277,297	1,494	221,364	110,906
278,312	1,759	221,344	111,081
279,326	2,058	221,214	111,225
280,341	2,160	221,017	111,191
281,355	2,079	220,939	111,082
282,370	2,195	220,690	111,032
283,384	1,674	220,564	110,577
284,399	1,512	220,412	110,373
285,414	2,009	220,105	110,572
286,428	2,006	220,186	110,601
287,443	2,313	220,177	110,810
288,457	2,122	220,007	110,575
289,472	1,950	219,796	110,334
290,487	1,580	219,424	109,869
291,501	1,548	219,248	109,748
292,516	1,621	219,272	109,804
293,530	1,542	219,143	109,672
294,545	1,921	218,895	109,812
295,560	2,077	218,906	109,921
296,574	1,975	218,950	109,859
297,589	1,938	218,547	109,621
298,603	2,014	218,469	109,627
299,618	2,271	218,288	109,712
300,633	2,248	218,388	109,736
301,647	2,536	218,132	109,805
302,662	2,210	218,137	109,562
303,676	2,459	217,826	109,575
304,691	2,065	217,884	109,312
305,706	2,349	217,572	109,349
306,720	2,415	217,413	109,307
307,735	2,190	217,152	109,005
308,749	2,076	217,092	108,883
309,764	2,292	216,935	108,949
310,779	2,791	216,750	109,204
311,793	2,467	216,574	108,873
312,808	2,192	216,616	108,688
313,822	2,190	216,334	108,536
314,837	1,925	216,250	108,295
315,852	2,004	216,056	108,244
316,866	2,121	216,054	108,317
317,881	2,186	215,950	108,301
318,895	2,154	215,749	108,168
319,910	2,014	215,579	107,974
320,925	1,618	215,379	107,583
321,939	1,283	215,203	107,247
322,954	1,874	214,966	107,539
323,968	2,055	215,034	107,692
324,983	2,016	215,017	107,646
325,997	2,342	214,858	107,787
327,012	2,247	214,742	107,653
328,027	2,190	214,468	107,466
329,041	2,587	214,464	107,734
330,056	2,432	214,410	107,588
331,070	2,088	214,098	107,179
332,085	1,919	213,809	106,906
333,100	2,136	213,717	107,003
334,114	2,249	213,560	106,995
335,129	2,224	213,401	106,888
336,143	2,012	213,250	106,654
337,158	2,126	213,131	106,665
338,173	1,996	213,017	106,507
339,187	1,875	212,765	106,287
340,202	1,494	212,679	105,967
341,216	1,666	212,630	106,054
342,231	2,254	212,548	106,415
343,246	2,321	212,406	106,382
344,260	2,178	212,240	106,189
345,275	2,518	212,061	106,328
346,289	2,313	212,082	106,186
347,304	2,496	211,878	106,201
348,319	2,081	211,760	105,843
349,333	2,125	211,623	105,796
350,348	2,176	211,469	105,745
351,362	2,433	211,314	105,837
352,377	1,997	211,299	105,517
353,392	2,309	211,103	105,626
354,406	2,234	211,058	105,542
355,421	196,938	1315,471	1393,589
356,435	157,477	1449,988	1393,537
