DTS Sentinel unit serial number:	SN410029Multiplexer serial number:	ORYXHardware model number:	OX2-SRSoftware version number:	ORYX F/W v4,00 Oryx Data Collector v3.7.2.0data status	okinstallation	B6 Nyhavnadifferential loss correction	single-endedforward channel	channel 2reverse channel	N/Adate	2023/12/08time	16:40:08forward acquisition time	300,00reverse acquisition time	0,00gamma	499,1914k internal	0,3159k external	0,3159temperature offset calibration	1,0000default loss term (dB/km)	0,3820temperature slope calibration	1,0000multiplexer offset coefficient	1,0000multiplexer slope coefficient	1,0000fibre end	0,00T internal ref (°C)	15,12T ext. ref 1 (°C)	-1,40T ext. ref 2 (°C)	-1,41length (m)	temperature (°C)	Stokes	anti-Stokes-744,400	241,437	0,092	0,113
-743,385	-46,227	-0,481	0,174
-742,371	257,415	0,157	0,199
-741,356	-130,480	-0,334	0,033
-740,342	-31,886	0,273	0,112
-739,327	-31,284	-0,312	0,129
-738,312	-79,255	0,150	0,037
-737,298	-150,257	-0,332	0,019
-736,283	-73,075	0,183	0,049
-735,269	-54,757	-0,274	0,090
-734,254	307,808	0,078	0,107
-733,239	-79,418	-0,372	-0,092
-732,225	-44,259	0,144	0,053
-731,210	-46,226	0,025	-0,009
-730,196	52,243	0,096	0,067
-729,181	22,783	-0,107	-0,064
-728,167	-124,944	0,133	0,015
-727,152	-121,731	0,096	0,012
-726,137	-141,143	-0,187	-0,014
-725,123	800,000	-0,040	0,099
-724,108	-200,000	-0,022	-0,198
-723,094	-99,923	-0,225	-0,041
-722,079	335,469	-0,025	-0,036
-721,064	-37,562	-0,019	0,008
-720,050	-200,000	-0,021	-0,072
-719,035	59,761	0,140	-0,102
-718,021	-76,517	-0,144	0,037
-717,006	-14,079	0,046	-0,022
-715,991	-125,462	-0,032	-0,003
-714,977	-200,000	-0,031	-0,173
-713,962	-200,000	0,012	0,123
-712,948	-200,000	-0,015	-0,120
-711,933	-200,000	-0,011	0,100
-710,918	-200,000	-0,004	-0,016
-709,904	-45,637	0,082	-0,030
-708,889	233,881	-0,025	0,030
-707,875	-200,000	0,046	-0,158
-706,860	-200,000	-0,000	-0,148
-705,845	199,692	0,027	0,030
-704,831	-129,492	0,086	0,009
-703,816	86,224	-0,055	-0,044
-702,802	-27,227	0,096	-0,041
-701,787	800,000	0,018	0,052
-700,772	-2,528	-0,075	0,038
-699,758	175,625	-0,051	0,054
-698,743	-200,000	-0,019	0,075
-697,729	145,385	-0,075	0,074
-696,714	-200,000	-0,009	-0,080
-695,699	399,907	-0,047	0,073
-694,685	-195,412	-0,142	-0,001
-693,670	-200,000	-0,019	-0,312
-692,656	-200,000	-0,045	-0,245
-691,641	-124,542	0,082	-0,009
-690,627	53,781	0,123	-0,087
-689,612	-81,693	0,010	-0,002
-688,597	-1,261	-0,035	-0,018
-687,583	279,900	-0,068	-0,089
-686,568	57,474	-0,086	-0,062
-685,554	114,889	-0,131	-0,118
-684,539	-2,623	-0,070	0,036
-683,524	-16,167	0,109	0,051
-682,510	-200,000	-0,030	-0,101
-681,495	-8,640	0,020	0,010
-680,481	-200,000	-0,001	-0,102
-679,466	213,302	-0,057	0,066
-678,451	-200,000	0,039	-0,128
-677,437	676,265	-0,042	0,081
-676,422	800,000	0,044	0,126
-675,408	800,000	0,060	-0,132
-674,393	-200,000	-0,012	-0,115
-673,378	-96,377	0,039	-0,008
-672,364	66,403	-0,075	-0,056
-671,349	240,155	-0,084	0,103
-670,335	-113,386	-0,045	-0,006
-669,320	-200,000	-0,006	0,071
-668,305	-200,000	0,026	0,112
-667,291	-200,000	-0,025	0,094
-666,276	1,970	-0,058	-0,031
-665,262	800,000	0,018	-0,038
-664,247	-200,000	0,029	0,114
-663,232	-200,000	-0,005	-0,022
-662,218	4,077	-0,027	0,014
-661,203	-200,000	0,014	0,094
-660,189	-200,000	-0,002	-0,010
-659,174	772,405	-0,037	-0,074
-658,159	94,551	-0,088	-0,074
-657,145	-200,000	-0,021	-0,105
-656,130	-25,202	-0,008	0,004
-655,116	579,092	0,054	0,098
-654,101	-200,000	0,010	0,053
-653,086	800,000	0,014	0,042
-652,072	24,635	-0,112	-0,068
-651,057	3,647	-0,124	0,066
-650,043	26,087	-0,073	-0,045
-649,028	345,972	0,097	-0,140
-648,014	-2,523	-0,012	0,006
-646,999	653,270	0,055	0,103
-645,984	35,373	-0,061	-0,040
-644,970	-12,643	0,028	0,014
-643,955	352,833	0,056	-0,081
-642,941	-102,989	-0,133	-0,023
-641,926	800,000	0,033	-0,106
-640,911	333,922	0,051	-0,072
-639,897	388,819	0,044	0,067
-638,882	-200,000	0,011	0,231
-637,868	338,754	-0,048	-0,068
-636,853	-200,000	0,005	-0,036
-635,838	-113,157	-0,077	0,011
-634,824	442,362	0,038	-0,061
-633,809	-59,549	-0,092	0,029
-632,795	239,537	0,048	0,059
-631,780	800,000	0,026	0,080
-630,765	-97,240	0,034	-0,007
-629,751	610,331	-0,013	0,025
-628,736	-91,244	0,085	0,018
-627,722	701,597	0,046	-0,090
-626,707	-132,528	0,084	0,008
-625,692	800,000	-0,069	-0,211
-624,678	-136,769	-0,008	-0,001
-623,663	-200,000	0,043	0,193
-622,649	75,511	0,087	0,067
-621,634	-2,685	-0,089	0,045
-620,619	601,989	-0,046	-0,084
-619,605	581,027	0,037	-0,066
-618,590	-41,333	-0,073	0,027
-617,576	-200,000	0,020	-0,070
-616,561	-62,295	-0,044	0,013
-615,546	-90,003	-0,087	-0,018
-614,532	800,000	0,031	-0,068
-613,517	38,907	-0,029	0,019
-612,503	-76,662	-0,073	-0,019
-611,488	315,577	-0,038	-0,052
-610,474	-3,799	0,033	-0,017
-609,459	17,809	0,040	-0,023
-608,444	800,000	0,015	-0,045
-607,430	120,503	-0,027	0,025
-606,415	464,147	0,027	-0,044
-605,401	-174,922	0,119	0,002
-604,386	-83,835	0,110	-0,026
-603,371	800,000	-0,019	-0,050
-602,357	86,381	-0,075	-0,061
-601,342	3,189	-0,121	0,065
-600,328	-30,037	-0,108	0,045
-599,313	800,000	0,024	-0,056
-598,298	-200,000	0,005	-0,167
-597,284	-111,578	0,056	-0,008
-596,269	800,000	0,023	0,048
-595,255	-116,335	0,065	-0,009
-594,240	800,000	-0,048	-0,103
-593,225	800,000	-0,036	0,089
-592,211	-81,333	-0,152	0,036
-591,196	35,669	0,097	-0,062
-590,182	-200,000	-0,054	0,200
-589,167	-105,600	-0,100	-0,016
-588,152	329,014	-0,045	0,064
-587,138	-62,503	0,066	0,020
-586,123	-200,000	-0,013	-0,116
-585,109	-67,300	0,203	-0,058
-584,094	214,213	0,034	0,040
-583,079	800,000	-0,023	-0,056
-582,065	-200,000	-0,001	0,013
-581,050	173,953	-0,027	-0,028
-580,036	-200,000	0,105	0,000
-579,021	-56,425	-0,233	-0,075
-578,006	224,069	-0,034	-0,040
-576,992	-200,000	-0,010	0,047
-575,977	-200,000	0,001	-0,025
-574,963	800,000	-0,055	0,148
-573,948	-200,000	0,025	-0,134
-572,934	-200,000	-0,003	0,052
-571,919	242,200	-0,046	-0,057
-570,904	2,872	-0,108	-0,057
-569,890	800,000	-0,048	-0,155
-568,875	800,000	0,044	0,090
-567,861	-97,822	-0,123	-0,023
-566,846	-16,023	0,043	-0,020
-565,831	-49,979	0,099	0,034
-564,817	245,259	-0,100	-0,124
-563,802	-12,746	0,104	0,050
-562,788	-200,000	-0,003	-0,087
-561,773	9,593	-0,125	-0,069
-560,758	-54,173	0,115	-0,038
-559,744	-70,594	-0,071	0,019
-558,729	-200,000	0,003	0,156
-557,715	-92,422	-0,061	-0,012
-556,700	-200,000	0,035	-0,146
-555,685	766,871	-0,082	-0,164
-554,671	-163,312	0,110	0,004
-553,656	-200,000	-0,021	0,083
-552,642	-146,553	-0,109	-0,007
-551,627	-200,000	0,005	0,076
-550,612	152,826	0,093	0,093
-549,598	-200,000	0,011	0,039
-548,583	-200,000	0,009	-0,052
-547,569	800,000	0,041	0,128
-546,554	-155,974	0,149	-0,007
-545,539	318,147	-0,039	0,054
-544,525	406,414	0,009	0,014
-543,510	-104,794	0,084	-0,014
-542,496	737,533	0,027	-0,053
-541,481	182,105	0,019	-0,021
-540,466	-101,620	-0,049	0,009
-539,452	-200,000	0,001	0,023
-538,437	800,000	0,011	-0,023
-537,423	-200,000	0,017	0,056
-536,408	-91,920	0,072	-0,015
-535,393	-15,607	0,103	-0,048
-534,379	-3,797	-0,035	0,018
-533,364	58,838	-0,058	0,041
-532,350	216,506	-0,042	-0,049
-531,335	288,483	-0,087	0,115
-530,321	29,380	-0,072	0,044
-529,306	-68,640	0,135	0,038
-528,291	-68,652	-0,007	-0,002
-527,277	229,713	-0,070	-0,084
-526,262	-200,000	0,019	-0,116
-525,248	-200,000	-0,001	-0,058
-524,233	800,000	-0,062	-0,146
-523,218	315,531	0,080	-0,111
-522,204	-200,000	0,010	0,121
-521,189	-200,000	-0,001	-0,120
-520,175	-184,401	-0,018	-0,000
-519,160	-200,000	-0,005	-0,047
-518,145	76,658	0,166	0,128
-517,131	249,040	-0,048	-0,059
-516,116	415,838	0,057	0,089
-515,102	4,468	-0,024	-0,013
-514,087	32,452	0,009	-0,006
-513,072	559,307	-0,109	-0,192
-512,058	-48,355	-0,097	0,034
-511,043	-9,060	0,085	-0,042
-510,029	-31,845	-0,022	0,009
-509,014	-5,172	-0,059	0,030
-507,999	-200,000	0,004	-0,019
-506,985	599,372	-0,067	-0,122
-505,970	-200,000	0,030	-0,247
-504,956	359,704	-0,019	-0,027
-503,941	43,510	-0,091	-0,061
-502,926	-200,000	0,018	0,117
-501,912	-67,193	0,088	0,025
-500,897	800,000	0,016	0,051
-499,883	186,819	0,012	-0,014
-498,868	-200,000	-0,012	-0,067
-497,853	43,569	0,154	0,102
-496,839	500,192	-0,080	-0,135
-495,824	-200,000	-0,007	-0,060
-494,810	-200,000	-0,042	-0,141
-493,795	226,492	-0,075	0,088
-492,781	-40,419	0,103	-0,039
-491,766	800,000	-0,019	-0,051
-490,751	-200,000	-0,012	-0,072
-489,737	313,651	-0,064	-0,088
-488,722	415,571	-0,012	-0,019
-487,708	-82,648	0,006	0,001
-486,693	-140,376	-0,047	0,004
-485,678	-54,521	-0,047	-0,016
-484,664	521,225	-0,030	-0,051
-483,649	-79,353	0,112	0,028
-482,635	-26,783	-0,120	0,051
-481,620	-169,156	0,081	-0,002
-480,605	-200,000	0,006	0,108
-479,591	54,601	0,112	-0,079
-478,576	-200,000	-0,002	0,023
-477,562	800,000	-0,040	-0,091
-476,547	-6,843	0,105	-0,052
-475,532	-200,000	0,016	-0,089
-474,518	-0,962	0,106	-0,055
-473,503	17,147	0,051	0,029
-472,489	314,160	0,096	0,132
-471,474	72,019	-0,088	0,067
-470,459	-200,000	0,015	0,053
-469,445	-12,759	-0,015	0,007
-468,430	134,106	-0,046	-0,043
-467,416	-200,000	0,002	0,080
-466,401	441,391	0,043	-0,069
-465,386	181,576	-0,013	0,014
-464,372	-46,210	0,099	0,035
-463,357	800,000	-0,012	-0,031
-462,343	-37,383	0,029	-0,011
-461,328	-28,656	-0,023	-0,010
-460,313	-76,554	0,136	-0,035
-459,299	-200,000	0,020	0,097
-458,284	393,339	0,078	0,119
-457,270	28,561	0,063	0,039
-456,255	-200,000	-0,011	0,064
-455,241	800,000	0,014	0,034
-454,226	104,831	0,047	0,041
-453,211	-200,000	-0,007	0,144
-452,197	253,567	-0,051	-0,064
-451,182	-40,470	0,117	-0,044
-450,168	-200,000	-0,020	0,121
-449,153	229,815	-0,098	-0,117
-448,138	0,689	0,082	0,043
-447,124	-143,298	-0,031	0,002
-446,109	5,606	0,037	0,020
-445,095	-200,000	-0,003	-0,012
-444,080	7,866	0,058	-0,031
-443,065	538,470	-0,021	0,037
-442,051	-150,291	0,124	-0,007
-441,036	-200,000	0,013	-0,090
-440,022	800,000	0,015	0,039
-439,007	424,022	0,012	0,019
-437,992	177,045	0,055	-0,058
-436,978	89,417	-0,077	0,063
-435,963	-91,444	0,133	-0,027
-434,949	800,000	0,017	0,037
-433,934	-200,000	-0,006	0,054
-432,919	800,000	0,041	0,093
-431,905	300,519	0,043	-0,058
-430,890	371,442	0,077	0,113
-429,876	-15,906	-0,072	0,033
-428,861	800,000	0,019	0,050
-427,846	216,448	-0,078	-0,090
-426,832	37,304	-0,104	0,067
-425,817	143,538	-0,032	0,031
-424,803	-200,000	-0,007	-0,079
-423,788	800,000	-0,016	-0,048
-422,773	-61,014	-0,019	-0,006
-421,759	800,000	0,027	0,074
-420,744	-27,519	0,099	-0,042
-419,730	-89,358	-0,139	0,030
-418,715	-200,000	0,009	-0,122
-417,701	326,866	0,085	0,118
-416,686	0,897	-0,097	-0,051
-415,671	-74,965	0,124	-0,032
-414,657	160,084	-0,100	0,101
-413,642	-200,000	-0,037	0,141
-412,628	406,219	-0,064	-0,098
-411,613	-200,000	-0,000	-0,019
-410,598	31,864	0,120	-0,075
-409,584	-89,264	-0,114	-0,024
-408,569	45,239	0,080	-0,054
-407,555	-103,204	0,101	-0,017
-406,540	6,019	0,153	0,082
-405,525	-200,000	-0,071	-0,240
-404,511	480,689	-0,060	-0,099
-403,496	-46,166	-0,034	0,012
-402,482	-141,918	0,101	-0,007
-401,467	-200,000	0,029	0,139
-400,452	188,233	0,077	-0,084
-399,438	-63,908	-0,189	0,056
-398,423	800,000	-0,031	0,093
-397,409	-54,644	-0,180	-0,059
-396,394	-0,942	0,056	0,029
-395,379	800,000	-0,021	-0,057
-394,365	-120,281	0,012	0,002
-393,350	218,671	-0,090	-0,104
-392,336	-74,316	-0,077	-0,020
-391,321	800,000	0,051	-0,114
-390,306	263,149	0,033	-0,041
-389,292	57,073	-0,023	-0,016
-388,277	111,534	-0,035	0,031
-387,263	-109,089	0,180	-0,028
-386,248	12,797	-0,027	0,015
-385,233	124,491	0,036	0,033
-384,219	-200,000	-0,005	-0,077
-383,204	-87,201	-0,014	0,003
-382,190	455,497	0,036	0,059
-381,175	-200,000	-0,003	0,091
-380,160	62,768	-0,049	-0,036
-379,146	-149,474	0,161	0,009
-378,131	-200,000	0,002	-0,029
-377,117	740,621	-0,068	-0,133
-376,102	-109,402	-0,038	0,006
-375,088	-164,782	-0,102	-0,003
-374,073	-200,000	0,003	0,038
-373,058	-48,213	-0,110	-0,038
-372,044	142,737	-0,051	-0,050
-371,029	701,754	-0,029	-0,056
-370,015	800,000	-0,036	-0,084
-369,000	33,688	-0,089	0,056
-367,985	-117,837	0,111	0,014
-366,971	4,554	-0,090	-0,048
-365,956	-106,339	0,072	0,012
-364,942	2,786	0,089	-0,047
-363,927	-56,852	0,153	0,049
-362,912	-200,000	-0,002	-0,017
-361,898	-200,000	-0,005	0,032
-360,883	800,000	-0,003	0,008
-359,869	-176,472	0,077	0,001
-358,854	-105,262	-0,052	0,008
-357,839	-101,234	0,058	-0,010
-356,825	-200,000	0,008	-0,064
-355,810	-118,034	0,024	0,003
-354,796	510,322	-0,019	0,032
-353,781	265,225	0,022	0,028
-352,766	-200,000	0,025	0,158
-351,752	53,858	0,030	-0,021
-350,737	-200,000	-0,006	0,075
-349,723	-200,000	-0,000	0,044
-348,708	800,000	-0,029	0,081
-347,693	-75,240	-0,017	-0,004
-346,679	67,420	0,062	0,046
-345,664	63,671	-0,197	-0,143
-344,650	638,486	0,088	0,163
-343,635	99,950	0,103	0,086
-342,620	-4,900	0,077	-0,038
-341,606	-200,000	-0,011	-0,068
-340,591	98,725	-0,133	-0,111
-339,577	54,617	0,043	-0,030
-338,562	-36,834	-0,078	-0,030
-337,548	-182,790	0,109	-0,001
-336,533	-120,492	0,042	-0,005
-335,518	53,879	0,045	0,032
-334,504	626,599	-0,075	0,139
-333,489	-17,881	0,026	-0,012
-332,475	-114,916	0,038	-0,005
-331,460	-134,764	-0,133	-0,012
-330,445	-200,000	-0,017	-0,076
-329,431	-87,914	0,094	-0,020
-328,416	-200,000	-0,031	0,107
-327,402	215,231	0,110	0,127
-326,387	-142,152	0,077	0,005
-325,372	-10,766	0,105	0,050
-324,358	178,487	0,063	-0,067
-323,343	-122,162	-0,116	0,014
-322,329	381,367	0,044	0,065
-321,314	236,975	0,042	-0,050
-320,299	-128,014	-0,030	0,003
-319,285	735,064	-0,032	0,062
-318,270	-173,526	0,018	0,000
-317,256	41,220	-0,165	0,108
-316,241	52,295	-0,052	-0,036
-315,226	-8,540	-0,117	0,057
-314,212	110,022	0,064	0,055
-313,197	-186,622	0,044	0,000
-312,183	-200,000	0,014	0,052
-311,168	-10,713	-0,137	0,066
-310,153	156,886	-0,089	-0,089
-309,139	-103,463	-0,087	-0,015
-308,124	277,638	0,107	0,138
-307,110	-150,757	0,072	0,004
-306,095	493,801	0,107	0,179
-305,080	128,274	0,050	0,046
-304,066	800,000	-0,034	0,096
-303,051	800,000	0,044	-0,108
-302,037	800,000	-0,015	-0,035
-301,022	536,629	0,053	0,092
-300,008	-12,108	0,030	0,014
-298,993	-200,000	0,060	0,264
-297,978	186,008	0,016	0,017
-296,964	-200,000	-0,014	-0,063
-295,949	-200,000	0,047	-0,194
-294,935	180,922	-0,084	-0,090
-293,920	-186,795	0,168	-0,002
-292,905	-200,000	0,036	0,139
-291,891	502,847	0,068	-0,114
-290,876	68,238	-0,097	-0,072
-289,862	141,485	0,087	-0,083
-288,847	800,000	0,071	-0,218
-287,832	428,043	-0,058	0,091
-286,818	82,661	-0,066	0,052
-285,803	-170,233	0,041	0,001
-284,789	45,750	0,102	0,068
-283,774	71,341	0,108	0,081
-282,759	-2,498	-0,059	0,030
-281,745	-200,000	-0,013	0,090
-280,730	800,000	0,006	0,020
-279,716	-82,912	-0,179	0,041
-278,701	-200,000	-0,013	0,140
-277,686	800,000	-0,052	-0,105
-276,672	800,000	0,041	-0,127
-275,657	107,812	0,036	-0,031
-274,643	-200,000	-0,006	-0,134
-273,628	-83,411	-0,034	-0,008
-272,613	800,000	0,060	-0,146
-271,599	308,707	0,035	-0,048
-270,584	-14,650	0,134	0,062
-269,570	-200,000	-0,009	0,090
-268,555	-118,133	-0,137	-0,017
-267,540	800,000	-0,021	-0,066
-266,526	397,440	0,075	-0,114
-265,511	800,000	0,052	0,143
-264,497	554,068	-0,063	0,111
-263,482	-200,000	-0,011	0,201
-262,467	28,754	0,167	0,102
-261,453	188,165	-0,053	0,057
-260,438	143,510	0,020	-0,019
-259,424	-171,854	0,049	-0,001
-258,409	-139,381	-0,092	-0,007
-257,395	53,194	-0,076	-0,053
-256,380	-200,000	-0,025	0,157
-255,365	800,000	-0,064	0,142
-254,351	639,058	-0,007	-0,013
-253,336	-200,000	-0,020	-0,066
-252,322	-200,000	0,005	-0,024
-251,307	-110,917	-0,119	-0,018
-250,292	-146,345	0,047	-0,003
-249,278	129,728	-0,030	-0,028
-248,263	85,507	-0,022	-0,017
-247,249	305,127	0,036	-0,049
-246,234	725,612	-0,008	-0,015
-245,219	800,000	-0,051	-0,146
-244,205	-153,732	0,080	0,004
-243,190	-200,000	-0,003	0,011
-242,176	-65,679	0,086	0,025
-241,161	-57,489	0,092	0,029
-240,146	409,164	0,092	-0,142
-239,132	800,000	0,015	0,036
-238,117	-74,404	-0,199	0,051
-237,103	522,670	-0,005	0,009
-236,088	42,770	-0,111	-0,073
-235,073	-152,596	0,035	0,002
-234,059	205,291	0,065	0,073
-233,044	187,994	-0,119	0,129
-232,030	-56,119	0,029	-0,009
-231,015	800,000	-0,035	0,077
-230,000	-99,045	0,039	-0,007
-228,986	-10,152	0,114	-0,054
-227,971	800,000	0,024	0,059
-226,957	74,837	0,074	-0,056
-225,942	-67,826	-0,191	-0,053
-224,927	150,344	-0,047	-0,046
-223,913	118,449	-0,063	0,056
-222,898	602,589	-0,064	-0,116
-221,884	-85,549	-0,142	0,032
-220,869	-168,205	0,058	0,002
-219,855	-200,000	-0,001	0,118
-218,840	800,000	0,058	-0,116
-217,825	362,857	-0,106	0,154
-216,811	168,019	-0,084	0,087
-215,796	-200,000	0,008	0,050
-214,782	-16,833	-0,128	0,058
-213,767	800,000	-0,043	-0,099
-212,752	-157,414	-0,027	0,001
-211,738	-200,000	-0,050	0,185
-210,723	-41,113	0,073	0,027
-209,709	-150,288	0,045	0,002
-208,694	800,000	0,058	0,117
-207,679	-85,441	0,063	-0,014
-206,665	-200,000	0,011	0,056
-205,650	256,836	-0,017	-0,021
-204,636	276,127	0,068	0,088
-203,621	395,449	-0,076	0,115
-202,606	406,471	-0,051	-0,078
-201,592	-200,000	0,003	-0,036
-200,577	9,915	-0,048	-0,026
-199,563	280,071	0,055	-0,071
-198,548	182,547	0,098	0,105
-197,533	-7,676	-0,035	0,017
-196,519	-200,000	-0,003	-0,051
-195,504	110,007	0,050	0,044
-194,490	66,112	-0,103	0,075
-193,475	208,313	0,117	-0,132
-192,460	-200,000	-0,008	0,086
-191,446	17,117	-0,084	0,048
-190,431	585,397	-0,061	-0,109
-189,417	-43,228	-0,156	-0,057
-188,402	-89,124	0,125	-0,026
-187,387	30,005	0,031	-0,019
-186,373	17,032	-0,170	0,097
-185,358	432,126	-0,038	-0,060
-184,344	394,680	0,037	0,056
-183,329	-30,022	-0,080	0,033
-182,315	-92,948	0,091	-0,018
-181,300	194,979	-0,075	-0,082
-180,285	-200,000	-0,004	0,026
-179,271	-41,705	-0,007	0,003
-178,256	-200,000	0,015	-0,101
-177,242	211,451	0,066	0,075
-176,227	457,938	-0,024	-0,038
-175,212	-86,068	-0,165	0,036
-174,198	46,458	0,023	-0,015
-173,183	165,769	-0,040	-0,041
-172,169	-84,903	0,098	0,022
-171,154	-148,404	-0,123	0,007
-170,139	116,019	0,089	0,078
-169,125	190,651	0,063	0,068
-168,110	35,943	-0,100	0,063
-167,096	-200,000	0,028	0,096
-166,081	-142,262	-0,088	-0,006
-165,066	-104,563	-0,141	-0,023
-164,052	-125,058	0,012	-0,001
-163,037	-83,622	-0,138	-0,032
-162,023	-62,365	0,066	-0,020
-161,008	-200,000	0,017	0,100
-159,993	428,811	-0,052	0,081
-158,979	-89,931	0,103	0,021
-157,964	-1,811	-0,115	-0,058
-156,950	709,561	0,063	-0,120
-155,935	-200,000	-0,025	-0,137
-154,920	-147,603	0,063	0,004
-153,906	431,210	-0,080	0,126
-152,891	-200,000	0,012	0,057
-151,877	-0,663	-0,075	0,038
-150,862	-90,075	-0,142	0,030
-149,847	-200,000	-0,011	-0,181
-148,833	200,558	-0,054	0,059
-147,818	-59,900	0,078	0,024
-146,804	-13,494	-0,042	0,019
-145,789	30,112	0,032	-0,019
-144,775	800,000	-0,028	-0,068
-143,760	161,717	0,105	0,106
-142,745	141,430	-0,045	0,043
-141,731	483,863	0,051	0,084
-140,716	-23,082	-0,022	0,009
-139,702	-200,000	0,028	0,093
-138,687	-58,319	0,048	0,015
-137,672	-200,000	0,006	0,159
-136,658	-200,000	0,010	0,081
-135,643	12,581	-0,073	0,040
-134,629	-18,705	0,105	0,047
-133,614	214,267	0,051	0,058
-132,599	170,406	-0,090	0,092
-131,585	-200,000	0,037	0,140
-130,570	10,306	0,046	-0,025
-129,556	16,168	0,049	0,028
-128,541	-7,666	-0,145	-0,070
-127,526	-50,672	0,107	0,036
-126,512	-94,178	-0,071	-0,014
-125,497	733,949	0,020	-0,039
-124,483	-21,114	-0,088	0,039
-123,468	-200,000	0,001	0,133
-122,453	-138,509	-0,086	0,007
-121,439	-200,000	0,002	-0,041
-120,424	69,010	-0,111	-0,082
-119,410	-200,000	0,002	0,070
-118,395	128,616	0,089	0,081
-117,380	196,550	0,109	0,120
-116,366	70,784	-0,085	0,063
-115,351	1,702	0,069	0,036
-114,337	-185,847	-0,176	0,002
-113,322	270,014	-0,035	0,044
-112,307	-200,000	0,025	-0,094
-111,293	-154,385	0,219	-0,010
-110,278	252,590	-0,054	0,066
-109,264	-200,000	-0,005	0,092
-108,249	561,361	-0,028	0,048
-107,234	198,967	-0,041	-0,045
-106,220	20,522	-0,177	0,103
-105,205	-17,499	0,051	0,023
-104,191	73,963	0,063	-0,048
-103,176	-164,744	0,125	0,004
-102,162	800,000	0,027	-0,062
-101,147	-53,046	-0,093	-0,030
-100,132	800,000	-0,009	-0,021
-99,118	65,667	-0,058	-0,042
-98,103	-200,000	0,027	-0,142
-97,089	-200,000	0,024	0,100
-96,074	54,688	0,077	-0,054
-95,059	39,211	0,090	-0,058
-94,045	800,000	-0,031	-0,083
-93,030	322,140	-0,038	-0,053
-92,016	176,824	0,029	-0,030
-91,001	-136,290	-0,070	0,006
-89,986	0,938	-0,121	0,062
-88,972	-136,711	0,121	-0,010
-87,957	-66,358	-0,041	0,012
-86,943	-200,000	-0,004	0,103
-85,928	19,736	-0,081	0,047
-84,913	-177,907	0,081	0,001
-83,899	-200,000	0,003	0,051
-82,884	123,073	0,003	-0,003
-81,870	167,976	0,054	0,056
-80,855	-200,000	0,009	0,042
-79,840	2,893	0,050	0,026
-78,826	252,090	-0,111	0,135
-77,811	434,220	0,015	-0,023
-76,797	474,808	-0,032	0,052
-75,782	170,660	-0,095	0,097
-74,767	-149,350	0,061	0,003
-73,753	-42,760	-0,031	0,011
-72,738	800,000	0,030	0,065
-71,724	-35,157	-0,167	0,065
-70,709	-200,000	0,007	-0,068
-69,694	800,000	0,027	-0,079
-68,680	-119,812	0,054	-0,007
-67,665	800,000	0,006	-0,015
-66,651	31,041	0,023	0,014
-65,636	-92,987	0,148	-0,029
-64,622	289,511	-0,074	-0,096
-63,607	-181,555	0,182	-0,002
-62,592	134,201	-0,079	-0,074
-61,578	-191,085	0,016	0,000
-60,563	800,000	0,027	0,061
-59,549	-34,804	-0,048	-0,019
-58,534	18,073	-2,024	-1,155
-57,519	-200,000	-0,102	-0,696
-56,505	-200,000	-1,325	-4,885
-55,490	137,567	0,976	0,917
-54,476	800,000	5,193	11,555
-53,461	-200,000	17,740	289,194
-52,446	800,000	727,151	2225,003
-51,432	534,112	1640,251	2798,952
-50,417	109,082	1629,620	1398,065
-49,403	72,759	1283,382	959,888
-48,388	31,343	1025,897	630,529
-47,373	19,911	988,065	569,633
-46,359	18,172	976,113	557,025
-45,344	15,361	972,298	545,641
-44,330	15,655	970,684	545,676
-43,315	15,267	968,777	543,315
-42,300	15,128	967,713	542,244
-41,286	15,112	967,013	541,780
-40,271	15,183	965,624	541,212
-39,257	15,122	964,903	540,586
-38,242	15,159	964,070	540,218
-37,227	15,098	963,349	539,596
-36,213	15,158	962,525	539,308
-35,198	15,129	961,421	538,574
-34,184	15,198	960,777	538,414
-33,169	15,068	959,887	537,475
-32,154	15,138	958,787	537,063
-31,140	15,175	958,014	536,728
-30,125	15,219	957,189	536,386
-29,111	15,166	956,419	535,763
-28,096	15,160	955,916	535,441
-27,082	15,185	955,100	535,043
-26,067	15,167	954,413	534,579
-25,052	15,201	953,563	534,190
-24,038	15,182	952,860	533,714
-23,023	15,117	952,351	533,200
-22,009	15,158	951,823	533,013
-20,994	15,187	950,802	532,513
-19,979	15,168	950,298	532,151
-18,965	15,172	949,756	531,837
-17,950	15,128	949,127	531,324
-16,936	15,121	948,439	530,897
-15,921	15,144	947,798	530,587
-14,906	15,051	947,186	529,928
-13,892	15,037	946,525	529,493
-12,877	15,058	945,770	529,118
-11,863	14,999	945,299	528,645
-10,848	15,102	944,453	528,476
-9,833	15,146	944,263	528,490
-8,819	15,123	943,584	528,015
-7,804	15,078	942,995	527,522
-6,790	15,038	942,593	527,150
-5,775	15,056	941,823	526,756
-4,760	15,134	941,178	526,622
-3,746	15,139	940,435	526,201
-2,731	14,905	939,835	525,104
-1,717	14,918	939,247	524,795
-0,702	14,911	938,599	524,390
0,313	14,692	937,983	524,147
1,327	18,147	935,759	533,726
2,342	27,321	789,687	474,561
3,356	23,912	444,767	262,212
4,371	-5,510	295,729	144,926
5,386	-9,548	277,522	132,161
6,400	-10,834	271,793	128,225
7,415	-10,889	269,438	127,052
8,429	-11,073	268,080	126,231
9,444	-10,965	267,275	125,940
10,459	-10,995	266,542	125,557
11,473	-11,229	266,129	125,138
12,488	-11,189	265,420	124,829
13,502	-11,428	265,033	124,419
14,517	-11,338	264,470	124,225
15,531	-11,279	263,967	124,031
16,546	-11,235	263,743	123,955
17,561	-11,247	263,362	123,754
18,575	-11,280	263,138	123,608
19,590	-11,411	262,572	123,213
20,604	-11,306	262,387	123,209
21,619	-11,242	261,910	123,032
22,634	-11,334	261,624	122,804
23,648	-11,250	261,375	122,751
24,663	-11,358	261,122	122,525
25,677	-11,316	260,761	122,383
26,692	-11,452	260,629	122,189
27,707	-11,295	260,087	122,063
28,721	-11,292	259,961	121,996
29,736	-11,231	259,598	121,869
30,750	-11,380	259,442	121,652
31,765	-11,386	259,191	121,518
32,780	-11,605	259,028	121,238
33,794	-11,480	258,819	121,239
34,809	-11,546	258,624	121,079
35,823	-11,390	258,238	121,025
36,838	-11,334	258,017	120,960
37,853	-11,385	257,699	120,756
38,867	-11,624	257,627	120,501
39,882	-11,480	257,374	120,498
40,896	-11,416	257,056	120,394
41,911	-11,554	256,911	120,195
42,926	-11,353	256,505	120,170
43,940	-11,467	256,341	119,983
44,955	-11,641	256,007	119,664
45,969	-11,655	255,832	119,560
46,984	-11,956	255,765	119,254
47,999	-12,104	255,324	118,909
49,013	-12,122	255,144	118,799
50,028	-12,432	254,925	118,417
51,042	-12,526	254,668	118,205
52,057	-12,323	254,321	118,210
53,071	-12,372	254,238	118,118
54,086	-12,122	253,935	118,184
55,101	-12,140	253,755	118,074
56,115	-11,926	253,824	118,280
57,130	-11,502	253,851	118,649
58,144	-11,226	253,566	118,744
59,159	-11,222	253,226	118,577
60,174	-11,092	252,933	118,542
61,188	-11,224	252,981	118,440
62,203	-11,247	252,583	118,223
63,217	-11,299	252,475	118,117
64,232	-11,470	252,273	117,866
65,247	-11,384	252,000	117,801
66,261	-11,517	251,918	117,638
67,276	-11,416	251,486	117,513
68,290	-11,906	251,193	116,946
69,305	-11,895	250,971	116,842
70,320	-11,756	250,815	116,878
71,334	-11,635	250,714	116,924
72,349	-11,323	250,550	117,102
73,363	-11,196	250,442	117,150
74,378	-11,117	250,090	117,042
75,393	-11,277	249,894	116,804
76,407	-11,322	249,703	116,666
77,422	-11,442	249,581	116,496
78,436	-11,328	249,180	116,396
79,451	-11,520	249,020	116,148
80,466	-11,334	248,744	116,166
81,480	-11,559	248,543	115,872
82,495	-11,690	248,333	115,653
83,509	-11,713	248,268	115,592
84,524	-11,843	248,012	115,353
85,539	-11,812	247,754	115,249
86,553	-11,916	247,592	115,076
87,568	-11,627	247,517	115,274
88,582	-11,672	247,117	115,040
89,597	-11,783	247,078	114,918
90,611	-11,508	246,921	115,065
91,626	-11,263	246,658	115,138
92,641	-11,643	246,635	114,799
93,655	-11,478	246,375	114,806
94,670	-11,594	246,067	114,555
95,684	-11,436	245,791	114,548
96,699	-11,491	245,725	114,461
97,714	-11,600	245,583	114,294
98,728	-11,841	245,289	113,947
99,743	-11,834	245,111	113,860
100,757	-11,802	244,809	113,735
101,772	-11,486	244,527	113,857
102,787	-11,599	244,448	113,716
103,801	-11,633	244,373	113,643
104,816	-11,618	244,328	113,624
105,830	-11,397	244,088	113,685
106,845	-11,355	243,972	113,656
107,860	-11,678	243,959	113,372
108,874	-11,860	243,592	113,041
109,889	-11,561	243,205	113,099
110,903	-11,525	243,018	113,031
111,918	-11,929	242,963	112,663
112,933	-11,670	242,776	112,779
113,947	-11,404	242,558	112,887
114,962	-11,565	242,428	112,683
115,976	-11,226	242,168	112,831
116,991	-11,452	241,976	112,546
118,006	-11,546	241,931	112,438
119,020	-11,612	241,873	112,347
120,035	-11,215	241,553	112,513
121,049	-11,439	241,428	112,261
122,064	-11,349	241,350	112,289
123,079	-11,454	241,000	112,031
124,093	-11,499	240,821	111,900
125,108	-11,757	240,612	111,583
126,122	-11,874	240,407	111,383
127,137	-11,996	240,077	111,121
128,151	-11,814	239,984	111,216
129,166	-11,710	239,858	111,232
130,181	-11,972	239,641	110,909
131,195	-11,865	239,335	110,844
132,210	-11,641	239,278	110,989
133,224	-11,490	239,168	111,051
134,239	-11,655	239,047	110,851
135,254	-11,543	238,811	110,822
136,268	-11,735	238,677	110,595
137,283	-11,906	238,276	110,261
138,297	-12,111	238,120	110,015
139,312	-11,902	237,916	110,079
140,327	-11,631	237,897	110,278
141,341	-11,196	237,999	110,666
142,356	-11,112	237,734	110,600
143,370	-11,082	237,763	110,628
144,385	-10,986	237,327	110,492
145,400	-11,132	237,224	110,317
146,414	-11,166	237,009	110,180
147,429	-10,926	236,810	110,270
148,443	-11,451	236,696	109,787
149,458	-11,140	236,513	109,941
150,473	-11,245	236,350	109,771
151,487	-11,151	236,156	109,747
152,502	-11,010	235,902	109,731
153,516	-10,986	235,890	109,735
154,531	-11,188	235,745	109,497
155,546	-11,249	235,415	109,285
156,560	-11,415	235,308	109,093
157,575	-11,440	234,969	108,907
158,589	-11,414	234,856	108,866
159,604	-11,159	234,847	109,054
160,619	-10,978	234,631	109,088
161,633	-11,068	234,609	108,996
162,648	-10,753	234,258	109,073
163,662	-10,986	234,113	108,811
164,677	-11,338	233,929	108,438
165,692	-11,158	233,834	108,526
166,706	-11,079	233,764	108,546
167,721	-11,015	233,537	108,482
168,735	-10,882	233,381	108,504
169,750	-11,169	233,350	108,254
170,764	-10,995	233,040	108,238
171,779	-11,176	232,941	108,039
172,794	-10,964	232,794	108,128
173,808	-11,311	232,509	107,714
174,823	-11,826	232,167	107,143
175,837	-11,646	232,027	107,209
176,852	-11,439	232,092	107,392
177,867	-11,111	231,923	107,561
178,881	-11,173	231,809	107,450
179,896	-11,013	231,574	107,457
180,910	-11,030	231,577	107,435
181,925	-10,908	231,495	107,483
182,940	-11,195	231,346	107,180
183,954	-11,057	231,057	107,144
184,969	-11,067	230,993	107,097
185,983	-10,720	230,701	107,221
186,998	-10,961	230,662	107,007
188,013	-10,853	230,479	106,996
189,027	-10,859	230,259	106,880
190,042	-10,887	230,023	106,739
191,056	-10,881	229,977	106,713
192,071	-10,922	229,876	106,625
193,086	-10,919	229,677	106,525
194,100	-10,963	229,558	106,426
195,115	-11,310	229,357	106,056
196,129	-10,941	229,215	106,265
197,144	-5,881	230,990	111,009
198,159	-0,606	232,438	115,806
199,173	2,632	233,509	118,858
200,188	3,424	233,480	119,450
201,202	3,261	233,351	119,247
202,217	3,401	233,239	119,288
203,232	3,710	233,008	119,399
204,246	3,977	232,893	119,537
205,261	3,863	232,644	119,311
206,275	3,923	232,668	119,358
207,290	3,780	232,636	119,221
208,304	3,996	232,309	119,210
209,319	3,767	232,142	118,936
210,334	3,674	232,019	118,791
211,348	3,717	231,712	118,656
212,363	3,135	231,387	118,030
213,377	2,892	231,377	117,827
214,392	3,248	231,126	117,963
215,407	3,190	230,991	117,839
216,421	3,142	231,045	117,819
217,436	3,239	230,728	117,721
218,450	2,806	230,497	117,260
219,465	2,941	230,292	117,249
220,480	2,944	230,206	117,197
221,494	2,762	230,135	117,011
222,509	2,990	230,091	117,153
223,523	3,268	229,726	117,170
224,538	3,124	229,481	116,924
225,553	3,181	229,419	116,926
226,567	3,093	229,446	116,861
227,582	3,344	229,274	116,955
228,596	3,582	229,186	117,081
229,611	3,225	229,001	116,705
230,626	3,087	228,639	116,404
231,640	2,858	228,560	116,180
232,655	3,266	228,488	116,443
233,669	3,451	228,702	116,682
234,684	3,734	228,354	116,710
235,699	3,459	228,210	116,417
236,713	3,395	227,870	116,185
237,728	3,136	227,690	115,885
238,742	2,963	227,531	115,664
239,757	3,104	227,487	115,738
240,772	2,955	227,231	115,484
241,786	3,066	227,011	115,446
242,801	3,356	227,070	115,685
243,815	3,723	226,994	115,913
244,830	3,554	226,790	115,671
245,844	3,546	226,410	115,461
246,859	3,239	226,409	115,219
247,874	3,449	226,240	115,281
248,888	3,438	226,123	115,202
249,903	3,135	226,022	114,913
250,917	3,272	225,746	114,865
251,932	3,080	225,670	114,673
252,947	3,097	225,406	114,541
253,961	2,926	225,408	114,403
254,976	2,990	225,339	114,406
255,990	3,357	225,223	114,612
257,005	3,211	225,035	114,396
258,020	3,357	224,950	114,452
259,034	3,564	224,767	114,504
260,049	3,498	224,406	114,261
261,063	3,256	224,440	114,087
262,078	3,322	224,278	114,043
263,093	3,618	224,279	114,254
264,107	3,582	223,881	114,015
265,122	3,465	223,903	113,929
266,136	3,567	223,839	113,962
267,151	3,640	223,472	113,819
268,166	3,196	223,476	113,481
269,180	2,795	223,198	113,034
270,195	3,115	222,985	113,152
271,209	2,922	222,864	112,938
272,224	3,243	222,760	113,112
273,239	3,100	222,677	112,955
274,253	3,062	222,465	112,809
275,268	2,895	222,385	112,635
276,282	2,880	222,124	112,482
277,297	2,713	222,139	112,356
278,312	2,906	221,920	112,377
279,326	3,160	221,771	112,478
280,341	3,060	221,864	112,442
281,355	3,338	221,526	112,465
282,370	3,214	221,340	112,269
283,384	2,813	221,095	111,841
284,399	2,608	220,980	111,623
285,414	2,825	220,944	111,754
286,428	3,085	220,801	111,862
287,443	3,371	220,701	112,010
288,457	3,110	220,596	111,756
289,472	3,088	220,443	111,653
290,487	2,775	220,030	111,205
291,501	2,656	219,801	110,993
292,516	2,899	219,841	111,181
293,530	2,728	219,785	111,017
294,545	2,888	219,536	110,998
295,560	3,059	219,474	111,082
296,574	3,172	219,472	111,153
297,589	3,109	219,330	111,025
298,603	3,359	219,003	111,031
299,618	3,369	218,928	110,991
300,633	3,365	218,855	110,940
301,647	3,418	218,702	110,891
302,662	3,410	218,623	110,836
303,676	3,337	218,565	110,744
304,691	3,332	218,532	110,713
305,706	3,148	218,274	110,440
306,720	3,580	217,902	110,553
307,735	3,280	217,745	110,248
308,749	2,927	217,803	110,013
309,764	3,121	217,668	110,074
310,779	3,384	217,552	110,195
311,793	3,300	217,491	110,094
312,808	3,028	217,214	109,749
313,822	3,203	217,147	109,831
314,837	3,229	216,877	109,703
315,852	3,037	216,623	109,427
316,866	3,120	216,607	109,469
317,881	3,028	216,542	109,360
318,895	3,400	216,389	109,539
319,910	3,062	216,232	109,208
320,925	2,874	215,972	108,934
321,939	2,711	215,802	108,722
322,954	2,796	215,830	108,787
323,968	3,269	215,718	109,058
324,983	3,163	215,599	108,912
325,997	3,452	215,469	109,043
327,012	3,082	215,399	108,734
328,027	3,171	215,188	108,682
329,041	3,513	215,051	108,845
330,056	3,149	215,050	108,577
331,070	2,792	214,651	108,112
332,085	2,652	214,331	107,842
333,100	3,019	214,243	108,048
334,114	3,562	214,356	108,480
335,129	3,301	214,193	108,203
336,143	3,246	213,995	108,055
337,158	3,450	213,898	108,140
338,173	2,977	213,831	107,763
339,187	3,065	213,600	107,699
340,202	2,897	213,343	107,442
341,216	2,939	213,204	107,391
342,231	3,066	213,124	107,430
343,246	2,991	212,881	107,246
344,260	3,065	212,804	107,249
345,275	3,138	212,927	107,353
346,289	3,279	212,669	107,312
347,304	3,191	212,664	107,238
348,319	3,262	212,232	107,061
349,333	3,113	212,203	106,932
350,348	3,301	212,173	107,039
351,362	3,462	211,997	107,053
352,377	3,258	211,916	106,861
353,392	3,249	211,723	106,747
354,406	3,392	211,580	106,765
355,421	195,380	1339,711	1416,336
356,435	156,070	1477,122	1416,301
