DTS Sentinel unit serial number:	SN410029Multiplexer serial number:	ORYXHardware model number:	OX2-SRSoftware version number:	ORYX F/W v4,00 Oryx Data Collector v3.7.2.0data status	okinstallation	B6 Nyhavnadifferential loss correction	single-endedforward channel	channel 2reverse channel	N/Adate	2023/12/08time	10:00:08forward acquisition time	300,00reverse acquisition time	0,00gamma	499,1914k internal	0,3165k external	0,3165temperature offset calibration	1,0000default loss term (dB/km)	0,3820temperature slope calibration	1,0000multiplexer offset coefficient	1,0000multiplexer slope coefficient	1,0000fibre end	0,00T internal ref (°C)	13,98T ext. ref 1 (°C)	-1,58T ext. ref 2 (°C)	-1,54length (m)	temperature (°C)	Stokes	anti-Stokes-744,400	-87,654	0,046	0,010
-743,385	-177,036	-0,337	-0,006
-742,371	-69,252	0,156	0,044
-741,356	-101,717	-0,300	0,053
-740,342	-38,103	0,105	-0,041
-739,327	-59,833	-0,315	-0,098
-738,312	-200,000	-0,016	0,101
-737,298	-119,695	-0,377	0,047
-736,283	15,052	0,218	0,125
-735,269	-65,557	-0,325	0,095
-734,254	319,544	-0,028	0,040
-733,239	-51,635	-0,434	-0,148
-732,225	21,815	0,099	0,059
-731,210	247,472	0,150	0,187
-730,196	800,000	-0,015	0,046
-729,181	25,817	0,067	-0,041
-728,167	0,770	0,167	-0,088
-727,152	550,600	0,011	0,020
-726,137	-200,000	-0,031	-0,182
-725,123	-47,117	-0,042	-0,015
-724,108	33,929	-0,129	-0,083
-723,094	164,005	-0,077	-0,080
-722,079	-154,868	-0,094	-0,005
-721,064	100,666	0,057	0,049
-720,050	-62,687	0,072	0,022
-719,035	800,000	-0,062	0,178
-718,021	800,000	0,006	-0,013
-717,006	98,855	-0,071	-0,060
-715,991	-200,000	0,002	-0,017
-714,977	580,103	-0,068	-0,124
-713,962	800,000	0,056	-0,135
-712,948	274,339	-0,046	0,059
-711,933	-15,032	-0,121	0,057
-710,918	-200,000	-0,030	-0,121
-709,904	715,094	0,025	0,049
-708,889	12,676	-0,105	-0,060
-707,875	-27,793	-0,081	-0,034
-706,860	472,764	-0,028	-0,047
-705,845	-105,582	0,089	-0,015
-704,831	133,120	-0,079	0,075
-703,816	32,234	-0,071	-0,045
-702,802	315,875	0,077	0,108
-701,787	800,000	0,018	-0,045
-700,772	673,863	-0,053	-0,101
-699,758	77,289	0,077	-0,060
-698,743	-200,000	-0,008	-0,097
-697,729	39,593	0,016	0,011
-696,714	-200,000	-0,002	0,117
-695,699	-200,000	-0,014	0,050
-694,685	-10,509	0,024	0,012
-693,670	800,000	0,057	-0,150
-692,656	-108,492	-0,078	0,012
-691,641	-200,000	-0,010	0,113
-690,627	-159,849	0,081	0,003
-689,612	45,927	-0,099	-0,067
-688,597	121,043	-0,010	0,009
-687,583	737,006	0,012	-0,023
-686,568	177,289	0,100	-0,107
-685,554	-63,950	-0,154	-0,046
-684,539	-28,332	0,054	-0,023
-683,524	-58,986	-0,043	0,014
-682,510	-200,000	0,002	0,036
-681,495	-108,948	-0,073	0,011
-680,481	-86,006	-0,090	-0,020
-679,466	41,442	-0,118	-0,078
-678,451	-98,190	-0,118	0,022
-677,437	212,668	0,106	0,123
-676,422	-200,000	0,014	0,088
-675,408	-55,471	-0,057	0,019
-674,393	-77,003	-0,107	-0,027
-673,378	175,901	-0,053	0,057
-672,364	-200,000	-0,026	-0,096
-671,349	83,268	0,012	0,009
-670,335	-154,362	0,132	-0,006
-669,320	-47,164	-0,060	0,021
-668,305	226,300	0,070	-0,084
-667,291	-200,000	0,009	0,208
-666,276	238,383	0,071	0,086
-665,262	-200,000	-0,023	-0,081
-664,247	-50,042	-0,142	0,049
-663,232	-164,668	0,032	-0,001
-662,218	-128,700	0,108	-0,011
-661,203	448,883	-0,034	0,055
-660,189	109,377	-0,022	-0,019
-659,174	-130,006	0,172	-0,017
-658,159	-138,407	-0,105	-0,008
-657,145	14,298	0,073	0,041
-656,130	-115,416	-0,046	-0,006
-655,116	91,548	-0,107	0,088
-654,101	-22,266	0,171	0,076
-653,086	559,191	0,064	0,114
-652,072	130,000	-0,072	-0,068
-651,057	-200,000	0,032	-0,128
-650,043	-46,587	-0,129	-0,046
-649,028	-63,870	0,111	0,033
-648,014	-200,000	0,013	-0,165
-646,999	413,250	0,063	-0,098
-645,984	-9,691	0,096	0,047
-644,970	800,000	-0,016	-0,037
-643,955	-200,000	0,007	-0,028
-642,941	-15,672	-0,055	0,026
-641,926	313,471	-0,035	0,049
-640,911	-15,357	0,112	-0,052
-639,897	168,097	0,080	0,084
-638,882	-200,000	0,002	0,034
-637,868	446,348	0,047	0,075
-636,853	-106,371	-0,136	0,022
-635,838	-200,000	0,016	-0,205
-634,824	305,737	-0,052	-0,071
-633,809	6,275	-0,086	-0,047
-632,795	280,673	-0,019	0,025
-631,780	-39,706	-0,041	-0,016
-630,765	221,956	-0,096	0,114
-629,751	535,670	-0,046	-0,080
-628,736	-200,000	0,011	0,045
-627,722	800,000	-0,040	0,099
-626,707	800,000	-0,021	0,056
-625,692	-9,681	0,127	-0,062
-624,678	12,285	0,112	-0,063
-623,663	42,390	-0,058	-0,038
-622,649	224,698	0,042	0,050
-621,634	792,496	-0,032	-0,064
-620,619	800,000	0,044	-0,092
-619,605	-200,000	-0,003	0,028
-618,590	-200,000	-0,007	-0,041
-617,576	321,635	-0,084	0,118
-616,561	800,000	0,036	0,098
-615,546	123,175	-0,134	0,123
-614,532	101,552	0,059	0,050
-613,517	800,000	0,039	0,111
-612,503	42,956	-0,063	0,042
-611,488	-89,551	-0,087	0,019
-610,474	219,735	0,062	-0,073
-609,459	190,307	0,025	-0,027
-608,444	-18,959	-0,013	-0,006
-607,430	17,951	-0,018	0,011
-606,415	66,348	-0,143	-0,107
-605,401	61,961	-0,046	-0,033
-604,386	-25,932	0,042	-0,018
-603,371	-108,626	-0,099	-0,015
-602,357	243,179	0,079	0,097
-601,342	57,729	-0,023	0,016
-600,328	-200,000	-0,012	-0,078
-599,313	82,848	-0,029	-0,023
-598,298	-186,472	-0,077	0,001
-597,284	-59,661	-0,073	-0,023
-596,269	64,519	0,062	-0,046
-595,255	-5,418	0,135	0,068
-594,240	-200,000	-0,013	0,078
-593,225	7,184	-0,191	-0,104
-592,211	-200,000	-0,007	0,029
-591,196	-47,425	-0,102	0,036
-590,182	-99,499	0,044	-0,008
-589,167	-186,209	0,035	-0,000
-588,152	800,000	-0,047	-0,122
-587,138	83,410	-0,045	-0,036
-586,123	-200,000	0,039	0,234
-585,109	45,688	-0,136	-0,092
-584,094	54,795	0,044	0,031
-583,079	387,423	0,023	-0,035
-582,065	106,462	-0,123	-0,107
-581,050	-200,000	0,031	-0,140
-580,036	79,609	-0,140	0,110
-579,021	-200,000	0,018	-0,066
-578,006	-91,108	0,067	-0,014
-576,992	-200,000	-0,017	0,072
-575,977	168,938	-0,072	-0,075
-574,963	-200,000	0,004	0,023
-573,948	283,329	0,080	0,106
-572,934	-136,640	-0,102	0,008
-571,919	29,287	0,023	-0,014
-570,904	166,714	0,050	-0,051
-569,890	-64,083	0,052	-0,016
-568,875	-200,000	0,008	-0,055
-567,861	-142,836	0,187	0,013
-566,846	800,000	0,018	0,048
-565,831	-22,776	-0,113	-0,050
-564,817	-138,730	0,047	-0,004
-563,802	245,181	0,103	0,127
-562,788	70,438	0,021	-0,016
-561,773	259,891	-0,037	0,047
-560,758	202,195	-0,058	0,066
-559,744	-200,000	0,027	0,112
-558,729	-58,263	-0,117	0,037
-557,715	-200,000	0,017	-0,069
-556,700	66,082	-0,041	-0,030
-555,685	-30,007	-0,022	-0,009
-554,671	75,982	0,109	-0,084
-553,656	-200,000	0,002	0,028
-552,642	193,187	-0,084	0,093
-551,627	-103,208	0,078	-0,013
-550,612	130,560	0,064	-0,060
-549,598	-200,000	-0,013	-0,054
-548,583	5,399	-0,064	0,034
-547,569	294,275	0,109	-0,145
-546,554	311,592	0,047	-0,064
-545,539	436,861	0,083	-0,132
-544,525	19,222	-0,016	-0,009
-543,510	-64,559	0,073	-0,021
-542,496	173,727	-0,172	-0,181
-541,481	-200,000	0,005	-0,115
-540,466	35,514	0,066	-0,042
-539,452	87,870	0,095	0,077
-538,437	535,135	0,031	0,054
-537,423	-200,000	0,012	0,074
-536,408	-200,000	-0,000	-0,107
-535,393	-121,321	0,122	0,015
-534,379	-200,000	-0,019	0,131
-533,364	3,508	-0,107	0,057
-532,350	-98,352	0,060	0,011
-531,335	334,373	0,069	-0,098
-530,321	266,223	0,062	0,079
-529,306	-200,000	0,032	0,143
-528,291	-200,000	-0,000	-0,077
-527,277	-200,000	-0,013	-0,143
-526,262	-15,170	-0,107	-0,050
-525,248	-26,575	0,081	-0,034
-524,233	-130,640	0,182	-0,018
-523,218	-200,000	-0,010	0,189
-522,204	0,112	-0,086	-0,045
-521,189	-138,112	-0,094	-0,008
-520,175	108,364	0,095	-0,082
-519,160	-79,502	-0,020	-0,005
-518,145	731,310	0,041	0,081
-517,131	800,000	0,039	-0,105
-516,116	1,371	0,070	0,037
-515,102	387,841	-0,089	0,135
-514,087	276,664	0,027	0,035
-513,072	800,000	-0,041	-0,093
-512,058	23,027	-0,131	-0,078
-511,043	800,000	0,011	-0,033
-510,029	68,480	0,149	0,111
-509,014	183,992	-0,056	0,060
-507,999	35,461	-0,083	-0,053
-506,985	-139,249	0,043	-0,003
-505,970	-31,227	0,077	-0,031
-504,956	506,701	0,032	-0,055
-503,941	145,545	-0,025	-0,024
-502,926	49,110	-0,045	-0,031
-501,912	32,625	-0,021	0,013
-500,897	-8,996	0,069	-0,033
-499,883	-123,197	-0,029	-0,003
-498,868	-200,000	-0,015	-0,065
-497,853	-200,000	-0,000	-0,083
-496,839	-200,000	0,023	0,083
-495,824	800,000	0,069	0,178
-494,810	213,306	0,058	-0,067
-493,795	-115,133	-0,066	0,009
-492,781	267,368	-0,071	-0,090
-491,766	544,608	-0,087	-0,152
-490,751	106,818	-0,069	-0,059
-489,737	-200,000	0,012	-0,049
-488,722	86,520	0,026	-0,021
-487,708	-73,237	0,059	0,016
-486,693	-200,000	-0,026	0,095
-485,678	-84,269	-0,163	-0,037
-484,664	130,401	-0,126	-0,118
-483,649	456,789	0,040	-0,064
-482,635	18,966	-0,080	-0,047
-481,620	2,703	0,058	0,030
-480,605	10,688	0,027	0,015
-479,591	27,291	-0,083	0,050
-478,576	-200,000	0,010	0,078
-477,562	652,007	0,013	0,024
-476,547	54,962	-0,062	0,044
-475,532	216,908	-0,068	-0,079
-474,518	-44,278	-0,021	0,007
-473,503	-200,000	0,035	0,205
-472,489	-48,946	0,179	0,062
-471,474	219,800	0,083	0,097
-470,459	46,225	-0,040	-0,027
-469,445	82,420	0,016	0,012
-468,430	-83,953	-0,106	-0,024
-467,416	538,078	0,060	-0,103
-466,401	800,000	-0,016	-0,049
-465,386	756,214	0,059	0,117
-464,372	-126,350	-0,028	0,003
-463,357	496,335	-0,030	-0,050
-462,343	-200,000	-0,013	-0,062
-461,328	-200,000	0,032	-0,118
-460,313	261,139	0,117	-0,147
-459,299	427,470	-0,061	0,096
-458,284	42,320	0,029	0,019
-457,270	117,333	-0,036	0,032
-456,255	207,106	0,076	-0,086
-455,241	-134,436	-0,113	-0,010
-454,226	-200,000	0,006	-0,049
-453,211	303,800	0,019	-0,026
-452,197	800,000	0,022	-0,068
-451,182	78,563	0,065	0,050
-450,168	800,000	0,021	-0,053
-449,153	587,287	0,059	-0,106
-448,138	-160,031	-0,189	0,007
-447,124	-200,000	-0,007	-0,052
-446,109	238,569	-0,053	-0,064
-445,095	67,348	0,148	0,110
-444,080	800,000	0,052	0,162
-443,065	254,701	-0,010	-0,013
-442,051	800,000	-0,034	-0,091
-441,036	119,903	0,155	-0,140
-440,022	-69,300	-0,080	0,022
-439,007	92,959	-0,041	0,034
-437,992	0,468	0,132	-0,068
-436,978	800,000	-0,024	0,051
-435,963	800,000	-0,029	-0,068
-434,949	-19,593	-0,070	-0,031
-433,934	41,220	-0,091	-0,060
-432,919	136,367	-0,134	-0,127
-431,905	800,000	0,012	-0,032
-430,890	222,457	0,104	-0,122
-429,876	-20,696	0,073	0,032
-428,861	-112,659	-0,047	-0,007
-427,846	800,000	0,031	-0,066
-426,832	-200,000	0,037	0,121
-425,817	-178,863	0,170	0,003
-424,803	34,073	0,058	-0,037
-423,788	107,807	0,016	-0,014
-422,773	-200,000	0,013	-0,050
-421,759	173,361	0,090	-0,095
-420,744	-124,897	-0,061	0,007
-419,730	124,593	-0,071	0,065
-418,715	800,000	-0,043	-0,092
-417,701	17,726	0,048	-0,028
-416,686	43,501	-0,014	-0,009
-415,671	392,376	0,046	0,069
-414,657	-77,704	-0,058	-0,014
-413,642	800,000	-0,039	0,122
-412,628	-200,000	-0,012	0,040
-411,613	-200,000	0,009	0,133
-410,598	-200,000	-0,019	-0,079
-409,584	69,553	0,058	-0,043
-408,569	800,000	-0,032	0,082
-407,555	195,449	0,048	0,053
-406,540	-99,435	0,108	0,020
-405,525	-200,000	0,002	-0,074
-404,511	800,000	-0,039	-0,111
-403,496	-200,000	0,027	-0,142
-402,482	-185,444	0,063	-0,001
-401,467	554,451	-0,032	0,056
-400,452	28,407	0,099	0,060
-399,438	24,516	0,041	0,025
-398,423	-172,949	-0,102	0,002
-397,409	169,817	-0,024	0,025
-396,394	-128,314	-0,107	-0,011
-395,379	-86,635	0,046	-0,010
-394,365	-68,665	-0,178	0,050
-393,350	634,270	0,055	0,102
-392,336	-200,000	-0,016	-0,107
-391,321	-141,063	-0,089	0,007
-390,306	800,000	0,051	-0,129
-389,292	-200,000	-0,012	0,049
-388,277	-25,630	0,092	-0,039
-387,263	523,707	0,080	0,137
-386,248	800,000	-0,025	0,059
-385,233	233,064	-0,052	-0,062
-384,219	-158,882	0,073	-0,003
-383,204	-200,000	0,004	-0,100
-382,190	211,500	0,095	0,108
-381,175	-113,904	-0,004	0,001
-380,160	-24,838	0,185	0,079
-379,146	800,000	-0,037	-0,096
-378,131	60,013	-0,038	0,027
-377,117	4,670	-0,066	0,035
-376,102	68,240	0,080	0,059
-375,088	-200,000	-0,020	0,099
-374,073	-45,520	0,111	-0,040
-373,058	49,660	0,049	0,033
-372,044	-70,398	0,136	0,037
-371,029	113,315	-0,059	-0,052
-370,015	800,000	0,042	0,117
-369,000	5,458	-0,056	0,030
-367,985	-200,000	0,004	0,032
-366,971	-118,400	0,086	-0,011
-365,956	405,630	0,074	-0,114
-364,942	-97,236	-0,015	0,003
-363,927	-200,000	0,018	0,086
-362,912	800,000	-0,053	-0,118
-361,898	324,374	0,069	-0,096
-360,883	800,000	0,027	-0,082
-359,869	-73,081	0,144	0,038
-358,854	-43,704	0,057	0,021
-357,839	800,000	0,022	0,046
-356,825	-200,000	0,004	0,020
-355,810	-126,498	-0,093	-0,010
-354,796	-146,334	-0,158	0,010
-353,781	800,000	-0,012	-0,029
-352,766	-82,193	-0,105	-0,024
-351,752	-200,000	0,017	0,057
-350,737	-200,000	-0,009	0,057
-349,723	197,049	0,034	0,038
-348,708	800,000	0,038	0,105
-347,693	85,328	0,070	0,056
-346,679	-51,806	-0,116	-0,039
-345,664	-200,000	0,007	-0,094
-344,650	161,064	-0,082	-0,084
-343,635	-133,521	0,196	0,018
-342,620	518,586	0,019	-0,032
-341,606	20,219	-0,057	-0,033
-340,591	-103,962	0,130	-0,022
-339,577	34,745	-0,073	0,046
-338,562	169,632	-0,074	0,077
-337,548	800,000	-0,008	-0,022
-336,533	-105,135	0,040	0,007
-335,518	800,000	-0,043	0,130
-334,504	-200,000	0,001	0,056
-333,489	282,961	0,029	0,038
-332,475	327,716	-0,058	0,081
-331,460	-200,000	0,026	-0,101
-330,445	-200,000	0,010	0,086
-329,431	105,983	0,052	0,044
-328,416	48,437	0,031	0,021
-327,402	800,000	-0,016	0,051
-326,387	-34,893	0,082	0,032
-325,372	-4,677	-0,073	-0,036
-324,358	105,912	-0,023	0,020
-323,343	319,811	0,064	-0,089
-322,329	151,821	0,028	-0,028
-321,314	-200,000	-0,019	0,078
-320,299	800,000	-0,008	0,019
-319,285	-123,515	0,103	0,012
-318,270	-200,000	0,002	-0,076
-317,256	136,937	-0,130	-0,123
-316,241	-156,162	0,091	-0,004
-315,226	-200,000	0,044	-0,171
-314,212	25,605	0,004	0,002
-313,197	40,110	-0,125	-0,081
-312,183	-98,253	0,078	0,014
-311,168	800,000	0,020	0,058
-310,153	79,758	0,008	0,006
-309,139	101,363	-0,032	-0,027
-308,124	93,652	0,054	0,044
-307,110	4,982	0,129	0,069
-306,095	-89,474	-0,037	0,008
-305,080	278,681	0,012	0,016
-304,066	-80,695	-0,127	0,030
-303,051	800,000	-0,082	-0,217
-302,037	-139,417	0,058	-0,004
-301,022	315,074	-0,053	0,072
-300,008	38,670	0,062	-0,040
-298,993	800,000	0,014	-0,030
-297,978	800,000	-0,073	0,160
-296,964	-23,632	-0,110	-0,047
-295,949	431,423	-0,042	-0,066
-294,935	800,000	-0,065	-0,140
-293,920	-200,000	0,005	-0,133
-292,905	-17,310	0,046	-0,021
-291,891	-94,298	0,091	0,018
-290,876	-200,000	-0,001	0,029
-289,862	800,000	-0,023	0,050
-288,847	3,097	-0,052	-0,027
-287,832	-14,583	-0,047	0,022
-286,818	800,000	0,064	-0,147
-285,803	654,143	0,042	-0,078
-284,789	239,807	0,085	0,102
-283,774	246,379	-0,049	0,059
-282,759	-33,340	0,134	0,053
-281,745	-56,726	-0,142	-0,045
-280,730	212,056	-0,068	-0,078
-279,716	-3,274	0,081	0,040
-278,701	582,272	-0,029	0,052
-277,686	-116,640	0,112	-0,015
-276,672	-200,000	0,004	0,077
-275,657	-200,000	0,028	0,181
-274,643	348,090	-0,064	0,092
-273,628	-200,000	0,019	0,062
-272,613	800,000	0,040	-0,088
-271,599	116,235	0,128	0,113
-270,584	-200,000	-0,003	0,098
-269,570	-200,000	-0,009	-0,101
-268,555	-200,000	-0,014	0,084
-267,540	-2,541	-0,064	0,032
-266,526	-10,114	0,041	0,020
-265,511	-87,935	-0,097	-0,021
-264,497	554,772	0,013	-0,023
-263,482	800,000	0,008	0,020
-262,467	-49,390	-0,053	0,018
-261,453	59,392	-0,081	0,057
-260,438	-101,576	0,127	0,022
-259,424	-19,516	-0,085	-0,038
-258,409	-200,000	0,017	-0,153
-257,395	800,000	0,032	0,064
-256,380	225,430	-0,052	0,061
-255,365	-200,000	0,006	0,140
-254,351	49,499	0,017	0,012
-253,336	800,000	-0,010	-0,025
-252,322	3,182	-0,037	-0,019
-251,307	334,210	-0,044	0,061
-250,292	-26,737	-0,029	-0,012
-249,278	-114,480	-0,079	-0,011
-248,263	105,573	0,061	0,052
-247,249	-200,000	-0,009	-0,034
-246,234	-200,000	0,012	0,079
-245,219	422,266	-0,062	-0,096
-244,205	320,816	-0,030	0,041
-243,190	-65,031	0,114	0,033
-242,176	194,413	-0,082	0,090
-241,161	-56,764	-0,202	0,064
-240,146	-60,799	-0,041	-0,012
-239,132	-140,802	-0,046	0,003
-238,117	-200,000	-0,004	0,044
-237,103	-200,000	-0,032	-0,157
-236,088	687,862	-0,019	0,036
-235,073	25,462	0,142	0,085
-234,059	273,432	0,077	0,099
-233,044	-200,000	-0,010	-0,060
-232,030	-200,000	-0,024	0,169
-231,015	9,807	-0,096	-0,052
-230,000	-200,000	0,003	-0,018
-228,986	-106,729	-0,121	-0,019
-227,971	-29,712	-0,075	-0,031
-226,957	-91,949	-0,076	-0,015
-225,942	171,301	0,058	-0,060
-224,927	-200,000	0,021	-0,140
-223,913	48,058	-0,188	-0,126
-222,898	574,868	0,027	-0,047
-221,884	-101,007	-0,073	0,013
-220,869	426,343	0,049	0,076
-219,855	773,706	0,074	0,146
-218,840	-200,000	0,001	0,121
-217,825	-200,000	-0,206	-0,001
-216,811	262,634	0,073	0,091
-215,796	30,630	-0,016	-0,010
-214,782	-200,000	-0,008	-0,141
-213,767	-62,687	0,091	-0,027
-212,752	-200,000	0,001	0,018
-211,738	34,419	0,108	-0,068
-210,723	800,000	0,034	0,088
-209,709	-200,000	-0,015	0,140
-208,694	800,000	-0,051	-0,129
-207,679	-200,000	-0,032	-0,122
-206,665	33,379	-0,068	-0,043
-205,650	-36,783	-0,093	0,036
-204,636	-1,294	-0,075	0,038
-203,621	334,189	0,068	0,095
-202,606	800,000	-0,027	0,083
-201,592	-66,370	-0,103	0,029
-200,577	-75,004	-0,076	-0,020
-199,563	-200,000	-0,003	-0,076
-198,548	61,539	0,111	0,080
-197,533	-71,330	0,133	-0,036
-196,519	800,000	0,014	0,031
-195,504	-106,030	0,049	0,008
-194,490	-58,705	-0,059	0,018
-193,475	88,612	-0,042	0,034
-192,460	-188,124	0,093	-0,001
-191,446	800,000	-0,050	0,147
-190,431	595,905	-0,041	0,073
-189,417	-130,999	-0,037	-0,003
-188,402	-85,316	0,066	0,015
-187,387	451,107	0,031	0,050
-186,373	800,000	-0,039	0,101
-185,358	135,921	-0,024	0,023
-184,344	-200,000	-0,017	0,088
-183,329	234,411	0,103	0,122
-182,315	-117,976	0,027	-0,003
-181,300	207,396	-0,018	0,020
-180,285	800,000	0,039	-0,094
-179,271	-16,111	0,075	-0,034
-178,256	57,890	-0,075	0,053
-177,242	608,441	-0,040	0,072
-176,227	-125,052	-0,052	0,006
-175,212	800,000	0,024	-0,072
-174,198	103,653	0,055	0,047
-173,183	33,321	-0,076	0,047
-172,169	-200,000	-0,015	-0,086
-171,154	-200,000	-0,002	0,086
-170,139	-127,745	0,139	0,014
-169,125	93,264	0,155	0,126
-168,110	-200,000	-0,001	-0,020
-167,096	-102,750	0,010	-0,002
-166,081	-200,000	-0,005	-0,093
-165,066	-200,000	0,043	-0,150
-164,052	-75,218	-0,180	-0,046
-163,037	800,000	-0,025	-0,055
-162,023	178,179	-0,053	-0,056
-161,008	-41,696	0,124	0,045
-159,993	54,871	0,009	0,006
-158,979	-150,814	-0,019	-0,001
-157,964	800,000	0,038	-0,089
-156,950	-106,551	-0,142	-0,023
-155,935	800,000	0,057	0,160
-154,920	-200,000	0,017	0,093
-153,906	800,000	-0,043	-0,095
-152,891	196,538	-0,064	0,070
-151,877	36,851	0,089	-0,056
-150,862	-167,582	-0,086	-0,002
-149,847	800,000	0,051	-0,143
-148,833	-200,000	0,003	-0,102
-147,818	-200,000	0,020	-0,198
-146,804	146,758	0,018	0,017
-145,789	800,000	-0,053	-0,113
-144,775	-30,205	-0,103	0,042
-143,760	2,327	-0,103	-0,053
-142,745	-188,073	-0,032	0,000
-141,731	-200,000	0,014	-0,132
-140,716	-200,000	-0,026	-0,102
-139,702	461,642	-0,065	-0,105
-138,687	-57,955	0,064	0,020
-137,672	-200,000	0,033	-0,149
-136,658	-56,113	-0,168	-0,053
-135,643	-200,000	0,037	-0,241
-134,629	-98,488	-0,127	0,023
-133,614	-200,000	0,003	-0,014
-132,599	800,000	0,020	-0,051
-131,585	240,264	-0,028	-0,033
-130,570	628,985	-0,052	-0,095
-129,556	-43,677	0,103	0,037
-128,541	-200,000	0,007	-0,218
-127,526	328,528	0,056	0,078
-126,512	248,866	-0,031	0,037
-125,497	-200,000	-0,024	0,084
-124,483	800,000	0,024	-0,055
-123,468	85,919	-0,069	-0,055
-122,453	46,492	-0,137	-0,091
-121,439	-200,000	-0,022	0,169
-120,424	36,596	0,066	0,042
-119,410	366,163	0,040	0,058
-118,395	-164,423	0,211	0,007
-117,380	-59,139	0,121	0,037
-116,366	-103,443	-0,069	0,012
-115,351	800,000	-0,037	-0,112
-114,337	-200,000	-0,007	-0,051
-113,322	42,864	0,019	0,013
-112,307	199,902	0,077	0,085
-111,293	247,163	-0,054	0,066
-110,278	-39,181	-0,108	-0,040
-109,264	-42,792	-0,055	0,020
-108,249	155,869	-0,035	-0,035
-107,234	-8,117	-0,111	-0,053
-106,220	607,415	0,023	-0,041
-105,205	289,842	0,037	0,048
-104,191	318,171	0,053	0,072
-103,176	800,000	0,075	0,182
-102,162	-200,000	0,010	0,033
-101,147	-200,000	-0,016	-0,147
-100,132	259,635	-0,099	-0,123
-99,118	-200,000	-0,010	-0,090
-98,103	248,993	-0,024	0,029
-97,089	-118,348	-0,055	-0,007
-96,074	-1,711	0,037	-0,019
-95,059	800,000	0,061	-0,126
-94,045	-200,000	-0,012	-0,130
-93,030	130,314	0,121	-0,112
-92,016	-200,000	0,018	0,118
-91,001	800,000	0,026	0,063
-89,986	-157,715	0,125	0,005
-88,972	-200,000	0,023	0,087
-87,957	-200,000	0,028	-0,105
-86,943	-200,000	-0,005	0,078
-85,928	-124,888	-0,066	0,007
-84,913	-200,000	-0,005	-0,070
-83,899	-140,511	0,031	-0,002
-82,884	257,890	0,036	0,045
-81,870	-148,564	-0,082	0,005
-80,855	148,523	-0,063	-0,061
-79,840	-51,865	0,088	0,029
-78,826	-200,000	-0,011	-0,069
-77,811	224,368	0,008	0,010
-76,797	-200,000	0,008	0,098
-75,782	-200,000	-0,004	0,089
-74,767	-14,176	0,087	-0,040
-73,753	52,135	-0,020	-0,014
-72,738	550,863	0,067	-0,115
-71,724	-200,000	0,003	-0,142
-70,709	800,000	0,035	-0,111
-69,694	-58,440	0,144	0,045
-68,680	593,134	0,066	-0,118
-67,665	25,110	-0,066	0,039
-66,651	-131,936	0,134	0,012
-65,636	37,115	0,010	0,006
-64,622	552,423	0,031	0,053
-63,607	28,382	-0,066	0,040
-62,592	-140,183	-0,059	0,004
-61,578	64,746	0,057	-0,041
-60,563	-174,098	-0,041	-0,001
-59,549	289,609	-0,143	0,186
-58,534	32,119	-2,159	-1,330
-57,519	-200,000	-0,177	-0,646
-56,505	-200,000	-1,370	-5,036
-55,490	149,989	0,786	0,764
-54,476	800,000	5,493	12,200
-53,461	-200,000	18,284	300,512
-52,446	800,000	733,199	2251,000
-51,432	533,874	1646,301	2803,595
-50,417	107,469	1633,895	1391,429
-49,403	71,347	1284,854	953,565
-48,388	29,973	1025,737	624,623
-47,373	19,642	987,880	567,589
-46,359	17,524	975,554	553,564
-45,344	14,307	971,740	540,883
-44,330	14,624	970,144	541,007
-43,315	14,084	968,110	538,093
-42,300	13,962	967,085	537,106
-41,286	13,955	966,270	536,609
-40,271	14,003	965,379	536,248
-39,257	14,045	964,370	535,804
-38,242	14,003	963,599	535,216
-37,227	14,013	962,772	534,769
-36,213	13,996	961,798	534,151
-35,198	13,924	961,126	533,524
-34,184	13,966	960,312	533,187
-33,169	13,959	959,379	532,624
-32,154	13,981	958,552	532,216
-31,140	13,963	957,473	531,539
-30,125	13,981	957,006	531,316
-29,111	14,035	955,856	530,829
-28,096	14,111	955,176	530,676
-27,082	14,003	954,560	529,966
-26,067	14,065	953,693	529,661
-25,052	14,015	952,935	529,059
-24,038	14,021	952,453	528,790
-23,023	14,029	951,823	528,446
-22,009	14,052	951,122	528,109
-20,994	14,035	950,468	527,669
-19,979	14,037	949,959	527,372
-18,965	13,996	949,273	526,839
-17,950	13,994	948,735	526,513
-16,936	13,951	948,048	525,975
-15,921	13,947	947,320	525,539
-14,906	13,907	946,476	524,921
-13,892	13,903	946,031	524,642
-12,877	13,957	945,172	524,314
-11,863	13,881	944,789	523,842
-10,848	13,902	944,162	523,537
-9,833	13,984	943,740	523,543
-8,819	13,999	943,034	523,180
-7,804	13,937	942,449	522,638
-6,790	13,898	941,903	522,190
-5,775	13,922	941,199	521,856
-4,760	13,916	940,485	521,421
-3,746	13,852	940,099	520,982
-2,731	13,743	939,274	520,162
-1,717	13,682	938,838	519,708
-0,702	13,692	938,024	519,267
0,313	13,573	937,151	519,193
1,327	16,920	935,254	528,609
2,342	26,091	788,130	469,537
3,356	22,669	443,900	259,381
4,371	-5,953	296,548	144,612
5,386	-9,512	278,193	132,270
6,400	-10,807	272,589	128,389
7,415	-10,942	270,224	127,139
8,429	-11,060	268,749	126,325
9,444	-11,199	267,880	125,778
10,459	-11,230	267,104	125,374
11,473	-11,427	266,493	124,898
12,488	-11,404	265,981	124,668
13,502	-11,587	265,288	124,166
14,517	-11,526	265,095	124,119
15,531	-11,719	264,673	123,737
16,546	-11,631	264,081	123,528
17,561	-11,716	263,743	123,283
18,575	-11,472	263,443	123,351
19,590	-11,672	263,141	123,018
20,604	-11,552	262,848	122,979
21,619	-11,657	262,534	122,726
22,634	-11,736	262,031	122,409
23,648	-11,851	261,819	122,197
24,663	-11,725	261,431	122,118
25,677	-11,868	261,507	122,014
26,692	-11,851	261,103	121,830
27,707	-12,006	260,837	121,558
28,721	-11,717	260,450	121,623
29,736	-11,779	260,210	121,445
30,750	-11,871	259,786	121,155
31,765	-11,906	259,749	121,096
32,780	-11,817	259,557	121,074
33,794	-11,916	259,109	120,767
34,809	-11,837	259,016	120,782
35,823	-11,729	258,664	120,702
36,838	-11,824	258,448	120,507
37,853	-12,058	258,182	120,167
38,867	-11,917	258,052	120,219
39,882	-11,998	257,630	119,942
40,896	-11,925	257,520	119,943
41,911	-12,024	257,314	119,750
42,926	-12,034	257,055	119,610
43,940	-12,145	256,837	119,401
44,955	-12,234	256,593	119,199
45,969	-12,228	256,332	119,072
46,984	-12,162	256,099	119,011
47,999	-12,487	255,942	118,644
49,013	-12,471	255,384	118,388
50,028	-12,659	255,191	118,125
51,042	-12,721	254,949	117,949
52,057	-12,512	254,606	117,961
53,071	-12,593	254,735	117,940
54,086	-12,306	254,335	117,992
55,101	-12,356	254,289	117,917
56,115	-12,281	254,181	117,921
57,130	-11,589	253,954	118,404
58,144	-11,444	253,870	118,479
59,159	-11,360	253,683	118,454
60,174	-11,550	253,515	118,201
61,188	-11,898	253,412	117,843
62,203	-11,693	253,079	117,854
63,217	-11,758	252,799	117,657
64,232	-11,569	252,605	117,719
65,247	-11,519	252,282	117,600
66,261	-11,644	252,102	117,399
67,276	-11,805	251,717	117,072
68,290	-12,190	251,466	116,616
69,305	-12,302	251,289	116,427
70,320	-12,173	250,946	116,368
71,334	-12,067	250,988	116,468
72,349	-11,674	250,893	116,748
73,363	-11,483	250,760	116,838
74,378	-11,635	250,569	116,609
75,393	-11,761	250,358	116,394
76,407	-11,863	250,135	116,193
77,422	-11,704	249,828	116,175
78,436	-11,709	249,733	116,116
79,451	-11,719	249,490	115,984
80,466	-11,732	249,009	115,740
81,480	-12,070	248,782	115,338
82,495	-12,068	248,616	115,252
83,509	-11,926	248,576	115,344
84,524	-12,047	248,399	115,149
85,539	-12,072	248,010	114,937
86,553	-12,257	248,023	114,777
87,568	-12,149	247,879	114,792
88,582	-12,112	247,598	114,682
89,597	-12,103	247,383	114,580
90,611	-11,872	247,235	114,695
91,626	-11,603	247,072	114,835
92,641	-11,905	246,943	114,511
93,655	-11,842	246,694	114,438
94,670	-11,984	246,439	114,191
95,684	-12,051	246,304	114,062
96,699	-11,909	246,056	114,056
97,714	-11,903	245,892	113,975
98,728	-12,124	245,664	113,675
99,743	-12,246	245,407	113,445
100,757	-12,342	245,233	113,274
101,772	-12,175	245,006	113,298
102,787	-12,323	244,812	113,075
103,801	-12,023	244,647	113,238
104,816	-11,817	244,553	113,355
105,830	-11,806	244,317	113,244
106,845	-11,615	244,180	113,328
107,860	-11,913	244,015	112,995
108,874	-11,911	243,789	112,883
109,889	-11,776	243,544	112,870
110,903	-11,903	243,357	112,669
111,918	-12,090	243,205	112,435
112,933	-11,874	243,146	112,575
113,947	-11,793	242,890	112,513
114,962	-11,969	242,734	112,286
115,976	-12,107	242,665	112,131
116,991	-11,754	242,289	112,237
118,006	-11,968	242,141	111,983
119,020	-11,742	242,228	112,198
120,035	-11,779	242,081	112,090
121,049	-11,715	241,741	111,975
122,064	-11,860	241,681	111,819
123,079	-11,939	241,503	111,661
124,093	-12,010	241,026	111,373
125,108	-12,312	241,012	111,110
126,122	-12,306	240,533	110,885
127,137	-12,425	240,444	110,737
128,151	-12,085	240,275	110,926
129,166	-12,172	240,219	110,819
130,181	-12,222	240,004	110,670
131,195	-12,103	239,809	110,666
132,210	-11,899	239,659	110,752
133,224	-11,758	239,322	110,701
134,239	-11,650	239,277	110,757
135,254	-11,842	239,244	110,577
136,268	-11,978	238,998	110,344
137,283	-12,203	238,631	109,983
138,297	-12,471	238,440	109,669
139,312	-12,312	238,273	109,711
140,327	-11,900	238,268	110,030
141,341	-11,477	238,245	110,350
142,356	-11,607	238,154	110,193
143,370	-11,279	237,835	110,299
144,385	-11,374	237,743	110,171
145,400	-11,504	237,534	109,960
146,414	-11,380	237,381	109,978
147,429	-11,437	237,163	109,822
148,443	-11,419	237,025	109,763
149,458	-11,445	236,763	109,611
150,473	-11,372	236,542	109,557
151,487	-11,379	236,273	109,417
152,502	-11,617	236,358	109,257
153,516	-11,408	236,097	109,294
154,531	-11,715	235,887	108,942
155,546	-11,645	235,920	109,003
156,560	-11,694	235,630	108,820
157,575	-11,682	235,345	108,688
158,589	-11,636	235,344	108,716
159,604	-11,546	235,104	108,666
160,619	-11,434	235,028	108,710
161,633	-11,587	234,859	108,501
162,648	-11,321	234,679	108,618
163,662	-11,591	234,444	108,287
164,677	-11,737	234,428	108,154
165,692	-11,271	234,122	108,371
166,706	-11,543	234,234	108,198
167,721	-11,443	233,894	108,111
168,735	-11,440	233,803	108,062
169,750	-11,361	233,631	108,034
170,764	-11,134	233,312	108,056
171,779	-11,370	233,351	107,878
172,794	-11,447	233,138	107,710
173,808	-11,495	232,801	107,507
174,823	-11,905	232,671	107,116
175,837	-12,203	232,299	106,702
176,852	-11,752	232,493	107,135
177,867	-11,300	232,335	107,406
178,881	-11,427	232,217	107,242
179,896	-11,286	232,059	107,270
180,910	-11,336	231,855	107,128
181,925	-11,277	231,752	107,116
182,940	-11,267	231,481	106,989
183,954	-11,187	231,301	106,958
184,969	-11,335	231,343	106,853
185,983	-11,301	231,112	106,764
186,998	-11,141	230,977	106,816
188,013	-11,150	230,866	106,748
189,027	-11,231	230,637	106,570
190,042	-11,104	230,423	106,559
191,056	-11,113	230,349	106,509
192,071	-11,177	230,156	106,361
193,086	-11,128	230,108	106,367
194,100	-10,987	229,941	106,390
195,115	-10,723	229,703	106,473
196,129	-10,136	230,050	107,079
197,144	-4,819	231,597	111,920
198,159	-0,040	233,019	116,323
199,173	2,727	233,702	118,811
200,188	2,964	233,694	118,981
201,202	2,809	233,394	118,698
202,217	3,028	233,450	118,886
203,232	3,192	233,389	118,972
204,246	3,748	233,179	119,286
205,261	3,592	233,124	119,126
206,275	3,860	232,994	119,257
207,290	3,936	232,898	119,256
208,304	3,817	232,629	119,016
209,319	3,593	232,600	118,817
210,334	3,635	232,298	118,685
211,348	3,490	232,153	118,487
212,363	3,016	231,890	117,977
213,377	2,807	231,733	117,725
214,392	2,726	231,553	117,561
215,407	3,012	231,331	117,658
216,421	3,118	231,316	117,721
217,436	3,094	230,943	117,502
218,450	2,728	230,839	117,158
219,465	2,670	230,707	117,036
220,480	2,729	230,601	117,017
221,494	2,791	230,462	116,984
222,509	2,916	230,432	117,054
223,523	3,041	230,248	117,046
224,538	3,044	229,903	116,862
225,553	3,080	229,782	116,818
226,567	2,929	229,775	116,689
227,582	3,123	229,621	116,748
228,596	3,174	229,495	116,712
229,611	2,855	229,408	116,414
230,626	2,614	229,060	116,044
231,640	2,727	228,860	116,018
232,655	2,923	228,967	116,211
233,669	3,296	228,839	116,420
234,684	3,398	228,576	116,353
235,699	3,289	228,651	116,298
236,713	3,005	228,262	115,874
237,728	3,195	227,939	115,844
238,742	2,728	227,813	115,417
239,757	2,881	227,793	115,512
240,772	3,025	227,594	115,509
241,786	3,074	227,334	115,404
242,801	3,221	227,430	115,553
243,815	3,408	227,371	115,655
244,830	3,212	227,200	115,409
245,844	3,347	226,748	115,271
246,859	3,129	226,731	115,088
247,874	3,335	226,576	115,154
248,888	3,084	226,426	114,879
249,903	3,214	226,289	114,896
250,917	3,042	226,143	114,683
251,932	2,835	226,091	114,491
252,947	2,787	225,850	114,323
253,961	2,702	225,694	114,170
254,976	3,070	225,531	114,353
255,990	2,959	225,494	114,241
257,005	3,213	225,342	114,344
258,020	3,131	225,268	114,235
259,034	3,298	225,073	114,250
260,049	2,996	225,022	113,989
261,063	3,164	224,796	113,990
262,078	3,200	224,699	113,957
263,093	3,335	224,476	113,934
264,107	3,363	224,358	113,885
265,122	3,449	224,155	113,835
266,136	3,587	224,200	113,951
267,151	3,385	223,955	113,666
268,166	3,036	223,693	113,264
269,180	2,698	223,561	112,937
270,195	2,992	223,434	113,080
271,209	2,604	223,312	112,721
272,224	3,125	223,081	112,980
273,239	3,034	222,832	112,777
274,253	2,750	222,774	112,527
275,268	2,784	222,579	112,444
276,282	2,703	222,503	112,336
277,297	2,836	222,204	112,272
278,312	2,950	222,168	112,328
279,326	2,987	222,075	112,299
280,341	2,891	221,998	112,179
281,355	3,167	221,872	112,308
282,370	3,128	221,610	112,137
283,384	2,863	221,378	111,815
284,399	2,807	221,369	111,760
285,414	2,603	221,210	111,520
286,428	2,856	221,253	111,717
287,443	3,108	221,067	111,797
288,457	2,954	220,850	111,565
289,472	3,025	220,594	111,477
290,487	2,582	220,416	111,055
291,501	2,435	220,350	110,904
292,516	2,401	220,288	110,839
293,530	2,804	220,040	110,997
294,545	2,711	219,985	110,892
295,560	2,867	219,776	110,890
296,574	3,053	219,696	110,975
297,589	2,842	219,613	110,770
298,603	2,983	219,531	110,821
299,618	2,887	219,321	110,635
300,633	3,155	219,244	110,781
301,647	3,238	219,153	110,786
302,662	3,520	218,812	110,807
303,676	3,136	218,805	110,516
304,691	3,217	218,540	110,431
305,706	3,259	218,478	110,420
306,720	3,207	218,332	110,298
307,735	2,967	217,996	109,946
308,749	2,912	217,947	109,873
309,764	3,018	217,897	109,914
310,779	3,330	217,853	110,106
311,793	3,164	217,744	109,922
312,808	2,900	217,629	109,664
313,822	3,169	217,286	109,675
314,837	3,158	217,103	109,564
315,852	2,689	216,973	109,154
316,866	2,867	216,937	109,253
317,881	3,177	216,821	109,407
318,895	2,982	216,776	109,235
319,910	3,019	216,371	109,047
320,925	2,694	216,269	108,755
321,939	2,447	216,117	108,492
322,954	2,660	216,022	108,586
323,968	2,965	215,999	108,782
324,983	3,053	215,901	108,785
325,997	3,302	215,685	108,844
327,012	2,857	215,623	108,487
328,027	2,992	215,466	108,495
329,041	3,229	215,355	108,597
330,056	3,503	215,150	108,679
331,070	2,892	214,935	108,127
332,085	2,332	214,652	107,579
333,100	2,528	214,577	107,670
334,114	3,001	214,602	108,008
335,129	2,998	214,567	107,979
336,143	3,004	214,158	107,767
337,158	2,965	214,188	107,745
338,173	2,996	214,125	107,726
339,187	2,826	213,767	107,416
340,202	2,939	213,695	107,450
341,216	2,884	213,628	107,368
342,231	2,861	213,424	107,240
343,246	3,069	213,252	107,290
344,260	2,903	213,255	107,165
345,275	2,989	213,191	107,184
346,289	3,099	212,994	107,152
347,304	2,924	212,868	106,957
348,319	3,209	212,706	107,066
349,333	3,161	212,473	106,905
350,348	3,138	212,397	106,841
351,362	3,237	212,414	106,910
352,377	3,146	212,306	106,782
353,392	2,989	212,025	106,522
354,406	3,058	211,999	106,547
355,421	197,038	1336,109	1415,238
356,435	157,492	1473,011	1415,186
