DTS Sentinel unit serial number:	SN410029Multiplexer serial number:	ORYXHardware model number:	OX2-SRSoftware version number:	ORYX F/W v4,00 Oryx Data Collector v3.7.2.0data status	okinstallation	B6 Nyhavnadifferential loss correction	single-endedforward channel	channel 2reverse channel	N/Adate	2023/12/09time	00:35:08forward acquisition time	300,00reverse acquisition time	0,00gamma	499,1914k internal	0,3157k external	0,3157temperature offset calibration	1,0000default loss term (dB/km)	0,3820temperature slope calibration	1,0000multiplexer offset coefficient	1,0000multiplexer slope coefficient	1,0000fibre end	0,00T internal ref (°C)	15,62T ext. ref 1 (°C)	-0,78T ext. ref 2 (°C)	-0,80length (m)	temperature (°C)	Stokes	anti-Stokes-744,400	387,116	0,101	0,155
-743,385	2,347	-0,172	0,091
-742,371	-57,260	0,228	0,074
-741,356	-108,391	-0,244	-0,038
-740,342	149,342	0,063	0,063
-739,327	-95,784	-0,342	0,067
-738,312	594,339	0,042	-0,076
-737,298	-158,225	-0,391	-0,017
-736,283	99,242	0,074	0,063
-735,269	-181,861	-0,229	-0,003
-734,254	-64,224	0,124	0,037
-733,239	-112,352	-0,672	-0,098
-732,225	-117,160	0,103	0,014
-731,210	-42,814	-0,106	0,040
-730,196	-171,849	0,059	0,001
-729,181	-84,063	0,132	0,031
-728,167	85,944	-0,047	0,038
-727,152	-45,611	0,048	-0,017
-726,137	31,759	-0,076	0,048
-725,123	-200,000	-0,007	0,138
-724,108	156,562	-0,028	-0,028
-723,094	800,000	0,040	-0,093
-722,079	-29,308	-0,069	0,029
-721,064	-200,000	-0,029	-0,111
-720,050	-200,000	-0,017	-0,175
-719,035	419,425	-0,066	-0,105
-718,021	-0,938	-0,036	0,019
-717,006	25,539	-0,160	-0,098
-715,991	411,573	-0,111	-0,174
-714,977	463,052	-0,029	-0,048
-713,962	-200,000	-0,021	-0,070
-712,948	800,000	-0,013	-0,041
-711,933	800,000	-0,034	-0,075
-710,918	-139,525	-0,023	-0,002
-709,904	201,701	-0,021	-0,024
-708,889	-72,742	0,057	-0,015
-707,875	-24,375	-0,057	0,025
-706,860	15,922	0,079	0,046
-705,845	43,690	-0,069	-0,046
-704,831	441,980	0,088	0,143
-703,816	7,981	-0,107	-0,059
-702,802	-103,626	0,018	0,003
-701,787	350,476	0,032	-0,046
-700,772	800,000	0,019	-0,051
-699,758	132,369	0,014	-0,013
-698,743	-51,667	-0,073	0,025
-697,729	-68,673	0,167	-0,047
-696,714	-200,000	0,006	0,029
-695,699	-40,028	0,131	0,050
-694,685	-200,000	0,031	-0,124
-693,670	-200,000	0,010	-0,172
-692,656	329,539	0,059	-0,084
-691,641	-107,977	0,132	-0,021
-690,627	-36,237	-0,036	-0,014
-689,612	-10,306	-0,135	-0,066
-688,597	-200,000	0,023	-0,094
-687,583	442,861	-0,043	-0,070
-686,568	-10,865	-0,031	-0,015
-685,554	-200,000	-0,019	-0,101
-684,539	-94,003	0,152	0,030
-683,524	-200,000	-0,025	0,127
-682,510	-142,343	0,218	-0,016
-681,495	74,155	-0,059	0,045
-680,481	45,899	-0,067	-0,045
-679,466	-160,082	0,154	-0,006
-678,451	-200,000	-0,007	-0,087
-677,437	-200,000	-0,002	-0,008
-676,422	-105,833	0,106	-0,017
-675,408	-45,470	-0,163	-0,059
-674,393	-200,000	-0,002	0,047
-673,378	800,000	0,019	0,056
-672,364	139,822	-0,135	-0,131
-671,349	-130,649	0,071	0,007
-670,335	-200,000	0,008	-0,075
-669,320	-106,697	-0,140	-0,023
-668,305	-94,328	-0,103	0,020
-667,291	15,366	-0,040	0,023
-666,276	-200,000	0,003	-0,012
-665,262	166,285	-0,127	-0,132
-664,247	195,554	0,014	-0,016
-663,232	-143,322	-0,087	-0,006
-662,218	-200,000	-0,004	-0,104
-661,203	-200,000	-0,003	0,026
-660,189	388,607	0,029	0,044
-659,174	-200,000	-0,010	-0,126
-658,159	406,795	-0,032	0,050
-657,145	184,518	-0,039	0,042
-656,130	18,077	0,165	0,096
-655,116	-113,178	0,100	-0,014
-654,101	-24,157	-0,107	0,047
-653,086	800,000	-0,038	0,101
-652,072	238,547	-0,104	-0,127
-651,057	800,000	-0,020	-0,046
-650,043	-0,005	-0,108	0,056
-649,028	-37,228	0,061	-0,024
-648,014	-98,964	0,040	-0,007
-646,999	-84,571	-0,141	-0,032
-645,984	71,798	-0,068	0,052
-644,970	627,611	-0,024	-0,045
-643,955	29,286	0,084	-0,052
-642,941	-200,000	0,006	0,052
-641,926	-200,000	-0,021	0,078
-640,911	-188,574	0,072	0,001
-639,897	-68,845	-0,062	0,017
-638,882	270,295	-0,072	0,093
-637,868	97,260	-0,052	0,044
-636,853	-198,083	-0,048	0,000
-635,838	148,635	-0,079	-0,079
-634,824	-200,000	-0,006	-0,055
-633,809	-200,000	-0,030	0,116
-632,795	-60,706	-0,046	0,014
-631,780	-111,114	0,072	0,011
-630,765	-200,000	-0,006	-0,119
-629,751	-3,295	-0,027	-0,014
-628,736	-200,000	-0,021	0,084
-627,722	-47,911	0,108	0,038
-626,707	639,510	-0,065	-0,122
-625,692	39,059	0,042	-0,028
-624,678	448,855	0,058	-0,094
-623,663	66,226	-0,078	0,058
-622,649	39,057	0,020	0,013
-621,634	299,388	0,080	-0,109
-620,619	-32,003	0,160	-0,065
-619,605	103,610	-0,126	0,108
-618,590	-200,000	0,025	0,170
-617,576	-68,270	0,115	0,032
-616,561	-50,108	-0,036	0,012
-615,546	111,788	-0,031	-0,028
-614,532	800,000	-0,034	-0,102
-613,517	-111,582	0,045	0,007
-612,503	394,559	-0,074	0,114
-611,488	-67,090	-0,086	0,025
-610,474	-139,609	0,151	-0,012
-609,459	-82,496	-0,070	-0,017
-608,444	-82,637	-0,089	0,021
-607,430	170,693	0,026	0,027
-606,415	-200,000	-0,029	-0,150
-605,401	-127,174	0,038	0,004
-604,386	303,645	0,074	0,100
-603,371	-109,183	0,027	-0,004
-602,357	11,016	-0,095	0,053
-601,342	254,956	-0,047	-0,059
-600,328	-95,281	0,093	-0,018
-599,313	800,000	-0,038	-0,106
-598,298	73,258	0,093	0,071
-597,284	183,529	0,136	0,148
-596,269	-135,275	-0,049	-0,004
-595,255	-200,000	-0,023	-0,119
-594,240	456,322	0,053	-0,086
-593,225	-136,509	-0,148	-0,012
-592,211	-200,000	0,038	-0,146
-591,196	-200,000	0,030	-0,116
-590,182	122,993	0,025	0,023
-589,167	-200,000	0,028	0,100
-588,152	-136,000	-0,099	0,008
-587,138	-106,023	-0,118	0,019
-586,123	131,306	-0,099	-0,093
-585,109	401,173	0,069	-0,107
-584,094	-115,117	-0,009	0,001
-583,079	-43,102	0,047	-0,017
-582,065	318,919	0,095	-0,132
-581,050	474,092	0,047	0,077
-580,036	97,338	0,116	-0,098
-579,021	-108,912	-0,091	0,014
-578,006	402,052	0,064	-0,098
-576,992	-200,000	0,016	-0,054
-575,977	357,614	-0,028	0,041
-574,963	114,002	0,042	0,038
-573,948	249,604	0,042	0,053
-572,934	-91,234	0,047	-0,010
-571,919	-200,000	0,000	-0,029
-570,904	39,643	0,090	-0,059
-569,890	42,714	-0,068	-0,045
-568,875	800,000	0,019	0,044
-567,861	797,434	-0,042	-0,086
-566,846	31,666	-0,084	-0,053
-565,831	19,138	-0,160	0,093
-564,817	-200,000	-0,005	-0,050
-563,802	800,000	-0,066	-0,162
-562,788	-200,000	-0,028	-0,094
-561,773	-106,528	0,053	-0,009
-560,758	-200,000	0,004	0,026
-559,744	-57,898	-0,035	-0,011
-558,729	-200,000	0,016	-0,131
-557,715	800,000	0,015	0,043
-556,700	-92,537	-0,061	0,012
-555,685	800,000	-0,061	-0,155
-554,671	-200,000	-0,008	0,053
-553,656	-200,000	-0,018	-0,078
-552,642	32,131	0,062	-0,039
-551,627	125,779	-0,111	0,103
-550,612	800,000	0,040	0,103
-549,598	-28,037	-0,108	-0,045
-548,583	800,000	-0,034	-0,081
-547,569	-82,526	-0,084	-0,020
-546,554	-200,000	0,011	-0,049
-545,539	-200,000	-0,014	0,059
-544,525	81,107	0,098	0,078
-543,510	231,562	-0,082	-0,099
-542,496	-200,000	-0,001	-0,022
-541,481	-200,000	-0,021	0,072
-540,466	-200,000	-0,014	-0,102
-539,452	-108,104	0,142	-0,022
-538,437	-81,206	0,160	-0,038
-537,423	-200,000	0,019	-0,071
-536,408	224,089	-0,098	-0,116
-535,393	800,000	-0,055	-0,168
-534,379	800,000	0,030	0,062
-533,364	800,000	0,041	-0,110
-532,350	800,000	-0,019	-0,057
-531,335	-200,000	0,003	0,072
-530,321	-1,457	0,046	0,024
-529,306	118,199	0,005	0,005
-528,291	261,606	0,019	0,024
-527,277	-8,082	-0,049	-0,024
-526,262	-200,000	-0,001	0,004
-525,248	800,000	0,025	-0,053
-524,233	166,991	0,024	-0,025
-523,218	-200,000	0,001	0,014
-522,204	800,000	-0,052	-0,112
-521,189	78,323	0,082	0,064
-520,175	-200,000	-0,003	-0,123
-519,160	154,881	-0,087	0,088
-518,145	155,708	-0,089	0,090
-517,131	232,166	0,026	0,031
-516,116	-199,019	0,202	-0,001
-515,102	-10,656	-0,027	-0,013
-514,087	800,000	-0,034	-0,096
-513,072	50,779	-0,010	-0,007
-512,058	-200,000	0,010	0,099
-511,043	-200,000	0,029	0,144
-510,029	479,332	0,115	0,191
-509,014	392,602	0,042	0,065
-507,999	-109,758	-0,122	0,019
-506,985	800,000	0,055	-0,121
-505,970	-200,000	0,004	-0,071
-504,956	-25,736	0,094	-0,040
-503,941	-138,761	-0,024	-0,002
-502,926	419,175	-0,024	0,038
-501,912	139,865	0,086	-0,083
-500,897	-200,000	0,010	0,117
-499,883	800,000	-0,010	-0,022
-498,868	105,061	-0,038	-0,033
-497,853	73,788	0,059	0,045
-496,839	-200,000	0,000	-0,061
-495,824	198,846	0,061	0,068
-494,810	800,000	-0,027	0,055
-493,795	96,666	-0,018	-0,015
-492,781	-200,000	0,007	0,041
-491,766	-6,912	-0,195	-0,097
-490,751	-200,000	0,014	-0,106
-489,737	0,769	-0,092	-0,048
-488,722	800,000	-0,024	-0,071
-487,708	-200,000	0,005	-0,098
-486,693	-64,035	0,138	-0,041
-485,678	-35,486	-0,103	-0,041
-484,664	-115,147	-0,106	0,014
-483,649	0,431	-0,163	-0,085
-482,635	143,408	-0,087	-0,085
-481,620	-21,038	0,057	-0,025
-480,605	634,441	-0,096	0,178
-479,591	-200,000	-0,009	0,135
-478,576	29,001	0,092	0,057
-477,562	418,698	-0,011	-0,018
-476,547	3,288	-0,049	-0,026
-475,532	-62,627	0,073	0,022
-474,518	527,759	-0,046	0,080
-473,503	-200,000	0,019	-0,090
-472,489	370,127	-0,074	0,109
-471,474	800,000	0,035	-0,101
-470,459	800,000	0,048	-0,111
-469,445	-137,782	-0,078	-0,006
-468,430	255,644	0,031	-0,039
-467,416	800,000	0,023	0,057
-466,401	-12,846	-0,025	-0,012
-465,386	256,055	0,018	0,023
-464,372	-119,704	-0,090	-0,011
-463,357	-140,863	0,070	0,005
-462,343	-200,000	-0,011	-0,175
-461,328	-9,697	-0,105	0,051
-460,313	-11,180	0,041	0,019
-459,299	-200,000	0,014	-0,184
-458,284	114,122	0,104	-0,092
-457,270	800,000	0,011	-0,026
-456,255	370,959	-0,046	-0,067
-455,241	-159,864	-0,031	-0,001
-454,226	464,355	0,064	-0,105
-453,211	-200,000	-0,005	0,084
-452,197	521,228	0,029	0,050
-451,182	108,360	0,066	0,058
-450,168	122,949	-0,087	-0,079
-449,153	-200,000	-0,001	-0,031
-448,138	800,000	0,064	0,132
-447,124	-177,905	-0,134	-0,002
-446,109	49,090	0,037	0,025
-445,095	-134,304	0,044	0,004
-444,080	-45,562	-0,118	-0,042
-443,065	325,423	0,042	0,058
-442,051	132,746	-0,054	0,051
-441,036	-95,679	0,061	0,012
-440,022	-200,000	0,002	-0,117
-439,007	800,000	0,051	-0,136
-437,992	477,448	0,065	0,108
-436,978	171,545	0,134	0,140
-435,963	800,000	-0,046	-0,109
-434,949	-200,000	-0,011	-0,049
-433,934	800,000	-0,028	-0,069
-432,919	-169,176	-0,091	-0,002
-431,905	128,154	0,075	-0,069
-430,890	538,393	-0,069	-0,119
-429,876	4,636	0,045	-0,024
-428,861	141,722	0,115	0,111
-427,846	44,202	-0,126	-0,084
-426,832	-150,606	-0,156	0,009
-425,817	-124,843	-0,086	0,010
-424,803	-41,825	-0,016	-0,006
-423,788	-20,985	0,083	-0,037
-422,773	7,787	0,020	0,011
-421,759	-5,299	-0,110	0,055
-420,744	76,768	0,141	0,108
-419,730	-91,639	0,063	-0,013
-418,715	-200,000	-0,011	-0,062
-417,701	-200,000	0,017	-0,077
-416,686	-22,676	-0,120	0,053
-415,671	9,958	0,111	0,061
-414,657	-109,370	0,078	0,012
-413,642	-73,301	0,054	0,014
-412,628	-6,368	0,051	0,025
-411,613	22,869	-0,112	0,067
-410,598	157,368	0,049	-0,050
-409,584	-186,773	0,077	-0,001
-408,569	165,012	0,107	0,110
-407,555	740,639	0,055	0,107
-406,540	-200,000	0,017	0,105
-405,525	-200,000	-0,003	0,116
-404,511	800,000	0,021	0,058
-403,496	800,000	0,024	0,059
-402,482	798,828	-0,044	0,090
-401,467	-90,680	-0,119	0,025
-400,452	1,726	0,144	0,075
-399,438	-200,000	-0,009	0,089
-398,423	-99,123	-0,118	0,022
-397,409	317,789	0,031	-0,043
-396,394	268,553	-0,019	0,024
-395,379	79,133	0,160	-0,124
-394,365	-200,000	0,016	-0,058
-393,350	82,828	-0,058	0,046
-392,336	-146,313	0,081	0,005
-391,321	800,000	-0,006	-0,018
-390,306	800,000	0,031	0,063
-389,292	137,332	-0,115	-0,109
-388,277	800,000	0,024	0,055
-387,263	241,656	0,079	0,096
-386,248	236,699	-0,032	-0,038
-385,233	-57,360	-0,016	0,005
-384,219	717,990	0,055	0,106
-383,204	-3,422	-0,113	0,057
-382,190	191,910	0,118	-0,130
-381,175	-200,000	-0,021	-0,121
-380,160	-60,431	0,111	0,034
-379,146	-165,862	0,211	0,006
-378,131	169,467	-0,054	-0,056
-377,117	-200,000	0,006	-0,031
-376,102	800,000	0,021	0,067
-375,088	-200,000	-0,019	-0,074
-374,073	207,645	-0,081	-0,092
-373,058	65,008	0,068	-0,050
-372,044	-200,000	-0,016	0,069
-371,029	800,000	-0,041	0,124
-370,015	701,672	0,017	0,033
-369,000	403,887	0,028	0,043
-367,985	-137,944	-0,119	0,009
-366,971	510,193	-0,046	-0,078
-365,956	142,757	0,008	-0,007
-364,942	-154,034	0,126	0,006
-363,927	208,389	-0,023	-0,026
-362,912	800,000	-0,051	0,104
-361,898	-200,000	0,009	-0,039
-360,883	-200,000	-0,028	0,097
-359,869	-200,000	0,002	-0,090
-358,854	-104,064	-0,072	-0,012
-357,839	-96,432	0,158	0,030
-356,825	-83,188	0,083	-0,019
-355,810	-46,986	0,054	-0,019
-354,796	11,674	-0,040	-0,022
-353,781	-104,086	-0,188	-0,031
-352,766	176,800	-0,091	0,096
-351,752	800,000	0,037	-0,080
-350,737	-200,000	0,053	-0,193
-349,723	207,184	-0,091	-0,103
-348,708	-184,464	0,205	0,002
-347,693	800,000	0,018	0,052
-346,679	-33,021	0,078	-0,031
-345,664	278,013	0,043	-0,056
-344,650	152,107	-0,116	0,115
-343,635	38,905	0,087	0,056
-342,620	-85,740	-0,062	0,014
-341,606	224,803	0,059	0,069
-340,591	648,481	-0,052	0,097
-339,577	145,911	0,036	0,035
-338,562	-39,719	0,012	0,005
-337,548	205,127	-0,044	0,050
-336,533	-29,836	0,070	0,029
-335,518	-94,186	-0,038	0,007
-334,504	200,601	-0,033	0,036
-333,489	-152,849	-0,161	-0,008
-332,475	-160,085	-0,036	0,001
-331,460	150,425	-0,048	-0,048
-330,445	800,000	-0,027	-0,060
-329,431	-115,669	0,111	0,015
-328,416	297,498	0,081	0,109
-327,402	281,054	-0,068	0,089
-326,387	5,016	0,092	0,049
-325,372	800,000	0,061	0,156
-324,358	-132,364	-0,019	-0,002
-323,343	46,265	-0,093	0,062
-322,329	298,641	-0,005	-0,006
-321,314	-200,000	0,049	0,178
-320,299	-99,172	0,073	-0,013
-319,285	800,000	-0,011	0,024
-318,270	-200,000	0,027	-0,136
-317,256	-200,000	-0,027	-0,148
-316,241	800,000	0,024	-0,056
-315,226	-200,000	0,006	-0,167
-314,212	395,431	-0,027	-0,042
-313,197	800,000	-0,037	0,097
-312,183	-70,685	0,121	0,033
-311,168	7,682	-0,177	0,096
-310,153	-139,708	-0,052	0,004
-309,139	-31,838	0,071	-0,029
-308,124	196,320	-0,065	-0,072
-307,110	-70,888	0,071	0,019
-306,095	7,328	0,056	-0,030
-305,080	458,166	0,092	-0,149
-304,066	604,694	0,063	0,115
-303,051	14,703	-0,047	-0,027
-302,037	-163,708	0,132	0,004
-301,022	487,100	-0,060	-0,100
-300,008	14,978	0,072	0,041
-298,993	356,912	0,010	-0,014
-297,978	338,304	-0,070	0,099
-296,964	733,906	0,017	0,034
-295,949	-40,349	-0,022	0,008
-294,935	398,649	-0,072	0,110
-293,920	-80,128	0,101	-0,024
-292,905	-11,738	-0,087	0,041
-291,891	21,389	0,052	-0,030
-290,876	93,006	0,010	-0,008
-289,862	-200,000	0,051	0,260
-288,847	-149,203	0,044	-0,003
-287,832	123,524	0,043	0,039
-286,818	326,917	-0,014	0,019
-285,803	-3,448	0,094	0,047
-284,789	711,363	-0,067	-0,129
-283,774	-31,454	0,054	-0,022
-282,759	83,530	-0,061	-0,048
-281,745	-41,814	-0,028	0,010
-280,730	202,621	-0,044	-0,049
-279,716	12,459	0,086	-0,048
-278,701	-110,385	-0,052	0,008
-277,686	380,618	0,066	-0,099
-276,672	210,716	-0,050	0,057
-275,657	-85,883	-0,184	0,041
-274,643	800,000	-0,027	-0,072
-273,628	326,864	0,037	-0,052
-272,613	-82,410	0,140	0,033
-271,599	-200,000	-0,002	0,104
-270,584	-17,739	0,035	0,016
-269,570	21,932	0,079	0,047
-268,555	-115,722	-0,068	0,009
-267,540	-25,945	-0,065	0,027
-266,526	-200,000	0,009	-0,148
-265,511	-81,749	-0,054	-0,013
-264,497	-200,000	-0,001	0,011
-263,482	-13,082	0,059	-0,028
-262,467	-200,000	0,016	0,065
-261,453	-90,061	0,042	0,009
-260,438	-200,000	0,004	0,030
-259,424	543,937	0,071	0,124
-258,409	-200,000	-0,033	0,128
-257,395	-200,000	0,006	-0,173
-256,380	-200,000	-0,018	-0,116
-255,365	245,915	0,022	0,026
-254,351	-200,000	-0,001	-0,030
-253,336	-104,156	0,035	0,006
-252,322	-200,000	0,018	-0,080
-251,307	-200,000	-0,004	0,016
-250,292	-154,373	-0,041	-0,002
-249,278	-39,327	0,037	0,014
-248,263	-46,570	0,039	-0,014
-247,249	-116,217	-0,089	-0,012
-246,234	499,040	-0,070	0,117
-245,219	283,373	-0,012	-0,016
-244,205	69,673	-0,116	0,087
-243,190	-141,284	-0,151	-0,011
-242,176	-200,000	0,002	0,023
-241,161	314,157	0,153	0,209
-240,146	-200,000	-0,012	0,102
-239,132	3,936	-0,055	0,029
-238,117	-200,000	0,004	-0,106
-237,103	51,957	-0,110	-0,076
-236,088	143,532	-0,070	0,067
-235,073	53,527	-0,072	0,050
-234,059	-145,131	0,122	0,008
-233,044	436,060	0,032	0,050
-232,030	104,588	-0,075	-0,064
-231,015	654,331	-0,024	0,046
-230,000	-117,642	-0,103	-0,013
-228,986	800,000	-0,038	-0,102
-227,971	457,626	0,104	0,168
-226,957	-200,000	-0,034	0,143
-225,942	-122,505	0,077	0,009
-224,927	800,000	-0,023	-0,069
-223,913	547,263	-0,056	-0,097
-222,898	163,285	0,043	-0,044
-221,884	181,225	0,059	-0,063
-220,869	-200,000	-0,002	-0,030
-219,855	1,793	0,067	-0,035
-218,840	-200,000	-0,019	0,128
-217,825	800,000	0,040	0,102
-216,811	283,546	0,030	-0,039
-215,796	-85,597	0,056	0,012
-214,782	121,155	-0,055	-0,049
-213,767	659,691	0,044	0,083
-212,752	87,976	-0,031	0,024
-211,738	113,443	0,117	0,103
-210,723	800,000	0,034	0,091
-209,709	800,000	-0,015	-0,036
-208,694	-146,888	-0,110	-0,007
-207,679	-131,784	0,088	0,008
-206,665	454,719	0,040	0,065
-205,650	800,000	0,037	0,076
-204,636	273,826	-0,087	0,111
-203,621	-200,000	0,000	0,038
-202,606	482,137	-0,062	0,102
-201,592	427,539	0,019	-0,029
-200,577	-200,000	-0,002	-0,083
-199,563	800,000	0,021	0,065
-198,548	-200,000	-0,045	0,170
-197,533	800,000	0,031	0,093
-196,519	800,000	-0,023	0,074
-195,504	-200,000	0,002	0,027
-194,490	334,340	0,013	-0,019
-193,475	40,607	-0,057	0,037
-192,460	-50,005	-0,041	-0,014
-191,446	-70,192	0,096	-0,026
-190,431	-200,000	0,001	0,022
-189,417	-122,221	0,033	-0,004
-188,402	-127,666	-0,093	0,010
-187,387	-46,857	-0,125	-0,044
-186,373	-200,000	-0,020	-0,108
-185,358	-26,090	0,019	0,008
-184,344	-51,163	-0,049	-0,017
-183,329	369,337	-0,010	0,015
-182,315	430,149	-0,028	-0,043
-181,300	327,065	-0,068	-0,094
-180,285	-37,079	0,044	-0,017
-179,271	-200,000	-0,004	0,039
-178,256	800,000	-0,049	-0,122
-177,242	356,537	0,052	-0,075
-176,227	38,915	0,178	0,115
-175,212	-41,101	-0,113	-0,042
-174,198	-17,492	-0,073	-0,033
-173,183	272,438	-0,061	-0,078
-172,169	333,010	-0,046	-0,064
-171,154	-79,028	-0,065	0,016
-170,139	-167,038	0,063	0,002
-169,125	53,541	0,098	-0,068
-168,110	800,000	0,030	0,065
-167,096	-115,081	-0,100	0,013
-166,081	-149,488	0,108	-0,006
-165,066	800,000	-0,093	-0,186
-164,052	369,990	0,005	-0,008
-163,037	-33,526	-0,017	0,007
-162,023	-84,555	0,046	-0,010
-161,008	-173,494	-0,045	0,001
-159,993	-200,000	0,014	0,102
-158,979	-22,597	0,049	0,021
-157,964	-127,158	-0,053	0,005
-156,950	-92,017	-0,084	0,017
-155,935	800,000	-0,040	0,104
-154,920	-3,387	0,105	0,053
-153,906	800,000	0,031	0,069
-152,891	-200,000	-0,001	0,058
-151,877	679,483	0,030	0,056
-150,862	82,526	-0,076	-0,059
-149,847	-39,508	0,054	-0,020
-148,833	-200,000	0,000	0,064
-147,818	-200,000	0,055	0,235
-146,804	-200,000	-0,011	0,116
-145,789	-200,000	-0,010	0,062
-144,775	21,490	-0,150	-0,088
-143,760	-144,893	0,115	0,007
-142,745	615,980	0,039	0,071
-141,731	135,733	-0,037	-0,035
-140,716	360,770	0,076	-0,109
-139,702	-52,486	0,127	0,042
-138,687	-200,000	0,005	0,088
-137,672	-123,576	-0,133	-0,015
-136,658	800,000	-0,085	-0,172
-135,643	-141,065	0,064	0,005
-134,629	-34,242	0,158	0,062
-133,614	-189,932	-0,029	-0,000
-132,599	-105,706	0,075	-0,012
-131,585	-0,662	0,146	0,074
-130,570	-63,596	-0,141	0,041
-129,556	-3,768	-0,100	-0,050
-128,541	800,000	0,008	-0,024
-127,526	800,000	0,039	-0,099
-126,512	197,066	-0,025	-0,027
-125,497	800,000	-0,024	0,054
-124,483	534,643	0,060	0,102
-123,468	-175,839	-0,120	0,002
-122,453	800,000	0,059	-0,174
-121,439	46,661	-0,109	-0,073
-120,424	-49,633	-0,070	0,024
-119,410	66,105	-0,038	-0,028
-118,395	-82,071	-0,028	-0,007
-117,380	-149,703	0,107	-0,006
-116,366	800,000	0,037	-0,094
-115,351	-200,000	0,008	-0,030
-114,337	-185,041	-0,110	-0,001
-113,322	122,188	0,071	-0,064
-112,307	-200,000	-0,016	0,056
-111,293	800,000	0,022	0,063
-110,278	269,602	0,049	-0,061
-109,264	-200,000	-0,006	0,025
-108,249	24,450	-0,068	-0,040
-107,234	-200,000	-0,000	-0,064
-106,220	-51,461	0,134	-0,045
-105,205	-200,000	0,013	-0,130
-104,191	-200,000	0,006	0,096
-103,176	594,147	0,039	0,070
-102,162	800,000	0,007	-0,019
-101,147	384,719	0,028	0,042
-100,132	271,127	0,079	-0,100
-99,118	1,330	-0,164	-0,084
-98,103	-116,861	0,086	0,011
-97,089	403,477	0,041	-0,062
-96,074	307,902	0,072	0,097
-95,059	-106,605	0,105	-0,017
-94,045	730,295	0,016	0,031
-93,030	31,542	0,062	-0,038
-92,016	-176,252	-0,101	-0,002
-91,001	-84,725	0,159	-0,036
-89,986	154,763	0,069	-0,068
-88,972	19,728	0,067	0,038
-87,957	671,332	-0,033	0,061
-86,943	800,000	-0,015	0,043
-85,928	462,044	-0,063	-0,102
-84,913	383,859	0,077	-0,114
-83,899	-21,288	-0,097	0,042
-82,884	29,118	0,059	-0,036
-81,870	-46,695	-0,041	-0,014
-80,855	-179,641	0,049	0,001
-79,840	-200,000	-0,000	-0,113
-78,826	800,000	-0,050	-0,123
-77,811	-101,258	-0,057	-0,010
-76,797	-60,835	0,021	0,006
-75,782	78,755	-0,069	-0,053
-74,767	25,852	-0,115	0,069
-73,753	-200,000	0,021	0,092
-72,738	-71,943	0,035	-0,009
-71,724	486,162	0,030	-0,049
-70,709	-200,000	-0,042	0,182
-69,694	52,688	-0,032	-0,022
-68,680	124,673	0,037	-0,033
-67,665	-127,634	0,115	-0,012
-66,651	24,064	-0,044	-0,026
-65,636	120,112	0,097	-0,087
-64,622	89,986	-0,065	-0,052
-63,607	246,240	0,067	0,081
-62,592	800,000	-0,041	-0,094
-61,578	563,082	0,062	-0,108
-60,563	795,964	-0,060	0,120
-59,549	-200,000	-0,002	-0,040
-58,534	0,074	-1,969	-1,004
-57,519	-200,000	-0,131	-0,957
-56,505	-200,000	-1,387	-4,852
-55,490	-16,445	0,800	0,363
-54,476	800,000	5,386	12,279
-53,461	-200,000	17,693	288,088
-52,446	800,000	723,838	2231,879
-51,432	540,833	1636,522	2808,693
-50,417	111,083	1628,061	1407,166
-49,403	74,510	1283,742	967,786
-48,388	32,289	1027,383	635,066
-47,373	19,993	989,710	571,222
-46,359	18,471	977,853	559,363
-45,344	15,952	973,903	548,834
-44,330	16,109	972,383	548,469
-43,315	15,692	970,626	546,094
-42,300	15,652	969,492	545,302
-41,286	15,600	968,473	544,539
-40,271	15,650	967,290	544,012
-39,257	15,664	966,655	543,680
-38,242	15,755	965,431	543,267
-37,227	15,656	964,958	542,656
-36,213	15,628	964,160	542,097
-35,198	15,628	963,227	541,550
-34,184	15,667	962,373	541,176
-33,169	15,637	961,380	540,497
-32,154	15,732	960,361	540,211
-31,140	15,665	959,607	539,549
-30,125	15,653	958,922	539,104
-29,111	15,601	958,222	538,521
-28,096	15,747	957,397	538,506
-27,082	15,750	956,965	538,250
-26,067	15,703	955,921	537,493
-25,052	15,666	955,070	536,875
-24,038	15,639	954,645	536,525
-23,023	15,585	953,878	535,899
-22,009	15,665	953,201	535,757
-20,994	15,654	952,495	535,301
-19,979	15,629	952,223	535,048
-18,965	15,681	951,384	534,722
-17,950	15,617	950,870	534,207
-16,936	15,583	950,413	533,821
-15,921	15,607	949,737	533,497
-14,906	15,528	948,785	532,688
-13,892	15,567	948,202	532,464
-12,877	15,500	947,662	531,926
-11,863	15,465	947,047	531,448
-10,848	15,571	946,426	531,415
-9,833	15,626	945,942	531,297
-8,819	15,618	945,281	530,880
-7,804	15,604	944,589	530,427
-6,790	15,530	944,124	529,909
-5,775	15,588	943,468	529,703
-4,760	15,581	942,777	529,274
-3,746	15,544	942,242	528,835
-2,731	15,438	941,640	528,139
-1,717	15,366	940,961	527,511
-0,702	15,403	940,171	527,163
0,313	15,176	939,603	526,923
1,327	18,539	937,693	536,406
2,342	27,765	791,412	477,074
3,356	24,401	445,257	263,395
4,371	-5,102	295,355	145,247
5,386	-9,003	276,916	132,474
6,400	-10,272	271,250	128,574
7,415	-10,448	269,166	127,412
8,429	-10,331	267,648	126,789
9,444	-10,568	266,732	126,128
10,459	-10,483	266,218	125,951
11,473	-10,556	265,578	125,570
12,488	-10,682	264,953	125,149
13,502	-10,934	264,524	124,708
14,517	-10,783	264,031	124,600
15,531	-10,802	263,618	124,378
16,546	-10,696	263,237	124,282
17,561	-10,889	262,918	123,947
18,575	-10,775	262,665	123,919
19,590	-10,797	262,167	123,653
20,604	-10,850	262,012	123,522
21,619	-10,763	261,689	123,437
22,634	-10,917	261,175	123,045
23,648	-10,927	260,935	122,912
24,663	-10,737	260,552	122,890
25,677	-10,919	260,479	122,682
26,692	-10,922	260,190	122,533
27,707	-11,069	259,928	122,268
28,721	-10,932	259,634	122,240
29,736	-10,967	259,350	122,065
30,750	-10,860	259,161	122,060
31,765	-11,024	258,921	121,790
32,780	-10,937	258,752	121,777
33,794	-10,718	258,352	121,772
34,809	-10,964	258,184	121,464
35,823	-11,107	257,899	121,193
36,838	-11,047	257,671	121,128
37,853	-11,155	257,444	120,915
38,867	-11,087	257,168	120,835
39,882	-10,955	256,851	120,791
40,896	-10,962	256,737	120,721
41,911	-11,125	256,585	120,496
42,926	-11,022	256,310	120,445
43,940	-11,034	256,003	120,280
44,955	-10,982	255,634	120,142
45,969	-11,245	255,421	119,801
46,984	-11,306	255,147	119,609
47,999	-11,630	255,009	119,252
49,013	-11,870	254,842	118,954
50,028	-11,895	254,411	118,721
51,042	-11,862	254,268	118,672
52,057	-11,883	253,930	118,485
53,071	-12,109	253,750	118,195
54,086	-11,644	253,762	118,594
55,101	-11,522	253,483	118,558
56,115	-11,477	253,460	118,575
57,130	-11,016	253,272	118,875
58,144	-10,783	253,186	119,025
59,159	-10,590	252,800	119,000
60,174	-10,613	252,688	118,916
61,188	-10,702	252,261	118,628
62,203	-10,829	252,239	118,498
63,217	-10,818	251,966	118,369
64,232	-10,751	251,687	118,284
65,247	-10,791	251,473	118,139
66,261	-10,853	251,264	117,977
67,276	-10,928	250,921	117,742
68,290	-11,299	250,753	117,335
69,305	-11,288	250,470	117,202
70,320	-11,507	250,299	116,925
71,334	-11,059	250,284	117,289
72,349	-10,837	250,186	117,422
73,363	-10,634	249,880	117,440
74,378	-10,875	249,780	117,178
75,393	-10,839	249,480	117,057
76,407	-10,810	249,374	117,022
77,422	-10,843	249,143	116,875
78,436	-10,957	248,857	116,634
79,451	-10,956	248,693	116,547
80,466	-11,056	248,378	116,305
81,480	-11,226	248,233	116,083
82,495	-11,145	247,991	116,028
83,509	-11,022	247,706	115,988
84,524	-11,295	247,623	115,708
85,539	-11,380	247,287	115,469
86,553	-11,314	246,998	115,381
87,568	-11,124	246,977	115,520
88,582	-11,155	246,674	115,341
89,597	-11,347	246,666	115,166
90,611	-11,162	246,583	115,272
91,626	-10,888	246,213	115,319
92,641	-11,228	246,221	115,028
93,655	-11,176	245,921	114,921
94,670	-11,146	245,674	114,819
95,684	-11,301	245,600	114,646
96,699	-10,965	245,306	114,779
97,714	-11,084	245,147	114,594
98,728	-11,230	244,801	114,301
99,743	-11,280	244,673	114,190
100,757	-11,421	244,476	113,971
101,772	-11,379	244,330	113,927
102,787	-11,087	244,101	114,052
103,801	-11,102	243,943	113,956
104,816	-11,240	243,958	113,839
105,830	-11,009	243,818	113,954
106,845	-11,004	243,592	113,843
107,860	-11,076	243,266	113,621
108,874	-10,896	242,972	113,621
109,889	-11,176	242,999	113,393
110,903	-11,195	242,682	113,220
111,918	-11,276	242,514	113,065
112,933	-11,123	242,334	113,096
113,947	-10,992	242,103	113,086
114,962	-11,109	241,989	112,926
115,976	-10,895	241,811	113,009
116,991	-11,162	241,666	112,712
118,006	-10,904	241,517	112,844
119,020	-11,121	241,342	112,575
120,035	-10,861	241,154	112,689
121,049	-10,934	241,030	112,561
122,064	-10,970	240,723	112,379
123,079	-11,029	240,661	112,292
124,093	-11,018	240,214	112,082
125,108	-11,400	240,196	111,753
126,122	-11,441	239,976	111,607
127,137	-11,517	239,742	111,426
128,151	-11,514	239,627	111,366
129,166	-11,175	239,333	111,494
130,181	-11,267	239,110	111,306
131,195	-11,484	239,077	111,104
132,210	-11,093	239,021	111,385
133,224	-10,974	238,657	111,302
134,239	-11,150	238,616	111,131
135,254	-11,029	238,412	111,123
136,268	-11,234	238,116	110,810
137,283	-11,403	237,911	110,569
138,297	-11,434	237,683	110,427
139,312	-11,523	237,576	110,297
140,327	-11,347	237,532	110,408
141,341	-10,645	237,508	110,951
142,356	-10,681	237,234	110,785
143,370	-10,745	237,221	110,717
144,385	-10,578	236,966	110,722
145,400	-10,669	236,747	110,538
146,414	-10,718	236,654	110,445
147,429	-10,855	236,571	110,286
148,443	-10,684	236,178	110,230
149,458	-10,614	236,101	110,240
150,473	-10,584	235,865	110,144
151,487	-10,753	235,715	109,930
152,502	-10,702	235,497	109,858
153,516	-10,652	235,406	109,846
154,531	-10,847	235,264	109,615
155,546	-10,758	235,135	109,616
156,560	-10,783	234,905	109,479
157,575	-10,987	234,589	109,160
158,589	-10,804	234,572	109,287
159,604	-10,522	234,322	109,385
160,619	-10,521	234,226	109,331
161,633	-10,669	234,139	109,164
162,648	-10,687	234,112	109,127
163,662	-10,806	233,831	108,893
164,677	-11,088	233,697	108,597
165,692	-10,615	233,449	108,846
166,706	-10,446	233,362	108,929
167,721	-10,556	233,370	108,836
168,735	-10,362	233,017	108,814
169,750	-10,526	232,794	108,572
170,764	-10,569	232,829	108,544
171,779	-10,425	232,569	108,526
172,794	-10,652	232,551	108,330
173,808	-10,750	232,275	108,115
174,823	-11,500	231,919	107,352
175,837	-11,372	231,644	107,316
176,852	-10,806	231,554	107,706
177,867	-10,807	231,611	107,723
178,881	-10,708	231,521	107,749
179,896	-10,672	231,444	107,731
180,910	-10,635	231,042	107,564
181,925	-10,453	230,958	107,657
182,940	-10,748	230,857	107,370
183,954	-10,342	230,717	107,611
184,969	-10,326	230,605	107,562
185,983	-10,495	230,447	107,347
186,998	-10,396	230,166	107,284
188,013	-10,255	230,012	107,312
189,027	-10,416	230,061	107,200
190,042	-10,286	229,754	107,148
191,056	-10,430	229,561	106,938
192,071	-10,441	229,470	106,877
193,086	-10,436	229,349	106,815
194,100	-10,490	229,121	106,657
195,115	-10,561	228,727	106,410
196,129	-11,136	228,642	105,918
197,144	-5,688	230,467	110,978
198,159	0,425	232,209	116,569
199,173	3,067	233,013	119,021
200,188	3,261	232,916	119,112
201,202	3,316	232,864	119,117
202,217	3,626	232,608	119,217
203,232	3,861	232,561	119,365
204,246	3,951	232,444	119,364
205,261	4,150	232,220	119,393
206,275	4,373	232,212	119,550
207,290	4,472	231,978	119,495
208,304	4,073	231,934	119,153
209,319	4,138	231,725	119,086
210,334	4,115	231,512	118,948
211,348	3,942	231,139	118,612
212,363	3,648	230,865	118,235
213,377	3,313	230,730	117,897
214,392	3,365	230,609	117,865
215,407	3,386	230,550	117,840
216,421	3,569	230,421	117,904
217,436	3,485	230,211	117,722
218,450	3,153	229,980	117,338
219,465	3,257	229,816	117,324
220,480	3,098	229,760	117,163
221,494	3,148	229,560	117,089
222,509	3,485	229,592	117,353
223,523	3,553	229,314	117,252
224,538	3,249	229,195	116,949
225,553	3,369	229,019	116,940
226,567	3,504	228,917	116,981
227,582	3,656	228,888	117,072
228,596	3,672	228,659	116,956
229,611	3,393	228,548	116,677
230,626	3,262	228,169	116,373
231,640	3,140	228,114	116,242
232,655	3,504	227,997	116,449
233,669	3,901	227,989	116,735
234,684	3,964	227,971	116,763
235,699	3,848	227,682	116,517
236,713	3,369	227,537	116,070
237,728	3,327	227,287	115,900
238,742	3,249	226,967	115,668
239,757	3,380	226,825	115,684
240,772	3,271	226,774	115,565
241,786	3,397	226,683	115,604
242,801	3,572	226,674	115,721
243,815	3,777	226,549	115,801
244,830	3,744	226,297	115,637
245,844	3,449	226,036	115,271
246,859	3,476	225,819	115,171
247,874	3,715	225,740	115,300
248,888	3,643	225,757	115,244
249,903	3,298	225,563	114,876
250,917	3,227	225,493	114,777
251,932	3,492	225,183	114,808
252,947	3,309	224,933	114,533
253,961	3,270	224,909	114,481
254,976	3,159	224,874	114,370
255,990	3,668	224,594	114,597
257,005	3,717	224,525	114,589
258,020	3,718	224,284	114,456
259,034	3,788	224,332	114,523
260,049	3,610	224,182	114,303
261,063	3,490	224,027	114,125
262,078	3,658	223,868	114,159
263,093	3,797	223,809	114,221
264,107	3,701	223,591	114,029
265,122	3,805	223,329	113,962
266,136	3,747	223,328	113,908
267,151	3,830	223,147	113,867
268,166	3,517	222,983	113,542
269,180	3,421	222,585	113,258
270,195	3,300	222,511	113,121
271,209	3,234	222,386	112,999
272,224	3,368	222,279	113,033
273,239	3,487	222,259	113,100
274,253	3,368	221,972	112,857
275,268	3,050	221,829	112,540
276,282	3,227	221,534	112,511
277,297	3,123	221,479	112,396
278,312	3,323	221,309	112,446
279,326	3,395	221,330	112,500
280,341	3,459	221,210	112,476
281,355	3,417	221,126	112,393
282,370	3,351	220,851	112,195
283,384	2,999	220,583	111,791
284,399	3,123	220,489	111,824
285,414	3,225	220,407	111,847
286,428	3,392	220,368	111,939
287,443	3,331	220,352	111,876
288,457	3,306	220,054	111,697
289,472	3,308	219,916	111,618
290,487	2,971	219,621	111,213
291,501	2,894	219,451	111,061
292,516	3,142	219,379	111,195
293,530	3,296	219,178	111,195
294,545	3,120	219,135	111,036
295,560	3,420	218,927	111,137
296,574	3,261	218,826	110,962
297,589	3,120	218,788	110,830
298,603	3,346	218,841	111,011
299,618	3,322	218,409	110,765
300,633	3,296	218,418	110,740
301,647	3,598	218,291	110,885
302,662	3,535	218,115	110,740
303,676	3,534	218,048	110,695
304,691	3,711	217,852	110,713
305,706	3,663	217,697	110,590
306,720	3,682	217,562	110,525
307,735	3,441	217,319	110,219
308,749	3,451	217,132	110,122
309,764	3,678	216,881	110,147
310,779	3,699	217,067	110,247
311,793	3,623	216,863	110,079
312,808	3,702	216,571	109,977
313,822	3,375	216,568	109,732
314,837	3,327	216,479	109,643
315,852	3,003	216,217	109,268
316,866	3,458	216,032	109,490
317,881	3,631	215,955	109,565
318,895	3,651	215,823	109,502
319,910	3,264	215,658	109,133
320,925	3,142	215,380	108,895
321,939	2,803	215,238	108,573
322,954	2,750	215,112	108,462
323,968	3,306	215,261	108,923
324,983	3,575	215,114	109,030
325,997	3,770	214,994	109,098
327,012	3,551	214,737	108,803
328,027	3,605	214,678	108,801
329,041	3,553	214,576	108,703
330,056	3,650	214,618	108,784
331,070	3,572	214,294	108,554
332,085	3,223	213,951	108,124
333,100	3,247	213,896	108,104
334,114	3,336	213,714	108,065
335,129	3,524	213,661	108,161
336,143	3,432	213,579	108,045
337,158	3,567	213,338	108,008
338,173	3,636	213,152	107,953
339,187	3,384	212,989	107,684
340,202	3,237	212,923	107,538
341,216	2,977	212,852	107,310
342,231	3,116	212,607	107,274
343,246	3,105	212,538	107,222
344,260	3,055	212,486	107,152
345,275	3,265	212,254	107,172
346,289	3,466	212,232	107,292
347,304	3,340	212,170	107,163
348,319	3,508	211,886	107,127
349,333	3,345	211,700	106,910
350,348	3,354	211,713	106,913
351,362	3,557	211,575	106,976
352,377	3,796	211,385	107,036
353,392	3,575	211,258	106,809
354,406	3,680	210,984	106,733
355,421	196,130	1340,603	1420,610
356,435	156,672	1478,220	1420,579
