DTS Sentinel unit serial number:	SN410029Multiplexer serial number:	ORYXHardware model number:	OX2-SRSoftware version number:	ORYX F/W v4,00 Oryx Data Collector v3.7.2.0data status	okinstallation	B6 Nyhavnadifferential loss correction	single-endedforward channel	channel 2reverse channel	N/Adate	2023/12/09time	16:20:08forward acquisition time	300,00reverse acquisition time	0,00gamma	499,1914k internal	0,3132k external	0,3132temperature offset calibration	1,0000default loss term (dB/km)	0,3820temperature slope calibration	1,0000multiplexer offset coefficient	1,0000multiplexer slope coefficient	1,0000fibre end	0,00T internal ref (°C)	20,84T ext. ref 1 (°C)	4,69T ext. ref 2 (°C)	4,68length (m)	temperature (°C)	Stokes	anti-Stokes-744,400	15,922	0,112	-0,065
-743,385	-19,284	-0,165	0,076
-742,371	256,869	0,021	0,027
-741,356	-22,446	-0,246	0,110
-740,342	-102,687	0,210	-0,037
-739,327	-93,520	-0,320	0,065
-738,312	74,577	-0,007	0,005
-737,298	-8,742	-0,304	0,151
-736,283	52,866	0,159	0,113
-735,269	81,032	-0,238	0,191
-734,254	-9,887	0,036	-0,018
-733,239	36,302	-0,319	-0,209
-732,225	-79,749	0,205	-0,051
-731,210	-200,000	-0,030	0,173
-730,196	-170,768	-0,033	-0,001
-729,181	315,411	-0,017	0,023
-728,167	76,114	0,044	-0,034
-727,152	-200,000	-0,007	-0,080
-726,137	96,404	-0,048	-0,041
-725,123	89,663	-0,152	-0,126
-724,108	398,008	-0,039	-0,061
-723,094	88,933	-0,114	-0,094
-722,079	-74,086	0,051	-0,014
-721,064	57,076	0,042	-0,031
-720,050	200,912	-0,080	-0,091
-719,035	-127,437	-0,063	0,007
-718,021	53,251	-0,119	-0,084
-717,006	512,827	0,028	-0,048
-715,991	80,650	-0,118	-0,094
-714,977	-24,373	-0,074	-0,033
-713,962	244,112	-0,030	-0,037
-712,948	-152,058	0,060	-0,003
-711,933	-200,000	0,009	-0,043
-710,918	207,479	-0,068	-0,079
-709,904	-200,000	0,005	0,045
-708,889	30,099	-0,170	-0,108
-707,875	-200,000	-0,007	0,085
-706,860	149,598	0,103	0,104
-705,845	-42,886	0,079	0,030
-704,831	-75,945	0,175	-0,046
-703,816	-200,000	0,019	0,063
-702,802	800,000	-0,033	-0,094
-701,787	800,000	-0,090	-0,188
-700,772	153,645	-0,069	-0,070
-699,758	721,574	-0,004	-0,008
-698,743	800,000	-0,025	-0,059
-697,729	-200,000	0,002	-0,025
-696,714	-200,000	-0,023	-0,211
-695,699	800,000	-0,042	-0,125
-694,685	244,492	-0,082	-0,102
-693,670	55,248	-0,113	-0,081
-692,656	672,462	-0,023	0,044
-691,641	1,636	0,073	-0,039
-690,627	4,975	0,090	-0,049
-689,612	40,514	-0,067	-0,045
-688,597	800,000	0,027	0,088
-687,583	-71,434	-0,124	-0,034
-686,568	260,025	0,011	0,015
-685,554	-200,000	0,032	-0,135
-684,539	-200,000	-0,001	-0,034
-683,524	0,142	0,026	0,014
-682,510	205,242	-0,075	-0,086
-681,495	-26,704	-0,048	-0,021
-680,481	-136,686	-0,100	-0,008
-679,466	193,956	-0,111	-0,124
-678,451	227,570	-0,031	-0,038
-677,437	800,000	-0,032	-0,090
-676,422	-71,141	-0,073	0,020
-675,408	254,298	-0,088	0,111
-674,393	286,340	0,074	-0,099
-673,378	-133,112	-0,157	-0,015
-672,364	51,703	0,050	0,035
-671,349	-35,598	-0,205	0,082
-670,335	-193,999	-0,117	-0,001
-669,320	698,323	0,037	-0,072
-668,305	63,314	-0,049	0,037
-667,291	50,508	-0,124	-0,087
-666,276	143,039	-0,054	-0,054
-665,262	365,886	0,023	-0,034
-664,247	-200,000	0,008	-0,084
-663,232	-83,638	-0,093	-0,022
-662,218	-13,973	0,034	0,016
-661,203	44,429	-0,052	0,035
-660,189	76,512	-0,100	-0,078
-659,174	-84,762	-0,222	-0,051
-658,159	13,428	-0,060	-0,034
-657,145	304,972	0,032	0,044
-656,130	-200,000	0,013	-0,125
-655,116	800,000	0,025	-0,063
-654,101	149,464	0,084	0,085
-653,086	30,211	-0,122	0,077
-652,072	-200,000	0,000	0,040
-651,057	248,082	0,022	0,028
-650,043	-200,000	-0,005	-0,021
-649,028	-200,000	0,009	0,150
-648,014	-200,000	0,014	0,115
-646,999	-200,000	0,039	0,173
-645,984	800,000	0,059	0,132
-644,970	336,413	-0,048	0,070
-643,955	351,009	0,058	-0,085
-642,941	518,385	-0,055	-0,096
-641,926	-130,741	-0,084	0,008
-640,911	39,066	0,100	0,066
-639,897	-200,000	0,011	0,045
-638,882	-200,000	-0,008	0,099
-637,868	64,793	0,041	-0,031
-636,853	-200,000	0,002	-0,136
-635,838	-200,000	0,010	0,033
-634,824	-200,000	-0,041	-0,139
-633,809	-112,056	0,134	-0,020
-632,795	-91,853	-0,072	0,015
-631,780	-54,997	0,121	-0,040
-630,765	65,800	-0,049	0,037
-629,751	-200,000	-0,007	0,156
-628,736	-200,000	0,009	-0,111
-627,722	800,000	-0,068	-0,179
-626,707	-119,793	0,134	-0,017
-625,692	-146,665	-0,054	-0,003
-624,678	-78,292	-0,049	0,012
-623,663	800,000	0,020	0,056
-622,649	160,283	-0,038	-0,039
-621,634	-90,216	-0,069	0,015
-620,619	800,000	-0,035	-0,098
-619,605	-200,000	-0,024	-0,084
-618,590	-26,382	0,107	-0,046
-617,576	245,407	0,035	0,044
-616,561	203,663	-0,073	0,084
-615,546	-81,621	-0,100	0,024
-614,532	-200,000	0,008	0,145
-613,517	24,546	0,102	-0,062
-612,503	41,434	0,014	0,009
-611,488	-91,325	0,212	0,044
-610,474	-200,000	-0,005	0,076
-609,459	-200,000	0,004	-0,103
-608,444	-200,000	0,010	-0,055
-607,430	800,000	-0,053	-0,150
-606,415	540,581	-0,085	-0,150
-605,401	115,764	-0,060	-0,054
-604,386	800,000	0,064	0,154
-603,371	-200,000	-0,006	-0,035
-602,357	268,980	0,042	-0,055
-601,342	-200,000	0,012	0,077
-600,328	800,000	-0,014	0,036
-599,313	255,962	-0,014	-0,018
-598,298	800,000	-0,026	-0,056
-597,284	-200,000	0,015	0,060
-596,269	800,000	0,054	0,112
-595,255	-200,000	-0,007	0,178
-594,240	-77,523	-0,098	0,025
-593,225	800,000	0,031	-0,099
-592,211	215,818	-0,014	-0,016
-591,196	20,629	0,074	0,044
-590,182	-94,713	-0,207	0,041
-589,167	356,884	0,082	0,121
-588,152	-200,000	-0,006	-0,075
-587,138	11,516	-0,117	0,066
-586,123	270,377	0,065	-0,084
-585,109	-58,869	0,048	-0,015
-584,094	275,801	0,072	-0,095
-583,079	-200,000	-0,014	-0,054
-582,065	58,184	-0,081	-0,058
-581,050	-96,810	-0,132	-0,025
-580,036	-52,344	-0,067	-0,023
-579,021	-200,000	0,014	-0,088
-578,006	112,854	0,037	-0,033
-576,992	13,470	-0,006	0,003
-575,977	-200,000	0,012	-0,054
-574,963	57,282	0,090	0,065
-573,948	-200,000	-0,009	-0,059
-572,934	253,181	0,096	-0,122
-571,919	192,189	-0,047	-0,053
-570,904	324,294	-0,079	-0,112
-569,890	800,000	-0,022	-0,070
-568,875	-111,944	0,150	-0,022
-567,861	172,359	-0,054	0,057
-566,846	800,000	-0,065	-0,151
-565,831	8,777	-0,069	0,038
-564,817	-45,451	-0,039	0,014
-563,802	800,000	-0,038	-0,116
-562,788	-75,242	0,059	-0,015
-561,773	-200,000	0,013	0,113
-560,758	-100,075	0,086	-0,016
-559,744	465,453	0,037	-0,061
-558,729	179,898	-0,017	-0,018
-557,715	86,833	0,081	0,066
-556,700	-133,208	0,094	-0,009
-555,685	451,534	0,079	-0,129
-554,671	-200,000	0,001	0,101
-553,656	149,025	-0,048	0,048
-552,642	621,185	-0,073	0,137
-551,627	644,330	0,022	0,042
-550,612	-195,028	-0,030	0,000
-549,598	-200,000	-0,036	-0,132
-548,583	-19,621	-0,041	0,019
-547,569	572,759	0,048	0,088
-546,554	211,909	-0,030	0,035
-545,539	-200,000	0,011	0,041
-544,525	265,853	-0,054	0,070
-543,510	316,437	-0,070	0,097
-542,496	30,892	-0,138	-0,087
-541,481	-56,951	-0,120	-0,039
-540,466	125,832	0,062	-0,058
-539,452	159,630	0,018	0,018
-538,437	-200,000	0,029	-0,107
-537,423	113,184	-0,017	0,015
-536,408	229,602	-0,038	0,046
-535,393	-200,000	-0,025	-0,083
-534,379	-200,000	0,022	0,000
-533,364	-200,000	-0,019	-0,176
-532,350	800,000	-0,034	0,108
-531,335	-72,244	0,124	-0,034
-530,321	28,496	-0,018	0,011
-529,306	-116,191	-0,087	0,012
-528,291	-200,000	-0,006	-0,025
-527,277	-81,246	-0,094	-0,023
-526,262	-161,321	-0,117	-0,004
-525,248	800,000	-0,042	0,123
-524,233	-89,901	0,194	0,041
-523,218	55,548	0,051	0,036
-522,204	22,284	0,023	-0,014
-521,189	1,531	0,049	-0,026
-520,175	-51,032	0,055	0,019
-519,160	-58,150	-0,098	-0,031
-518,145	-200,000	-0,010	0,106
-517,131	271,631	0,046	0,060
-516,116	-200,000	0,017	0,141
-515,102	23,518	-0,081	-0,049
-514,087	-87,755	-0,083	-0,018
-513,072	0,103	-0,067	0,035
-512,058	-200,000	0,026	0,089
-511,043	-102,683	0,062	-0,011
-510,029	-200,000	-0,002	-0,009
-509,014	800,000	0,037	0,103
-507,999	800,000	-0,022	-0,068
-506,985	248,740	0,031	-0,038
-505,970	-200,000	0,008	0,038
-504,956	470,547	-0,020	-0,034
-503,941	333,003	0,063	-0,091
-502,926	79,546	-0,014	-0,011
-501,912	800,000	0,023	-0,055
-500,897	6,580	-0,022	0,012
-499,883	313,097	-0,044	0,061
-498,868	-66,308	0,083	0,024
-497,853	-200,000	-0,021	0,115
-496,839	-200,000	0,026	0,130
-495,824	-200,000	-0,023	0,128
-494,810	-200,000	-0,030	0,119
-493,795	281,318	-0,056	0,074
-492,781	800,000	0,055	0,116
-491,766	-200,000	-0,047	0,154
-490,751	-20,710	0,041	0,018
-489,737	-200,000	-0,029	0,114
-488,722	303,764	-0,061	0,083
-487,708	-200,000	-0,004	0,015
-486,693	-200,000	0,038	0,141
-485,678	72,155	-0,083	0,064
-484,664	-105,012	-0,103	-0,017
-483,649	-200,000	-0,004	-0,070
-482,635	7,218	0,039	0,021
-481,620	42,833	-0,103	-0,069
-480,605	526,667	0,069	0,120
-479,591	-200,000	-0,009	0,055
-478,576	800,000	-0,009	-0,020
-477,562	-30,745	-0,093	-0,038
-476,547	800,000	0,013	-0,033
-475,532	39,261	0,036	0,024
-474,518	6,531	0,061	0,033
-473,503	139,401	-0,044	-0,043
-472,489	-42,666	0,089	-0,033
-471,474	119,561	0,108	0,098
-470,459	452,455	0,064	0,104
-469,445	-93,736	-0,041	-0,008
-468,430	-79,541	0,092	0,023
-467,416	-200,000	0,015	0,122
-466,401	28,450	0,091	-0,057
-465,386	-200,000	0,010	0,052
-464,372	582,263	-0,083	-0,150
-463,357	-171,040	-0,122	0,003
-462,343	167,956	-0,054	0,056
-461,328	-200,000	-0,023	0,078
-460,313	800,000	0,059	0,149
-459,299	-4,874	0,070	-0,035
-458,284	-50,044	-0,037	-0,013
-457,270	-77,660	-0,061	0,015
-456,255	-200,000	0,010	-0,130
-455,241	-67,114	0,046	-0,013
-454,226	-148,909	-0,143	-0,008
-453,211	13,622	-0,068	0,039
-452,197	474,675	0,036	-0,061
-451,182	-61,506	0,141	-0,043
-450,168	-78,031	-0,045	-0,011
-449,153	-74,326	-0,135	0,036
-448,138	-139,519	-0,066	-0,005
-447,124	-29,674	-0,105	-0,044
-446,109	-28,187	0,121	0,051
-445,095	-200,000	0,006	0,095
-444,080	93,541	-0,054	0,045
-443,065	-83,280	-0,048	0,011
-442,051	281,798	0,032	0,042
-441,036	59,151	-0,096	-0,070
-440,022	-146,792	-0,039	-0,002
-439,007	-200,000	0,015	0,065
-437,992	103,154	-0,104	0,089
-436,978	31,755	0,066	0,042
-435,963	-36,518	-0,115	-0,045
-434,949	688,446	0,064	-0,123
-433,934	800,000	0,062	-0,143
-432,919	-106,693	0,038	-0,006
-431,905	-200,000	0,023	0,000
-430,890	800,000	-0,015	-0,038
-429,876	-200,000	0,055	0,191
-428,861	-88,760	0,049	0,011
-427,846	-200,000	-0,009	0,062
-426,832	-66,666	-0,047	0,014
-425,817	-100,310	-0,120	-0,022
-424,803	-135,081	-0,088	-0,008
-423,788	-110,791	0,075	-0,011
-422,773	-0,974	0,123	0,064
-421,759	121,091	-0,063	0,058
-420,744	800,000	0,020	-0,060
-419,730	-128,613	-0,148	-0,015
-418,715	-200,000	0,021	0,000
-417,701	102,043	0,012	0,010
-416,686	-43,338	0,129	0,047
-415,671	-200,000	0,033	0,129
-414,657	-67,963	-0,099	0,028
-413,642	51,726	0,004	-0,003
-412,628	-78,891	-0,032	0,008
-411,613	800,000	-0,035	-0,107
-410,598	-38,592	-0,138	-0,053
-409,584	294,913	0,032	-0,044
-408,569	24,038	0,039	0,023
-407,555	-200,000	0,008	0,032
-406,540	-140,248	0,052	-0,004
-405,525	800,000	-0,035	-0,075
-404,511	53,895	-0,021	-0,015
-403,496	386,679	0,074	-0,112
-402,482	163,822	-0,221	0,228
-401,467	34,594	0,016	-0,010
-400,452	8,599	0,060	-0,033
-399,438	32,395	0,066	-0,042
-398,423	-200,000	0,018	-0,115
-397,409	-200,000	-0,011	0,050
-396,394	-65,228	-0,074	-0,022
-395,379	-41,593	0,041	0,015
-394,365	184,550	0,136	-0,148
-393,350	193,804	0,037	-0,042
-392,336	800,000	0,019	-0,061
-391,321	800,000	-0,034	0,070
-390,306	800,000	-0,033	0,076
-389,292	800,000	-0,072	-0,178
-388,277	9,256	0,122	-0,068
-387,263	27,853	0,053	0,033
-386,248	-200,000	0,025	0,118
-385,233	612,815	-0,060	0,111
-384,219	104,766	0,023	-0,020
-383,204	-18,621	0,042	-0,019
-382,190	800,000	-0,037	-0,081
-381,175	-84,706	0,064	0,015
-380,160	4,562	0,066	-0,035
-379,146	800,000	-0,035	0,094
-378,131	-200,000	0,022	-0,077
-377,117	-145,106	-0,067	-0,004
-376,102	418,562	0,014	0,022
-375,088	-88,690	-0,088	0,019
-374,073	-9,024	0,089	-0,044
-373,058	564,103	0,025	0,045
-372,044	33,163	0,079	0,050
-371,029	59,280	0,071	-0,051
-370,015	-200,000	0,019	0,067
-369,000	-157,501	-0,134	-0,006
-367,985	-11,520	-0,034	-0,016
-366,971	382,892	0,021	-0,031
-365,956	-125,105	0,164	-0,018
-364,942	231,709	-0,062	0,074
-363,927	-200,000	0,002	-0,180
-362,912	104,466	0,054	0,047
-361,898	-200,000	0,007	-0,112
-360,883	187,073	0,032	-0,035
-359,869	-50,279	0,075	-0,026
-358,854	-75,814	-0,042	0,011
-357,839	526,557	-0,038	-0,065
-356,825	790,398	0,087	-0,176
-355,810	800,000	-0,012	0,027
-354,796	-200,000	-0,025	-0,148
-353,781	310,355	-0,087	-0,120
-352,766	73,981	0,024	-0,018
-351,752	-72,388	-0,112	0,030
-350,737	43,584	-0,180	-0,120
-349,723	-94,510	-0,075	-0,015
-348,708	11,350	-0,058	0,033
-347,693	295,508	0,059	0,079
-346,679	-103,335	-0,130	0,022
-345,664	800,000	-0,055	-0,172
-344,650	175,890	-0,016	-0,017
-343,635	800,000	0,027	0,057
-342,620	131,735	-0,040	-0,038
-341,606	-200,000	-0,009	-0,197
-340,591	-200,000	-0,003	-0,055
-339,577	104,848	-0,062	-0,053
-338,562	159,582	0,137	0,140
-337,548	800,000	-0,027	0,080
-336,533	89,005	0,079	-0,064
-335,518	-72,779	0,044	0,012
-334,504	233,286	-0,064	0,077
-333,489	191,738	-0,130	-0,144
-332,475	-11,174	0,149	-0,071
-331,460	800,000	-0,053	-0,115
-330,445	205,653	0,080	0,091
-329,431	-12,482	0,084	0,040
-328,416	-158,134	0,073	-0,003
-327,402	43,578	0,084	0,056
-326,387	-108,978	-0,015	0,002
-325,372	-175,283	-0,035	-0,001
-324,358	-200,000	0,031	-0,166
-323,343	-84,063	-0,097	-0,022
-322,329	-200,000	-0,001	-0,017
-321,314	-200,000	0,039	-0,157
-320,299	-49,226	0,107	-0,037
-319,285	79,795	0,013	-0,010
-318,270	281,170	-0,124	-0,163
-317,256	-200,000	0,002	-0,087
-316,241	21,816	-0,102	-0,061
-315,226	436,223	-0,029	-0,047
-314,212	-200,000	0,039	0,167
-313,197	-75,511	0,038	0,010
-312,183	-46,900	-0,092	0,033
-311,168	654,919	0,032	0,061
-310,153	-132,644	-0,018	-0,002
-309,139	154,437	0,051	-0,051
-308,124	-144,656	-0,081	-0,005
-307,110	63,741	-0,055	-0,041
-306,095	313,403	0,054	0,075
-305,080	103,502	0,097	-0,083
-304,066	65,256	-0,119	-0,088
-303,051	24,007	-0,130	-0,078
-302,037	-200,000	-0,005	0,033
-301,022	800,000	-0,055	0,126
-300,008	-200,000	0,045	-0,145
-298,993	-200,000	0,033	0,113
-297,978	317,138	-0,044	-0,062
-296,964	-79,417	-0,088	-0,022
-295,949	800,000	0,032	-0,074
-294,935	339,223	-0,039	-0,056
-293,920	-61,634	0,095	-0,029
-292,905	656,470	0,049	-0,093
-291,891	148,550	0,080	0,079
-290,876	-200,000	-0,007	0,127
-289,862	330,665	-0,036	0,051
-288,847	800,000	-0,067	-0,165
-287,832	-40,667	-0,084	-0,032
-286,818	-79,262	0,082	0,020
-285,803	471,173	-0,123	0,203
-284,789	126,986	0,042	0,039
-283,774	-200,000	-0,002	-0,038
-282,759	-165,102	-0,175	-0,006
-281,745	800,000	0,011	-0,024
-280,730	-1,650	0,041	0,021
-279,716	-106,711	0,086	0,014
-278,701	216,015	0,038	0,044
-277,686	506,449	0,035	-0,059
-276,672	-200,000	0,019	0,062
-275,657	-130,158	-0,112	-0,011
-274,643	800,000	-0,023	-0,050
-273,628	-200,000	0,035	-0,130
-272,613	115,087	-0,047	0,042
-271,599	109,688	0,037	0,033
-270,584	-80,110	0,064	0,016
-269,570	-110,512	-0,046	0,007
-268,555	800,000	-0,057	-0,133
-267,540	-92,430	0,134	0,027
-266,526	-124,242	0,090	0,010
-265,511	-49,593	0,097	0,034
-264,497	-30,209	-0,095	0,039
-263,482	37,478	0,164	0,106
-262,467	-200,000	-0,031	0,145
-261,453	-24,285	-0,062	0,027
-260,438	341,866	0,028	0,039
-259,424	-21,470	-0,151	-0,067
-258,409	216,832	-0,033	-0,039
-257,395	-200,000	0,013	-0,126
-256,380	-200,000	0,032	0,145
-255,365	-15,589	0,135	0,063
-254,351	-93,614	0,057	0,011
-253,336	-200,000	0,012	-0,087
-252,322	283,774	0,044	-0,058
-251,307	800,000	0,014	-0,040
-250,292	-200,000	0,014	0,054
-249,278	-105,619	0,053	0,009
-248,263	-200,000	-0,028	0,128
-247,249	113,276	0,065	-0,057
-246,234	53,960	0,058	-0,041
-245,219	800,000	0,036	-0,075
-244,205	-69,343	0,057	-0,016
-243,190	800,000	0,076	0,208
-242,176	-139,993	0,076	0,006
-241,161	800,000	0,019	0,045
-240,146	389,436	0,084	0,128
-239,132	800,000	0,018	-0,052
-238,117	12,364	0,035	0,019
-237,103	27,729	0,081	0,050
-236,088	590,449	0,010	-0,018
-235,073	-200,000	-0,009	0,074
-234,059	-148,876	0,118	0,007
-233,044	-51,489	0,026	-0,009
-232,030	-168,520	-0,034	-0,001
-231,015	-61,493	-0,039	-0,012
-230,000	-120,931	-0,121	-0,015
-228,986	15,565	0,053	-0,031
-227,971	800,000	0,041	-0,095
-226,957	-72,460	0,093	0,025
-225,942	800,000	-0,023	0,065
-224,927	221,578	-0,035	0,041
-223,913	-62,073	-0,091	-0,028
-222,898	582,147	0,006	-0,012
-221,884	53,815	0,161	0,112
-220,869	800,000	-0,027	0,063
-219,855	-114,892	0,148	-0,020
-218,840	800,000	0,028	0,062
-217,825	800,000	-0,025	-0,066
-216,811	-98,847	0,014	0,003
-215,796	-134,304	-0,038	-0,003
-214,782	75,781	-0,134	0,103
-213,767	17,872	0,139	0,080
-212,752	-9,998	0,052	0,025
-211,738	97,344	-0,106	0,088
-210,723	-106,147	0,062	-0,010
-209,709	-142,799	-0,029	-0,002
-208,694	317,531	-0,025	0,034
-207,679	-141,691	-0,094	0,007
-206,665	800,000	0,065	0,134
-205,650	800,000	-0,062	-0,170
-204,636	-200,000	0,020	-0,098
-203,621	114,747	-0,036	0,032
-202,606	158,288	-0,047	-0,047
-201,592	-200,000	-0,012	0,072
-200,577	-200,000	0,016	-0,128
-199,563	-85,250	0,102	0,023
-198,548	77,078	-0,085	-0,066
-197,533	-56,472	-0,015	-0,005
-196,519	800,000	0,029	0,064
-195,504	365,215	0,074	-0,109
-194,490	312,877	-0,028	-0,039
-193,475	44,616	-0,097	0,065
-192,460	-32,324	-0,073	0,030
-191,446	800,000	0,026	0,058
-190,431	-200,000	-0,002	0,030
-189,417	800,000	0,021	-0,056
-188,402	800,000	-0,019	0,041
-187,387	650,456	-0,074	-0,138
-186,373	800,000	-0,044	-0,136
-185,358	800,000	-0,022	-0,054
-184,344	65,987	-0,037	-0,027
-183,329	-200,000	0,028	0,103
-182,315	-129,845	0,078	0,008
-181,300	-108,116	-0,060	-0,009
-180,285	-55,015	-0,054	-0,017
-179,271	800,000	-0,023	-0,067
-178,256	800,000	0,041	-0,122
-177,242	-200,000	0,008	0,055
-176,227	-134,307	0,155	-0,014
-175,212	675,946	0,030	0,057
-174,198	-133,409	-0,056	-0,005
-173,183	-200,000	0,019	-0,249
-172,169	38,334	0,172	-0,111
-171,154	186,313	-0,007	0,007
-170,139	-193,689	0,044	0,000
-169,125	-10,285	-0,048	0,023
-168,110	-6,461	-0,077	-0,038
-167,096	305,576	0,074	0,100
-166,081	800,000	0,015	-0,031
-165,066	42,498	-0,056	-0,037
-164,052	34,131	-0,027	-0,017
-163,037	374,160	-0,071	-0,106
-162,023	373,393	0,092	0,136
-161,008	64,012	-0,069	0,050
-159,993	483,631	-0,040	0,067
-158,979	97,784	-0,128	0,107
-157,964	222,885	-0,065	0,076
-156,950	-17,196	0,124	-0,057
-155,935	800,000	0,035	0,078
-154,920	800,000	0,025	-0,074
-153,906	-18,551	0,040	0,018
-152,891	330,422	0,056	0,079
-151,877	800,000	-0,045	0,095
-150,862	-200,000	-0,022	-0,170
-149,847	-119,789	-0,056	0,007
-148,833	155,213	0,093	-0,093
-147,818	-200,000	-0,041	-0,170
-146,804	351,746	0,085	0,123
-145,789	-109,795	0,020	0,003
-144,775	-45,822	-0,102	0,036
-143,760	-200,000	-0,018	0,080
-142,745	38,445	0,079	0,051
-141,731	-37,271	0,043	0,017
-140,716	-100,335	-0,031	-0,006
-139,702	362,836	0,084	-0,123
-138,687	69,182	-0,048	-0,035
-137,672	800,000	-0,045	0,136
-136,658	-127,249	-0,072	-0,008
-135,643	315,799	-0,022	0,030
-134,629	-200,000	0,009	-0,100
-133,614	374,078	0,083	0,124
-132,599	-151,391	0,178	-0,009
-131,585	-200,000	-0,007	0,076
-130,570	388,900	-0,027	0,040
-129,556	-200,000	-0,038	-0,196
-128,541	119,745	0,055	-0,049
-127,526	800,000	0,024	-0,054
-126,512	-72,829	0,122	-0,032
-125,497	-200,000	0,019	0,072
-124,483	-200,000	-0,005	0,058
-123,468	-195,893	0,098	-0,000
-122,453	12,033	0,074	-0,041
-121,439	530,239	-0,066	-0,114
-120,424	-103,249	-0,020	-0,003
-119,410	-13,776	0,061	-0,029
-118,395	-103,685	0,124	0,021
-117,380	205,459	-0,075	0,085
-116,366	-200,000	0,016	-0,055
-115,351	-45,163	0,172	-0,062
-114,337	-66,645	0,105	0,030
-113,322	-139,829	-0,162	0,012
-112,307	-200,000	0,028	-0,127
-111,293	789,062	-0,028	0,056
-110,278	-200,000	0,040	0,000
-109,264	-200,000	0,025	-0,094
-108,249	62,646	-0,083	0,060
-107,234	158,034	0,011	-0,011
-106,220	781,849	-0,027	0,053
-105,205	-54,799	-0,161	-0,052
-104,191	-38,937	0,073	0,028
-103,176	414,535	0,017	-0,026
-102,162	219,876	0,036	0,042
-101,147	457,251	-0,055	0,089
-100,132	-27,303	-0,071	0,030
-99,118	233,718	0,071	0,085
-98,103	405,676	0,047	0,072
-97,089	800,000	0,084	0,211
-96,074	-200,000	0,000	0,031
-95,059	-174,706	0,094	-0,002
-94,045	36,304	-0,046	0,029
-93,030	-82,805	-0,104	0,024
-92,016	-56,903	0,041	-0,013
-91,001	6,413	-0,019	-0,010
-89,986	800,000	0,051	-0,134
-88,972	-200,000	-0,015	-0,092
-87,957	-200,000	0,014	-0,069
-86,943	-200,000	-0,024	-0,104
-85,928	-33,845	-0,033	0,013
-84,913	-200,000	0,009	-0,077
-83,899	94,001	0,096	0,079
-82,884	-117,229	-0,087	-0,011
-81,870	-105,105	-0,159	-0,026
-80,855	694,893	-0,029	-0,056
-79,840	9,685	-0,055	-0,030
-78,826	13,135	0,031	0,017
-77,811	345,569	-0,097	-0,138
-76,797	-62,600	-0,076	0,023
-75,782	-200,000	-0,016	0,080
-74,767	-200,000	0,054	0,231
-73,753	-134,970	0,126	-0,011
-72,738	-84,666	-0,123	0,028
-71,724	-108,613	-0,053	-0,008
-70,709	800,000	-0,020	0,057
-69,694	-117,550	-0,106	-0,014
-68,680	-116,189	0,143	0,019
-67,665	179,913	-0,016	0,017
-66,651	800,000	-0,018	0,046
-65,636	307,513	0,041	-0,055
-64,622	-74,908	-0,059	0,015
-63,607	-174,436	0,072	0,001
-62,592	800,000	-0,030	0,086
-61,578	-200,000	0,029	-0,136
-60,563	522,014	-0,127	0,217
-59,549	-80,875	0,056	0,013
-58,534	-64,918	-1,587	-0,461
-57,519	800,000	-0,639	-1,291
-56,505	-200,000	-0,965	-4,530
-55,490	-72,296	0,690	-0,184
-54,476	800,000	5,046	11,757
-53,461	-200,000	14,683	261,183
-52,446	-200,000	696,774	2237,065
-51,432	565,245	1622,110	2856,907
-50,417	118,143	1629,542	1453,443
-49,403	75,325	1283,589	978,731
-48,388	37,455	1022,435	654,642
-47,373	23,081	981,928	581,517
-46,359	22,282	971,105	572,470
-45,344	21,101	966,741	566,025
-44,330	21,100	965,342	565,177
-43,315	20,904	963,785	563,608
-42,300	20,882	962,938	563,018
-41,286	20,960	961,872	562,627
-40,271	20,891	960,956	561,844
-39,257	20,929	960,016	561,396
-38,242	20,847	959,253	560,660
-37,227	20,848	958,195	560,025
-36,213	20,829	957,237	559,380
-35,198	20,840	956,534	558,984
-34,184	20,878	955,655	558,569
-33,169	20,809	954,867	557,864
-32,154	20,868	953,955	557,501
-31,140	20,904	953,220	557,164
-30,125	20,932	952,406	556,755
-29,111	20,919	951,508	556,166
-28,096	20,931	950,745	555,738
-27,082	20,894	950,187	555,270
-26,067	20,862	949,360	554,662
-25,052	20,823	948,673	554,115
-24,038	20,853	948,044	553,819
-23,023	20,881	947,334	553,472
-22,009	20,907	946,681	553,152
-20,994	20,822	946,157	552,555
-19,979	20,937	945,430	552,475
-18,965	20,980	944,733	552,182
-17,950	20,861	944,298	551,527
-16,936	20,914	943,536	551,229
-15,921	20,828	942,954	550,595
-14,906	20,798	942,185	550,026
-13,892	20,797	941,563	549,639
-12,877	20,714	941,079	549,071
-11,863	20,747	940,289	548,694
-10,848	20,779	939,844	548,513
-9,833	20,814	939,544	548,426
-8,819	20,777	938,861	547,888
-7,804	20,788	938,119	547,468
-6,790	20,739	937,659	547,025
-5,775	20,795	936,958	546,770
-4,760	20,816	936,404	546,491
-3,746	20,772	935,681	545,910
-2,731	20,640	935,007	545,079
-1,717	20,666	934,099	544,609
-0,702	20,613	933,641	544,154
0,313	20,417	933,137	544,064
1,327	23,523	931,113	552,585
2,342	32,918	793,555	495,869
3,356	30,431	450,617	277,815
4,371	0,268	295,023	151,700
5,386	-4,248	276,207	137,723
6,400	-5,402	270,485	133,783
7,415	-5,793	268,144	132,253
8,429	-5,515	266,806	131,836
9,444	-5,724	266,044	131,257
10,459	-5,685	265,412	130,969
11,473	-5,851	264,778	130,494
12,488	-5,812	264,296	130,279
13,502	-6,004	263,726	129,813
14,517	-5,892	263,327	129,706
15,531	-5,874	262,939	129,520
16,546	-5,855	262,640	129,378
17,561	-5,940	262,085	129,017
18,575	-5,762	261,705	128,978
19,590	-6,094	261,606	128,619
20,604	-5,883	261,310	128,652
21,619	-5,978	260,961	128,384
22,634	-5,876	260,534	128,253
23,648	-5,897	260,127	128,022
24,663	-6,013	260,007	127,849
25,677	-6,030	259,721	127,681
26,692	-5,875	259,419	127,660
27,707	-5,889	259,187	127,522
28,721	-6,165	258,939	127,142
29,736	-5,967	258,547	127,115
30,750	-6,125	258,618	126,998
31,765	-5,983	258,226	126,920
32,780	-5,777	257,853	126,908
33,794	-6,021	257,741	126,625
34,809	-5,940	257,492	126,564
35,823	-6,054	257,261	126,337
36,838	-6,074	256,955	126,158
37,853	-6,136	256,743	125,989
38,867	-6,092	256,451	125,873
39,882	-6,231	256,302	125,666
40,896	-5,925	255,978	125,765
41,911	-6,130	255,854	125,513
42,926	-6,061	255,641	125,458
43,940	-6,096	255,419	125,307
44,955	-6,020	255,117	125,214
45,969	-6,158	254,833	124,942
46,984	-6,322	254,726	124,736
47,999	-6,649	254,402	124,280
49,013	-6,896	254,225	123,968
50,028	-6,921	253,932	123,791
51,042	-6,754	253,531	123,730
52,057	-6,961	253,412	123,481
53,071	-6,913	253,399	123,506
54,086	-6,653	252,885	123,470
55,101	-6,528	252,925	123,586
56,115	-6,259	252,723	123,711
57,130	-6,010	252,655	123,881
58,144	-5,621	252,459	124,111
59,159	-5,910	252,457	123,849
60,174	-5,768	252,098	123,784
61,188	-5,831	251,753	123,550
62,203	-5,760	251,657	123,553
63,217	-6,075	251,609	123,246
64,232	-6,010	251,331	123,156
65,247	-5,721	250,991	123,226
66,261	-5,777	250,720	123,034
67,276	-5,889	250,356	122,749
68,290	-6,333	250,406	122,382
69,305	-6,376	250,011	122,141
70,320	-6,513	249,950	121,983
71,334	-6,129	249,718	122,187
72,349	-5,919	249,660	122,327
73,363	-5,813	249,481	122,319
74,378	-5,847	249,172	122,128
75,393	-5,974	248,904	121,877
76,407	-6,063	248,842	121,760
77,422	-6,155	248,603	121,554
78,436	-5,810	248,386	121,730
79,451	-6,076	248,336	121,469
80,466	-5,875	247,747	121,340
81,480	-6,027	247,632	121,144
82,495	-6,190	247,582	120,971
83,509	-6,140	247,203	120,817
84,524	-6,245	247,113	120,674
85,539	-6,386	246,935	120,458
86,553	-6,305	246,709	120,405
87,568	-6,225	246,530	120,374
88,582	-6,263	246,230	120,185
89,597	-6,319	246,190	120,107
90,611	-6,019	245,903	120,209
91,626	-5,945	245,863	120,241
92,641	-6,116	245,758	120,035
93,655	-6,403	245,536	119,675
94,670	-6,129	245,206	119,733
95,684	-6,157	245,137	119,666
96,699	-6,076	244,972	119,642
97,714	-6,287	244,734	119,339
98,728	-6,444	244,492	119,079
99,743	-6,295	244,372	119,134
100,757	-6,435	244,182	118,915
101,772	-6,443	243,953	118,785
102,787	-6,184	243,784	118,908
103,801	-6,277	243,749	118,803
104,816	-6,085	243,464	118,813
105,830	-6,058	243,432	118,809
106,845	-5,995	243,179	118,727
107,860	-6,103	242,926	118,504
108,874	-6,264	242,837	118,317
109,889	-6,230	242,516	118,177
110,903	-6,015	242,349	118,264
111,918	-6,244	242,120	117,952
112,933	-6,163	242,029	117,965
113,947	-6,132	241,833	117,884
114,962	-5,915	241,580	117,928
115,976	-5,993	241,351	117,743
116,991	-6,100	241,318	117,627
118,006	-6,037	241,179	117,601
119,020	-6,026	241,071	117,547
120,035	-5,824	240,867	117,603
121,049	-5,945	240,855	117,487
122,064	-6,046	240,541	117,240
123,079	-6,066	240,456	117,173
124,093	-6,259	240,127	116,843
125,108	-6,250	239,902	116,731
126,122	-6,305	239,590	116,524
127,137	-6,651	239,473	116,175
128,151	-6,519	239,362	116,217
129,166	-6,356	239,211	116,267
130,181	-6,325	238,952	116,156
131,195	-6,320	238,820	116,086
132,210	-6,399	238,749	115,976
133,224	-6,145	238,545	116,073
134,239	-5,983	238,286	116,068
135,254	-6,097	238,152	115,900
136,268	-5,923	237,805	115,862
137,283	-6,391	237,768	115,454
138,297	-6,446	237,507	115,274
139,312	-6,310	237,235	115,241
140,327	-6,212	237,250	115,317
141,341	-5,659	237,189	115,724
142,356	-5,660	237,012	115,626
143,370	-5,846	236,937	115,429
144,385	-5,580	236,619	115,478
145,400	-5,560	236,548	115,450
146,414	-5,543	236,380	115,371
147,429	-5,678	236,241	115,184
148,443	-5,694	235,861	114,976
149,458	-5,825	235,888	114,873
150,473	-5,606	235,795	114,994
151,487	-5,770	235,577	114,746
152,502	-5,810	235,374	114,604
153,516	-5,865	235,296	114,513
154,531	-5,733	235,055	114,490
155,546	-5,813	234,852	114,317
156,560	-5,829	234,754	114,247
157,575	-6,070	234,450	113,896
158,589	-6,072	234,354	113,838
159,604	-5,825	234,317	114,007
160,619	-5,633	233,971	113,981
161,633	-5,672	233,895	113,902
162,648	-5,776	233,759	113,744
163,662	-5,774	233,517	113,617
164,677	-5,677	233,395	113,625
165,692	-5,674	233,268	113,555
166,706	-5,506	233,129	113,611
167,721	-5,451	233,030	113,595
168,735	-5,609	232,912	113,403
169,750	-5,519	232,630	113,327
170,764	-5,626	232,590	113,212
171,779	-5,561	232,428	113,174
172,794	-5,799	232,301	112,916
173,808	-5,819	232,071	112,777
174,823	-6,275	231,795	112,275
175,837	-6,363	231,547	112,076
176,852	-6,031	231,541	112,323
177,867	-5,730	231,442	112,502
178,881	-5,589	231,370	112,567
179,896	-5,518	231,049	112,457
180,910	-5,407	231,065	112,541
181,925	-5,688	230,760	112,163
182,940	-5,745	230,743	112,100
183,954	-5,457	230,556	112,225
184,969	-5,769	230,472	111,929
185,983	-5,538	230,200	111,968
186,998	-5,485	229,944	111,875
188,013	-5,541	229,982	111,840
189,027	-5,463	229,758	111,781
190,042	-5,502	229,637	111,682
191,056	-5,616	229,371	111,454
192,071	-5,562	229,419	111,509
193,086	-5,616	229,019	111,264
194,100	-5,625	229,073	111,273
195,115	-5,639	228,695	111,068
196,129	-6,554	228,420	110,216
197,144	-3,673	229,358	112,897
198,159	0,631	230,873	116,990
199,173	3,713	231,229	119,562
200,188	4,080	231,196	119,821
201,202	4,173	230,956	119,758
202,217	4,183	230,747	119,647
203,232	4,292	230,940	119,820
204,246	4,228	230,812	119,694
205,261	4,553	230,541	119,795
206,275	4,610	230,381	119,745
207,290	4,503	230,426	119,675
208,304	4,505	230,136	119,515
209,319	4,480	230,038	119,434
210,334	4,486	229,856	119,334
211,348	4,222	229,538	118,954
212,363	3,988	229,207	118,592
213,377	3,699	229,078	118,292
214,392	3,691	228,884	118,175
215,407	3,793	228,912	118,257
216,421	3,784	228,923	118,245
217,436	3,646	228,511	117,916
218,450	3,430	228,341	117,652
219,465	3,378	228,096	117,476
220,480	3,535	228,022	117,547
221,494	3,354	228,006	117,390
222,509	3,770	227,825	117,604
223,523	3,917	227,496	117,537
224,538	3,625	227,323	117,214
225,553	3,553	227,363	117,169
226,567	3,746	227,233	117,239
227,582	4,138	227,111	117,464
228,596	3,953	226,959	117,234
229,611	3,739	226,777	116,967
230,626	3,533	226,449	116,631
231,640	3,504	226,427	116,587
232,655	3,802	226,353	116,765
233,669	4,047	226,354	116,941
234,684	4,337	226,164	117,053
235,699	4,186	225,903	116,793
236,713	3,790	225,761	116,409
237,728	3,799	225,505	116,273
238,742	3,568	225,389	116,028
239,757	3,597	225,188	115,936
240,772	3,513	225,032	115,783
241,786	3,612	224,873	115,765
242,801	3,850	224,938	115,968
243,815	4,037	224,867	116,062
244,830	4,058	224,719	115,990
245,844	3,739	224,469	115,611
246,859	3,928	224,188	115,598
247,874	3,788	224,159	115,468
248,888	3,965	223,882	115,448
249,903	3,707	223,871	115,238
250,917	3,544	223,688	115,012
251,932	3,889	223,500	115,163
252,947	3,624	223,385	114,895
253,961	3,472	223,282	114,718
254,976	3,693	223,035	114,746
255,990	3,758	222,984	114,758
257,005	3,977	222,765	114,798
258,020	4,025	222,639	114,759
259,034	4,135	222,642	114,833
260,049	3,864	222,482	114,538
261,063	3,966	222,292	114,506
262,078	4,074	222,148	114,502
263,093	4,156	222,056	114,505
264,107	4,062	221,922	114,356
265,122	3,853	221,773	114,114
266,136	4,102	221,586	114,192
267,151	4,139	221,471	114,150
268,166	3,912	221,074	113,767
269,180	3,653	220,888	113,470
270,195	3,477	220,870	113,321
271,209	3,701	220,639	113,357
272,224	3,587	220,666	113,277
273,239	4,001	220,395	113,433
274,253	3,589	220,165	113,001
275,268	3,315	220,138	112,776
276,282	3,527	219,829	112,763
277,297	3,519	219,712	112,687
278,312	3,361	219,776	112,594
279,326	3,622	219,660	112,716
280,341	3,940	219,460	112,836
281,355	3,662	219,460	112,623
282,370	3,696	219,257	112,533
283,384	3,578	218,973	112,291
284,399	3,141	218,911	111,929
285,414	3,452	218,802	112,091
286,428	3,643	218,629	112,132
287,443	4,043	218,480	112,337
288,457	4,009	218,437	112,281
289,472	3,646	218,169	111,868
290,487	3,268	217,935	111,463
291,501	3,254	217,934	111,443
292,516	3,416	217,669	111,415
293,530	3,341	217,633	111,332
294,545	3,474	217,454	111,327
295,560	3,637	217,277	111,345
296,574	3,376	217,250	111,132
297,589	3,676	217,089	111,257
298,603	3,908	217,083	111,412
299,618	3,791	216,792	111,168
300,633	3,466	216,749	110,901
301,647	3,814	216,724	111,130
302,662	3,957	216,442	111,079
303,676	3,842	216,357	110,942
304,691	3,780	216,191	110,802
305,706	3,627	216,007	110,588
306,720	4,254	215,924	110,987
307,735	3,889	215,740	110,620
308,749	3,700	215,569	110,387
309,764	4,041	215,431	110,551
310,779	3,971	215,380	110,465
311,793	3,910	215,309	110,375
312,808	3,769	215,154	110,184
313,822	3,857	214,846	110,080
314,837	3,668	214,763	109,892
315,852	3,590	214,590	109,738
316,866	3,856	214,400	109,821
317,881	4,072	214,295	109,912
318,895	3,907	214,300	109,787
319,910	3,724	214,084	109,536
320,925	3,621	213,844	109,330
321,939	3,326	213,651	109,011
322,954	3,368	213,685	109,049
323,968	3,771	213,572	109,268
324,983	4,057	213,363	109,355
325,997	3,941	213,381	109,272
327,012	3,811	213,110	109,031
328,027	3,751	213,005	108,925
329,041	4,014	213,085	109,143
330,056	4,018	212,922	109,052
331,070	3,982	212,580	108,842
332,085	3,457	212,437	108,388
333,100	3,675	212,158	108,390
334,114	3,798	212,154	108,465
335,129	3,873	212,032	108,446
336,143	3,652	211,809	108,167
337,158	3,855	211,787	108,289
338,173	3,873	211,573	108,182
339,187	3,438	211,381	107,769
340,202	3,603	211,117	107,740
341,216	3,499	211,087	107,642
342,231	3,612	210,956	107,645
343,246	3,604	210,870	107,586
344,260	3,308	210,758	107,312
345,275	3,520	210,730	107,437
346,289	3,803	210,640	107,579
347,304	3,913	210,401	107,524
348,319	3,576	210,284	107,220
349,333	3,669	210,146	107,205
350,348	3,876	209,961	107,245
351,362	4,047	209,915	107,332
352,377	3,986	209,753	107,197
353,392	3,735	209,628	106,948
354,406	3,782	209,566	106,940
355,421	195,463	1343,866	1433,349
356,435	156,064	1482,135	1433,433
