DTS Sentinel unit serial number:	SN410029Multiplexer serial number:	ORYXHardware model number:	OX2-SRSoftware version number:	ORYX F/W v4,00 Oryx Data Collector v3.7.2.0data status	okinstallation	B6 Nyhavnadifferential loss correction	single-endedforward channel	channel 2reverse channel	N/Adate	2023/12/09time	16:15:08forward acquisition time	300,00reverse acquisition time	0,00gamma	499,1914k internal	0,3132k external	0,3132temperature offset calibration	1,0000default loss term (dB/km)	0,3820temperature slope calibration	1,0000multiplexer offset coefficient	1,0000multiplexer slope coefficient	1,0000fibre end	0,00T internal ref (°C)	20,82T ext. ref 1 (°C)	4,68T ext. ref 2 (°C)	4,68length (m)	temperature (°C)	Stokes	anti-Stokes-744,400	110,937	0,020	0,018
-743,385	-107,123	-0,276	-0,045
-742,371	800,000	0,027	0,070
-741,356	140,864	-0,100	0,099
-740,342	-8,809	0,001	0,001
-739,327	-54,941	-0,342	0,114
-738,312	-137,094	0,037	0,003
-737,298	-124,125	-0,212	0,024
-736,283	-200,000	-0,016	0,069
-735,269	74,895	-0,219	0,171
-734,254	139,295	0,123	0,121
-733,239	-150,397	-0,444	-0,025
-732,225	-106,477	0,136	-0,022
-731,210	583,036	0,040	0,073
-730,196	-200,000	-0,025	0,096
-729,181	131,958	0,050	-0,048
-728,167	65,428	0,115	-0,087
-727,152	41,545	-0,064	-0,043
-726,137	-200,000	-0,034	-0,143
-725,123	-110,690	-0,124	-0,019
-724,108	-152,105	-0,171	0,009
-723,094	800,000	-0,031	-0,080
-722,079	-119,348	-0,122	0,016
-721,064	-200,000	0,010	0,141
-720,050	-200,000	0,016	-0,065
-719,035	156,167	-0,070	-0,071
-718,021	-200,000	-0,011	-0,113
-717,006	-200,000	0,011	0,073
-715,991	-46,732	0,022	-0,008
-714,977	-200,000	-0,025	-0,104
-713,962	64,532	-0,070	0,052
-712,948	-200,000	-0,037	0,220
-711,933	-200,000	0,036	0,157
-710,918	76,976	0,141	0,111
-709,904	34,059	-0,078	0,050
-708,889	-200,000	0,024	-0,099
-707,875	1,958	0,039	-0,021
-706,860	-49,597	0,025	0,009
-705,845	462,317	0,014	-0,024
-704,831	-200,000	0,006	0,122
-703,816	-87,860	-0,030	0,007
-702,802	60,066	-0,167	-0,122
-701,787	232,955	-0,152	-0,185
-700,772	800,000	-0,052	0,133
-699,758	398,201	-0,073	0,114
-698,743	-92,900	-0,105	-0,022
-697,729	38,888	0,174	-0,115
-696,714	-61,700	0,050	0,015
-695,699	800,000	0,043	-0,110
-694,685	-126,443	-0,118	-0,013
-693,670	-116,956	-0,104	-0,014
-692,656	-103,215	0,095	0,016
-691,641	353,118	-0,027	0,040
-690,627	-200,000	0,084	0,000
-689,612	-200,000	0,007	0,096
-688,597	-2,951	-0,054	-0,028
-687,583	140,575	0,108	0,106
-686,568	800,000	0,025	0,058
-685,554	800,000	-0,018	0,038
-684,539	-115,669	0,037	0,005
-683,524	800,000	-0,037	0,096
-682,510	-12,045	-0,162	0,078
-681,495	-86,118	0,067	-0,015
-680,481	800,000	0,031	-0,066
-679,466	-200,000	-0,007	-0,039
-678,451	120,510	-0,009	-0,009
-677,437	-72,679	0,068	0,018
-676,422	-200,000	0,006	-0,200
-675,408	800,000	0,012	-0,025
-674,393	-200,000	0,066	0,268
-673,378	-67,695	-0,082	-0,024
-672,364	-200,000	0,010	-0,051
-671,349	89,203	0,105	-0,087
-670,335	-200,000	0,016	-0,098
-669,320	800,000	0,024	-0,068
-668,305	344,426	0,016	0,024
-667,291	-200,000	-0,003	-0,058
-666,276	-200,000	-0,014	-0,116
-665,262	-74,295	-0,050	-0,013
-664,247	-80,487	0,141	-0,035
-663,232	800,000	0,030	-0,069
-662,218	57,372	0,057	0,041
-661,203	311,874	-0,074	0,103
-660,189	-79,891	0,118	0,029
-659,174	103,396	-0,045	-0,039
-658,159	-200,000	0,016	-0,081
-657,145	-68,643	-0,134	0,038
-656,130	28,849	0,113	-0,071
-655,116	800,000	0,040	0,121
-654,101	12,409	-0,031	-0,017
-653,086	-200,000	-0,009	0,103
-652,072	800,000	-0,019	-0,050
-651,057	195,426	0,044	-0,050
-650,043	-200,000	0,012	-0,064
-649,028	-200,000	-0,054	0,196
-648,014	251,083	0,097	0,123
-646,999	800,000	0,012	-0,030
-645,984	-156,236	0,097	0,004
-644,970	-200,000	-0,023	0,135
-643,955	-32,175	0,024	0,010
-642,941	-114,699	0,059	0,008
-641,926	33,310	-0,173	0,111
-640,911	-99,658	-0,028	-0,005
-639,897	800,000	-0,057	0,179
-638,882	800,000	-0,034	-0,082
-637,868	42,175	0,109	-0,073
-636,853	52,074	0,092	-0,064
-635,838	-36,416	-0,061	0,024
-634,824	121,296	-0,080	-0,074
-633,809	794,365	0,024	0,049
-632,795	-62,635	0,040	-0,012
-631,780	-200,000	-0,002	-0,025
-630,765	-200,000	-0,033	-0,112
-629,751	800,000	-0,050	-0,155
-628,736	-53,584	-0,051	0,017
-627,722	-200,000	-0,011	0,078
-626,707	-200,000	0,003	0,141
-625,692	127,801	0,079	-0,074
-624,678	114,892	-0,070	-0,063
-623,663	-17,073	0,093	0,043
-622,649	17,242	-0,096	0,056
-621,634	-200,000	-0,001	-0,078
-620,619	-87,478	0,102	-0,023
-619,605	-200,000	-0,009	0,029
-618,590	679,823	-0,037	0,072
-617,576	601,147	-0,005	0,010
-616,561	800,000	-0,017	-0,037
-615,546	-51,185	-0,080	0,028
-614,532	-200,000	0,002	-0,028
-613,517	702,015	-0,037	0,073
-612,503	290,468	-0,095	-0,128
-611,488	-64,330	-0,136	-0,041
-610,474	-2,781	0,141	0,072
-609,459	-200,000	0,018	-0,115
-608,444	-78,909	0,072	-0,018
-607,430	-37,211	0,056	0,022
-606,415	-167,799	0,101	0,003
-605,401	125,668	0,083	-0,078
-604,386	133,803	-0,128	0,122
-603,371	374,712	0,097	0,147
-602,357	-48,662	0,189	0,067
-601,342	800,000	-0,046	0,104
-600,328	-109,951	-0,084	0,013
-599,313	800,000	-0,012	-0,037
-598,298	-132,676	-0,150	-0,014
-597,284	649,410	0,056	-0,107
-596,269	14,746	0,085	-0,049
-595,255	22,168	0,035	0,021
-594,240	269,118	0,090	0,117
-593,225	133,895	-0,078	-0,074
-592,211	-24,033	-0,176	-0,077
-591,196	-101,576	-0,025	0,005
-590,182	-200,000	0,054	0,237
-589,167	-162,282	0,269	-0,010
-588,152	-138,754	-0,035	0,003
-587,138	82,351	-0,019	-0,016
-586,123	-200,000	-0,013	-0,099
-585,109	77,063	0,049	-0,038
-584,094	96,562	0,049	-0,041
-583,079	70,045	0,036	-0,028
-582,065	515,427	0,061	-0,106
-581,050	62,925	0,086	0,064
-580,036	-200,000	-0,030	-0,098
-579,021	125,923	0,074	0,069
-578,006	-200,000	0,013	-0,068
-576,992	415,226	-0,031	0,049
-575,977	-200,000	-0,013	-0,080
-574,963	-87,771	0,095	-0,021
-573,948	-200,000	0,021	-0,075
-572,934	94,603	-0,048	-0,040
-571,919	541,620	-0,082	-0,145
-570,904	800,000	-0,043	-0,093
-569,890	-13,156	-0,029	-0,014
-568,875	-64,043	-0,049	0,015
-567,861	231,457	-0,072	-0,087
-566,846	220,272	-0,044	0,053
-565,831	800,000	0,063	0,140
-564,817	-65,199	-0,124	0,037
-563,802	75,665	0,093	-0,072
-562,788	-200,000	-0,010	0,037
-561,773	109,847	-0,096	-0,085
-560,758	755,078	0,033	-0,066
-559,744	-90,423	0,099	0,021
-558,729	126,173	0,077	0,072
-557,715	800,000	-0,013	-0,029
-556,700	450,129	0,042	-0,068
-555,685	44,089	-0,033	0,023
-554,671	-200,000	0,002	0,047
-553,656	-200,000	0,032	0,109
-552,642	800,000	-0,020	0,054
-551,627	262,820	0,084	-0,108
-550,612	702,912	0,056	-0,110
-549,598	-84,038	-0,174	-0,041
-548,583	51,593	0,116	-0,082
-547,569	-200,000	-0,035	-0,157
-546,554	-200,000	0,004	-0,016
-545,539	800,000	0,036	0,100
-544,525	201,413	0,076	-0,087
-543,510	-187,702	-0,047	-0,000
-542,496	-36,660	-0,163	-0,064
-541,481	248,728	0,097	-0,121
-540,466	31,408	0,033	-0,021
-539,452	482,356	0,013	0,022
-538,437	5,292	0,088	0,048
-537,423	-200,000	0,006	0,000
-536,408	509,845	-0,049	0,085
-535,393	800,000	0,023	-0,050
-534,379	-117,665	-0,081	0,011
-533,364	-200,000	-0,019	0,070
-532,350	-200,000	-0,002	0,057
-531,335	-180,810	-0,051	0,001
-530,321	93,144	0,046	-0,038
-529,306	-77,002	0,113	-0,029
-528,291	-175,097	0,070	0,001
-527,277	71,171	0,089	0,068
-526,262	-200,000	-0,007	0,068
-525,248	418,410	-0,071	0,112
-524,233	-176,110	0,045	0,001
-523,218	-200,000	0,006	0,222
-522,204	-200,000	-0,006	0,066
-521,189	-200,000	0,000	0,086
-520,175	-58,427	0,102	-0,033
-519,160	60,631	-0,070	-0,051
-518,145	23,269	0,087	-0,052
-517,131	800,000	0,022	-0,050
-516,116	800,000	-0,037	0,100
-515,102	-49,291	-0,149	-0,052
-514,087	8,873	0,045	0,025
-513,072	-200,000	0,025	0,088
-512,058	58,475	0,035	0,026
-511,043	6,680	0,018	-0,010
-510,029	189,342	0,019	0,021
-509,014	-197,601	0,151	-0,001
-507,999	29,434	-0,089	0,056
-506,985	-200,000	0,036	0,146
-505,970	535,901	0,023	-0,040
-504,956	-187,560	-0,100	0,001
-503,941	800,000	-0,027	0,080
-502,926	506,433	0,041	0,070
-501,912	1,334	0,125	0,066
-500,897	78,352	0,012	0,009
-499,883	-72,662	-0,167	0,045
-498,868	-155,194	-0,041	0,002
-497,853	286,468	0,057	-0,076
-496,839	-126,009	-0,142	0,016
-495,824	721,217	-0,025	-0,050
-494,810	270,382	0,103	0,134
-493,795	-144,605	0,184	0,012
-492,781	-200,000	-0,008	-0,068
-491,766	-30,833	-0,119	-0,049
-490,751	-200,000	-0,017	0,114
-489,737	-200,000	-0,006	-0,086
-488,722	174,934	0,069	-0,073
-487,708	644,754	-0,018	0,034
-486,693	51,464	-0,112	0,078
-485,678	57,678	-0,051	-0,037
-484,664	-200,000	0,047	-0,204
-483,649	80,097	0,045	-0,036
-482,635	-164,054	0,013	-0,000
-481,620	376,892	0,053	0,080
-480,605	-200,000	-0,024	-0,107
-479,591	142,291	0,066	-0,065
-478,576	-0,099	-0,094	0,049
-477,562	144,058	0,073	0,071
-476,547	-70,707	0,146	-0,040
-475,532	-111,171	0,086	0,013
-474,518	529,552	0,059	0,104
-473,503	-200,000	-0,007	-0,083
-472,489	401,724	-0,069	-0,106
-471,474	41,472	0,076	0,051
-470,459	-200,000	0,007	-0,160
-469,445	-200,000	-0,002	-0,041
-468,430	104,816	-0,016	0,014
-467,416	-200,000	-0,016	0,084
-466,401	-103,942	0,061	-0,010
-465,386	468,941	-0,037	-0,061
-464,372	42,612	0,047	0,032
-463,357	51,042	-0,040	-0,028
-462,343	350,124	-0,036	-0,052
-461,328	-167,817	-0,068	0,002
-460,313	-98,927	-0,082	-0,015
-459,299	80,465	-0,105	-0,083
-458,284	442,102	-0,085	-0,137
-457,270	-200,000	-0,027	-0,098
-456,255	-200,000	0,001	-0,080
-455,241	-48,526	-0,130	-0,046
-454,226	-13,652	0,075	0,036
-453,211	-200,000	-0,015	-0,083
-452,197	143,590	0,100	0,098
-451,182	800,000	-0,014	-0,044
-450,168	-200,000	0,014	0,078
-449,153	-173,616	-0,045	-0,001
-448,138	-200,000	-0,006	-0,030
-447,124	532,733	-0,064	-0,111
-446,109	-15,617	0,067	0,031
-445,095	8,919	0,036	-0,020
-444,080	134,153	0,077	0,073
-443,065	-167,355	0,045	0,001
-442,051	12,175	-0,095	-0,053
-441,036	403,316	0,023	-0,036
-440,022	-103,130	-0,102	0,017
-439,007	-82,379	-0,010	0,002
-437,992	800,000	-0,104	-0,235
-436,978	243,077	0,056	0,070
-435,963	6,027	0,021	0,012
-434,949	257,736	-0,054	-0,069
-433,934	29,168	0,028	0,018
-432,919	-46,015	-0,042	0,015
-431,905	-28,755	0,112	-0,047
-430,890	-17,638	-0,057	-0,026
-429,876	800,000	0,048	0,124
-428,861	48,231	0,038	0,026
-427,846	710,085	0,026	0,051
-426,832	24,935	-0,118	-0,072
-425,817	-80,553	0,150	0,036
-424,803	-200,000	-0,031	-0,131
-423,788	249,660	0,063	-0,078
-422,773	800,000	0,053	0,148
-421,759	164,380	0,065	-0,067
-420,744	800,000	0,031	0,098
-419,730	-200,000	0,023	-0,195
-418,715	-103,397	-0,074	0,013
-417,701	71,723	-0,042	-0,032
-416,686	674,785	0,043	0,083
-415,671	88,723	-0,045	0,036
-414,657	800,000	-0,036	0,083
-413,642	116,520	-0,086	0,077
-412,628	-7,319	-0,095	0,047
-411,613	340,734	-0,056	0,081
-410,598	59,513	-0,031	-0,022
-409,584	-76,568	-0,115	0,029
-408,569	-99,410	0,018	-0,003
-407,555	-23,367	-0,059	-0,026
-406,540	800,000	-0,032	-0,075
-405,525	84,105	-0,111	-0,089
-404,511	-32,880	-0,069	0,028
-403,496	-200,000	-0,009	0,044
-402,482	-200,000	0,003	-0,034
-401,467	195,279	0,037	-0,041
-400,452	-136,235	-0,083	-0,007
-399,438	-144,828	-0,114	0,008
-398,423	-148,886	-0,070	-0,004
-397,409	-200,000	-0,001	-0,119
-396,394	566,479	0,038	0,067
-395,379	589,680	0,003	0,005
-394,365	800,000	0,088	0,181
-393,350	-53,428	0,111	-0,037
-392,336	800,000	-0,016	-0,041
-391,321	-120,285	0,074	-0,009
-390,306	-109,388	-0,058	-0,009
-389,292	-200,000	0,050	-0,175
-388,277	223,392	-0,065	-0,077
-387,263	197,239	-0,054	-0,060
-386,248	56,806	0,028	0,020
-385,233	-13,556	-0,065	0,031
-384,219	160,164	0,066	-0,067
-383,204	48,801	-0,083	0,057
-382,190	-135,853	-0,072	-0,006
-381,175	-200,000	0,021	0,102
-380,160	-117,377	0,044	0,006
-379,146	-33,085	-0,023	0,009
-378,131	28,504	0,102	-0,063
-377,117	105,257	-0,087	-0,075
-376,102	-123,696	-0,067	-0,008
-375,088	-144,359	-0,098	0,007
-374,073	-143,554	0,024	-0,002
-373,058	-200,000	-0,010	0,062
-372,044	-39,820	0,081	0,031
-371,029	-200,000	-0,006	0,042
-370,015	800,000	-0,064	0,178
-369,000	-102,922	-0,096	0,017
-367,985	74,202	0,099	-0,076
-366,971	78,677	-0,013	0,010
-365,956	-132,091	0,060	-0,006
-364,942	-84,766	-0,039	0,009
-363,927	800,000	0,019	0,055
-362,912	-200,000	0,028	0,121
-361,898	554,494	-0,080	0,142
-360,883	800,000	-0,018	0,055
-359,869	-148,447	0,051	0,003
-358,854	800,000	0,008	-0,020
-357,839	145,957	0,094	-0,092
-356,825	180,501	-0,034	0,036
-355,810	-67,262	-0,031	0,009
-354,796	-200,000	-0,001	-0,041
-353,781	-116,612	-0,117	0,016
-352,766	-20,755	0,094	0,042
-351,752	-115,593	0,067	0,009
-350,737	-5,611	0,103	-0,052
-349,723	-150,379	-0,074	-0,004
-348,708	158,675	0,050	0,051
-347,693	70,630	-0,125	0,094
-346,679	487,177	-0,032	-0,054
-345,664	-200,000	0,020	-0,134
-344,650	-25,114	0,086	0,037
-343,635	458,565	-0,046	0,075
-342,620	-58,051	0,156	-0,049
-341,606	800,000	0,011	0,030
-340,591	-200,000	0,007	-0,052
-339,577	292,444	0,080	-0,108
-338,562	-200,000	-0,041	-0,285
-337,548	-200,000	0,023	-0,133
-336,533	4,703	0,065	0,035
-335,518	-134,568	0,050	-0,004
-334,504	-200,000	-0,002	0,023
-333,489	-200,000	-0,005	0,048
-332,475	-82,943	-0,157	-0,037
-331,460	-88,788	-0,153	-0,033
-330,445	-200,000	-0,012	0,180
-329,431	-149,972	0,073	-0,004
-328,416	15,649	-0,041	0,023
-327,402	800,000	0,032	0,076
-326,387	567,951	0,021	0,038
-325,372	194,783	-0,060	-0,067
-324,358	496,435	-0,030	-0,050
-323,343	16,294	0,082	-0,047
-322,329	92,716	-0,070	-0,058
-321,314	800,000	-0,021	0,057
-320,299	-200,000	-0,019	0,071
-319,285	180,200	-0,083	-0,089
-318,270	800,000	-0,026	0,075
-317,256	800,000	0,043	-0,092
-316,241	-58,339	0,038	0,012
-315,226	114,492	0,110	0,098
-314,212	747,084	-0,038	0,076
-313,197	-200,000	0,006	0,035
-312,183	-200,000	0,016	0,081
-311,168	-200,000	0,021	0,087
-310,153	-8,998	-0,046	0,022
-309,139	731,554	-0,082	-0,160
-308,124	-200,000	0,006	0,099
-307,110	-200,000	-0,017	0,196
-306,095	49,748	0,020	-0,014
-305,080	-65,601	-0,109	-0,032
-304,066	-120,757	-0,013	-0,002
-303,051	-12,840	0,048	-0,023
-302,037	-63,644	0,126	0,037
-301,022	800,000	0,022	-0,050
-300,008	-54,504	0,018	0,006
-298,993	358,904	-0,007	-0,010
-297,978	10,043	0,133	0,074
-296,964	443,459	0,029	-0,047
-295,949	-200,000	0,008	0,048
-294,935	800,000	-0,003	-0,007
-293,920	-117,260	0,116	0,015
-292,905	-9,793	0,074	0,036
-291,891	560,055	-0,039	-0,070
-290,876	-177,390	0,037	0,001
-289,862	-200,000	-0,041	0,145
-288,847	-24,537	-0,056	-0,024
-287,832	84,340	0,038	-0,031
-286,818	800,000	-0,007	0,016
-285,803	-31,068	0,148	-0,061
-284,789	-98,415	0,176	0,033
-283,774	81,841	0,043	-0,034
-282,759	-200,000	0,000	-0,008
-281,745	-200,000	-0,000	-0,036
-280,730	-83,227	-0,129	-0,030
-279,716	103,293	-0,111	-0,095
-278,701	206,332	0,012	0,014
-277,686	-2,225	0,130	-0,066
-276,672	-54,419	0,090	-0,030
-275,657	-200,000	-0,007	0,087
-274,643	-8,937	-0,029	0,014
-273,628	800,000	-0,020	-0,055
-272,613	-69,820	0,107	-0,030
-271,599	-200,000	0,015	0,080
-270,584	-113,032	-0,147	0,021
-269,570	-112,140	-0,054	-0,008
-268,555	-9,577	-0,035	-0,017
-267,540	-200,000	-0,004	-0,016
-266,526	800,000	0,048	-0,148
-265,511	253,933	-0,024	-0,030
-264,497	-200,000	0,017	-0,058
-263,482	-84,480	-0,148	-0,034
-262,467	107,803	0,052	-0,045
-261,453	-89,624	0,031	0,007
-260,438	-95,876	-0,139	-0,027
-259,424	-200,000	-0,006	-0,077
-258,409	-200,000	0,008	-0,206
-257,395	-8,001	-0,079	0,039
-256,380	581,505	-0,034	0,061
-255,365	-200,000	0,011	0,055
-254,351	-63,419	-0,069	-0,021
-253,336	49,158	-0,074	0,051
-252,322	-200,000	0,026	0,118
-251,307	-200,000	-0,023	0,127
-250,292	800,000	-0,016	0,044
-249,278	286,039	0,058	0,076
-248,263	-58,107	0,037	-0,012
-247,249	-200,000	-0,028	-0,141
-246,234	181,962	-0,095	-0,103
-245,219	-200,000	0,001	0,048
-244,205	369,431	0,056	-0,083
-243,190	-200,000	0,009	0,156
-242,176	800,000	-0,056	0,146
-241,161	-105,871	0,078	0,013
-240,146	-86,584	-0,061	-0,014
-239,132	-128,353	0,035	0,004
-238,117	-50,292	0,030	0,010
-237,103	208,442	0,025	-0,029
-236,088	800,000	-0,035	0,076
-235,073	-200,000	0,011	0,105
-234,059	311,222	-0,096	0,132
-233,044	800,000	0,026	-0,070
-232,030	336,517	-0,040	0,057
-231,015	252,427	-0,076	-0,094
-230,000	63,692	-0,033	-0,024
-228,986	1,124	0,022	-0,011
-227,971	-3,764	0,060	0,030
-226,957	211,597	0,025	0,029
-225,942	800,000	0,066	0,160
-224,927	32,972	-0,053	0,034
-223,913	-200,000	-0,008	-0,028
-222,898	-200,000	-0,017	-0,128
-221,884	-200,000	-0,000	0,100
-220,869	352,325	-0,062	0,090
-219,855	120,036	0,086	0,078
-218,840	-27,597	0,088	0,037
-217,825	800,000	-0,045	-0,108
-216,811	-22,215	-0,040	-0,018
-215,796	-200,000	-0,020	-0,067
-214,782	800,000	-0,018	0,047
-213,767	-162,245	0,097	0,003
-212,752	-200,000	-0,001	0,086
-211,738	57,349	-0,062	-0,044
-210,723	800,000	0,029	0,068
-209,709	-200,000	0,011	-0,095
-208,694	-200,000	0,018	-0,076
-207,679	-73,187	-0,128	0,034
-206,665	-13,779	-0,087	-0,041
-205,650	-200,000	-0,021	-0,106
-204,636	-120,000	0,051	0,006
-203,621	763,087	-0,071	0,141
-202,606	60,737	-0,044	-0,032
-201,592	18,955	-0,045	0,026
-200,577	199,314	-0,125	0,140
-199,563	218,539	-0,052	0,061
-198,548	237,862	0,049	-0,059
-197,533	-200,000	0,020	-0,134
-196,519	69,527	0,093	-0,070
-195,504	340,329	-0,029	0,041
-194,490	-127,971	-0,171	0,018
-193,475	-79,378	0,102	0,025
-192,460	-200,000	-0,018	0,072
-191,446	-86,476	-0,021	0,005
-190,431	229,192	0,035	0,041
-189,417	365,176	-0,058	0,085
-188,402	800,000	0,010	-0,028
-187,387	-67,084	0,111	-0,032
-186,373	-130,336	-0,100	-0,010
-185,358	347,498	0,082	-0,117
-184,344	557,164	0,068	-0,119
-183,329	271,563	0,023	0,029
-182,315	679,288	-0,033	-0,063
-181,300	-200,000	-0,013	0,042
-180,285	-133,298	-0,017	0,001
-179,271	800,000	0,066	-0,160
-178,256	7,969	-0,101	-0,055
-177,242	-200,000	-0,006	0,030
-176,227	-200,000	0,009	0,050
-175,212	-52,016	0,038	0,013
-174,198	-30,562	0,074	0,031
-173,183	-34,518	-0,052	0,021
-172,169	-200,000	0,007	-0,154
-171,154	-182,780	-0,067	0,001
-170,139	496,118	0,035	0,059
-169,125	800,000	0,032	0,091
-168,110	-200,000	0,016	0,116
-167,096	236,213	0,081	0,098
-166,081	-200,000	0,019	-0,064
-165,066	29,159	-0,086	-0,053
-164,052	-200,000	0,064	0,210
-163,037	143,926	0,135	0,131
-162,023	306,906	0,014	-0,019
-161,008	259,322	0,039	-0,049
-159,993	-200,000	-0,039	-0,136
-158,979	800,000	-0,031	-0,082
-157,964	-106,752	0,072	-0,012
-156,950	-102,067	-0,115	0,020
-155,935	-173,756	0,149	-0,003
-154,920	800,000	-0,028	-0,062
-153,906	-126,819	0,110	-0,012
-152,891	-74,591	-0,135	0,035
-151,877	47,437	-0,066	-0,045
-150,862	-78,197	-0,050	0,012
-149,847	-139,269	0,085	0,007
-148,833	400,756	0,022	-0,033
-147,818	-100,063	0,113	0,020
-146,804	133,629	-0,052	0,049
-145,789	-149,102	0,073	0,004
-144,775	-47,701	-0,090	-0,032
-143,760	695,869	-0,016	0,031
-142,745	-63,141	0,105	0,031
-141,731	-3,151	0,075	-0,038
-140,716	-87,183	0,021	-0,005
-139,702	296,467	0,040	0,053
-138,687	-98,183	0,106	0,020
-137,672	800,000	-0,032	0,070
-136,658	85,158	0,057	0,046
-135,643	43,396	0,041	0,027
-134,629	-200,000	-0,005	0,090
-133,614	-136,964	0,141	0,012
-132,599	800,000	0,002	0,007
-131,585	-200,000	-0,000	0,102
-130,570	-200,000	0,015	0,086
-129,556	131,532	-0,112	0,105
-128,541	-200,000	0,031	-0,178
-127,526	52,543	0,058	-0,040
-126,512	39,127	0,049	0,032
-125,497	800,000	0,010	0,029
-124,483	-200,000	0,004	0,063
-123,468	100,109	-0,065	0,055
-122,453	204,268	-0,069	-0,077
-121,439	-39,090	0,022	0,008
-120,424	-13,014	0,060	-0,028
-119,410	52,289	0,080	-0,055
-118,395	686,653	-0,041	0,079
-117,380	-200,000	0,027	0,117
-116,366	-200,000	-0,005	-0,053
-115,351	156,843	0,047	-0,047
-114,337	-200,000	-0,013	-0,090
-113,322	-108,723	-0,059	0,009
-112,307	-44,651	-0,083	0,030
-111,293	-104,410	0,156	-0,026
-110,278	-4,701	0,096	0,048
-109,264	-100,269	-0,134	-0,024
-108,249	-137,823	-0,067	0,005
-107,234	-136,948	-0,158	0,013
-106,220	800,000	0,075	-0,202
-105,205	800,000	0,022	-0,068
-104,191	6,270	0,028	0,015
-103,176	119,138	0,095	0,085
-102,162	670,330	-0,014	0,026
-101,147	293,757	0,084	-0,111
-100,132	-140,122	0,029	-0,002
-99,118	800,000	0,023	0,058
-98,103	-200,000	0,001	0,088
-97,089	0,441	-0,097	-0,050
-96,074	-5,236	0,005	0,002
-95,059	-200,000	0,027	0,155
-94,045	-200,000	-0,009	-0,128
-93,030	-200,000	-0,030	-0,219
-92,016	316,924	0,055	-0,075
-91,001	-53,010	0,095	0,032
-89,986	-127,690	0,089	0,009
-88,972	800,000	-0,032	0,069
-87,957	-25,750	-0,034	-0,014
-86,943	-157,658	0,176	-0,007
-85,928	800,000	-0,073	-0,206
-84,913	-77,430	-0,057	0,014
-83,899	-200,000	0,008	-0,034
-82,884	-147,531	0,090	-0,005
-81,870	800,000	-0,041	0,107
-80,855	-200,000	0,012	-0,067
-79,840	477,838	0,060	-0,099
-78,826	-200,000	-0,004	0,017
-77,811	35,555	-0,100	0,064
-76,797	289,230	-0,026	0,034
-75,782	517,872	0,020	0,033
-74,767	1,595	0,142	0,074
-73,753	163,207	0,057	0,058
-72,738	158,070	0,093	0,093
-71,724	301,559	-0,049	-0,065
-70,709	30,774	-0,031	-0,019
-69,694	799,952	-0,018	0,036
-68,680	-147,741	0,163	-0,010
-67,665	-200,000	-0,000	0,132
-66,651	-74,508	0,116	0,030
-65,636	148,376	0,055	0,054
-64,622	-28,296	0,075	-0,031
-63,607	-20,618	0,043	-0,019
-62,592	-200,000	-0,004	-0,042
-61,578	47,403	0,042	-0,028
-60,563	-10,241	-0,102	0,049
-59,549	-200,000	-0,022	0,115
-58,534	-87,720	-1,484	-0,321
-57,519	530,753	-0,739	-1,270
-56,505	-200,000	-1,015	-4,664
-55,490	-89,033	0,752	-0,160
-54,476	800,000	4,982	11,826
-53,461	-200,000	14,641	260,211
-52,446	-200,000	695,983	2235,517
-51,432	565,439	1621,532	2856,498
-50,417	118,126	1629,364	1453,315
-49,403	75,302	1283,619	978,738
-48,388	37,416	1022,361	654,514
-47,373	23,067	981,602	581,324
-46,359	22,204	970,944	572,163
-45,344	21,031	966,670	565,795
-44,330	21,084	965,160	565,063
-43,315	20,932	963,867	563,787
-42,300	20,843	962,823	562,866
-41,286	20,883	961,803	562,378
-40,271	20,838	960,779	561,612
-39,257	20,817	959,928	561,023
-38,242	20,796	958,738	560,236
-37,227	20,836	957,923	559,869
-36,213	20,859	957,017	559,389
-35,198	20,831	956,254	558,832
-34,184	20,861	955,612	558,531
-33,169	20,805	954,457	557,655
-32,154	20,915	953,789	557,594
-31,140	20,864	952,739	556,797
-30,125	20,876	952,155	556,471
-29,111	20,853	951,215	555,825
-28,096	20,837	950,591	555,387
-27,082	20,874	950,002	555,141
-26,067	20,806	949,355	554,521
-25,052	20,826	948,578	554,110
-24,038	20,813	947,877	553,636
-23,023	20,832	947,250	553,308
-22,009	20,879	946,570	553,041
-20,994	20,923	945,838	552,732
-19,979	20,867	945,229	552,174
-18,965	20,927	944,648	552,006
-17,950	20,884	944,093	551,520
-16,936	20,837	943,472	550,986
-15,921	20,787	942,842	550,437
-14,906	20,787	941,928	549,885
-13,892	20,730	941,317	549,324
-12,877	20,779	940,713	549,105
-11,863	20,731	940,126	548,590
-10,848	20,684	939,638	548,133
-9,833	20,838	939,197	548,342
-8,819	20,760	938,765	547,821
-7,804	20,745	938,055	547,338
-6,790	20,743	937,538	547,006
-5,775	20,788	936,762	546,674
-4,760	20,785	936,186	546,309
-3,746	20,722	935,464	545,665
-2,731	20,652	934,650	544,950
-1,717	20,588	934,016	544,357
-0,702	20,554	933,384	543,859
0,313	20,412	932,791	543,887
1,327	23,429	931,089	552,318
2,342	33,003	793,504	496,099
3,356	30,421	450,678	277,859
4,371	0,129	295,184	151,653
5,386	-3,997	276,301	138,019
6,400	-5,578	270,602	133,687
7,415	-5,766	268,322	132,376
8,429	-5,626	266,988	131,834
9,444	-5,770	266,371	131,386
10,459	-5,723	265,633	131,053
11,473	-5,785	264,925	130,635
12,488	-5,729	264,353	130,392
13,502	-6,107	263,924	129,826
14,517	-6,061	263,468	129,632
15,531	-5,923	263,059	129,544
16,546	-5,843	262,642	129,399
17,561	-5,920	262,347	129,174
18,575	-5,845	261,968	129,043
19,590	-5,973	261,644	128,756
20,604	-5,973	261,432	128,641
21,619	-5,948	260,984	128,431
22,634	-6,056	260,690	128,178
23,648	-5,878	260,357	128,162
24,663	-5,843	260,174	128,092
25,677	-5,899	259,744	127,819
26,692	-6,130	259,531	127,497
27,707	-6,036	259,283	127,447
28,721	-6,024	259,034	127,324
29,736	-6,174	258,750	127,040
30,750	-6,152	258,559	126,954
31,765	-6,243	258,381	126,775
32,780	-6,182	258,129	126,694
33,794	-6,057	257,879	126,671
34,809	-6,059	257,585	126,514
35,823	-5,964	257,246	126,420
36,838	-6,067	257,086	126,239
37,853	-6,118	256,898	126,090
38,867	-5,980	256,605	126,056
39,882	-6,126	256,478	125,854
40,896	-6,219	256,337	125,692
41,911	-5,973	255,900	125,683
42,926	-6,273	255,796	125,357
43,940	-6,304	255,598	125,221
44,955	-6,073	255,137	125,187
45,969	-6,069	254,896	125,061
46,984	-6,657	254,930	124,552
47,999	-6,609	254,613	124,428
49,013	-6,748	254,232	124,110
50,028	-6,738	253,870	123,930
51,042	-6,762	253,730	123,829
52,057	-7,037	253,572	123,502
53,071	-6,871	253,305	123,505
54,086	-6,716	253,193	123,574
55,101	-6,690	253,018	123,501
56,115	-6,502	252,974	123,632
57,130	-5,906	252,777	124,041
58,144	-5,793	252,657	124,069
59,159	-5,787	252,412	123,943
60,174	-5,986	252,249	123,679
61,188	-5,926	251,937	123,567
62,203	-5,894	251,797	123,515
63,217	-5,792	251,647	123,518
64,232	-6,055	251,376	123,148
65,247	-5,791	251,110	123,234
66,261	-5,937	250,920	123,004
67,276	-6,135	250,633	122,683
68,290	-6,228	250,344	122,450
69,305	-6,352	250,194	122,260
70,320	-6,490	249,979	122,025
71,334	-6,189	249,940	122,253
72,349	-5,934	249,932	122,457
73,363	-5,857	249,669	122,383
74,378	-5,937	249,337	122,141
75,393	-5,933	249,250	122,091
76,407	-6,195	248,924	121,697
77,422	-6,058	248,876	121,779
78,436	-5,771	248,517	121,837
79,451	-6,076	248,211	121,417
80,466	-6,159	248,150	121,306
81,480	-6,138	247,829	121,156
82,495	-6,281	247,701	120,961
83,509	-6,334	247,512	120,813
84,524	-6,476	247,345	120,601
85,539	-6,480	246,998	120,418
86,553	-6,473	246,855	120,343
87,568	-6,168	246,684	120,506
88,582	-6,330	246,523	120,280
89,597	-6,428	246,470	120,161
90,611	-6,091	246,155	120,280
91,626	-6,159	246,196	120,232
92,641	-6,164	245,857	120,052
93,655	-6,119	245,539	119,924
94,670	-6,102	245,497	119,907
95,684	-6,151	245,326	119,772
96,699	-6,074	245,161	119,745
97,714	-6,220	244,911	119,490
98,728	-6,202	244,583	119,334
99,743	-6,680	244,551	118,908
100,757	-6,254	244,240	119,103
101,772	-6,347	244,074	118,933
102,787	-6,400	244,049	118,866
103,801	-6,327	243,785	118,788
104,816	-5,846	243,542	119,059
105,830	-6,132	243,468	118,774
106,845	-5,790	243,240	118,936
107,860	-6,077	243,180	118,659
108,874	-6,238	242,980	118,416
109,889	-6,124	242,691	118,360
110,903	-6,323	242,505	118,093
111,918	-6,159	242,259	118,098
112,933	-6,223	242,288	118,049
113,947	-6,069	242,089	118,070
114,962	-6,074	241,831	117,928
115,976	-6,096	241,775	117,873
116,991	-6,097	241,477	117,716
118,006	-6,076	241,321	117,647
119,020	-6,062	241,162	117,571
120,035	-5,994	241,120	117,596
121,049	-5,763	240,882	117,659
122,064	-5,894	240,576	117,391
123,079	-5,924	240,635	117,385
124,093	-6,243	240,278	116,939
125,108	-6,306	239,987	116,736
126,122	-6,617	239,754	116,357
127,137	-6,454	239,496	116,355
128,151	-6,246	239,437	116,485
129,166	-6,409	239,296	116,274
130,181	-6,296	239,119	116,270
131,195	-6,430	238,743	115,967
132,210	-6,251	238,816	116,138
133,224	-6,052	238,611	116,190
134,239	-6,170	238,678	116,116
135,254	-6,059	238,448	116,084
136,268	-6,289	238,142	115,738
137,283	-6,342	237,671	115,456
138,297	-6,525	237,687	115,305
139,312	-6,542	237,447	115,165
140,327	-5,905	237,255	115,576
141,341	-5,722	237,298	115,734
142,356	-5,804	237,334	115,676
143,370	-5,757	237,026	115,553
144,385	-5,981	236,998	115,348
145,400	-5,677	236,881	115,526
146,414	-5,552	236,518	115,440
147,429	-5,724	236,345	115,206
148,443	-5,803	236,227	115,075
149,458	-5,951	235,997	114,834
150,473	-5,893	235,965	114,855
151,487	-5,741	235,603	114,790
152,502	-5,655	235,503	114,800
153,516	-5,734	235,441	114,697
154,531	-5,796	235,182	114,510
155,546	-5,736	235,012	114,465
156,560	-5,927	234,882	114,239
157,575	-6,000	234,744	114,104
158,589	-5,870	234,332	113,997
159,604	-5,573	234,300	114,208
160,619	-5,407	234,122	114,243
161,633	-5,680	233,988	113,950
162,648	-5,636	234,033	113,997
163,662	-5,838	233,697	113,662
164,677	-5,785	233,520	113,609
165,692	-5,669	233,512	113,686
166,706	-5,472	233,338	113,747
167,721	-5,526	233,141	113,598
168,735	-5,592	233,009	113,472
169,750	-5,621	232,888	113,380
170,764	-5,635	232,744	113,289
171,779	-5,751	232,675	113,153
172,794	-5,639	232,441	113,118
173,808	-5,682	232,151	112,933
174,823	-6,180	231,835	112,377
175,837	-6,444	231,701	112,095
176,852	-5,961	231,606	112,418
177,867	-5,529	231,534	112,713
178,881	-5,862	231,476	112,413
179,896	-5,731	231,367	112,453
180,910	-5,664	231,066	112,349
181,925	-5,734	230,986	112,245
182,940	-5,625	230,762	112,211
183,954	-5,741	230,654	112,059
184,969	-5,499	230,585	112,205
185,983	-5,421	230,425	112,177
186,998	-5,588	230,228	111,941
188,013	-5,552	230,142	111,918
189,027	-5,611	229,938	111,762
190,042	-5,630	229,742	111,642
191,056	-5,409	229,373	111,624
192,071	-5,461	229,451	111,612
193,086	-5,694	229,371	111,382
194,100	-5,731	229,303	111,311
195,115	-5,643	228,828	111,138
196,129	-6,231	228,565	110,545
197,144	-3,274	229,364	113,218
198,159	0,994	230,690	117,189
199,173	3,690	231,374	119,628
200,188	4,024	231,410	119,897
201,202	3,756	231,244	119,592
202,217	4,215	230,970	119,795
203,232	4,266	230,984	119,832
204,246	4,648	230,664	119,952
205,261	4,464	230,761	119,848
206,275	4,578	230,788	119,941
207,290	4,372	230,677	119,712
208,304	4,607	230,361	119,720
209,319	4,429	230,122	119,448
210,334	4,515	229,865	119,370
211,348	4,306	229,663	119,093
212,363	3,978	229,472	118,730
213,377	3,748	229,234	118,419
214,392	3,571	229,081	118,193
215,407	3,793	228,935	118,278
216,421	3,744	228,849	118,185
217,436	3,629	228,735	118,027
218,450	3,607	228,299	117,775
219,465	3,296	228,253	117,502
220,480	3,585	228,080	117,624
221,494	3,518	227,904	117,472
222,509	3,496	227,870	117,427
223,523	3,821	227,780	117,619
224,538	3,507	227,650	117,301
225,553	3,535	227,575	117,273
226,567	3,652	227,337	117,229
227,582	3,895	227,471	117,474
228,596	4,235	227,160	117,563
229,611	3,745	226,942	117,065
230,626	3,393	226,628	116,625
231,640	3,475	226,587	116,656
232,655	3,743	226,533	116,822
233,669	4,069	226,549	117,068
234,684	4,337	226,161	117,060
235,699	4,167	226,151	116,915
236,713	3,928	225,798	116,541
237,728	3,837	225,624	116,372
238,742	3,657	225,494	116,159
239,757	3,767	225,210	116,085
240,772	3,780	225,016	115,984
241,786	3,579	225,099	115,865
242,801	3,774	224,998	115,950
243,815	4,291	224,958	116,310
244,830	4,088	224,632	115,977
245,844	3,803	224,523	115,696
246,859	3,726	224,408	115,568
247,874	3,902	224,293	115,631
248,888	4,094	224,117	115,675
249,903	3,910	223,877	115,402
250,917	3,847	223,882	115,347
251,932	3,779	223,657	115,170
252,947	3,664	223,442	114,963
253,961	3,630	223,316	114,863
254,976	3,833	223,142	114,914
255,990	3,955	223,151	115,000
257,005	3,768	223,093	114,820
258,020	3,838	222,949	114,788
259,034	4,253	222,731	114,975
260,049	4,024	222,664	114,759
261,063	4,055	222,462	114,668
262,078	3,973	222,215	114,470
263,093	4,162	222,172	114,578
264,107	4,020	221,949	114,347
265,122	4,087	221,889	114,356
266,136	4,056	221,845	114,300
267,151	4,350	221,645	114,405
268,166	3,737	221,278	113,751
269,180	3,514	221,027	113,447
270,195	3,407	221,088	113,389
271,209	3,343	220,869	113,219
272,224	3,704	220,869	113,476
273,239	3,642	220,708	113,338
274,253	3,733	220,550	113,313
275,268	3,363	220,303	112,904
276,282	3,418	220,055	112,807
277,297	3,200	220,015	112,616
278,312	3,608	219,942	112,869
279,326	3,810	219,778	112,923
280,341	3,693	219,764	112,820
281,355	3,684	219,527	112,681
282,370	3,678	219,239	112,519
283,384	3,373	219,115	112,222
284,399	3,487	218,907	112,189
285,414	3,394	218,858	112,086
286,428	3,824	218,662	112,290
287,443	3,851	218,665	112,300
288,457	3,883	218,561	112,261
289,472	3,520	218,418	111,913
290,487	3,130	218,175	111,493
291,501	3,291	217,861	111,440
292,516	3,428	217,800	111,499
293,530	3,504	217,586	111,434
294,545	3,289	217,572	111,262
295,560	3,286	217,652	111,290
296,574	3,788	217,395	111,513
297,589	3,896	217,149	111,455
298,603	3,833	217,204	111,428
299,618	3,840	217,051	111,344
300,633	3,843	216,827	111,222
301,647	4,013	216,815	111,329
302,662	3,811	216,712	111,120
303,676	3,737	216,534	110,966
304,691	3,939	216,382	111,024
305,706	3,530	216,304	110,679
306,720	4,012	216,055	110,888
307,735	3,795	215,949	110,668
308,749	3,604	215,862	110,476
309,764	3,916	215,583	110,548
310,779	4,089	215,573	110,657
311,793	3,893	215,430	110,433
312,808	3,853	215,178	110,265
313,822	3,834	215,065	110,183
314,837	3,568	214,796	109,846
315,852	3,768	214,643	109,900
316,866	3,805	214,473	109,830
317,881	3,892	214,535	109,915
318,895	3,752	214,379	109,724
319,910	3,760	214,084	109,570
320,925	3,442	213,997	109,289
321,939	3,235	213,761	109,011
322,954	3,321	213,809	109,087
323,968	3,719	213,802	109,357
324,983	3,823	213,525	109,279
325,997	4,011	213,501	109,392
327,012	3,950	213,223	109,196
328,027	3,678	213,219	108,991
329,041	4,061	213,104	109,194
330,056	4,456	212,834	109,326
331,070	3,575	212,845	108,698
332,085	3,433	212,602	108,463
333,100	3,520	212,390	108,408
334,114	3,588	212,419	108,461
335,129	3,736	212,107	108,396
336,143	3,630	212,126	108,321
337,158	3,675	212,000	108,279
338,173	3,493	211,839	108,059
339,187	3,425	211,555	107,856
340,202	3,503	211,353	107,799
341,216	3,266	211,353	107,622
342,231	3,508	211,210	107,710
343,246	3,587	211,036	107,667
344,260	3,505	210,838	107,499
345,275	3,527	210,943	107,558
346,289	3,913	210,687	107,688
347,304	3,672	210,669	107,501
348,319	3,763	210,453	107,445
349,333	3,707	210,208	107,271
350,348	3,803	210,220	107,335
351,362	3,705	210,171	107,232
352,377	4,041	210,024	107,381
353,392	3,732	209,777	107,030
354,406	3,652	209,658	106,904
355,421	194,819	1344,996	1432,559
356,435	155,519	1483,392	1432,640
