DTS Sentinel unit serial number:	SN410029Multiplexer serial number:	ORYXHardware model number:	OX2-SRSoftware version number:	ORYX F/W v4,00 Oryx Data Collector v3.7.2.0data status	okinstallation	B6 Nyhavnadifferential loss correction	single-endedforward channel	channel 2reverse channel	N/Adate	2023/12/10time	20:55:08forward acquisition time	300,00reverse acquisition time	0,00gamma	499,1914k internal	0,3122k external	0,3122temperature offset calibration	1,0000default loss term (dB/km)	0,3820temperature slope calibration	1,0000multiplexer offset coefficient	1,0000multiplexer slope coefficient	1,0000fibre end	0,00T internal ref (°C)	22,25T ext. ref 1 (°C)	5,88T ext. ref 2 (°C)	5,89length (m)	temperature (°C)	Stokes	anti-Stokes-744,400	101,171	0,110	-0,095
-743,385	14,519	-0,170	0,099
-742,371	-200,000	0,000	0,082
-741,356	18,661	-0,198	0,118
-740,342	-143,059	0,054	-0,004
-739,327	-159,806	-0,256	0,010
-738,312	128,398	-0,043	-0,041
-737,298	-172,807	-0,296	0,007
-736,283	-124,282	0,101	0,012
-735,269	-104,528	-0,220	-0,037
-734,254	268,835	0,042	-0,054
-733,239	-125,649	-0,458	-0,051
-732,225	-1,893	0,179	0,093
-731,210	-200,000	-0,008	0,072
-730,196	765,569	-0,036	0,074
-729,181	-6,908	-0,228	0,115
-728,167	-200,000	0,013	0,054
-727,152	-200,000	-0,003	-0,082
-726,137	-4,478	-0,126	0,065
-725,123	431,434	-0,061	0,099
-724,108	414,275	-0,047	-0,075
-723,094	-47,844	-0,056	-0,020
-722,079	-45,965	0,079	-0,029
-721,064	-15,292	-0,051	-0,024
-720,050	164,876	0,096	-0,101
-719,035	-71,586	0,102	0,028
-718,021	-89,664	-0,119	-0,026
-717,006	34,337	-0,033	0,021
-715,991	-12,727	-0,153	-0,074
-714,977	800,000	0,036	-0,082
-713,962	47,732	-0,030	-0,021
-712,948	333,716	0,069	0,099
-711,933	286,003	-0,076	-0,102
-710,918	614,851	-0,023	0,044
-709,904	1,662	-0,047	0,025
-708,889	221,985	-0,090	0,108
-707,875	800,000	-0,027	0,055
-706,860	-185,294	0,112	-0,001
-705,845	-101,920	0,074	-0,013
-704,831	308,448	0,073	0,102
-703,816	52,936	-0,093	0,066
-702,802	-200,000	0,002	-0,103
-701,787	37,017	-0,072	-0,047
-700,772	-200,000	-0,006	0,112
-699,758	129,352	-0,049	0,047
-698,743	107,007	-0,023	0,020
-697,729	-169,219	0,053	0,001
-696,714	-200,000	0,012	0,089
-695,699	-5,115	-0,093	0,048
-694,685	343,104	0,024	-0,035
-693,670	259,311	-0,013	-0,017
-692,656	800,000	-0,043	-0,097
-691,641	-200,000	-0,016	0,125
-690,627	800,000	0,018	-0,045
-689,612	-11,073	0,073	-0,036
-688,597	-200,000	0,037	-0,125
-687,583	-200,000	-0,016	-0,081
-686,568	7,664	0,052	-0,029
-685,554	-200,000	-0,022	0,083
-684,539	-115,718	0,037	0,005
-683,524	25,284	-0,099	-0,061
-682,510	-51,740	-0,064	0,022
-681,495	-61,439	-0,051	0,016
-680,481	-200,000	-0,013	0,049
-679,466	120,721	-0,055	0,051
-678,451	171,128	0,084	-0,090
-677,437	73,396	0,017	-0,013
-676,422	-200,000	-0,018	-0,139
-675,408	800,000	0,077	-0,165
-674,393	-11,850	-0,114	0,055
-673,378	-200,000	-0,011	-0,170
-672,364	69,987	-0,096	-0,074
-671,349	-6,073	-0,198	-0,100
-670,335	198,032	-0,089	0,102
-669,320	164,303	-0,051	-0,053
-668,305	-19,109	-0,059	0,027
-667,291	-95,734	-0,120	0,024
-666,276	800,000	0,043	-0,098
-665,262	-139,737	-0,074	0,006
-664,247	775,836	0,041	0,083
-663,232	369,419	-0,060	0,091
-662,218	800,000	0,027	0,057
-661,203	128,733	-0,048	-0,045
-660,189	-200,000	-0,006	0,021
-659,174	-117,953	-0,139	0,018
-658,159	800,000	0,018	-0,054
-657,145	85,629	0,049	-0,040
-656,130	46,224	0,163	0,112
-655,116	800,000	0,026	0,068
-654,101	-124,363	0,098	-0,011
-653,086	-38,633	-0,052	-0,020
-652,072	-200,000	0,041	-0,180
-651,057	-53,116	-0,158	-0,054
-650,043	800,000	-0,071	-0,186
-649,028	-112,607	-0,159	0,023
-648,014	-200,000	-0,017	0,067
-646,999	43,925	0,036	-0,024
-645,984	-200,000	-0,009	0,043
-644,970	269,070	-0,075	-0,099
-643,955	-64,801	-0,032	0,010
-642,941	-106,215	-0,075	-0,012
-641,926	-200,000	-0,023	0,143
-640,911	-109,684	0,062	0,010
-639,897	12,174	-0,041	-0,023
-638,882	-55,273	0,173	-0,057
-637,868	800,000	0,027	-0,086
-636,853	-64,768	0,066	0,020
-635,838	-200,000	0,012	0,118
-634,824	-200,000	0,003	-0,026
-633,809	419,456	0,086	-0,137
-632,795	-165,328	0,139	0,004
-631,780	-87,886	0,135	-0,030
-630,765	-200,000	0,017	0,140
-629,751	-177,243	-0,092	0,002
-628,736	800,000	0,030	-0,096
-627,722	-108,719	0,143	0,022
-626,707	82,089	-0,117	0,094
-625,692	-63,068	0,067	0,020
-624,678	106,867	-0,065	-0,058
-623,663	800,000	0,051	-0,156
-622,649	12,369	0,070	-0,040
-621,634	242,094	-0,037	-0,045
-620,619	-200,000	-0,000	-0,003
-619,605	-200,000	0,030	0,141
-618,590	800,000	0,062	0,147
-617,576	646,467	-0,082	0,156
-616,561	-41,304	-0,108	-0,041
-615,546	-0,132	-0,063	0,033
-614,532	-159,039	-0,061	0,003
-613,517	-148,348	0,101	0,006
-612,503	-200,000	0,027	0,131
-611,488	-122,553	-0,091	-0,011
-610,474	-153,798	0,068	0,003
-609,459	800,000	-0,017	0,047
-608,444	-73,350	-0,231	0,062
-607,430	-197,375	0,110	-0,000
-606,415	-22,950	-0,153	-0,068
-605,401	-159,473	-0,113	0,005
-604,386	8,299	0,050	0,028
-603,371	-37,402	-0,085	0,033
-602,357	-100,871	-0,103	-0,019
-601,342	27,990	-0,095	-0,059
-600,328	-18,710	-0,108	-0,050
-599,313	-200,000	-0,022	-0,124
-598,298	294,962	0,065	-0,088
-597,284	-200,000	-0,008	-0,194
-596,269	42,377	0,009	0,006
-595,255	-70,737	-0,077	0,021
-594,240	97,441	-0,050	-0,043
-593,225	230,952	-0,077	-0,094
-592,211	-200,000	0,009	-0,030
-591,196	148,401	-0,104	-0,104
-590,182	103,384	0,028	-0,024
-589,167	231,637	0,053	0,064
-588,152	800,000	-0,022	0,049
-587,138	-200,000	0,027	-0,186
-586,123	540,658	-0,103	-0,183
-585,109	800,000	0,069	-0,147
-584,094	405,125	0,050	-0,079
-583,079	-200,000	0,017	0,090
-582,065	-200,000	-0,013	0,060
-581,050	-200,000	-0,027	-0,091
-580,036	773,789	0,043	-0,088
-579,021	-154,989	-0,084	0,004
-578,006	-200,000	-0,022	-0,092
-576,992	800,000	0,044	-0,103
-575,977	-10,316	0,070	0,034
-574,963	-84,046	0,033	-0,008
-573,948	800,000	-0,025	0,080
-572,934	270,054	-0,065	-0,085
-571,919	-129,154	0,061	0,006
-570,904	9,842	-0,063	0,035
-569,890	-137,352	-0,092	-0,008
-568,875	-200,000	0,008	0,090
-567,861	-160,466	-0,126	0,005
-566,846	157,656	0,016	-0,016
-565,831	141,343	-0,078	-0,076
-564,817	-140,385	0,185	-0,014
-563,802	-3,073	-0,129	-0,066
-562,788	595,063	-0,034	0,062
-561,773	-69,102	0,056	-0,016
-560,758	-96,971	-0,076	-0,015
-559,744	-197,021	0,063	-0,000
-558,729	800,000	-0,029	-0,073
-557,715	-9,783	-0,027	-0,013
-556,700	-61,360	0,041	-0,013
-555,685	-11,561	-0,068	0,033
-554,671	39,196	-0,074	-0,049
-553,656	-17,144	0,110	0,051
-552,642	-200,000	-0,001	-0,026
-551,627	-71,340	-0,062	0,017
-550,612	53,728	-0,060	0,043
-549,598	-89,059	-0,077	-0,017
-548,583	-0,918	0,041	0,022
-547,569	-200,000	0,029	0,112
-546,554	355,445	0,022	0,032
-545,539	165,781	-0,008	0,008
-544,525	800,000	-0,016	-0,052
-543,510	262,620	-0,066	-0,085
-542,496	-13,998	-0,111	0,053
-541,481	188,931	-0,094	-0,104
-540,466	800,000	0,032	-0,079
-539,452	-200,000	0,001	-0,025
-538,437	-200,000	0,010	0,056
-537,423	-200,000	-0,045	0,163
-536,408	14,633	-0,075	0,043
-535,393	-200,000	-0,013	-0,046
-534,379	-122,557	-0,201	0,024
-533,364	11,623	-0,076	0,043
-532,350	580,376	0,063	0,114
-531,335	42,760	0,135	0,091
-530,321	-200,000	-0,006	0,049
-529,306	24,657	-0,056	0,034
-528,291	87,321	-0,100	-0,081
-527,277	147,750	0,019	-0,019
-526,262	-32,343	0,011	-0,005
-525,248	-117,318	0,049	-0,006
-524,233	-106,026	0,137	0,023
-523,218	-200,000	0,010	-0,062
-522,204	-142,016	0,075	0,005
-521,189	131,701	-0,025	0,024
-520,175	-200,000	-0,056	-0,213
-519,160	-16,725	-0,086	0,040
-518,145	252,785	-0,101	0,128
-517,131	302,294	-0,065	0,088
-516,116	-118,379	-0,054	-0,007
-515,102	196,565	-0,019	0,022
-514,087	-200,000	-0,017	0,119
-513,072	-121,917	-0,148	-0,018
-512,058	-200,000	0,012	-0,097
-511,043	541,240	0,013	-0,023
-510,029	-200,000	-0,008	0,041
-509,014	-100,605	0,138	0,025
-507,999	800,000	0,006	0,016
-506,985	-200,000	0,010	-0,034
-505,970	23,955	-0,153	-0,093
-504,956	569,253	0,023	-0,041
-503,941	-60,966	-0,013	-0,004
-502,926	11,898	0,106	-0,060
-501,912	286,581	0,053	0,071
-500,897	351,667	-0,046	-0,067
-499,883	-21,573	0,091	0,041
-498,868	16,338	-0,191	-0,111
-497,853	-200,000	-0,000	-0,015
-496,839	-71,017	0,059	-0,016
-495,824	-189,250	0,059	-0,000
-494,810	127,249	0,129	0,121
-493,795	-200,000	0,002	-0,107
-492,781	-200,000	0,018	0,087
-491,766	-200,000	0,012	-0,068
-490,751	-200,000	-0,001	-0,077
-489,737	10,177	0,105	0,059
-488,722	97,271	0,063	0,053
-487,708	310,181	0,070	0,097
-486,693	800,000	0,023	0,058
-485,678	31,698	0,094	-0,059
-484,664	-37,906	-0,011	0,004
-483,649	452,576	-0,047	-0,077
-482,635	-200,000	0,007	-0,085
-481,620	-200,000	0,002	0,018
-480,605	-22,886	0,072	-0,032
-479,591	-200,000	0,003	0,047
-478,576	632,955	-0,059	0,110
-477,562	-200,000	-0,015	0,091
-476,547	-196,754	0,030	0,000
-475,532	-200,000	-0,002	-0,043
-474,518	-2,676	0,054	0,028
-473,503	-200,000	0,005	0,076
-472,489	-76,433	-0,061	-0,016
-471,474	800,000	-0,026	0,074
-470,459	-200,000	-0,002	-0,007
-469,445	-51,881	-0,073	0,025
-468,430	-200,000	0,026	0,090
-467,416	-200,000	-0,002	-0,048
-466,401	231,596	-0,081	0,099
-465,386	-39,729	0,079	0,030
-464,372	-90,091	-0,231	-0,049
-463,357	-200,000	-0,003	0,129
-462,343	-200,000	0,008	0,028
-461,328	-55,944	0,066	0,022
-460,313	42,177	0,088	-0,059
-459,299	42,269	0,043	0,029
-458,284	-200,000	0,025	0,173
-457,270	-115,701	0,128	-0,018
-456,255	-55,088	-0,115	0,038
-455,241	623,053	0,040	-0,074
-454,226	560,516	-0,043	-0,077
-453,211	800,000	0,046	-0,102
-452,197	726,854	0,036	0,072
-451,182	85,117	0,146	-0,118
-450,168	110,787	0,035	0,031
-449,153	62,306	-0,040	-0,029
-448,138	-200,000	0,000	0,094
-447,124	-155,504	-0,158	0,007
-446,109	293,086	-0,009	0,013
-445,095	-24,955	0,097	-0,042
-444,080	-200,000	-0,022	0,101
-443,065	-14,191	0,063	0,030
-442,051	-61,554	-0,182	-0,056
-441,036	198,718	-0,044	-0,049
-440,022	405,290	-0,039	-0,060
-439,007	-36,666	0,140	-0,055
-437,992	-167,795	0,126	0,004
-436,978	32,719	0,097	0,062
-435,963	-200,000	0,013	0,052
-434,949	358,944	0,090	-0,133
-433,934	192,884	-0,031	-0,035
-432,919	-200,000	-0,003	0,026
-431,905	88,029	0,027	0,022
-430,890	-200,000	-0,006	0,046
-429,876	-77,692	0,033	-0,008
-428,861	46,079	0,047	0,032
-427,846	166,470	-0,029	-0,030
-426,832	97,993	-0,068	0,057
-425,817	611,987	-0,005	0,008
-424,803	-200,000	0,026	-0,139
-423,788	-32,580	-0,047	0,019
-422,773	-151,926	0,031	0,002
-421,759	366,759	0,011	0,017
-420,744	800,000	-0,024	0,062
-419,730	-169,860	0,072	0,002
-418,715	800,000	0,054	-0,155
-417,701	-78,119	0,031	-0,008
-416,686	513,417	0,118	0,204
-415,671	-133,756	0,166	0,015
-414,657	800,000	-0,042	0,126
-413,642	-61,731	0,097	-0,030
-412,628	-200,000	0,020	-0,140
-411,613	228,706	0,048	-0,058
-410,598	48,248	-0,035	-0,024
-409,584	52,506	-0,030	0,021
-408,569	509,827	0,012	0,021
-407,555	800,000	-0,067	0,159
-406,540	206,405	0,039	-0,044
-405,525	317,920	0,029	-0,040
-404,511	800,000	0,024	-0,061
-403,496	3,749	0,049	-0,026
-402,482	-200,000	0,001	0,159
-401,467	-111,753	-0,052	0,008
-400,452	-111,864	-0,031	0,005
-399,438	119,687	0,091	-0,083
-398,423	95,258	-0,068	0,057
-397,409	800,000	-0,045	-0,116
-396,394	490,566	-0,032	0,053
-395,379	99,193	-0,037	-0,032
-394,365	221,260	0,024	0,028
-393,350	283,050	0,059	0,078
-392,336	800,000	-0,052	0,111
-391,321	800,000	-0,016	0,042
-390,306	316,419	0,024	0,033
-389,292	61,326	-0,084	0,061
-388,277	-200,000	0,030	0,118
-387,263	15,892	0,006	0,003
-386,248	-21,130	0,071	-0,032
-385,233	-200,000	-0,002	-0,100
-384,219	-200,000	-0,007	-0,123
-383,204	-200,000	0,003	-0,084
-382,190	-200,000	-0,003	0,025
-381,175	-108,091	0,010	-0,002
-380,160	182,214	-0,057	-0,061
-379,146	-200,000	-0,002	-0,057
-378,131	-39,431	-0,050	0,019
-377,117	-47,081	0,049	0,017
-376,102	75,739	-0,082	0,064
-375,088	248,397	-0,049	-0,061
-374,073	-200,000	0,031	-0,108
-373,058	71,990	0,056	-0,043
-372,044	43,356	0,078	0,052
-371,029	617,347	0,021	0,039
-370,015	-72,428	0,019	-0,005
-369,000	-69,439	-0,101	0,028
-367,985	-69,903	-0,060	-0,017
-366,971	-57,517	0,170	-0,054
-365,956	-28,787	-0,107	-0,045
-364,942	539,209	0,051	0,089
-363,927	168,578	-0,075	-0,079
-362,912	-105,937	-0,158	-0,026
-361,898	800,000	0,026	-0,077
-360,883	-111,937	-0,079	0,012
-359,869	-190,906	0,164	0,001
-358,854	93,988	0,047	-0,039
-357,839	246,975	0,015	-0,018
-356,825	800,000	-0,003	0,006
-355,810	659,550	0,030	0,057
-354,796	800,000	0,042	-0,114
-353,781	177,449	0,067	-0,072
-352,766	-102,892	-0,097	0,017
-351,752	161,651	-0,024	-0,025
-350,737	800,000	-0,020	0,056
-349,723	24,475	0,091	0,055
-348,708	301,953	0,056	0,077
-347,693	-200,000	0,001	0,048
-346,679	800,000	-0,040	0,117
-345,664	-69,219	-0,078	-0,022
-344,650	-200,000	0,008	-0,054
-343,635	185,891	0,066	-0,073
-342,620	800,000	0,049	0,146
-341,606	68,490	-0,042	-0,031
-340,591	-200,000	0,003	-0,091
-339,577	570,514	-0,058	-0,105
-338,562	800,000	-0,011	-0,034
-337,548	-42,316	0,049	0,018
-336,533	-18,542	0,072	-0,033
-335,518	-49,959	-0,021	-0,007
-334,504	5,271	0,126	-0,068
-333,489	125,809	0,095	0,088
-332,475	207,330	-0,003	-0,003
-331,460	-0,412	0,032	-0,016
-330,445	44,558	-0,097	0,065
-329,431	589,470	-0,028	-0,051
-328,416	226,549	0,036	-0,042
-327,402	-200,000	0,006	0,087
-326,387	-11,819	-0,064	0,031
-325,372	464,108	-0,084	0,138
-324,358	-43,601	-0,045	0,016
-323,343	-200,000	0,015	0,052
-322,329	-200,000	0,023	0,108
-321,314	145,425	-0,049	0,048
-320,299	-200,000	-0,010	0,047
-319,285	-141,688	-0,072	-0,005
-318,270	246,449	0,054	-0,067
-317,256	-16,305	0,069	-0,032
-316,241	16,229	0,215	0,124
-315,226	-67,262	0,050	-0,014
-314,212	296,616	-0,014	0,019
-313,197	-91,807	0,190	0,039
-312,183	136,857	-0,032	0,031
-311,168	-124,387	-0,199	0,022
-310,153	90,259	0,032	0,026
-309,139	-71,612	-0,071	-0,019
-308,124	-200,000	0,018	-0,123
-307,110	800,000	0,059	0,124
-306,095	800,000	-0,038	0,088
-305,080	-53,253	0,077	-0,026
-304,066	-111,806	-0,098	-0,014
-303,051	-40,202	-0,223	-0,085
-302,037	458,221	0,038	0,062
-301,022	223,650	0,064	0,076
-300,008	-20,891	-0,063	0,028
-298,993	43,551	0,200	0,134
-297,978	363,200	0,044	0,065
-296,964	319,192	-0,065	-0,091
-295,949	-70,451	-0,130	-0,036
-294,935	-83,465	-0,138	-0,032
-293,920	721,142	-0,013	-0,024
-292,905	-46,526	-0,085	0,030
-291,891	800,000	-0,017	-0,043
-290,876	69,530	-0,043	-0,032
-289,862	362,290	0,089	0,131
-288,847	-200,000	-0,001	-0,057
-287,832	-200,000	0,001	-0,108
-286,818	800,000	0,016	-0,045
-285,803	800,000	-0,032	0,088
-284,789	-170,003	0,083	-0,002
-283,774	-200,000	-0,027	-0,105
-282,759	-19,636	-0,116	0,052
-281,745	91,404	-0,055	0,045
-280,730	800,000	-0,020	-0,061
-279,716	-140,815	-0,117	0,009
-278,701	228,252	-0,041	-0,049
-277,686	-70,174	0,139	0,038
-276,672	-200,000	-0,013	0,220
-275,657	519,605	-0,062	0,107
-274,643	-200,000	0,015	0,074
-273,628	-8,560	-0,076	0,037
-272,613	-114,955	-0,138	-0,019
-271,599	2,128	0,080	0,042
-270,584	-186,241	-0,059	-0,001
-269,570	519,887	-0,035	-0,059
-268,555	101,812	0,096	-0,082
-267,540	800,000	-0,022	-0,057
-266,526	800,000	-0,017	0,052
-265,511	800,000	-0,017	-0,050
-264,497	717,602	0,040	-0,079
-263,482	-200,000	0,009	-0,088
-262,467	800,000	-0,019	0,057
-261,453	54,959	-0,032	-0,023
-260,438	123,866	-0,079	-0,073
-259,424	-141,723	0,079	0,006
-258,409	-85,963	-0,087	0,020
-257,395	-13,852	0,063	0,030
-256,380	198,250	0,108	-0,121
-255,365	-200,000	0,018	-0,084
-254,351	-17,494	0,038	0,017
-253,336	204,273	-0,005	-0,005
-252,322	-200,000	0,002	-0,070
-251,307	-200,000	0,008	-0,039
-250,292	483,940	-0,114	0,190
-249,278	57,621	0,089	0,064
-248,263	321,139	0,030	0,042
-247,249	80,443	0,037	0,029
-246,234	247,276	0,047	0,058
-245,219	800,000	-0,045	-0,097
-244,205	85,961	-0,122	-0,098
-243,190	-98,953	0,101	0,019
-242,176	516,484	0,054	0,093
-241,161	-200,000	-0,005	-0,041
-240,146	-40,509	0,091	-0,034
-239,132	800,000	0,034	-0,079
-238,117	-200,000	0,015	0,079
-237,103	119,943	0,083	0,075
-236,088	-80,804	0,075	-0,018
-235,073	102,400	0,017	0,014
-234,059	88,990	-0,082	0,067
-233,044	-200,000	0,017	-0,105
-232,030	-44,605	0,045	0,016
-231,015	-41,062	-0,056	-0,021
-230,000	-9,733	-0,007	-0,004
-228,986	-191,695	-0,195	-0,001
-227,971	-200,000	0,021	0,070
-226,957	141,239	-0,027	-0,026
-225,942	-184,883	0,042	0,000
-224,927	148,557	0,060	0,060
-223,913	264,242	-0,046	0,059
-222,898	-200,000	0,006	0,030
-221,884	-157,859	-0,072	0,003
-220,869	102,168	0,077	-0,066
-219,855	55,851	0,062	0,044
-218,840	800,000	0,037	-0,095
-217,825	-83,819	-0,161	-0,037
-216,811	-200,000	0,007	0,039
-215,796	113,820	0,047	-0,042
-214,782	-23,320	0,074	0,032
-213,767	176,983	-0,058	0,061
-212,752	800,000	0,026	-0,074
-211,738	800,000	0,027	-0,070
-210,723	30,213	0,170	0,106
-209,709	-61,253	0,117	0,036
-208,694	438,703	0,048	-0,077
-207,679	-200,000	0,016	0,055
-206,665	-200,000	0,003	0,138
-205,650	259,861	0,079	0,100
-204,636	-200,000	0,010	-0,083
-203,621	-200,000	-0,002	0,014
-202,606	78,432	-0,117	0,091
-201,592	-13,553	-0,109	-0,051
-200,577	230,160	0,037	-0,044
-199,563	-200,000	-0,017	0,086
-198,548	-200,000	0,149	-0,000
-197,533	-99,561	0,158	0,029
-196,519	-77,410	0,034	0,009
-195,504	-15,524	-0,065	0,030
-194,490	41,130	-0,032	-0,021
-193,475	331,165	-0,050	-0,070
-192,460	-62,557	0,114	0,034
-191,446	454,053	-0,067	0,108
-190,431	60,547	0,103	0,074
-189,417	489,152	0,017	0,029
-188,402	-145,339	-0,029	0,002
-187,387	686,473	0,023	0,044
-186,373	-147,028	-0,087	-0,005
-185,358	-46,279	-0,079	-0,028
-184,344	-200,000	0,010	-0,050
-183,329	65,045	0,075	-0,055
-182,315	346,214	0,025	0,035
-181,300	-200,000	0,029	-0,123
-180,285	-200,000	-0,013	-0,046
-179,271	-200,000	-0,005	0,037
-178,256	219,667	0,034	0,040
-177,242	-124,109	-0,064	-0,007
-176,227	736,561	-0,006	-0,011
-175,212	598,433	-0,028	0,051
-174,198	-87,746	-0,037	0,008
-173,183	-200,000	0,018	-0,087
-172,169	-34,222	0,127	-0,051
-171,154	638,582	0,035	0,064
-170,139	94,164	0,078	0,064
-169,125	398,289	-0,002	0,003
-168,110	-150,403	0,052	-0,003
-167,096	-200,000	0,023	0,102
-166,081	344,639	-0,087	0,124
-165,066	800,000	-0,043	-0,100
-164,052	-200,000	-0,010	-0,118
-163,037	800,000	0,010	0,031
-162,023	7,513	0,116	-0,063
-161,008	359,983	0,086	-0,125
-159,993	-200,000	-0,003	0,030
-158,979	800,000	0,024	-0,053
-157,964	784,595	-0,108	-0,217
-156,950	46,718	-0,077	-0,052
-155,935	298,840	-0,026	0,034
-154,920	96,427	-0,072	-0,060
-153,906	378,861	0,017	-0,026
-152,891	478,549	0,060	-0,100
-151,877	800,000	0,045	0,100
-150,862	800,000	-0,044	-0,136
-149,847	800,000	-0,005	0,016
-148,833	-76,847	-0,104	-0,026
-147,818	189,850	0,149	-0,164
-146,804	-200,000	-0,022	0,164
-145,789	-200,000	0,007	-0,043
-144,775	32,798	-0,085	-0,053
-143,760	214,137	0,024	-0,028
-142,745	130,444	0,093	0,087
-141,731	543,123	0,057	-0,100
-140,716	-200,000	0,016	0,102
-139,702	-200,000	-0,033	0,114
-138,687	800,000	0,046	0,102
-137,672	171,658	-0,092	-0,097
-136,658	800,000	-0,040	0,111
-135,643	-1,497	-0,090	-0,046
-134,629	-152,852	0,077	0,004
-133,614	800,000	-0,053	-0,115
-132,599	-157,750	0,115	0,005
-131,585	795,679	-0,056	0,113
-130,570	81,019	-0,070	0,055
-129,556	-200,000	-0,019	0,110
-128,541	-0,159	0,020	0,010
-127,526	-60,207	0,091	-0,028
-126,512	-42,112	-0,031	0,011
-125,497	800,000	-0,030	-0,081
-124,483	84,341	0,056	0,044
-123,468	-200,000	0,002	-0,064
-122,453	-200,000	-0,019	0,062
-121,439	-200,000	0,009	-0,076
-120,424	-200,000	0,003	0,033
-119,410	-200,000	-0,006	0,179
-118,395	-63,390	0,042	-0,012
-117,380	-200,000	0,025	0,143
-116,366	164,263	-0,088	-0,091
-115,351	-129,592	-0,039	-0,004
-114,337	517,154	0,029	-0,049
-113,322	800,000	-0,006	-0,019
-112,307	-200,000	-0,006	-0,082
-111,293	800,000	-0,016	0,035
-110,278	204,050	0,026	0,029
-109,264	593,523	-0,018	0,032
-108,249	719,668	-0,024	-0,047
-107,234	-58,842	0,161	0,050
-106,220	-200,000	-0,005	-0,081
-105,205	800,000	-0,024	-0,063
-104,191	-200,000	0,004	-0,061
-103,176	-46,350	-0,045	-0,016
-102,162	639,936	0,040	-0,074
-101,147	800,000	0,011	0,022
-100,132	800,000	-0,066	-0,183
-99,118	-165,449	-0,084	0,003
-98,103	137,522	-0,092	0,087
-97,089	-200,000	0,008	0,112
-96,074	-200,000	0,026	0,213
-95,059	-107,504	-0,091	-0,014
-94,045	26,912	0,085	-0,052
-93,030	-191,507	-0,041	-0,000
-92,016	509,386	0,048	-0,082
-91,001	-200,000	0,017	-0,057
-89,986	159,582	0,040	0,041
-88,972	36,533	-0,093	-0,060
-87,957	57,190	0,154	0,109
-86,943	-30,262	-0,079	-0,032
-85,928	-89,345	-0,144	0,031
-84,913	-95,544	0,058	-0,011
-83,899	-200,000	0,009	0,058
-82,884	-200,000	0,021	0,185
-81,870	-200,000	0,009	0,067
-80,855	417,498	-0,059	0,092
-79,840	-6,601	0,120	-0,059
-78,826	-47,385	-0,077	0,027
-77,811	-33,296	-0,055	-0,022
-76,797	92,127	-0,045	0,037
-75,782	136,487	0,032	0,030
-74,767	-95,449	0,076	-0,015
-73,753	-200,000	0,008	0,074
-72,738	-142,160	0,073	-0,005
-71,724	-195,800	-0,013	0,000
-70,709	-200,000	0,001	-0,145
-69,694	42,063	-0,085	0,056
-68,680	706,254	-0,044	-0,084
-67,665	800,000	0,061	0,167
-66,651	-200,000	-0,008	0,157
-65,636	-18,284	-0,109	0,049
-64,622	-200,000	0,029	-0,159
-63,607	-200,000	0,005	-0,059
-62,592	-112,703	0,033	0,005
-61,578	-200,000	0,005	-0,022
-60,563	52,322	0,039	-0,027
-59,549	800,000	0,050	0,102
-58,534	-145,280	-1,415	-0,091
-57,519	800,000	-0,651	-1,402
-56,505	-200,000	-0,962	-4,541
-55,490	120,528	0,432	-0,390
-54,476	800,000	4,991	11,860
-53,461	-200,000	13,786	253,482
-52,446	-200,000	690,601	2255,980
-51,432	588,484	1622,628	2912,962
-50,417	118,764	1634,423	1465,216
-49,403	72,966	1288,630	976,003
-48,388	37,923	1023,987	659,235
-47,373	24,230	981,715	586,979
-46,359	23,474	971,437	578,330
-45,344	22,483	967,160	572,523
-44,330	22,346	965,625	571,145
-43,315	22,267	964,330	570,099
-42,300	22,267	963,228	569,423
-41,286	22,277	962,195	568,823
-40,271	22,298	961,254	568,312
-39,257	22,270	960,194	567,574
-38,242	22,227	959,536	567,020
-37,227	22,272	958,409	566,478
-36,213	22,266	957,611	565,966
-35,198	22,214	956,837	565,315
-34,184	22,195	956,264	564,893
-33,169	22,187	955,467	564,375
-32,154	22,285	954,416	564,047
-31,140	22,321	953,535	563,621
-30,125	22,337	952,573	563,082
-29,111	22,310	951,932	562,595
-28,096	22,300	951,203	562,108
-27,082	22,233	950,727	561,590
-26,067	22,320	949,616	561,190
-25,052	22,316	948,994	560,789
-24,038	22,301	948,454	560,399
-23,023	22,232	947,913	559,836
-22,009	22,316	947,126	559,617
-20,994	22,326	946,460	559,233
-19,979	22,333	945,863	558,880
-18,965	22,314	945,256	558,440
-17,950	22,287	944,817	558,073
-16,936	22,320	943,723	557,509
-15,921	22,227	943,220	556,892
-14,906	22,241	942,392	556,426
-13,892	22,210	941,861	555,993
-12,877	22,177	941,250	555,505
-11,863	22,095	940,730	554,914
-10,848	22,125	940,132	554,637
-9,833	22,281	939,509	554,742
-8,819	22,259	939,118	554,418
-7,804	22,196	938,297	553,713
-6,790	22,194	937,791	553,385
-5,775	22,183	937,249	553,010
-4,760	22,186	936,371	552,477
-3,746	22,153	936,000	552,134
-2,731	22,090	935,305	551,503
-1,717	22,019	934,496	550,779
-0,702	21,977	933,816	550,222
0,313	21,783	933,326	550,154
1,327	24,947	931,211	558,807
2,342	34,677	795,727	503,418
3,356	32,660	451,660	282,678
4,371	1,702	294,021	153,098
5,386	-2,707	274,899	138,952
6,400	-4,250	269,020	134,536
7,415	-4,896	266,525	132,682
8,429	-4,548	265,328	132,394
9,444	-4,656	264,462	131,850
10,459	-4,699	263,999	131,569
11,473	-4,529	263,383	131,405
12,488	-4,666	262,782	130,969
13,502	-4,857	262,126	130,458
14,517	-4,902	261,824	130,255
15,531	-4,738	261,495	130,228
16,546	-4,732	261,095	130,023
17,561	-4,714	260,705	129,833
18,575	-4,598	260,461	129,804
19,590	-4,715	260,092	129,503
20,604	-4,791	259,926	129,341
21,619	-4,749	259,470	129,140
22,634	-4,703	259,159	129,015
23,648	-4,732	258,816	128,806
24,663	-4,728	258,518	128,651
25,677	-5,095	258,457	128,282
26,692	-4,748	258,103	128,403
27,707	-4,970	257,876	128,081
28,721	-4,796	257,708	128,141
29,736	-4,891	257,334	127,860
30,750	-4,937	257,045	127,664
31,765	-4,668	256,864	127,800
32,780	-4,975	256,500	127,337
33,794	-4,821	256,366	127,395
34,809	-4,870	256,195	127,256
35,823	-4,708	255,958	127,269
36,838	-4,750	255,633	127,059
37,853	-4,880	255,332	126,784
38,867	-4,995	255,100	126,557
39,882	-4,880	254,949	126,572
40,896	-4,903	254,819	126,475
41,911	-4,883	254,562	126,354
42,926	-4,830	254,316	126,267
43,940	-4,881	254,056	126,082
44,955	-5,089	253,982	125,853
45,969	-5,036	253,591	125,693
46,984	-5,294	253,488	125,407
47,999	-5,271	253,102	125,224
49,013	-5,356	252,821	125,000
50,028	-5,583	252,598	124,681
51,042	-5,682	252,341	124,457
52,057	-5,784	252,090	124,234
53,071	-5,680	251,948	124,243
54,086	-5,507	251,663	124,241
55,101	-5,612	251,632	124,124
56,115	-5,158	251,501	124,441
57,130	-5,019	251,522	124,561
58,144	-4,705	251,286	124,704
59,159	-4,793	251,030	124,490
60,174	-4,437	250,676	124,610
61,188	-4,594	250,626	124,438
62,203	-4,736	250,294	124,140
63,217	-4,635	250,073	124,107
64,232	-4,650	250,003	124,048
65,247	-4,830	249,791	123,777
66,261	-4,679	249,453	123,728
67,276	-4,947	249,272	123,398
68,290	-5,050	249,025	123,177
69,305	-5,276	248,901	122,911
70,320	-5,360	248,591	122,675
71,334	-5,079	248,538	122,877
72,349	-4,682	248,354	123,114
73,363	-4,563	248,129	123,093
74,378	-4,692	248,028	122,922
75,393	-4,897	247,911	122,679
76,407	-4,855	247,652	122,576
77,422	-4,703	247,402	122,570
78,436	-4,638	247,151	122,490
79,451	-4,736	246,830	122,237
80,466	-4,909	246,745	122,038
81,480	-5,119	246,461	121,709
82,495	-5,263	246,282	121,487
83,509	-5,069	246,173	121,587
84,524	-4,860	245,787	121,562
85,539	-5,213	245,737	121,228
86,553	-5,061	245,409	121,184
87,568	-5,115	245,472	121,158
88,582	-5,035	245,063	121,013
89,597	-5,238	245,017	120,808
90,611	-5,032	244,943	120,935
91,626	-4,816	244,658	120,965
92,641	-4,633	244,497	121,027
93,655	-4,831	244,125	120,667
94,670	-4,948	244,182	120,586
95,684	-5,131	243,866	120,266
96,699	-5,072	243,739	120,242
97,714	-4,932	243,467	120,214
98,728	-5,234	243,264	119,852
99,743	-5,243	243,054	119,730
100,757	-5,328	242,956	119,600
101,772	-5,206	242,738	119,584
102,787	-5,132	242,594	119,564
103,801	-4,910	242,414	119,649
104,816	-4,911	242,286	119,574
105,830	-4,815	242,224	119,613
106,845	-4,924	241,986	119,393
107,860	-4,808	241,677	119,327
108,874	-4,848	241,468	119,180
109,889	-4,965	241,454	119,066
110,903	-5,039	241,103	118,820
111,918	-5,109	241,020	118,712
112,933	-4,919	240,806	118,752
113,947	-5,118	240,703	118,527
114,962	-4,943	240,511	118,566
115,976	-5,034	240,347	118,399
116,991	-4,831	240,156	118,462
118,006	-5,090	240,056	118,189
119,020	-4,855	239,980	118,334
120,035	-4,777	239,855	118,325
121,049	-4,903	239,597	118,085
122,064	-4,705	239,441	118,159
123,079	-4,755	239,131	117,955
124,093	-5,044	238,930	117,610
125,108	-5,043	238,619	117,447
126,122	-5,371	238,497	117,109
127,137	-5,370	238,338	117,021
128,151	-5,405	238,207	116,917
129,166	-5,170	237,999	116,997
130,181	-5,093	237,796	116,948
131,195	-5,156	237,700	116,840
132,210	-5,153	237,557	116,761
133,224	-4,824	237,217	116,850
134,239	-4,787	237,210	116,867
135,254	-4,772	237,008	116,769
136,268	-4,943	236,737	116,487
137,283	-5,270	236,584	116,137
138,297	-5,327	236,296	115,939
139,312	-5,366	236,212	115,856
140,327	-5,187	236,105	115,937
141,341	-4,666	236,104	116,347
142,356	-4,603	235,911	116,291
143,370	-4,572	235,875	116,288
144,385	-4,567	235,594	116,144
145,400	-4,543	235,395	116,055
146,414	-4,574	235,244	115,945
147,429	-4,685	235,141	115,795
148,443	-4,580	234,837	115,719
149,458	-4,606	234,792	115,666
150,473	-4,406	234,553	115,697
151,487	-4,692	234,314	115,341
152,502	-4,686	234,262	115,310
153,516	-4,478	234,023	115,348
154,531	-4,622	233,859	115,142
155,546	-4,466	233,736	115,195
156,560	-4,729	233,524	114,872
157,575	-4,727	233,357	114,780
158,589	-4,758	233,119	114,629
159,604	-4,624	233,114	114,722
160,619	-4,423	232,919	114,775
161,633	-4,667	232,796	114,512
162,648	-4,677	232,708	114,450
163,662	-4,671	232,507	114,346
164,677	-4,727	232,279	114,179
165,692	-4,577	232,146	114,222
166,706	-4,583	232,079	114,174
167,721	-4,413	231,889	114,205
168,735	-4,519	231,788	114,061
169,750	-4,451	231,589	114,007
170,764	-4,558	231,480	113,859
171,779	-4,403	231,450	113,956
172,794	-4,313	231,125	113,856
173,808	-4,385	230,955	113,706
174,823	-5,195	230,681	112,925
175,837	-5,184	230,463	112,816
176,852	-4,746	230,293	113,067
177,867	-4,562	230,380	113,244
178,881	-4,602	230,270	113,148
179,896	-4,588	230,119	113,075
180,910	-4,466	229,807	113,006
181,925	-4,651	229,803	112,850
182,940	-4,503	229,632	112,872
183,954	-4,289	229,422	112,925
184,969	-4,419	229,297	112,752
185,983	-4,439	229,261	112,709
186,998	-4,333	228,946	112,626
188,013	-4,227	228,817	112,635
189,027	-4,505	228,858	112,429
190,042	-4,413	228,543	112,336
191,056	-4,388	228,291	112,222
192,071	-4,354	228,275	112,230
193,086	-4,408	228,086	112,085
194,100	-4,357	227,961	112,053
195,115	-4,664	227,701	111,678
196,129	-5,266	227,293	111,003
197,144	-1,866	228,509	114,224
198,159	2,295	229,680	118,035
199,173	4,143	230,011	119,630
200,188	4,400	229,850	119,736
201,202	4,311	229,783	119,621
202,217	4,333	229,837	119,655
203,232	4,957	229,492	119,948
204,246	4,987	229,348	119,886
205,261	4,820	229,289	119,715
206,275	5,061	229,213	119,851
207,290	4,937	229,046	119,657
208,304	5,182	228,822	119,718
209,319	4,936	228,599	119,401
210,334	4,890	228,531	119,320
211,348	4,478	228,317	118,880
212,363	4,160	228,037	118,479
213,377	4,048	227,724	118,220
214,392	4,023	227,589	118,121
215,407	4,212	227,560	118,240
216,421	4,202	227,407	118,142
217,436	4,024	227,184	117,880
218,450	4,140	226,950	117,836
219,465	4,004	226,721	117,603
220,480	4,020	226,654	117,570
221,494	3,826	226,598	117,382
222,509	4,046	226,447	117,461
223,523	4,162	226,219	117,421
224,538	4,210	226,042	117,355
225,553	4,234	226,037	117,361
226,567	4,332	225,882	117,344
227,582	4,541	225,815	117,458
228,596	4,322	225,744	117,244
229,611	4,017	225,446	116,847
230,626	4,057	225,335	116,810
231,640	4,064	225,069	116,667
232,655	4,255	225,035	116,783
233,669	4,668	224,883	117,006
234,684	4,804	224,858	117,086
235,699	4,426	224,625	116,668
236,713	4,193	224,474	116,404
237,728	4,194	224,200	116,252
238,742	3,983	224,059	116,009
239,757	3,917	223,895	115,864
240,772	4,083	223,662	115,859
241,786	3,966	223,478	115,664
242,801	4,184	223,645	115,905
243,815	4,255	223,617	115,933
244,830	4,459	223,230	115,876
245,844	4,196	223,132	115,617
246,859	4,357	222,874	115,594
247,874	4,443	222,879	115,650
248,888	4,414	222,743	115,548
249,903	4,194	222,464	115,229
250,917	4,078	222,433	115,115
251,932	4,193	222,116	115,026
252,947	3,983	221,949	114,773
253,961	4,169	221,835	114,843
254,976	4,093	221,757	114,736
255,990	4,384	221,679	114,902
257,005	4,308	221,556	114,771
258,020	4,420	221,337	114,731
259,034	4,508	221,311	114,773
260,049	4,413	221,170	114,618
261,063	4,436	220,944	114,508
262,078	4,581	220,873	114,569
263,093	4,756	220,645	114,570
264,107	4,343	220,619	114,241
265,122	4,374	220,468	114,175
266,136	4,712	220,360	114,359
267,151	4,514	220,159	114,098
268,166	4,323	219,925	113,825
269,180	3,858	219,795	113,405
270,195	3,915	219,594	113,334
271,209	3,900	219,570	113,299
272,224	4,107	219,338	113,323
273,239	4,186	219,232	113,315
274,253	4,214	219,002	113,207
275,268	4,083	218,719	112,954
276,282	4,024	218,714	112,898
277,297	3,814	218,505	112,627
278,312	3,784	218,495	112,590
279,326	4,165	218,308	112,762
280,341	3,978	218,264	112,592
281,355	4,192	218,004	112,605
282,370	4,106	218,033	112,547
283,384	4,026	217,775	112,345
284,399	3,851	217,535	112,083
285,414	3,802	217,429	111,983
286,428	4,059	217,414	112,153
287,443	4,133	217,295	112,135
288,457	4,237	217,167	112,135
289,472	4,012	217,034	111,893
290,487	3,796	216,691	111,550
291,501	3,708	216,609	111,433
292,516	3,639	216,500	111,317
293,530	4,017	216,279	111,468
294,545	3,825	216,185	111,270
295,560	4,174	216,033	111,434
296,574	4,015	216,007	111,296
297,589	3,852	216,010	111,169
298,603	4,269	215,725	111,314
299,618	4,210	215,647	111,222
300,633	4,131	215,588	111,124
301,647	4,529	215,378	111,293
302,662	4,265	215,241	111,022
303,676	4,127	215,250	110,917
304,691	4,266	215,003	110,880
305,706	4,336	214,888	110,861
306,720	4,340	214,737	110,776
307,735	4,418	214,437	110,667
308,749	4,302	214,229	110,467
309,764	4,232	214,238	110,412
310,779	4,438	214,135	110,496
311,793	4,379	214,026	110,389
312,808	4,180	213,786	110,112
313,822	4,236	213,584	110,039
314,837	4,105	213,501	109,892
315,852	3,808	213,434	109,636
316,866	3,992	213,373	109,727
317,881	4,238	213,196	109,800
318,895	4,306	213,109	109,795
319,910	3,917	212,974	109,439
320,925	3,844	212,579	109,174
321,939	3,761	212,449	109,038
322,954	3,881	212,324	109,050
323,968	4,117	212,478	109,286
324,983	4,151	212,272	109,195
325,997	4,346	212,122	109,246
327,012	4,267	211,882	109,057
328,027	4,108	211,863	108,925
329,041	4,527	211,878	109,220
330,056	4,654	211,602	109,157
331,070	4,133	211,323	108,636
332,085	3,708	211,082	108,203
333,100	3,986	211,041	108,368
334,114	4,156	210,998	108,456
335,129	4,029	210,782	108,246
336,143	3,702	210,591	107,908
337,158	3,923	210,456	107,985
338,173	4,116	210,401	108,083
339,187	3,967	210,171	107,850
340,202	3,923	210,004	107,724
341,216	3,721	209,903	107,521
342,231	3,939	209,797	107,610
343,246	4,089	209,661	107,635
344,260	4,101	209,494	107,548
345,275	4,103	209,426	107,505
346,289	4,002	209,426	107,425
347,304	4,038	209,324	107,389
348,319	4,237	209,092	107,399
349,333	3,818	209,025	107,062
350,348	4,183	208,926	107,256
351,362	4,303	208,719	107,224
352,377	4,324	208,542	107,138
353,392	4,042	208,483	106,902
354,406	4,279	208,286	106,956
355,421	194,630	1345,086	1436,309
356,435	155,320	1483,696	1436,429
