DTS Sentinel unit serial number:	SN410029Multiplexer serial number:	ORYXHardware model number:	OX2-SRSoftware version number:	ORYX F/W v4,00 Oryx Data Collector v3.7.2.0data status	okinstallation	B6 Nyhavnadifferential loss correction	single-endedforward channel	channel 2reverse channel	N/Adate	2023/12/10time	19:40:08forward acquisition time	300,00reverse acquisition time	0,00gamma	499,1914k internal	0,3123k external	0,3123temperature offset calibration	1,0000default loss term (dB/km)	0,3820temperature slope calibration	1,0000multiplexer offset coefficient	1,0000multiplexer slope coefficient	1,0000fibre end	0,00T internal ref (°C)	22,32T ext. ref 1 (°C)	5,99T ext. ref 2 (°C)	5,99length (m)	temperature (°C)	Stokes	anti-Stokes-744,400	-200,000	0,001	-0,147
-743,385	72,049	-0,193	0,150
-742,371	42,578	0,026	0,018
-741,356	-18,554	-0,162	0,075
-740,342	100,355	0,055	0,047
-739,327	-82,235	-0,370	0,089
-738,312	-200,000	-0,020	-0,147
-737,298	-169,637	-0,326	0,009
-736,283	49,567	-0,036	-0,025
-735,269	1,077	-0,254	0,135
-734,254	-10,320	0,082	-0,040
-733,239	-90,662	-0,392	-0,084
-732,225	-113,866	0,105	0,015
-731,210	-200,000	-0,013	-0,075
-730,196	387,348	0,081	-0,125
-729,181	-38,488	-0,083	-0,033
-728,167	-138,179	-0,108	-0,009
-727,152	800,000	0,011	0,023
-726,137	126,603	-0,100	-0,095
-725,123	800,000	0,018	-0,044
-724,108	-2,224	-0,079	-0,041
-723,094	-200,000	-0,002	-0,026
-722,079	181,648	-0,033	-0,036
-721,064	-114,453	-0,110	0,016
-720,050	111,093	-0,109	0,098
-719,035	-119,479	-0,058	0,007
-718,021	-200,000	0,026	0,090
-717,006	-24,049	0,051	-0,022
-715,991	-14,548	-0,082	0,039
-714,977	-174,482	-0,181	-0,004
-713,962	-200,000	0,003	-0,021
-712,948	-200,000	-0,012	0,054
-711,933	-200,000	-0,006	0,106
-710,918	232,189	0,120	0,147
-709,904	-46,047	-0,103	-0,038
-708,889	-200,000	-0,019	-0,084
-707,875	483,939	-0,019	-0,032
-706,860	10,814	0,144	-0,082
-705,845	-200,000	0,003	-0,044
-704,831	60,738	0,143	0,105
-703,816	95,764	-0,043	-0,036
-702,802	-9,955	-0,051	-0,025
-701,787	103,705	0,068	-0,059
-700,772	-200,000	-0,001	0,080
-699,758	55,621	-0,082	0,059
-698,743	-200,000	0,003	0,012
-697,729	-183,351	-0,076	0,001
-696,714	261,806	-0,061	0,079
-695,699	-200,000	0,022	0,118
-694,685	-27,018	-0,041	-0,018
-693,670	281,175	0,071	-0,095
-692,656	740,746	-0,027	-0,054
-691,641	37,097	-0,109	0,072
-690,627	-160,750	0,056	0,002
-689,612	43,276	0,041	-0,028
-688,597	-30,541	-0,028	-0,012
-687,583	82,837	0,068	0,055
-686,568	800,000	-0,050	-0,118
-685,554	-200,000	-0,001	-0,072
-684,539	-200,000	-0,017	0,112
-683,524	-200,000	-0,004	0,056
-682,510	-200,000	-0,013	0,079
-681,495	24,181	0,118	0,072
-680,481	-200,000	-0,049	-0,213
-679,466	-200,000	0,008	-0,070
-678,451	112,798	-0,043	0,039
-677,437	302,584	-0,038	-0,053
-676,422	-131,937	-0,060	-0,006
-675,408	70,039	-0,057	-0,043
-674,393	101,105	-0,024	0,021
-673,378	-200,000	0,010	-0,048
-672,364	-200,000	-0,002	-0,056
-671,349	-103,478	0,127	0,022
-670,335	764,317	0,015	0,031
-669,320	-47,315	0,037	0,013
-668,305	-200,000	0,008	-0,057
-667,291	-62,577	0,082	-0,025
-666,276	223,560	0,079	-0,095
-665,262	800,000	-0,068	-0,155
-664,247	51,109	0,069	-0,049
-663,232	432,411	-0,023	-0,037
-662,218	29,023	-0,137	-0,086
-661,203	364,222	0,052	0,078
-660,189	248,096	-0,064	0,080
-659,174	-42,137	-0,094	-0,036
-658,159	42,671	-0,025	-0,017
-657,145	-200,000	-0,018	-0,087
-656,130	-200,000	-0,008	0,130
-655,116	-135,425	0,064	0,006
-654,101	-53,989	0,089	0,030
-653,086	-24,260	-0,033	-0,014
-652,072	-200,000	0,037	-0,128
-651,057	800,000	-0,013	-0,030
-650,043	-200,000	-0,032	-0,130
-649,028	-200,000	0,023	-0,094
-648,014	-200,000	0,002	0,010
-646,999	583,121	0,033	0,061
-645,984	50,716	0,046	-0,032
-644,970	182,883	-0,107	-0,118
-643,955	-77,136	-0,231	-0,059
-642,941	106,982	-0,069	-0,061
-641,926	241,941	-0,041	0,051
-640,911	-22,622	-0,070	0,031
-639,897	-200,000	0,011	-0,061
-638,882	148,645	0,040	0,040
-637,868	193,065	0,106	0,119
-636,853	-167,454	0,015	-0,000
-635,838	-69,869	-0,180	0,051
-634,824	-143,152	-0,188	0,013
-633,809	-61,896	0,090	-0,028
-632,795	800,000	-0,037	0,096
-631,780	73,294	-0,007	-0,005
-630,765	383,096	-0,015	-0,023
-629,751	800,000	-0,007	0,017
-628,736	800,000	-0,037	-0,084
-627,722	-151,931	-0,014	0,001
-626,707	-200,000	0,033	-0,169
-625,692	-74,095	-0,142	-0,038
-624,678	-17,654	-0,060	0,028
-623,663	620,082	0,013	0,024
-622,649	800,000	-0,013	-0,033
-621,634	116,079	-0,034	-0,031
-620,619	-200,000	0,029	0,105
-619,605	430,318	0,048	0,078
-618,590	505,721	0,039	-0,067
-617,576	-200,000	0,009	0,040
-616,561	-200,000	0,027	-0,129
-615,546	-200,000	-0,034	-0,127
-614,532	-23,172	-0,077	0,034
-613,517	-61,725	0,078	-0,024
-612,503	-166,199	0,088	-0,003
-611,488	-200,000	-0,010	0,035
-610,474	421,549	-0,004	-0,006
-609,459	-30,659	0,034	-0,014
-608,444	800,000	-0,024	-0,071
-607,430	-95,296	0,116	-0,023
-606,415	308,795	-0,049	0,068
-605,401	-200,000	-0,033	-0,142
-604,386	800,000	-0,042	0,104
-603,371	-45,884	0,058	0,021
-602,357	129,125	0,035	0,034
-601,342	76,247	-0,049	0,039
-600,328	-200,000	0,012	-0,138
-599,313	112,376	0,026	0,023
-598,298	308,547	-0,077	-0,107
-597,284	60,151	-0,062	0,045
-596,269	800,000	-0,003	0,011
-595,255	-94,375	-0,077	0,015
-594,240	-200,000	0,004	-0,033
-593,225	-61,283	-0,109	0,034
-592,211	263,396	0,070	-0,090
-591,196	-121,465	-0,056	0,007
-590,182	-118,219	0,087	-0,011
-589,167	22,849	-0,099	0,060
-588,152	-153,517	0,133	-0,007
-587,138	173,950	0,033	0,035
-586,123	-200,000	-0,025	-0,214
-585,109	262,172	0,065	-0,083
-584,094	800,000	-0,070	-0,186
-583,079	-167,742	-0,052	0,002
-582,065	120,918	-0,064	0,059
-581,050	-160,033	0,068	0,003
-580,036	-29,189	-0,053	0,022
-579,021	800,000	-0,027	0,073
-578,006	368,288	-0,047	-0,070
-576,992	-200,000	-0,003	-0,037
-575,977	-51,716	0,050	-0,017
-574,963	157,564	0,015	-0,015
-573,948	10,792	-0,148	-0,083
-572,934	-200,000	0,005	-0,045
-571,919	693,054	0,013	0,026
-570,904	-200,000	0,019	-0,074
-569,890	-200,000	-0,012	-0,053
-568,875	-114,607	-0,048	-0,007
-567,861	95,523	-0,108	-0,091
-566,846	-125,844	0,102	-0,011
-565,831	800,000	0,045	-0,098
-564,817	0,684	0,035	0,019
-563,802	-69,959	0,073	-0,021
-562,788	126,467	-0,079	0,074
-561,773	15,768	-0,034	0,020
-560,758	386,582	-0,084	-0,129
-559,744	49,189	0,081	0,056
-558,729	-40,946	-0,172	0,066
-557,715	-200,000	0,028	-0,133
-556,700	-21,521	0,027	0,012
-555,685	183,980	0,050	-0,055
-554,671	112,505	-0,116	-0,104
-553,656	-171,403	0,058	-0,001
-552,642	130,108	0,059	0,056
-551,627	67,676	0,010	-0,007
-550,612	-70,513	-0,093	-0,026
-549,598	-12,201	0,100	0,048
-548,583	-15,419	-0,038	-0,018
-547,569	710,465	-0,064	-0,126
-546,554	-105,899	0,106	0,017
-545,539	71,586	0,028	0,021
-544,525	105,478	-0,008	0,007
-543,510	174,051	0,009	-0,009
-542,496	-141,652	-0,025	0,002
-541,481	-200,000	0,015	0,103
-540,466	208,717	-0,064	-0,074
-539,452	-16,107	0,113	-0,053
-538,437	-79,886	0,203	0,050
-537,423	91,094	0,050	0,041
-536,408	223,005	0,128	-0,153
-535,393	-138,474	-0,142	-0,011
-534,379	-23,444	-0,028	0,012
-533,364	69,653	0,037	0,028
-532,350	240,663	-0,104	0,129
-531,335	-200,000	0,000	0,027
-530,321	9,567	-0,151	0,084
-529,306	-36,927	-0,073	0,029
-528,291	41,023	0,077	-0,052
-527,277	220,123	-0,035	-0,041
-526,262	168,684	-0,037	-0,039
-525,248	183,446	0,052	0,057
-524,233	-34,339	0,052	-0,021
-523,218	-200,000	0,021	0,146
-522,204	158,498	-0,071	-0,073
-521,189	-200,000	0,017	-0,130
-520,175	146,369	0,020	-0,020
-519,160	-87,244	0,100	-0,022
-518,145	-52,871	0,042	-0,014
-517,131	515,143	0,030	-0,052
-516,116	331,498	0,049	-0,070
-515,102	-58,683	-0,107	0,034
-514,087	-200,000	-0,014	0,069
-513,072	-200,000	0,014	-0,044
-512,058	-151,790	-0,144	-0,008
-511,043	227,478	-0,084	0,101
-510,029	-139,227	0,115	0,009
-509,014	-200,000	-0,005	0,050
-507,999	-87,455	-0,139	0,031
-506,985	800,000	-0,029	-0,082
-505,970	-168,448	-0,176	-0,005
-504,956	-200,000	-0,003	-0,035
-503,941	72,039	-0,056	0,043
-502,926	800,000	0,048	0,150
-501,912	-16,953	-0,013	-0,006
-500,897	-200,000	0,022	0,108
-499,883	-90,071	-0,113	-0,024
-498,868	748,776	0,027	-0,055
-497,853	800,000	0,023	-0,061
-496,839	-75,392	0,041	0,011
-495,824	65,388	0,047	0,035
-494,810	-200,000	0,003	0,097
-493,795	-200,000	-0,025	-0,093
-492,781	372,363	-0,071	-0,107
-491,766	800,000	-0,066	-0,139
-490,751	-200,000	-0,041	-0,230
-489,737	71,332	0,085	-0,065
-488,722	-134,001	-0,061	0,005
-487,708	-200,000	0,028	0,102
-486,693	-41,481	0,150	-0,057
-485,678	-200,000	-0,016	0,087
-484,664	-200,000	-0,029	-0,155
-483,649	397,171	-0,043	-0,066
-482,635	-200,000	-0,012	-0,071
-481,620	311,971	0,043	0,060
-480,605	800,000	0,029	0,080
-479,591	-84,017	-0,095	-0,022
-478,576	393,656	0,054	-0,083
-477,562	397,697	-0,069	-0,107
-476,547	-127,422	-0,069	-0,007
-475,532	127,019	0,029	0,028
-474,518	57,299	0,090	-0,065
-473,503	800,000	0,025	0,070
-472,489	800,000	0,055	0,173
-471,474	65,487	-0,053	-0,040
-470,459	101,756	0,067	-0,058
-469,445	178,557	0,057	-0,062
-468,430	-161,636	0,166	-0,006
-467,416	-129,282	0,149	0,015
-466,401	-7,708	0,115	-0,057
-465,386	-104,920	-0,150	-0,025
-464,372	-32,622	0,151	-0,062
-463,357	311,595	-0,062	-0,085
-462,343	698,022	-0,074	-0,143
-461,328	262,736	0,077	0,098
-460,313	185,244	-0,086	-0,095
-459,299	250,026	0,075	0,094
-458,284	-35,141	0,030	0,012
-457,270	566,134	0,017	0,031
-456,255	98,006	-0,187	-0,158
-455,241	800,000	-0,036	-0,080
-454,226	-108,425	-0,070	-0,011
-453,211	-82,964	0,141	-0,033
-452,197	725,658	0,033	-0,066
-451,182	22,127	0,185	0,111
-450,168	-157,451	-0,164	0,007
-449,153	522,871	0,054	-0,094
-448,138	800,000	-0,023	-0,066
-447,124	800,000	-0,031	-0,093
-446,109	800,000	0,035	-0,075
-445,095	-102,093	0,119	0,021
-444,080	-200,000	-0,004	-0,143
-443,065	-200,000	-0,022	0,082
-442,051	-38,771	0,038	0,015
-441,036	-93,566	-0,137	-0,028
-440,022	-32,509	-0,041	-0,017
-439,007	-9,306	-0,121	-0,059
-437,992	-119,712	0,044	-0,006
-436,978	-77,385	0,069	0,018
-435,963	-200,000	0,004	0,043
-434,949	-50,908	-0,016	-0,005
-433,934	-156,202	0,026	0,001
-432,919	-200,000	-0,008	0,126
-431,905	-200,000	-0,003	0,161
-430,890	-200,000	0,007	-0,082
-429,876	-7,992	0,165	0,082
-428,861	341,899	0,032	-0,046
-427,846	191,496	-0,122	0,135
-426,832	-53,058	-0,098	-0,033
-425,817	-200,000	0,002	-0,036
-424,803	-200,000	0,005	-0,033
-423,788	640,698	0,041	0,076
-422,773	165,173	0,152	0,158
-421,759	800,000	-0,047	0,150
-420,744	18,422	0,032	-0,019
-419,730	-127,094	0,039	-0,004
-418,715	-82,544	0,047	-0,011
-417,701	-200,000	-0,029	-0,161
-416,686	-111,690	-0,074	0,011
-415,671	216,979	0,041	0,048
-414,657	688,263	-0,049	0,095
-413,642	-191,565	0,047	-0,000
-412,628	141,058	-0,081	0,078
-411,613	-200,000	0,016	-0,058
-410,598	-176,034	-0,040	-0,001
-409,584	121,213	0,056	0,052
-408,569	-200,000	0,004	0,036
-407,555	-200,000	0,010	0,076
-406,540	283,436	0,090	0,120
-405,525	344,761	-0,119	0,172
-404,511	-177,297	0,134	-0,002
-403,496	-200,000	-0,031	-0,160
-402,482	-176,781	0,089	-0,002
-401,467	-200,000	0,032	-0,115
-400,452	-57,142	-0,027	-0,009
-399,438	48,295	0,062	0,043
-398,423	-102,149	-0,087	0,015
-397,409	571,648	-0,017	0,030
-396,394	800,000	-0,025	-0,068
-395,379	800,000	-0,050	0,131
-394,365	21,000	-0,069	0,041
-393,350	-16,579	0,182	0,085
-392,336	782,092	0,057	-0,115
-391,321	-88,872	0,035	-0,007
-390,306	14,767	0,023	-0,013
-389,292	-157,135	-0,059	-0,003
-388,277	800,000	0,083	0,170
-387,263	18,172	0,117	0,068
-386,248	800,000	0,039	0,123
-385,233	-200,000	0,015	-0,079
-384,219	-68,837	0,146	-0,041
-383,204	58,345	-0,108	0,078
-382,190	106,403	-0,016	0,014
-381,175	-200,000	-0,001	0,046
-380,160	-60,979	0,192	0,059
-379,146	672,756	-0,070	0,133
-378,131	-200,000	0,043	0,153
-377,117	579,443	-0,009	-0,016
-376,102	526,345	0,082	-0,142
-375,088	-79,756	-0,190	-0,047
-374,073	-120,749	0,047	0,006
-373,058	149,247	0,013	0,013
-372,044	-63,324	-0,064	-0,019
-371,029	89,037	-0,109	0,089
-370,015	800,000	0,028	0,070
-369,000	80,292	0,040	-0,032
-367,985	800,000	0,017	-0,038
-366,971	73,545	0,042	0,032
-365,956	3,575	-0,018	-0,010
-364,942	-42,258	0,061	-0,023
-363,927	-124,538	0,082	-0,009
-362,912	-30,552	0,100	-0,042
-361,898	-200,000	0,001	-0,026
-360,883	155,779	-0,056	-0,056
-359,869	600,474	-0,051	0,093
-358,854	-115,953	0,066	-0,009
-357,839	17,861	0,085	0,050
-356,825	-117,240	0,089	0,012
-355,810	-89,993	-0,090	0,019
-354,796	117,377	0,027	-0,025
-353,781	800,000	-0,024	0,062
-352,766	716,457	-0,051	0,100
-351,752	-200,000	0,023	0,130
-350,737	173,924	0,061	0,064
-349,723	-9,163	0,053	0,026
-348,708	800,000	0,011	-0,034
-347,693	99,440	-0,100	-0,085
-346,679	-200,000	-0,039	0,196
-345,664	-200,000	-0,020	-0,088
-344,650	44,556	0,087	-0,059
-343,635	725,250	0,063	0,123
-342,620	-183,925	0,178	0,002
-341,606	-200,000	0,011	0,038
-340,591	-200,000	0,016	-0,102
-339,577	0,055	0,031	0,016
-338,562	-200,000	-0,017	0,059
-337,548	307,308	0,014	-0,019
-336,533	300,703	-0,046	0,062
-335,518	-85,394	-0,116	0,026
-334,504	183,601	0,080	-0,087
-333,489	622,674	0,038	-0,070
-332,475	497,146	-0,026	0,044
-331,460	-178,660	-0,032	0,001
-330,445	-147,327	0,139	-0,009
-329,431	-116,415	0,005	-0,001
-328,416	-66,369	0,103	-0,030
-327,402	182,469	0,028	0,030
-326,387	17,504	-0,094	-0,055
-325,372	61,186	0,136	0,099
-324,358	52,455	-0,138	0,096
-323,343	-200,000	0,005	-0,164
-322,329	-200,000	0,011	0,044
-321,314	191,201	0,076	0,083
-320,299	-95,915	-0,099	0,019
-319,285	234,610	0,002	0,002
-318,270	-125,894	-0,075	0,008
-317,256	59,101	0,092	-0,066
-316,241	-10,323	-0,081	-0,039
-315,226	-200,000	0,008	0,135
-314,212	-200,000	-0,002	-0,027
-313,197	111,883	-0,062	-0,055
-312,183	231,800	-0,017	-0,020
-311,168	57,383	-0,075	0,054
-310,153	-86,325	-0,088	-0,020
-309,139	-200,000	-0,011	-0,075
-308,124	-42,643	0,056	0,021
-307,110	117,308	0,050	0,045
-306,095	-200,000	-0,015	0,142
-305,080	-200,000	0,014	0,238
-304,066	-99,233	-0,142	-0,026
-303,051	-20,950	-0,100	-0,045
-302,037	-160,770	-0,202	-0,008
-301,022	-90,043	0,123	0,026
-300,008	12,879	0,123	-0,069
-298,993	-11,805	0,089	0,043
-297,978	800,000	-0,034	0,108
-296,964	473,280	0,048	0,079
-295,949	134,772	-0,001	0,001
-294,935	-3,172	-0,138	0,070
-293,920	3,168	0,067	-0,036
-292,905	-115,610	0,063	0,009
-291,891	800,000	0,061	0,143
-290,876	-127,294	-0,012	-0,001
-289,862	306,197	-0,047	0,064
-288,847	238,427	-0,078	-0,095
-287,832	140,422	0,031	0,030
-286,818	-83,324	0,059	-0,014
-285,803	119,139	0,014	0,013
-284,789	-108,600	-0,139	-0,022
-283,774	-200,000	-0,023	-0,073
-282,759	-65,733	-0,028	0,008
-281,745	-200,000	-0,026	-0,096
-280,730	-140,822	-0,153	-0,011
-279,716	246,048	-0,058	-0,072
-278,701	-142,380	-0,126	0,009
-277,686	783,391	-0,070	0,141
-276,672	-93,745	0,100	0,020
-275,657	108,101	0,064	0,056
-274,643	733,565	0,047	-0,093
-273,628	258,508	-0,049	-0,061
-272,613	398,150	-0,059	-0,090
-271,599	800,000	-0,025	0,060
-270,584	-70,916	0,091	-0,025
-269,570	-200,000	-0,001	0,032
-268,555	-200,000	-0,011	0,163
-267,540	-156,810	-0,075	0,003
-266,526	800,000	0,064	-0,152
-265,511	800,000	0,043	-0,122
-264,497	-116,923	0,032	-0,004
-263,482	-69,557	-0,040	-0,011
-262,467	-200,000	-0,048	-0,170
-261,453	-200,000	-0,012	0,055
-260,438	800,000	0,029	-0,084
-259,424	4,671	0,030	-0,016
-258,409	-200,000	0,023	-0,115
-257,395	-53,943	-0,083	0,028
-256,380	-45,525	0,107	0,039
-255,365	347,908	0,035	-0,051
-254,351	207,530	0,099	0,113
-253,336	27,658	-0,023	-0,014
-252,322	800,000	-0,005	0,012
-251,307	800,000	-0,036	0,109
-250,292	-108,841	-0,121	-0,019
-249,278	800,000	0,076	0,178
-248,263	-200,000	-0,003	-0,079
-247,249	237,431	0,053	0,064
-246,234	6,279	0,101	0,055
-245,219	-200,000	-0,029	0,127
-244,205	-62,739	-0,107	-0,032
-243,190	170,289	0,072	-0,076
-242,176	768,078	-0,074	-0,149
-241,161	70,381	-0,050	-0,038
-240,146	8,169	0,118	0,065
-239,132	-200,000	-0,005	0,057
-238,117	26,101	0,010	-0,006
-237,103	149,177	-0,078	-0,077
-236,088	800,000	0,048	0,103
-235,073	-74,789	0,139	0,036
-234,059	-200,000	0,004	-0,013
-233,044	800,000	0,065	0,198
-232,030	118,841	-0,028	-0,026
-231,015	800,000	0,039	-0,090
-230,000	-72,678	-0,012	0,003
-228,986	800,000	0,005	0,011
-227,971	18,627	0,051	-0,029
-226,957	-26,644	0,216	0,092
-225,942	-200,000	-0,001	-0,008
-224,927	33,101	-0,035	-0,022
-223,913	144,693	-0,026	0,026
-222,898	-200,000	-0,002	-0,149
-221,884	129,606	0,056	-0,052
-220,869	-200,000	0,019	0,074
-219,855	423,566	0,042	0,066
-218,840	-28,451	-0,062	0,026
-217,825	800,000	-0,036	-0,090
-216,811	-200,000	-0,146	-0,000
-215,796	100,225	-0,090	-0,076
-214,782	-200,000	0,024	-0,111
-213,767	770,015	-0,058	-0,115
-212,752	-200,000	0,037	0,193
-211,738	348,187	-0,090	-0,129
-210,723	-98,495	-0,075	-0,014
-209,709	-200,000	0,001	-0,044
-208,694	-200,000	0,022	-0,079
-207,679	-77,442	0,092	0,023
-206,665	-179,136	0,068	-0,001
-205,650	-200,000	0,006	0,099
-204,636	-63,970	0,106	0,031
-203,621	800,000	-0,057	-0,116
-202,606	321,020	0,048	0,067
-201,592	-200,000	-0,006	-0,069
-200,577	-200,000	0,009	0,129
-199,563	690,849	0,076	0,145
-198,548	-90,168	-0,114	-0,024
-197,533	-0,520	0,042	-0,022
-196,519	-44,791	-0,050	-0,018
-195,504	137,858	-0,061	-0,058
-194,490	175,167	-0,096	0,101
-193,475	158,083	-0,100	-0,102
-192,460	-39,029	-0,146	0,056
-191,446	-200,000	-0,001	0,068
-190,431	-101,196	0,058	-0,010
-189,417	800,000	0,023	0,058
-188,402	-108,670	0,064	0,010
-187,387	-101,860	-0,105	-0,018
-186,373	-81,037	-0,080	0,019
-185,358	-54,724	-0,015	-0,005
-184,344	-157,783	0,048	0,002
-183,329	-200,000	-0,016	0,116
-182,315	-93,327	0,113	0,023
-181,300	-54,216	0,011	-0,003
-180,285	-91,520	-0,038	-0,008
-179,271	-200,000	0,001	-0,027
-178,256	-200,000	-0,028	-0,121
-177,242	-47,473	0,045	-0,016
-176,227	-200,000	-0,007	0,153
-175,212	-96,607	-0,059	-0,011
-174,198	-154,562	-0,115	0,005
-173,183	800,000	0,030	-0,088
-172,169	134,596	-0,086	0,081
-171,154	800,000	0,025	0,063
-170,139	-200,000	-0,010	0,154
-169,125	-200,000	0,014	0,078
-168,110	690,787	0,017	0,033
-167,096	59,047	0,083	0,059
-166,081	-200,000	-0,002	-0,132
-165,066	6,359	-0,048	0,026
-164,052	-58,721	-0,088	0,028
-163,037	-60,282	0,075	-0,023
-162,023	-5,867	0,080	-0,040
-161,008	-200,000	-0,019	0,079
-159,993	150,712	-0,017	-0,017
-158,979	470,731	0,041	-0,067
-157,964	-200,000	0,017	0,094
-156,950	60,481	0,043	-0,031
-155,935	66,854	-0,018	0,013
-154,920	-84,454	-0,077	0,018
-153,906	-104,645	0,233	0,039
-152,891	47,432	0,064	0,043
-151,877	-139,473	0,072	0,005
-150,862	-200,000	0,019	-0,076
-149,847	-200,000	0,013	0,067
-148,833	615,762	0,057	0,105
-147,818	-200,000	0,021	-0,093
-146,804	-83,686	0,053	0,012
-145,789	30,349	-0,098	0,061
-144,775	-141,744	-0,081	0,006
-143,760	443,569	-0,050	0,080
-142,745	213,698	0,046	-0,053
-141,731	-200,000	0,014	-0,074
-140,716	-92,520	0,118	-0,024
-139,702	42,511	-0,055	0,037
-138,687	800,000	-0,058	0,146
-137,672	-20,095	-0,072	0,032
-136,658	771,755	0,050	0,100
-135,643	-200,000	-0,043	0,000
-134,629	550,094	-0,073	0,128
-133,614	-200,000	-0,004	0,076
-132,599	149,917	-0,050	0,049
-131,585	-166,843	0,074	-0,002
-130,570	-64,330	0,073	-0,021
-129,556	57,285	0,064	0,045
-128,541	-98,261	-0,087	0,016
-127,526	281,681	0,020	-0,026
-126,512	741,039	-0,021	-0,042
-125,497	363,034	0,038	0,055
-124,483	36,442	0,045	-0,029
-123,468	22,769	0,069	0,041
-122,453	800,000	-0,058	0,124
-121,439	348,626	0,092	-0,133
-120,424	800,000	-0,015	-0,042
-119,410	102,465	0,102	-0,087
-118,395	-15,653	0,061	0,028
-117,380	-200,000	-0,019	-0,103
-116,366	546,570	0,034	-0,059
-115,351	11,590	-0,109	0,061
-114,337	199,025	0,034	-0,038
-113,322	-24,640	-0,081	-0,035
-112,307	-22,013	0,072	0,032
-111,293	-200,000	-0,027	0,116
-110,278	778,343	0,086	0,172
-109,264	-200,000	0,006	-0,104
-108,249	24,111	-0,041	0,024
-107,234	-200,000	0,001	-0,010
-106,220	-200,000	-0,019	-0,071
-105,205	-200,000	-0,038	0,141
-104,191	288,245	0,109	0,144
-103,176	-179,894	-0,149	0,002
-102,162	-200,000	-0,007	0,057
-101,147	101,762	-0,085	0,072
-100,132	308,436	-0,047	0,064
-99,118	-200,000	-0,035	0,188
-98,103	-153,764	-0,165	0,008
-97,089	800,000	-0,036	0,110
-96,074	-78,503	0,096	0,024
-95,059	-200,000	-0,021	0,144
-94,045	279,298	0,060	0,077
-93,030	56,763	-0,147	-0,104
-92,016	-175,754	-0,091	-0,002
-91,001	-200,000	0,019	-0,108
-89,986	800,000	0,018	0,039
-88,972	-200,000	0,015	0,065
-87,957	-53,355	0,091	0,030
-86,943	-200,000	-0,013	-0,061
-85,928	-200,000	-0,007	0,106
-84,913	71,565	-0,081	-0,061
-83,899	36,999	0,085	-0,055
-82,884	524,812	-0,067	-0,115
-81,870	-200,000	0,022	0,086
-80,855	800,000	0,027	0,071
-79,840	59,825	-0,030	-0,021
-78,826	565,199	0,016	-0,029
-77,811	-65,646	-0,140	-0,041
-76,797	39,101	-0,094	-0,061
-75,782	344,041	-0,016	0,022
-74,767	249,912	0,099	0,122
-73,753	222,627	-0,046	-0,054
-72,738	-200,000	-0,001	0,103
-71,724	-126,856	-0,175	-0,018
-70,709	800,000	0,019	-0,050
-69,694	271,581	-0,066	-0,084
-68,680	577,057	0,070	0,126
-67,665	9,654	0,142	0,078
-66,651	800,000	0,049	0,104
-65,636	800,000	0,043	0,114
-64,622	60,571	0,047	0,033
-63,607	-59,308	-0,106	-0,033
-62,592	133,622	-0,036	-0,034
-61,578	-41,867	0,054	0,020
-60,563	-200,000	-0,010	-0,085
-59,549	-200,000	0,005	0,033
-58,534	-135,898	-1,329	-0,112
-57,519	481,950	-0,863	-1,427
-56,505	-200,000	-1,025	-4,504
-55,490	135,670	0,486	-0,459
-54,476	800,000	4,830	11,984
-53,461	-200,000	13,729	253,115
-52,446	-200,000	689,879	2257,240
-51,432	590,157	1622,287	2915,261
-50,417	119,109	1634,759	1466,978
-49,403	73,174	1288,851	976,898
-48,388	38,019	1023,971	659,468
-47,373	24,253	981,989	587,145
-46,359	23,525	971,394	578,401
-45,344	22,498	967,322	572,596
-44,330	22,494	965,792	571,654
-43,315	22,375	964,382	570,410
-42,300	22,316	963,419	569,626
-41,286	22,347	962,326	569,057
-40,271	22,356	961,293	568,454
-39,257	22,321	960,478	567,837
-38,242	22,346	959,330	567,215
-37,227	22,292	958,667	566,626
-36,213	22,288	957,786	566,070
-35,198	22,306	956,909	565,587
-34,184	22,363	956,363	565,428
-33,169	22,348	955,286	564,718
-32,154	22,322	954,465	564,127
-31,140	22,329	953,696	563,672
-30,125	22,353	952,824	563,212
-29,111	22,368	951,898	562,689
-28,096	22,375	951,217	562,288
-27,082	22,299	950,751	561,746
-26,067	22,354	949,806	561,343
-25,052	22,370	949,148	560,981
-24,038	22,353	948,427	560,480
-23,023	22,306	947,891	559,991
-22,009	22,338	947,042	559,570
-20,994	22,408	946,427	559,406
-19,979	22,433	945,734	559,054
-18,965	22,380	945,280	558,594
-17,950	22,371	944,800	558,261
-16,936	22,352	943,917	557,656
-15,921	22,316	943,303	557,157
-14,906	22,262	942,745	556,632
-13,892	22,311	941,875	556,254
-12,877	22,218	941,388	555,649
-11,863	22,218	940,923	555,352
-10,848	22,211	940,121	554,834
-9,833	22,308	939,731	554,889
-8,819	22,310	939,234	554,579
-7,804	22,257	938,522	553,971
-6,790	22,257	937,962	553,617
-5,775	22,242	937,261	553,135
-4,760	22,237	936,646	552,732
-3,746	22,220	936,002	552,278
-2,731	22,121	935,561	551,684
-1,717	22,053	934,602	550,882
-0,702	22,053	933,852	550,418
0,313	21,817	933,325	550,193
1,327	24,962	931,349	558,868
2,342	34,797	795,753	503,690
3,356	32,750	451,593	282,736
4,371	1,548	294,031	152,928
5,386	-2,833	274,822	138,777
6,400	-4,345	269,120	134,481
7,415	-4,989	266,666	132,651
8,429	-4,354	265,469	132,625
9,444	-4,525	264,555	132,001
10,459	-4,482	263,963	131,733
11,473	-4,723	263,514	131,278
12,488	-4,505	262,798	131,107
13,502	-4,813	262,313	130,574
14,517	-4,841	261,989	130,376
15,531	-4,700	261,670	130,333
16,546	-4,440	261,052	130,248
17,561	-4,641	260,758	129,909
18,575	-4,484	260,361	129,840
19,590	-4,540	260,030	129,613
20,604	-4,546	259,832	129,498
21,619	-4,592	259,540	129,299
22,634	-4,723	259,197	129,000
23,648	-4,760	258,774	128,745
24,663	-4,785	258,715	128,682
25,677	-4,471	258,333	128,760
26,692	-4,690	258,135	128,455
27,707	-4,839	257,888	128,188
28,721	-4,586	257,555	128,236
29,736	-4,713	257,277	127,973
30,750	-4,814	257,049	127,759
31,765	-4,703	256,775	127,710
32,780	-4,979	256,652	127,393
33,794	-4,871	256,445	127,374
34,809	-4,798	256,163	127,287
35,823	-4,830	255,789	127,062
36,838	-4,970	255,737	126,901
37,853	-4,847	255,387	126,825
38,867	-4,745	255,251	126,836
39,882	-4,845	255,161	126,691
40,896	-4,799	254,720	126,502
41,911	-4,847	254,636	126,407
42,926	-4,808	254,314	126,270
43,940	-5,003	254,197	126,030
44,955	-4,880	253,838	125,948
45,969	-4,882	253,620	125,827
46,984	-5,132	253,456	125,516
47,999	-5,166	253,057	125,278
49,013	-5,468	252,786	124,869
50,028	-5,449	252,563	124,766
51,042	-5,540	252,334	124,561
52,057	-5,630	252,102	124,358
53,071	-5,668	251,983	124,255
54,086	-5,690	251,802	124,136
55,101	-5,421	251,722	124,318
56,115	-4,958	251,467	124,582
57,130	-4,722	251,460	124,771
58,144	-4,679	251,436	124,785
59,159	-4,598	251,095	124,675
60,174	-4,476	250,662	124,554
61,188	-4,606	250,628	124,414
62,203	-4,639	250,278	124,201
63,217	-4,760	250,309	124,101
64,232	-4,534	250,007	124,135
65,247	-4,778	249,880	123,850
66,261	-4,836	249,594	123,648
67,276	-4,986	249,318	123,372
68,290	-5,091	249,165	123,196
69,305	-5,096	248,823	123,011
70,320	-5,271	248,717	122,798
71,334	-4,803	248,455	123,057
72,349	-4,473	248,408	123,304
73,363	-4,769	248,195	122,936
74,378	-4,532	247,921	122,990
75,393	-4,743	247,857	122,768
76,407	-4,751	247,695	122,670
77,422	-4,873	247,603	122,510
78,436	-4,737	247,110	122,370
79,451	-4,717	246,900	122,272
80,466	-4,755	246,740	122,150
81,480	-4,845	246,415	121,902
82,495	-4,903	246,434	121,851
83,509	-4,890	246,230	121,751
84,524	-4,921	245,937	121,569
85,539	-5,243	245,732	121,186
86,553	-5,056	245,468	121,202
87,568	-5,116	245,569	121,190
88,582	-4,993	245,255	121,128
89,597	-4,990	244,955	120,972
90,611	-4,751	244,845	121,107
91,626	-4,854	244,832	121,004
92,641	-4,884	244,623	120,864
93,655	-4,735	244,281	120,809
94,670	-4,986	244,294	120,595
95,684	-4,989	244,035	120,453
96,699	-4,883	243,813	120,422
97,714	-4,966	243,606	120,240
98,728	-4,993	243,421	120,115
99,743	-5,130	243,083	119,824
100,757	-5,119	242,901	119,732
101,772	-4,981	242,754	119,764
102,787	-4,916	242,576	119,720
103,801	-5,049	242,455	119,539
104,816	-4,924	242,331	119,570
105,830	-4,789	242,247	119,630
106,845	-4,861	242,063	119,470
107,860	-4,682	241,724	119,439
108,874	-4,775	241,496	119,239
109,889	-5,042	241,398	118,959
110,903	-4,789	240,964	118,944
111,918	-4,951	241,101	118,867
112,933	-4,808	240,865	118,857
113,947	-4,706	240,568	118,785
114,962	-4,988	240,502	118,509
115,976	-4,791	240,435	118,628
116,991	-4,948	240,224	118,384
118,006	-4,851	240,037	118,362
119,020	-4,743	239,849	118,346
120,035	-4,620	239,772	118,398
121,049	-4,669	239,653	118,290
122,064	-4,713	239,396	118,116
123,079	-4,919	239,260	117,870
124,093	-4,912	238,887	117,681
125,108	-5,214	238,819	117,391
126,122	-5,234	238,478	117,196
127,137	-5,293	238,363	117,081
128,151	-5,092	238,277	117,192
129,166	-5,119	238,205	117,125
130,181	-5,044	237,780	116,966
131,195	-5,046	237,647	116,888
132,210	-4,892	237,469	116,916
133,224	-5,058	237,399	116,736
134,239	-4,578	237,150	116,992
135,254	-4,884	237,117	116,717
136,268	-4,728	236,786	116,670
137,283	-5,140	236,494	116,183
138,297	-5,092	236,406	116,168
139,312	-5,170	236,208	115,998
140,327	-4,922	236,180	116,174
141,341	-4,453	236,214	116,558
142,356	-4,399	235,957	116,464
143,370	-4,497	235,799	116,297
144,385	-4,609	235,699	116,147
145,400	-4,468	235,529	116,166
146,414	-4,465	235,350	116,070
147,429	-4,580	235,099	115,844
148,443	-4,588	234,852	115,705
149,458	-4,481	234,899	115,805
150,473	-4,570	234,633	115,591
151,487	-4,755	234,533	115,384
152,502	-4,527	234,259	115,421
153,516	-4,481	234,097	115,368
154,531	-4,511	234,006	115,288
155,546	-4,352	233,828	115,317
156,560	-4,509	233,552	115,046
157,575	-4,839	233,450	114,722
158,589	-4,702	233,159	114,678
159,604	-4,464	233,046	114,801
160,619	-4,349	233,017	114,868
161,633	-4,391	232,890	114,762
162,648	-4,430	232,719	114,637
163,662	-4,192	232,436	114,675
164,677	-4,473	232,369	114,410
165,692	-4,597	232,226	114,231
166,706	-4,455	232,133	114,287
167,721	-4,394	231,878	114,200
168,735	-4,260	231,892	114,303
169,750	-4,420	231,673	114,058
170,764	-4,396	231,488	113,976
171,779	-4,428	231,421	113,907
172,794	-4,565	231,283	113,721
173,808	-4,554	230,971	113,567
174,823	-5,031	230,673	113,036
175,837	-5,194	230,436	112,782
176,852	-4,809	230,420	113,065
177,867	-4,451	230,302	113,278
178,881	-4,555	230,363	113,217
179,896	-4,403	230,139	113,215
180,910	-4,387	229,918	113,109
181,925	-4,365	229,768	113,042
182,940	-4,302	229,673	113,034
183,954	-4,349	229,490	112,898
184,969	-4,102	229,405	113,039
185,983	-4,427	229,329	112,738
186,998	-4,248	228,985	112,698
188,013	-4,222	228,887	112,660
189,027	-4,331	228,754	112,499
190,042	-4,100	228,527	112,557
191,056	-4,036	228,348	112,508
192,071	-4,285	228,289	112,276
193,086	-4,355	228,086	112,112
194,100	-4,449	227,896	111,936
195,115	-4,708	227,627	111,594
196,129	-5,884	227,212	110,473
197,144	-2,913	228,173	113,231
198,159	2,197	229,561	117,883
199,173	4,172	230,040	119,653
200,188	4,527	229,841	119,814
201,202	4,290	229,741	119,568
202,217	4,505	229,525	119,612
203,232	4,734	229,620	119,828
204,246	4,909	229,549	119,916
205,261	4,828	229,350	119,738
206,275	4,933	229,288	119,776
207,290	4,922	229,051	119,633
208,304	4,926	228,966	119,581
209,319	4,967	228,667	119,446
210,334	5,019	228,530	119,404
211,348	4,538	228,245	118,874
212,363	4,222	228,093	118,542
213,377	4,003	227,814	118,218
214,392	3,828	227,740	118,034
215,407	4,060	227,503	118,079
216,421	4,243	227,349	118,129
217,436	4,309	227,352	118,170
218,450	4,035	227,028	117,782
219,465	3,885	226,822	117,550
220,480	4,058	226,756	117,638
221,494	3,895	226,596	117,419
222,509	4,160	226,452	117,537
223,523	4,102	226,294	117,400
224,538	4,048	226,115	117,255
225,553	4,303	225,847	117,300
226,567	4,198	225,996	117,286
227,582	4,466	225,788	117,372
228,596	4,369	225,711	117,248
229,611	4,207	225,507	117,008
230,626	3,924	225,168	116,607
231,640	3,993	224,938	116,530
232,655	4,444	225,059	116,925
233,669	4,744	224,958	117,089
234,684	5,074	224,789	117,240
235,699	4,431	224,806	116,752
236,713	4,206	224,552	116,440
237,728	4,070	224,260	116,175
238,742	3,972	224,093	116,004
239,757	4,122	223,936	116,026
240,772	4,147	223,851	115,990
241,786	3,948	223,712	115,758
242,801	4,339	223,535	115,950
243,815	4,535	223,519	116,079
244,830	4,520	223,423	116,007
245,844	4,252	223,125	115,641
246,859	4,350	223,130	115,707
247,874	4,405	222,926	115,632
248,888	4,350	222,737	115,482
249,903	4,280	222,627	115,363
250,917	4,240	222,319	115,163
251,932	4,101	222,185	114,980
252,947	4,280	222,097	115,057
253,961	4,044	221,914	114,777
254,976	4,106	221,887	114,798
255,990	4,363	221,716	114,891
257,005	4,504	221,533	114,891
258,020	4,366	221,676	114,852
259,034	4,402	221,385	114,718
260,049	4,584	221,224	114,759
261,063	4,406	221,053	114,528
262,078	4,635	220,942	114,630
263,093	4,380	220,850	114,383
264,107	4,219	220,612	114,131
265,122	4,301	220,604	114,177
266,136	4,601	220,564	114,368
267,151	4,568	220,199	114,144
268,166	4,366	219,914	113,838
269,180	3,893	219,693	113,365
270,195	4,003	219,622	113,399
271,209	4,231	219,419	113,451
272,224	3,952	219,430	113,241
273,239	4,339	219,237	113,417
274,253	3,973	219,278	113,159
275,268	3,774	219,034	112,876
276,282	3,825	218,725	112,744
277,297	3,879	218,525	112,671
278,312	3,910	218,622	112,733
279,326	3,965	218,456	112,678
280,341	4,084	218,315	112,682
281,355	4,259	218,108	112,694
282,370	4,353	217,967	112,680
283,384	3,947	217,831	112,303
284,399	4,004	217,562	112,195
285,414	3,797	217,549	112,027
286,428	4,100	217,485	112,205
287,443	4,121	217,401	112,168
288,457	4,271	217,151	112,138
289,472	4,224	216,899	111,964
290,487	3,799	216,842	111,615
291,501	3,649	216,609	111,376
292,516	3,809	216,553	111,454
293,530	3,853	216,381	111,387
294,545	3,935	216,218	111,353
295,560	3,992	216,207	111,378
296,574	4,197	216,078	111,450
297,589	4,125	216,008	111,352
298,603	4,141	215,904	111,301
299,618	4,157	215,705	111,199
300,633	3,939	215,503	110,928
301,647	4,514	215,553	111,358
302,662	4,396	215,251	111,108
303,676	4,287	215,107	110,946
304,691	4,485	214,995	111,020
305,706	4,145	215,014	110,775
306,720	4,047	214,700	110,533
307,735	4,147	214,495	110,489
308,749	4,037	214,416	110,360
309,764	4,339	214,410	110,564
310,779	4,359	214,255	110,488
311,793	4,234	213,986	110,250
312,808	4,384	213,915	110,311
313,822	4,219	213,770	110,109
314,837	4,173	213,419	109,885
315,852	3,965	213,389	109,711
316,866	4,048	213,324	109,727
317,881	4,583	213,239	110,055
318,895	4,351	213,170	109,844
319,910	3,929	212,994	109,444
320,925	3,985	212,636	109,290
321,939	3,636	212,479	108,952
322,954	3,819	212,405	109,034
323,968	4,121	212,464	109,269
324,983	4,269	212,262	109,260
325,997	4,333	212,211	109,269
327,012	4,115	212,015	109,004
328,027	4,245	211,883	109,019
329,041	4,516	211,820	109,169
330,056	4,352	211,783	109,024
331,070	4,298	211,410	108,783
332,085	3,648	211,285	108,251
333,100	3,733	211,229	108,273
334,114	3,956	211,112	108,360
335,129	4,230	210,838	108,403
336,143	3,853	210,606	108,009
337,158	3,926	210,574	108,034
338,173	3,958	210,459	107,988
339,187	3,982	210,243	107,884
340,202	3,866	210,140	107,740
341,216	3,852	209,975	107,637
342,231	4,026	209,924	107,722
343,246	3,987	209,679	107,560
344,260	3,815	209,732	107,457
345,275	4,221	209,483	107,604
346,289	4,473	209,470	107,763
347,304	4,168	209,336	107,472
348,319	4,130	209,097	107,313
349,333	4,017	209,006	107,178
350,348	4,016	208,920	107,124
351,362	4,148	208,829	107,160
352,377	4,283	208,680	107,167
353,392	3,960	208,441	106,811
354,406	4,105	208,351	106,856
355,421	193,239	1345,481	1431,987
356,435	154,152	1484,136	1432,108
