DTS Sentinel unit serial number:	SN410029Multiplexer serial number:	ORYXHardware model number:	OX2-SRSoftware version number:	ORYX F/W v4,00 Oryx Data Collector v3.7.2.0data status	okinstallation	B6 Nyhavnadifferential loss correction	single-endedforward channel	channel 2reverse channel	N/Adate	2023/12/09time	05:40:08forward acquisition time	300,00reverse acquisition time	0,00gamma	499,1914k internal	0,3142k external	0,3142temperature offset calibration	1,0000default loss term (dB/km)	0,3820temperature slope calibration	1,0000multiplexer offset coefficient	1,0000multiplexer slope coefficient	1,0000fibre end	0,00T internal ref (°C)	18,05T ext. ref 1 (°C)	2,32T ext. ref 2 (°C)	2,35length (m)	temperature (°C)	Stokes	anti-Stokes-744,400	800,000	0,039	0,092
-743,385	-98,322	-0,282	-0,053
-742,371	402,764	0,088	-0,137
-741,356	3,553	-0,107	0,058
-740,342	173,159	0,098	0,105
-739,327	-61,247	-0,305	0,094
-738,312	370,576	0,064	-0,097
-737,298	-35,534	-0,363	0,145
-736,283	-73,239	0,205	-0,055
-735,269	-68,335	-0,214	0,061
-734,254	87,660	-0,021	0,018
-733,239	-54,064	-0,513	-0,172
-732,225	-110,319	0,143	-0,022
-731,210	-4,844	0,195	0,099
-730,196	-63,591	0,085	-0,026
-729,181	-104,739	-0,114	0,019
-728,167	215,446	-0,085	-0,100
-727,152	-200,000	-0,006	0,075
-726,137	10,468	-0,047	0,026
-725,123	-200,000	0,024	-0,158
-724,108	-200,000	-0,005	-0,097
-723,094	-200,000	-0,027	-0,163
-722,079	-182,015	-0,102	0,001
-721,064	13,569	-0,056	-0,032
-720,050	-86,776	-0,017	0,004
-719,035	800,000	-0,017	0,042
-718,021	-5,589	0,016	0,008
-717,006	334,044	-0,083	-0,119
-715,991	140,588	-0,096	-0,094
-714,977	-159,418	-0,100	0,004
-713,962	190,716	-0,040	-0,045
-712,948	110,330	0,021	0,019
-711,933	-53,256	-0,121	0,041
-710,918	83,623	-0,077	0,062
-709,904	499,349	-0,022	-0,037
-708,889	15,226	-0,017	-0,010
-707,875	-97,541	0,058	-0,011
-706,860	623,544	-0,016	0,030
-705,845	-200,000	0,009	0,136
-704,831	800,000	-0,007	0,020
-703,816	800,000	-0,060	0,168
-702,802	62,055	-0,050	0,037
-701,787	-83,763	-0,127	0,030
-700,772	-200,000	-0,009	-0,084
-699,758	44,848	-0,035	-0,024
-698,743	247,884	0,075	0,094
-697,729	-76,030	0,133	-0,035
-696,714	146,178	-0,115	0,115
-695,699	-200,000	-0,000	-0,014
-694,685	-35,740	-0,126	-0,050
-693,670	-38,864	-0,163	-0,063
-692,656	26,654	-0,144	0,089
-691,641	800,000	0,004	-0,011
-690,627	188,119	0,058	0,064
-689,612	544,721	0,092	0,163
-688,597	-56,521	-0,106	0,035
-687,583	-52,204	0,105	-0,036
-686,568	-142,463	-0,090	0,006
-685,554	-200,000	-0,002	-0,061
-684,539	-81,295	0,059	-0,014
-683,524	-117,575	0,030	-0,004
-682,510	-51,491	0,029	-0,010
-681,495	51,259	-0,125	-0,088
-680,481	510,624	-0,042	-0,073
-679,466	-14,257	-0,065	-0,031
-678,451	800,000	0,067	-0,191
-677,437	800,000	0,027	-0,071
-676,422	81,787	-0,050	0,040
-675,408	-105,956	-0,130	-0,021
-674,393	-36,541	-0,060	-0,024
-673,378	-200,000	0,008	0,039
-672,364	10,037	-0,045	0,025
-671,349	-200,000	0,020	-0,097
-670,335	800,000	-0,016	0,036
-669,320	-96,547	0,049	0,009
-668,305	105,959	0,064	0,056
-667,291	-142,211	-0,033	-0,002
-666,276	-124,060	-0,202	-0,023
-665,262	-57,934	-0,062	0,020
-664,247	189,913	0,031	-0,034
-663,232	800,000	0,064	-0,134
-662,218	482,791	-0,026	0,044
-661,203	-66,820	-0,037	-0,011
-660,189	48,379	-0,112	-0,077
-659,174	800,000	0,022	0,051
-658,159	-200,000	0,008	-0,186
-657,145	652,722	-0,032	0,062
-656,130	256,503	-0,046	-0,059
-655,116	49,110	0,083	-0,057
-654,101	-84,954	-0,018	0,004
-653,086	-200,000	-0,011	0,068
-652,072	-200,000	0,001	0,106
-651,057	-200,000	0,018	0,127
-650,043	85,786	-0,099	0,081
-649,028	209,174	-0,140	-0,162
-648,014	-48,604	0,056	0,020
-646,999	-30,086	0,036	0,015
-645,984	-200,000	0,001	0,102
-644,970	26,299	0,039	-0,024
-643,955	166,126	0,051	0,054
-642,941	800,000	-0,027	-0,056
-641,926	-41,126	-0,130	-0,049
-640,911	-200,000	0,008	-0,076
-639,897	222,324	0,084	0,100
-638,882	-61,951	-0,104	-0,032
-637,868	800,000	0,054	0,137
-636,853	341,282	0,048	-0,070
-635,838	800,000	-0,024	-0,051
-634,824	94,301	-0,033	-0,028
-633,809	-91,151	-0,034	-0,007
-632,795	-36,136	-0,047	0,019
-631,780	-200,000	0,016	-0,116
-630,765	-200,000	0,026	-0,102
-629,751	800,000	-0,011	-0,029
-628,736	800,000	-0,097	-0,210
-627,722	-144,086	0,205	-0,014
-626,707	397,109	-0,014	-0,021
-625,692	-183,199	0,181	-0,002
-624,678	655,774	0,058	-0,111
-623,663	-78,279	-0,035	0,009
-622,649	-200,000	-0,002	-0,026
-621,634	-82,108	-0,044	0,010
-620,619	219,181	0,086	-0,102
-619,605	-149,044	0,039	-0,002
-618,590	-200,000	-0,009	0,046
-617,576	800,000	0,026	0,056
-616,561	156,959	0,042	0,043
-615,546	-67,217	-0,112	0,032
-614,532	-45,987	0,145	-0,052
-613,517	-200,000	-0,001	0,030
-612,503	227,606	0,035	-0,042
-611,488	-161,569	0,132	-0,005
-610,474	-56,557	-0,082	-0,027
-609,459	-23,025	0,066	-0,029
-608,444	-157,002	-0,122	-0,005
-607,430	-70,423	-0,016	-0,004
-606,415	-103,663	-0,083	-0,014
-605,401	-40,558	0,049	-0,019
-604,386	-2,743	-0,096	-0,049
-603,371	-99,227	0,110	0,020
-602,357	-200,000	-0,007	-0,065
-601,342	309,183	-0,014	-0,020
-600,328	-6,013	-0,086	-0,043
-599,313	76,148	0,068	0,053
-598,298	495,261	-0,050	0,086
-597,284	188,799	0,039	0,043
-596,269	-151,642	-0,059	0,003
-595,255	128,510	0,078	0,073
-594,240	-200,000	-0,031	0,113
-593,225	-57,257	0,109	-0,035
-592,211	81,267	-0,085	-0,068
-591,196	-80,334	0,116	-0,028
-590,182	-162,669	0,067	0,002
-589,167	800,000	-0,010	-0,026
-588,152	-73,644	0,056	0,015
-587,138	112,733	-0,065	-0,058
-586,123	-200,000	0,004	-0,023
-585,109	474,217	0,060	-0,100
-584,094	179,170	-0,028	-0,030
-583,079	335,259	0,054	0,077
-582,065	-200,000	0,021	-0,070
-581,050	-131,046	0,054	0,005
-580,036	163,542	0,071	-0,073
-579,021	94,056	-0,108	-0,091
-578,006	-15,840	-0,070	0,033
-576,992	-200,000	0,007	0,058
-575,977	-200,000	0,001	-0,005
-574,963	800,000	-0,070	-0,178
-573,948	-16,091	-0,052	0,024
-572,934	-112,672	-0,122	-0,018
-571,919	-200,000	0,024	-0,108
-570,904	-200,000	-0,037	-0,155
-569,890	800,000	-0,041	-0,126
-568,875	116,302	0,009	-0,008
-567,861	105,263	-0,088	-0,076
-566,846	223,350	0,028	-0,033
-565,831	-36,189	0,024	-0,009
-564,817	800,000	-0,035	0,075
-563,802	-161,455	-0,072	0,003
-562,788	218,504	-0,073	-0,086
-561,773	-53,593	0,030	-0,010
-560,758	-17,646	-0,035	0,016
-559,744	-94,514	-0,087	-0,017
-558,729	36,488	0,064	0,041
-557,715	-71,704	-0,042	-0,012
-556,700	13,140	-0,057	0,032
-555,685	-200,000	0,036	-0,165
-554,671	140,174	-0,058	-0,057
-553,656	800,000	-0,039	0,085
-552,642	504,815	0,042	0,072
-551,627	-103,061	-0,096	-0,017
-550,612	-58,995	-0,031	-0,010
-549,598	-53,127	0,114	-0,038
-548,583	-149,418	-0,050	0,003
-547,569	663,246	0,061	0,116
-546,554	-86,837	0,045	0,010
-545,539	-199,390	-0,057	0,000
-544,525	-200,000	0,005	0,110
-543,510	-167,450	-0,038	-0,001
-542,496	-55,467	0,029	0,010
-541,481	-200,000	-0,003	-0,026
-540,466	204,916	0,082	-0,093
-539,452	-75,365	-0,040	0,010
-538,437	290,071	-0,028	0,037
-537,423	800,000	-0,051	0,134
-536,408	-80,837	0,138	-0,034
-535,393	53,618	-0,155	-0,109
-534,379	-87,244	-0,134	-0,030
-533,364	-190,761	0,113	0,001
-532,350	-200,000	0,005	-0,126
-531,335	800,000	-0,047	-0,111
-530,321	800,000	-0,044	0,139
-529,306	-26,414	-0,088	0,038
-528,291	-200,000	-0,009	-0,080
-527,277	-45,321	-0,156	0,057
-526,262	-200,000	-0,002	-0,049
-525,248	-48,024	0,092	0,032
-524,233	146,474	0,080	-0,079
-523,218	229,100	0,108	0,130
-522,204	800,000	-0,018	-0,056
-521,189	-200,000	0,030	-0,132
-520,175	-22,649	0,080	0,035
-519,160	-24,701	0,038	-0,017
-518,145	24,275	-0,051	-0,031
-517,131	78,888	0,134	0,106
-516,116	-200,000	-0,013	-0,063
-515,102	-79,654	-0,101	0,025
-514,087	-159,507	0,059	0,002
-513,072	180,548	-0,040	-0,043
-512,058	124,657	-0,078	-0,072
-511,043	392,368	0,072	-0,109
-510,029	-200,000	-0,016	0,085
-509,014	163,993	0,018	-0,019
-507,999	-60,966	0,056	0,017
-506,985	710,914	-0,048	-0,094
-505,970	-200,000	0,012	0,157
-504,956	-200,000	0,007	0,035
-503,941	101,009	-0,018	0,015
-502,926	543,761	-0,031	0,055
-501,912	-133,037	0,110	0,010
-500,897	50,636	0,153	0,106
-499,883	11,141	-0,118	0,066
-498,868	-200,000	0,027	-0,113
-497,853	-200,000	0,005	-0,064
-496,839	701,700	0,079	0,153
-495,824	59,438	-0,058	0,042
-494,810	-155,751	-0,089	-0,004
-493,795	-200,000	-0,014	0,085
-492,781	800,000	-0,034	-0,079
-491,766	-200,000	-0,001	-0,087
-490,751	164,647	-0,058	-0,060
-489,737	-104,528	-0,120	-0,020
-488,722	-145,132	0,018	-0,001
-487,708	-200,000	0,006	-0,108
-486,693	-200,000	0,001	-0,052
-485,678	23,808	0,052	0,032
-484,664	-200,000	-0,013	-0,090
-483,649	-132,596	0,016	0,001
-482,635	-143,002	0,085	-0,006
-481,620	770,504	-0,020	0,040
-480,605	-39,409	0,216	0,083
-479,591	-200,000	-0,013	0,044
-478,576	-197,167	-0,239	-0,001
-477,562	-39,982	0,112	0,043
-476,547	-200,000	-0,013	0,085
-475,532	-200,000	0,019	-0,133
-474,518	-0,460	0,084	0,044
-473,503	-190,782	0,068	0,001
-472,489	115,992	-0,020	-0,018
-471,474	-6,431	-0,131	-0,065
-470,459	-28,498	0,057	0,024
-469,445	-200,000	-0,001	-0,004
-468,430	195,804	-0,058	0,064
-467,416	545,052	-0,050	0,089
-466,401	-200,000	-0,033	-0,150
-465,386	-17,473	-0,047	0,022
-464,372	-200,000	0,019	0,101
-463,357	-200,000	-0,046	-0,161
-462,343	-26,900	-0,084	-0,036
-461,328	-1,275	-0,120	-0,062
-460,313	247,012	-0,039	-0,049
-459,299	-75,474	0,112	0,029
-458,284	106,175	0,107	0,093
-457,270	-200,000	0,008	0,047
-456,255	132,843	0,034	-0,033
-455,241	-200,000	0,013	-0,113
-454,226	362,715	-0,058	0,085
-453,211	250,125	0,041	0,051
-452,197	-31,889	0,067	0,027
-451,182	-20,551	-0,087	0,039
-450,168	-200,000	0,016	0,103
-449,153	25,712	0,050	-0,030
-448,138	-200,000	0,008	-0,101
-447,124	800,000	0,106	-0,232
-446,109	250,607	-0,014	-0,018
-445,095	6,027	0,023	0,013
-444,080	430,991	0,039	-0,062
-443,065	-200,000	0,019	0,107
-442,051	-72,837	0,125	-0,033
-441,036	-200,000	-0,004	-0,033
-440,022	-200,000	0,020	-0,086
-439,007	650,934	0,034	-0,063
-437,992	-159,677	-0,057	0,002
-436,978	-45,847	0,058	0,021
-435,963	800,000	-0,061	0,197
-434,949	800,000	-0,035	0,086
-433,934	-200,000	-0,027	-0,099
-432,919	-200,000	0,015	-0,114
-431,905	46,218	0,019	0,013
-430,890	-110,124	0,045	0,007
-429,876	-41,912	-0,036	-0,014
-428,861	800,000	0,017	0,039
-427,846	-200,000	0,011	0,058
-426,832	748,108	0,023	0,046
-425,817	-14,288	-0,110	0,052
-424,803	-127,623	0,139	0,015
-423,788	800,000	0,085	0,172
-422,773	19,773	0,021	0,012
-421,759	800,000	0,032	0,085
-420,744	-200,000	-0,029	-0,145
-419,730	-63,944	-0,112	0,033
-418,715	-200,000	0,018	-0,140
-417,701	800,000	-0,082	-0,197
-416,686	800,000	0,034	0,097
-415,671	-200,000	-0,004	0,078
-414,657	24,262	-0,083	0,050
-413,642	7,687	0,078	0,043
-412,628	-52,113	-0,068	0,023
-411,613	800,000	-0,036	-0,076
-410,598	-4,277	-0,090	-0,045
-409,584	-87,349	0,087	0,019
-408,569	800,000	-0,023	-0,063
-407,555	241,136	0,047	-0,058
-406,540	-200,000	0,005	-0,123
-405,525	800,000	-0,049	-0,102
-404,511	-62,887	-0,120	-0,036
-403,496	-64,998	-0,020	-0,006
-402,482	-151,684	-0,026	0,001
-401,467	192,100	-0,073	-0,081
-400,452	3,426	0,050	0,027
-399,438	800,000	-0,044	0,101
-398,423	-97,655	-0,165	-0,031
-397,409	-144,356	0,145	0,010
-396,394	-156,212	-0,091	-0,004
-395,379	-134,495	0,081	0,007
-394,365	800,000	0,037	0,108
-393,350	343,475	0,025	0,036
-392,336	-87,085	0,053	-0,012
-391,321	-108,235	-0,062	-0,010
-390,306	32,377	0,160	-0,101
-389,292	543,657	-0,067	-0,117
-388,277	448,910	-0,026	-0,043
-387,263	-200,000	0,021	0,149
-386,248	800,000	0,037	0,114
-385,233	-57,352	0,062	0,020
-384,219	-200,000	-0,001	-0,029
-383,204	-126,363	-0,051	0,006
-382,190	-200,000	-0,011	0,071
-381,175	191,096	-0,017	-0,019
-380,160	454,867	-0,025	-0,041
-379,146	-179,873	0,014	-0,000
-378,131	-152,563	-0,072	-0,004
-377,117	-200,000	-0,013	0,095
-376,102	125,272	0,028	0,025
-375,088	-22,075	-0,086	0,038
-374,073	-122,431	-0,034	-0,004
-373,058	94,835	0,071	0,059
-372,044	800,000	-0,043	-0,092
-371,029	-34,783	-0,197	-0,078
-370,015	3,508	-0,110	-0,058
-369,000	-200,000	-0,040	0,158
-367,985	-200,000	-0,042	-0,195
-366,971	20,169	0,040	-0,023
-365,956	800,000	0,026	0,057
-364,942	-53,724	0,043	0,014
-363,927	800,000	-0,025	-0,068
-362,912	530,634	0,054	0,093
-361,898	-87,149	0,168	-0,037
-360,883	-107,722	-0,015	-0,002
-359,869	-3,599	-0,078	-0,040
-358,854	-200,000	-0,106	-0,000
-357,839	-79,374	0,038	0,009
-356,825	-81,716	0,150	0,036
-355,810	800,000	0,083	0,189
-354,796	800,000	0,060	-0,162
-353,781	-200,000	0,011	-0,067
-352,766	-81,673	-0,061	0,014
-351,752	-44,213	-0,107	0,039
-350,737	143,550	-0,054	0,052
-349,723	-200,000	0,005	0,056
-348,708	-128,944	0,021	-0,002
-347,693	27,795	0,143	-0,088
-346,679	145,196	-0,055	-0,053
-345,664	-113,464	-0,065	-0,009
-344,650	-200,000	0,017	0,055
-343,635	-200,000	0,010	0,044
-342,620	-12,651	0,102	0,048
-341,606	-84,912	0,054	-0,012
-340,591	146,294	-0,110	0,108
-339,577	628,347	-0,044	0,081
-338,562	-200,000	-0,007	-0,056
-337,548	-17,843	0,126	0,057
-336,533	544,571	0,056	0,099
-335,518	81,727	0,097	0,076
-334,504	-41,997	-0,126	-0,047
-333,489	-38,730	-0,044	0,017
-332,475	-72,423	0,071	-0,019
-331,460	800,000	-0,036	-0,104
-330,445	-200,000	-0,045	0,179
-329,431	76,479	-0,025	0,019
-328,416	-131,341	-0,056	-0,005
-327,402	-200,000	-0,010	-0,073
-326,387	-200,000	-0,025	-0,106
-325,372	-200,000	0,011	-0,078
-324,358	800,000	-0,042	0,100
-323,343	-124,403	-0,132	0,015
-322,329	-200,000	-0,011	0,092
-321,314	-15,008	-0,060	-0,028
-320,299	639,803	-0,067	-0,125
-319,285	16,242	-0,173	0,099
-318,270	-79,211	0,029	-0,007
-317,256	-150,245	0,070	0,004
-316,241	437,250	0,022	-0,034
-315,226	800,000	0,016	0,035
-314,212	-30,776	0,052	-0,021
-313,197	431,198	-0,030	0,048
-312,183	-53,798	-0,135	0,044
-311,168	174,853	-0,022	-0,023
-310,153	-200,000	0,026	-0,172
-309,139	800,000	-0,055	-0,164
-308,124	-200,000	-0,003	0,102
-307,110	-6,435	0,162	0,080
-306,095	-200,000	0,040	0,130
-305,080	-175,797	-0,013	-0,000
-304,066	-200,000	-0,018	0,065
-303,051	-200,000	-0,002	-0,018
-302,037	150,544	-0,061	-0,060
-301,022	209,617	0,059	0,068
-300,008	26,679	0,081	0,049
-298,993	-128,263	-0,117	-0,012
-297,978	234,860	0,037	-0,044
-296,964	-200,000	-0,013	0,050
-295,949	-72,398	0,117	0,031
-294,935	726,787	-0,024	0,046
-293,920	84,369	0,095	0,075
-292,905	-200,000	-0,014	0,128
-291,891	-200,000	0,000	0,066
-290,876	800,000	0,030	-0,085
-289,862	800,000	-0,045	0,120
-288,847	169,728	0,054	-0,056
-287,832	800,000	-0,017	0,039
-286,818	-200,000	-0,033	-0,107
-285,803	98,366	-0,087	-0,073
-284,789	-200,000	0,053	0,181
-283,774	80,202	0,087	0,068
-282,759	64,730	-0,033	-0,024
-281,745	-46,227	0,177	0,063
-280,730	470,878	0,032	-0,052
-279,716	91,824	0,120	-0,098
-278,701	78,383	-0,083	0,064
-277,686	295,854	0,069	-0,092
-276,672	68,269	-0,041	-0,031
-275,657	127,826	-0,001	0,001
-274,643	458,691	-0,010	0,016
-273,628	22,374	-0,105	-0,062
-272,613	800,000	0,016	-0,047
-271,599	-200,000	0,019	0,088
-270,584	-200,000	0,018	0,188
-269,570	-139,509	0,051	0,004
-268,555	19,857	-0,053	-0,031
-267,540	-200,000	0,010	0,075
-266,526	-200,000	0,004	-0,104
-265,511	800,000	-0,024	-0,056
-264,497	92,410	0,028	0,023
-263,482	99,831	0,148	0,124
-262,467	170,261	-0,061	0,064
-261,453	-3,312	0,122	-0,061
-260,438	9,176	0,051	-0,028
-259,424	-200,000	-0,004	-0,145
-258,409	68,075	0,013	-0,010
-257,395	-200,000	-0,006	0,078
-256,380	467,450	0,063	0,103
-255,365	800,000	-0,043	0,122
-254,351	-200,000	-0,016	0,116
-253,336	86,153	-0,065	0,052
-252,322	-161,110	-0,070	-0,003
-251,307	-200,000	0,026	-0,099
-250,292	-59,574	0,067	0,021
-249,278	-200,000	0,015	0,142
-248,263	75,716	0,010	0,008
-247,249	800,000	0,048	0,107
-246,234	-134,510	-0,081	0,007
-245,219	800,000	0,031	0,068
-244,205	292,807	-0,045	0,060
-243,190	800,000	-0,042	-0,104
-242,176	-73,244	0,050	-0,013
-241,161	55,741	0,010	-0,007
-240,146	-48,833	0,183	-0,063
-239,132	-112,814	-0,166	0,024
-238,117	58,918	-0,034	-0,024
-237,103	-200,000	-0,002	0,055
-236,088	-129,163	-0,006	0,001
-235,073	274,062	0,045	0,057
-234,059	-169,111	-0,076	0,002
-233,044	800,000	-0,056	0,127
-232,030	-195,864	0,092	-0,000
-231,015	235,693	0,008	-0,010
-230,000	800,000	0,030	0,073
-228,986	800,000	0,033	-0,086
-227,971	-49,873	0,123	0,042
-226,957	800,000	0,033	0,079
-225,942	307,840	0,069	0,094
-224,927	-200,000	-0,005	0,082
-223,913	-105,518	-0,246	0,040
-222,898	-66,148	-0,033	-0,009
-221,884	800,000	-0,022	0,061
-220,869	-94,794	0,098	-0,019
-219,855	-25,864	0,128	-0,055
-218,840	-200,000	0,023	0,083
-217,825	-38,118	0,032	0,012
-216,811	-80,292	0,115	-0,028
-215,796	183,476	0,090	-0,096
-214,782	-200,000	-0,034	-0,155
-213,767	99,108	-0,101	-0,085
-212,752	-200,000	0,007	0,052
-211,738	-200,000	0,035	0,197
-210,723	-27,728	0,012	-0,005
-209,709	-200,000	0,001	-0,049
-208,694	-73,260	-0,074	-0,019
-207,679	-1,609	0,032	0,016
-206,665	800,000	0,014	-0,037
-205,650	324,275	0,006	0,008
-204,636	-200,000	-0,004	-0,076
-203,621	-200,000	-0,002	0,116
-202,606	-42,371	-0,092	-0,034
-201,592	-142,393	-0,137	-0,010
-200,577	-103,069	0,116	0,020
-199,563	481,554	-0,013	0,021
-198,548	-200,000	-0,003	-0,044
-197,533	17,384	-0,153	0,088
-196,519	-123,328	-0,098	0,011
-195,504	800,000	-0,027	0,064
-194,490	-55,250	0,017	0,005
-193,475	237,200	-0,116	-0,140
-192,460	137,630	0,084	-0,080
-191,446	-53,210	-0,030	0,010
-190,431	-200,000	-0,027	0,087
-189,417	302,310	-0,068	0,092
-188,402	-200,000	0,003	-0,090
-187,387	-200,000	0,006	-0,050
-186,373	-117,963	-0,014	-0,002
-185,358	-70,104	0,117	-0,032
-184,344	507,831	0,027	-0,046
-183,329	-115,448	0,031	-0,004
-182,315	78,118	-0,040	0,031
-181,300	-104,984	-0,061	-0,010
-180,285	-91,616	0,056	-0,011
-179,271	800,000	-0,020	0,064
-178,256	-96,349	0,131	-0,025
-177,242	-31,860	-0,108	0,044
-176,227	800,000	0,043	0,109
-175,212	-154,324	0,082	-0,004
-174,198	-200,000	0,033	-0,166
-173,183	-72,750	-0,137	-0,036
-172,169	280,183	0,033	0,042
-171,154	-44,134	-0,122	-0,044
-170,139	100,167	-0,086	0,072
-169,125	11,034	0,016	-0,009
-168,110	219,037	0,104	0,120
-167,096	-43,892	-0,120	0,043
-166,081	193,331	0,021	0,023
-165,066	405,920	0,042	0,065
-164,052	-200,000	0,026	-0,138
-163,037	131,167	0,077	-0,072
-162,023	-200,000	-0,026	0,096
-161,008	-200,000	0,006	0,110
-159,993	250,469	0,079	0,098
-158,979	-11,142	0,119	-0,056
-157,964	800,000	-0,012	0,033
-156,950	274,992	0,038	0,049
-155,935	800,000	0,028	-0,076
-154,920	73,581	-0,026	0,019
-153,906	79,150	0,040	0,031
-152,891	-127,753	-0,095	0,010
-151,877	607,336	-0,010	-0,018
-150,862	-99,686	-0,081	-0,015
-149,847	-200,000	-0,023	-0,130
-148,833	28,247	-0,073	-0,044
-147,818	-12,227	-0,065	0,031
-146,804	300,350	0,028	0,038
-145,789	-200,000	-0,012	0,055
-144,775	-200,000	0,001	0,084
-143,760	-169,625	-0,088	0,002
-142,745	215,198	-0,048	-0,055
-141,731	777,710	-0,046	-0,092
-140,716	800,000	-0,062	-0,149
-139,702	301,915	0,041	0,055
-138,687	178,362	0,050	-0,053
-137,672	-98,494	0,047	0,009
-136,658	393,520	-0,029	0,044
-135,643	-200,000	0,010	-0,068
-134,629	16,364	-0,082	0,047
-133,614	720,460	0,046	0,089
-132,599	-137,568	-0,039	0,003
-131,585	-166,117	0,097	0,003
-130,570	8,953	0,091	-0,050
-129,556	15,643	0,057	0,032
-128,541	207,912	-0,078	-0,088
-127,526	-40,087	0,007	0,002
-126,512	204,254	-0,031	0,035
-125,497	224,983	0,103	0,121
-124,483	-200,000	-0,018	0,096
-123,468	-112,063	0,068	-0,010
-122,453	491,601	-0,076	-0,126
-121,439	72,399	-0,062	-0,047
-120,424	-12,725	0,091	-0,043
-119,410	-156,258	0,111	0,005
-118,395	-200,000	-0,014	0,152
-117,380	-66,343	0,037	-0,011
-116,366	-200,000	0,019	0,072
-115,351	86,154	-0,090	0,071
-114,337	48,040	-0,020	-0,013
-113,322	-100,656	-0,147	0,026
-112,307	-200,000	0,003	0,104
-111,293	-200,000	-0,013	0,064
-110,278	291,717	0,037	0,049
-109,264	-29,766	0,051	-0,021
-108,249	162,601	-0,116	-0,118
-107,234	800,000	0,014	0,042
-106,220	-49,779	0,027	-0,009
-105,205	-200,000	0,007	0,107
-104,191	-56,191	0,029	-0,009
-103,176	384,242	-0,066	0,098
-102,162	800,000	0,020	-0,055
-101,147	-200,000	0,024	0,175
-100,132	156,638	-0,191	0,190
-99,118	-39,475	0,047	0,018
-98,103	-200,000	0,001	0,080
-97,089	244,534	0,073	-0,089
-96,074	-200,000	-0,003	0,028
-95,059	-200,000	0,009	0,069
-94,045	-2,066	-0,086	0,044
-93,030	-6,044	-0,087	-0,043
-92,016	800,000	0,010	0,027
-91,001	-200,000	-0,001	-0,033
-89,986	800,000	-0,030	-0,070
-88,972	765,316	-0,021	0,042
-87,957	40,563	-0,041	-0,027
-86,943	-200,000	0,001	0,027
-85,928	-200,000	-0,028	-0,109
-84,913	3,345	-0,090	-0,047
-83,899	-200,000	-0,018	-0,069
-82,884	-0,188	-0,132	-0,067
-81,870	-48,896	0,140	-0,048
-80,855	800,000	-0,035	0,097
-79,840	62,169	0,080	0,057
-78,826	-104,630	0,049	-0,008
-77,811	-200,000	-0,004	0,023
-76,797	800,000	-0,044	-0,118
-75,782	110,636	-0,035	-0,030
-74,767	-95,674	0,148	0,028
-73,753	800,000	-0,053	-0,139
-72,738	800,000	0,018	0,051
-71,724	337,235	-0,030	-0,041
-70,709	415,426	-0,134	0,207
-69,694	-3,179	-0,085	-0,043
-68,680	800,000	-0,029	0,065
-67,665	21,764	0,015	0,009
-66,651	323,861	0,057	0,079
-65,636	-69,554	0,045	-0,012
-64,622	-138,117	-0,055	0,004
-63,607	443,109	0,049	0,077
-62,592	412,725	-0,056	0,086
-61,578	800,000	0,047	0,148
-60,563	-61,003	0,174	0,053
-59,549	-49,063	-0,150	-0,052
-58,534	-24,317	-1,780	-0,762
-57,519	800,000	-0,413	-1,235
-56,505	-200,000	-1,264	-4,820
-55,490	-151,279	0,583	-0,031
-54,476	800,000	5,262	12,163
-53,461	-200,000	16,195	279,858
-52,446	800,000	706,237	2243,458
-51,432	560,726	1620,929	2836,388
-50,417	122,964	1622,176	1464,741
-49,403	84,428	1283,341	1011,591
-48,388	36,957	1029,179	655,128
-47,373	21,356	991,348	579,442
-46,359	20,150	980,139	568,891
-45,344	18,336	975,835	560,402
-44,330	18,504	974,435	560,127
-43,315	18,179	972,876	558,144
-42,300	18,053	971,922	557,161
-41,286	18,098	970,917	556,709
-40,271	18,117	969,886	556,159
-39,257	18,127	968,868	555,584
-38,242	18,075	968,256	555,041
-37,227	18,085	967,531	554,637
-36,213	18,032	966,699	553,964
-35,198	18,091	965,657	553,539
-34,184	18,067	965,167	553,157
-33,169	18,040	964,131	552,453
-32,154	18,146	963,365	552,338
-31,140	18,104	962,397	551,625
-30,125	18,160	961,693	551,379
-29,111	18,177	960,493	550,725
-28,096	18,164	960,246	550,521
-27,082	18,082	959,572	549,846
-26,067	18,084	958,719	549,341
-25,052	18,050	957,883	548,731
-24,038	18,013	957,115	548,149
-23,023	18,024	956,506	547,814
-22,009	18,134	955,575	547,616
-20,994	18,170	955,136	547,458
-19,979	18,073	954,641	546,840
-18,965	18,066	954,006	546,432
-17,950	18,099	953,399	546,169
-16,936	18,013	952,771	545,512
-15,921	17,999	952,163	545,096
-14,906	18,006	951,239	544,568
-13,892	17,949	950,803	544,113
-12,877	17,887	950,195	543,545
-11,863	17,912	949,413	543,158
-10,848	17,944	948,885	542,935
-9,833	18,028	948,394	542,901
-8,819	18,042	947,796	542,583
-7,804	17,938	947,200	541,889
-6,790	17,986	946,603	541,676
-5,775	17,975	945,964	541,255
-4,760	17,979	945,373	540,908
-3,746	17,935	944,775	540,405
-2,731	17,855	943,945	539,654
-1,717	17,768	943,463	539,080
-0,702	17,809	942,616	538,706
0,313	17,542	942,165	538,412
1,327	20,656	940,415	547,235
2,342	29,860	796,942	488,264
3,356	27,101	449,523	271,249
4,371	-2,235	295,795	149,066
5,386	-6,376	277,398	135,841
6,400	-7,709	271,664	131,778
7,415	-7,985	269,374	130,399
8,429	-7,951	267,995	129,751
9,444	-7,926	267,011	129,286
10,459	-8,005	266,533	128,971
11,473	-8,058	265,755	128,535
12,488	-8,315	265,341	128,089
13,502	-8,473	264,940	127,741
14,517	-8,435	264,351	127,480
15,531	-8,171	263,769	127,427
16,546	-8,364	263,556	127,138
17,561	-8,483	263,199	126,846
18,575	-8,425	262,901	126,745
19,590	-8,566	262,488	126,406
20,604	-8,325	262,048	126,401
21,619	-8,615	261,906	126,060
22,634	-8,645	261,628	125,888
23,648	-8,582	261,180	125,718
24,663	-8,538	260,994	125,656
25,677	-8,391	260,657	125,615
26,692	-8,527	260,360	125,339
27,707	-8,598	260,217	125,195
28,721	-8,629	259,937	125,022
29,736	-8,650	259,590	124,824
30,750	-8,807	259,374	124,570
31,765	-8,702	259,095	124,518
32,780	-8,701	258,908	124,418
33,794	-8,611	258,658	124,367
34,809	-8,788	258,428	124,088
35,823	-8,649	258,103	124,045
36,838	-8,816	257,948	123,811
37,853	-8,921	257,732	123,604
38,867	-8,940	257,469	123,450
39,882	-8,835	257,280	123,441
40,896	-8,683	257,017	123,437
41,911	-8,844	256,921	123,238
42,926	-8,975	256,488	122,905
43,940	-8,989	256,282	122,783
44,955	-8,891	256,139	122,789
45,969	-8,876	255,830	122,643
46,984	-9,139	255,570	122,277
47,999	-9,240	255,212	122,007
49,013	-9,418	254,963	121,721
50,028	-9,495	254,782	121,557
51,042	-9,646	254,641	121,347
52,057	-9,839	254,283	120,998
53,071	-9,641	254,138	121,090
54,086	-9,568	253,991	121,073
55,101	-9,474	253,970	121,134
56,115	-8,937	253,763	121,491
57,130	-8,667	253,668	121,669
58,144	-8,268	253,441	121,895
59,159	-8,408	253,383	121,735
60,174	-8,364	253,034	121,595
61,188	-8,377	252,857	121,487
62,203	-8,478	252,726	121,326
63,217	-8,534	252,422	121,121
64,232	-8,563	252,150	120,955
65,247	-8,288	251,971	121,096
66,261	-8,443	251,830	120,883
67,276	-8,770	251,400	120,385
68,290	-9,081	251,193	120,008
69,305	-9,165	250,928	119,798
70,320	-9,145	250,771	119,730
71,334	-8,803	250,556	119,910
72,349	-8,466	250,586	120,202
73,363	-8,347	250,358	120,184
74,378	-8,739	250,321	119,819
75,393	-8,597	249,762	119,662
76,407	-8,573	249,760	119,671
77,422	-8,498	249,504	119,602
78,436	-8,455	249,323	119,541
79,451	-8,615	249,151	119,312
80,466	-8,706	248,754	119,034
81,480	-8,866	248,529	118,780
82,495	-8,907	248,435	118,689
83,509	-8,812	248,204	118,650
84,524	-9,067	248,163	118,403
85,539	-9,179	247,687	118,070
86,553	-9,355	247,677	117,906
87,568	-8,977	247,383	118,076
88,582	-9,136	247,239	117,862
89,597	-9,278	247,053	117,643
90,611	-8,757	246,928	118,012
91,626	-8,872	246,788	117,838
92,641	-8,626	246,560	117,925
93,655	-8,997	246,470	117,560
94,670	-8,688	246,004	117,587
95,684	-8,776	245,833	117,420
96,699	-8,842	245,871	117,373
97,714	-8,937	245,610	117,157
98,728	-8,894	245,362	117,065
99,743	-9,018	245,086	116,819
100,757	-9,139	245,030	116,681
101,772	-8,997	244,780	116,670
102,787	-8,981	244,677	116,624
103,801	-8,795	244,474	116,672
104,816	-8,838	244,346	116,564
105,830	-8,808	244,282	116,548
106,845	-8,606	244,092	116,615
107,860	-8,540	243,754	116,498
108,874	-8,904	243,593	116,109
109,889	-8,748	243,458	116,164
110,903	-8,852	243,194	115,941
111,918	-8,941	243,034	115,781
112,933	-8,867	242,859	115,749
113,947	-8,747	242,611	115,719
114,962	-8,765	242,560	115,670
115,976	-8,675	242,388	115,652
116,991	-8,588	242,253	115,648
118,006	-8,809	242,079	115,373
119,020	-8,642	241,919	115,424
120,035	-8,869	241,815	115,178
121,049	-8,655	241,710	115,293
122,064	-8,634	241,326	115,117
123,079	-8,734	241,221	114,974
124,093	-8,755	240,934	114,810
125,108	-8,889	240,546	114,505
126,122	-9,341	240,439	114,074
127,137	-9,302	240,241	114,002
128,151	-9,147	240,095	114,050
129,166	-8,973	240,029	114,150
130,181	-9,112	239,715	113,877
131,195	-9,162	239,491	113,720
132,210	-8,936	239,448	113,874
133,224	-8,764	239,309	113,937
134,239	-8,604	239,124	113,969
135,254	-8,579	238,912	113,878
136,268	-8,673	238,676	113,679
137,283	-9,150	238,532	113,214
138,297	-9,268	238,281	112,989
139,312	-9,302	238,120	112,875
140,327	-8,729	238,087	113,313
141,341	-8,368	238,071	113,587
142,356	-8,183	237,966	113,677
143,370	-8,478	237,919	113,406
144,385	-8,352	237,637	113,363
145,400	-8,046	237,462	113,516
146,414	-8,039	237,116	113,346
147,429	-8,286	237,086	113,122
148,443	-8,422	236,871	112,900
149,458	-8,425	236,654	112,785
150,473	-8,444	236,517	112,694
151,487	-8,516	236,474	112,606
152,502	-8,196	236,176	112,710
153,516	-8,382	235,962	112,449
154,531	-8,503	236,034	112,376
155,546	-8,375	235,712	112,316
156,560	-8,444	235,640	112,216
157,575	-8,502	235,292	111,994
158,589	-8,470	235,054	111,897
159,604	-8,173	234,964	112,080
160,619	-8,241	234,894	111,982
161,633	-8,195	234,884	112,004
162,648	-8,011	234,614	112,012
163,662	-8,354	234,456	111,654
164,677	-8,250	234,195	111,603
165,692	-8,275	234,124	111,538
166,706	-8,276	234,008	111,473
167,721	-8,017	233,912	111,622
168,735	-8,012	233,810	111,568
169,750	-7,986	233,582	111,469
170,764	-8,111	233,343	111,247
171,779	-8,232	233,321	111,131
172,794	-8,216	233,215	111,083
173,808	-8,295	232,836	110,830
174,823	-8,923	232,509	110,170
175,837	-9,099	232,280	109,913
176,852	-8,586	232,285	110,310
177,867	-8,317	232,235	110,487
178,881	-8,220	232,089	110,484
179,896	-8,268	231,971	110,381
180,910	-8,107	231,670	110,353
181,925	-8,123	231,708	110,349
182,940	-8,140	231,605	110,277
183,954	-8,056	231,429	110,249
184,969	-7,788	231,297	110,386
185,983	-8,219	231,121	109,955
186,998	-8,013	230,970	110,035
188,013	-7,681	230,774	110,190
189,027	-8,095	230,721	109,833
190,042	-8,182	230,353	109,579
191,056	-7,948	230,260	109,708
192,071	-7,947	230,263	109,700
193,086	-7,920	230,064	109,617
194,100	-7,832	229,913	109,603
195,115	-7,893	229,662	109,427
196,129	-8,066	229,574	109,241
197,144	-3,745	230,832	113,197
198,159	0,424	232,254	117,146
199,173	3,371	232,791	119,712
200,188	3,630	232,862	119,940
201,202	3,686	232,677	119,878
202,217	3,949	232,546	120,005
203,232	4,101	232,436	120,056
204,246	4,137	232,357	120,033
205,261	4,151	232,261	119,983
206,275	4,312	232,082	120,005
207,290	4,132	231,939	119,781
208,304	4,428	231,881	119,971
209,319	4,440	231,637	119,843
210,334	4,288	231,434	119,609
211,348	3,907	231,250	119,208
212,363	3,474	231,004	118,735
213,377	3,214	230,738	118,386
214,392	3,499	230,478	118,463
215,407	3,421	230,534	118,421
216,421	3,622	230,329	118,460
217,436	3,397	230,215	118,217
218,450	3,358	229,864	117,996
219,465	3,161	229,792	117,797
220,480	3,097	229,672	117,676
221,494	3,202	229,506	117,661
222,509	3,406	229,444	117,776
223,523	3,236	229,292	117,557
224,538	3,292	229,013	117,446
225,553	3,409	228,918	117,477
226,567	3,587	228,791	117,537
227,582	3,768	228,729	117,634
228,596	3,856	228,546	117,596
229,611	3,351	228,455	117,153
230,626	3,147	228,161	116,836
231,640	3,117	228,041	116,742
232,655	3,664	227,946	117,099
233,669	4,039	227,873	117,337
234,684	3,990	227,733	117,218
235,699	3,740	227,560	116,928
236,713	3,351	227,493	116,587
237,728	3,318	227,239	116,421
238,742	3,153	227,012	116,170
239,757	3,320	226,828	116,191
240,772	3,327	226,665	116,103
241,786	3,517	226,519	116,162
242,801	3,670	226,420	116,216
243,815	3,938	226,379	116,388
244,830	3,796	226,324	116,242
245,844	3,539	225,960	115,850
246,859	3,506	225,763	115,714
247,874	3,594	225,806	115,792
248,888	3,815	225,580	115,832
249,903	3,604	225,357	115,549
250,917	3,409	225,273	115,349
251,932	3,387	225,124	115,245
252,947	3,295	224,992	115,099
253,961	3,376	224,754	115,027
254,976	3,407	224,601	114,962
255,990	3,476	224,539	114,972
257,005	3,507	224,476	114,952
258,020	3,728	224,274	115,004
259,034	3,818	224,083	114,963
260,049	3,793	223,998	114,891
261,063	3,574	223,811	114,621
262,078	3,677	223,717	114,639
263,093	3,546	223,713	114,530
264,107	3,529	223,496	114,395
265,122	3,720	223,370	114,463
266,136	3,864	223,350	114,550
267,151	4,004	222,999	114,464
268,166	3,428	222,878	113,963
269,180	3,162	222,673	113,651
270,195	3,245	222,450	113,588
271,209	3,139	222,343	113,445
272,224	3,618	222,196	113,715
273,239	3,414	222,194	113,553
274,253	3,385	221,966	113,404
275,268	3,187	221,694	113,109
276,282	3,032	221,532	112,902
277,297	3,040	221,377	112,819
278,312	3,238	221,206	112,868
279,326	3,222	221,265	112,876
280,341	3,401	220,977	112,850
281,355	3,352	220,952	112,792
282,370	3,448	220,884	112,817
283,384	3,215	220,422	112,400
284,399	3,017	220,426	112,247
285,414	3,070	220,260	112,191
286,428	3,519	220,216	112,488
287,443	3,851	220,077	112,650
288,457	3,621	219,974	112,419
289,472	3,473	219,648	112,134
290,487	2,881	219,504	111,618
291,501	2,991	219,384	111,628
292,516	2,958	219,304	111,553
293,530	3,008	219,205	111,529
294,545	3,114	219,090	111,538
295,560	3,218	218,985	111,550
296,574	3,433	218,778	111,591
297,589	3,483	218,747	111,602
298,603	3,370	218,665	111,468
299,618	3,486	218,356	111,385
300,633	3,484	218,337	111,364
301,647	3,496	218,288	111,338
302,662	3,850	218,124	111,501
303,676	3,662	218,040	111,312
304,691	3,738	217,793	111,231
305,706	3,687	217,655	111,113
306,720	3,738	217,289	110,953
307,735	3,484	217,345	110,789
308,749	3,396	217,175	110,628
309,764	3,574	217,137	110,728
310,779	3,712	216,866	110,679
311,793	3,748	216,682	110,601
312,808	3,685	216,594	110,501
313,822	3,393	216,526	110,247
314,837	3,376	216,376	110,148
315,852	3,230	216,064	109,874
316,866	3,232	215,986	109,827
317,881	3,391	215,832	109,852
318,895	3,422	215,853	109,876
319,910	3,559	215,713	109,893
320,925	3,311	215,417	109,554
321,939	2,974	215,281	109,234
322,954	3,145	215,121	109,266
323,968	3,305	215,256	109,439
324,983	3,534	215,051	109,489
325,997	3,679	214,918	109,515
327,012	3,542	214,819	109,357
328,027	3,413	214,705	109,197
329,041	3,844	214,482	109,381
330,056	3,765	214,494	109,320
331,070	3,271	214,262	108,842
332,085	3,143	213,961	108,588
333,100	3,230	213,801	108,559
334,114	3,471	213,684	108,661
335,129	3,621	213,583	108,706
336,143	3,278	213,455	108,388
337,158	3,414	213,284	108,388
338,173	3,477	213,236	108,398
339,187	3,288	212,947	108,108
340,202	3,240	212,874	108,028
341,216	3,109	212,653	107,814
342,231	3,334	212,473	107,871
343,246	3,250	212,459	107,795
344,260	3,313	212,346	107,773
345,275	3,540	212,307	107,903
346,289	3,394	212,183	107,728
347,304	3,594	212,014	107,773
348,319	3,481	211,863	107,607
349,333	3,419	211,749	107,496
350,348	3,445	211,603	107,431
351,362	3,459	211,464	107,360
352,377	3,660	211,431	107,475
353,392	3,446	211,243	107,220
354,406	3,417	211,089	107,112
355,421	195,768	1340,975	1426,609
356,435	156,374	1478,667	1426,631
