DTS Sentinel unit serial number:	SN410029Multiplexer serial number:	ORYXHardware model number:	OX2-SRSoftware version number:	ORYX F/W v4,00 Oryx Data Collector v3.7.2.0data status	okinstallation	B6 Nyhavnadifferential loss correction	single-endedforward channel	channel 2reverse channel	N/Adate	2023/12/11time	04:25:08forward acquisition time	300,00reverse acquisition time	0,00gamma	499,1914k internal	0,3126k external	0,3126temperature offset calibration	1,0000default loss term (dB/km)	0,3820temperature slope calibration	1,0000multiplexer offset coefficient	1,0000multiplexer slope coefficient	1,0000fibre end	0,00T internal ref (°C)	20,58T ext. ref 1 (°C)	3,34T ext. ref 2 (°C)	3,35length (m)	temperature (°C)	Stokes	anti-Stokes-744,400	-111,572	0,110	-0,016
-743,385	-38,302	-0,242	0,095
-742,371	578,075	0,034	0,062
-741,356	78,920	-0,151	0,120
-740,342	308,268	0,069	-0,096
-739,327	-51,689	-0,246	0,085
-738,312	416,385	-0,016	-0,025
-737,298	-82,398	-0,267	0,064
-736,283	-70,508	-0,062	-0,017
-735,269	-129,118	-0,352	-0,036
-734,254	420,349	0,068	0,109
-733,239	5,719	-0,305	-0,168
-732,225	-150,784	0,204	0,011
-731,210	-200,000	0,001	0,044
-730,196	-8,073	-0,095	-0,047
-729,181	-200,000	-0,017	-0,120
-728,167	-200,000	-0,027	-0,117
-727,152	-200,000	0,027	-0,112
-726,137	-143,680	-0,104	0,007
-725,123	800,000	-0,024	0,071
-724,108	-3,422	-0,175	0,091
-723,094	-97,567	0,091	-0,017
-722,079	-200,000	0,007	-0,078
-721,064	283,135	0,099	0,133
-720,050	-200,000	-0,005	-0,088
-719,035	-200,000	-0,014	-0,119
-718,021	-15,780	-0,045	-0,021
-717,006	-35,422	0,100	-0,040
-715,991	800,000	-0,035	0,106
-714,977	800,000	0,046	-0,146
-713,962	390,808	-0,090	-0,139
-712,948	-200,000	-0,016	-0,106
-711,933	115,950	-0,089	0,081
-710,918	-200,000	0,021	0,076
-709,904	-199,480	-0,260	0,001
-708,889	-200,000	-0,006	-0,090
-707,875	180,887	-0,070	-0,077
-706,860	679,854	0,019	-0,038
-705,845	-29,716	-0,097	-0,041
-704,831	-65,098	-0,009	-0,003
-703,816	-55,633	-0,235	-0,078
-702,802	-200,000	-0,019	0,065
-701,787	364,096	-0,017	0,026
-700,772	-200,000	0,034	-0,119
-699,758	223,596	0,052	0,062
-698,743	241,449	0,025	-0,031
-697,729	-200,000	0,006	0,035
-696,714	-24,053	-0,070	-0,031
-695,699	-200,000	-0,026	0,191
-694,685	436,787	-0,011	0,018
-693,670	650,835	-0,054	-0,104
-692,656	-57,206	0,044	0,014
-691,641	331,397	-0,094	-0,135
-690,627	-200,000	0,005	0,072
-689,612	800,000	0,066	0,159
-688,597	-200,000	0,004	-0,083
-687,583	110,925	-0,075	0,067
-686,568	800,000	0,063	-0,130
-685,554	-200,000	-0,007	0,109
-684,539	132,392	0,066	0,063
-683,524	-200,000	-0,006	0,083
-682,510	800,000	0,007	0,017
-681,495	800,000	0,058	0,125
-680,481	-21,861	0,040	0,018
-679,466	-172,511	-0,084	-0,002
-678,451	-85,090	0,076	-0,017
-677,437	-151,885	-0,077	-0,004
-676,422	151,103	0,047	-0,047
-675,408	12,618	-0,151	0,086
-674,393	-87,148	0,152	-0,034
-673,378	-200,000	-0,002	0,158
-672,364	70,925	-0,041	0,032
-671,349	800,000	0,029	-0,091
-670,335	-200,000	-0,012	-0,089
-669,320	-82,841	0,083	-0,020
-668,305	-200,000	0,003	-0,049
-667,291	-200,000	0,020	-0,090
-666,276	-127,824	0,080	-0,008
-665,262	329,048	-0,052	-0,074
-664,247	800,000	0,028	-0,086
-663,232	626,739	0,060	-0,112
-662,218	200,141	-0,024	-0,027
-661,203	7,857	-0,037	-0,021
-660,189	-200,000	-0,013	0,052
-659,174	314,720	-0,071	0,099
-658,159	84,632	-0,060	-0,049
-657,145	236,809	0,023	0,028
-656,130	310,282	-0,067	-0,094
-655,116	800,000	-0,003	0,007
-654,101	13,368	0,069	0,039
-653,086	127,626	-0,042	0,039
-652,072	-200,000	-0,006	-0,087
-651,057	-26,836	-0,008	-0,003
-650,043	-200,000	-0,024	-0,120
-649,028	179,085	-0,026	0,029
-648,014	145,387	0,038	-0,038
-646,999	800,000	0,023	0,073
-645,984	670,212	-0,051	0,098
-644,970	21,119	-0,004	0,002
-643,955	-148,820	-0,173	-0,010
-642,941	-88,117	-0,065	0,014
-641,926	-68,171	0,059	-0,017
-640,911	-61,812	-0,065	0,020
-639,897	594,227	0,021	0,038
-638,882	218,494	0,087	0,104
-637,868	-76,549	0,032	-0,008
-636,853	114,703	-0,079	0,071
-635,838	-92,951	-0,131	0,027
-634,824	-25,517	0,017	0,007
-633,809	785,834	-0,012	0,025
-632,795	413,031	0,025	-0,040
-631,780	-200,000	0,001	0,034
-630,765	24,750	-0,032	-0,019
-629,751	314,185	-0,075	-0,105
-628,736	-200,000	0,011	0,040
-627,722	-111,928	0,048	-0,007
-626,707	182,202	-0,025	-0,028
-625,692	-55,773	0,144	0,047
-624,678	-69,899	0,097	-0,027
-623,663	-62,955	-0,054	-0,016
-622,649	54,285	-0,045	0,032
-621,634	751,517	-0,043	-0,087
-620,619	92,714	-0,180	-0,151
-619,605	443,350	0,059	0,096
-618,590	-105,494	-0,184	-0,031
-617,576	800,000	0,032	-0,085
-616,561	611,184	-0,057	-0,105
-615,546	-14,707	-0,121	-0,057
-614,532	-200,000	0,018	-0,106
-613,517	-200,000	0,004	-0,044
-612,503	154,459	-0,113	-0,115
-611,488	-200,000	0,028	-0,138
-610,474	-136,725	0,131	0,011
-609,459	274,615	0,046	-0,060
-608,444	-200,000	0,009	-0,087
-607,430	-66,356	-0,102	0,030
-606,415	-16,773	-0,149	-0,070
-605,401	115,682	-0,089	0,081
-604,386	-200,000	-0,005	0,079
-603,371	233,401	0,042	0,052
-602,357	-200,000	-0,015	0,128
-601,342	-200,000	-0,011	-0,131
-600,328	-56,299	0,018	-0,006
-599,313	800,000	-0,013	0,040
-598,298	335,858	-0,015	-0,021
-597,284	673,035	0,012	-0,023
-596,269	-133,177	0,143	-0,013
-595,255	5,083	0,115	0,062
-594,240	-200,000	-0,016	0,107
-593,225	-200,000	-0,000	0,039
-592,211	-200,000	-0,002	-0,113
-591,196	800,000	-0,037	-0,092
-590,182	610,632	-0,078	-0,144
-589,167	102,577	0,061	-0,053
-588,152	-200,000	0,002	0,027
-587,138	-14,225	0,068	0,033
-586,123	-129,266	-0,126	-0,013
-585,109	-45,664	0,045	-0,016
-584,094	-200,000	-0,001	0,040
-583,079	-200,000	0,004	0,073
-582,065	69,320	-0,003	0,002
-581,050	104,874	-0,058	0,051
-580,036	-200,000	0,002	-0,056
-579,021	63,480	-0,225	-0,167
-578,006	-200,000	0,013	0,086
-576,992	21,143	-0,075	0,045
-575,977	-200,000	-0,013	-0,062
-574,963	-18,869	0,168	-0,077
-573,948	-37,267	-0,098	-0,039
-572,934	-200,000	0,037	-0,172
-571,919	6,130	-0,031	0,017
-570,904	-200,000	-0,052	-0,233
-569,890	0,671	0,051	-0,027
-568,875	51,960	0,071	-0,050
-567,861	-200,000	0,006	0,049
-566,846	-145,835	0,076	-0,005
-565,831	-200,000	0,010	0,095
-564,817	-200,000	0,017	0,146
-563,802	-16,187	0,083	-0,039
-562,788	800,000	-0,047	-0,153
-561,773	-66,112	-0,042	-0,012
-560,758	-117,175	0,005	-0,001
-559,744	283,213	-0,068	-0,091
-558,729	-124,897	-0,174	0,020
-557,715	206,023	-0,033	-0,038
-556,700	297,704	-0,065	-0,089
-555,685	-200,000	-0,013	-0,112
-554,671	-200,000	-0,050	-0,178
-553,656	0,782	0,154	-0,081
-552,642	-200,000	0,007	0,037
-551,627	338,355	0,077	0,112
-550,612	-200,000	-0,014	-0,109
-549,598	800,000	-0,043	0,129
-548,583	70,145	-0,097	0,074
-547,569	800,000	0,068	0,144
-546,554	-24,076	0,031	-0,014
-545,539	800,000	0,033	-0,072
-544,525	167,437	0,042	-0,044
-543,510	406,699	-0,020	-0,032
-542,496	551,802	-0,010	-0,017
-541,481	800,000	0,057	-0,153
-540,466	800,000	0,056	0,120
-539,452	2,741	0,101	0,054
-538,437	-200,000	-0,015	0,057
-537,423	800,000	0,051	0,146
-536,408	-200,000	0,002	-0,026
-535,393	-76,620	-0,060	0,015
-534,379	105,230	-0,022	-0,019
-533,364	-200,000	0,017	-0,118
-532,350	557,964	0,106	-0,189
-531,335	-120,792	-0,167	0,021
-530,321	-200,000	0,003	0,071
-529,306	198,722	0,065	0,073
-528,291	251,452	0,112	0,141
-527,277	-58,149	-0,145	-0,046
-526,262	-200,000	0,010	-0,041
-525,248	800,000	0,033	0,073
-524,233	9,924	0,089	0,050
-523,218	211,433	0,019	-0,022
-522,204	-48,777	0,114	-0,040
-521,189	-200,000	-0,022	-0,098
-520,175	-96,723	-0,235	0,045
-519,160	149,289	0,088	-0,088
-518,145	-108,142	0,029	-0,005
-517,131	169,411	0,090	0,095
-516,116	335,910	0,041	-0,058
-515,102	-200,000	-0,025	-0,096
-514,087	-6,524	-0,145	-0,073
-513,072	-25,909	-0,056	0,024
-512,058	800,000	0,013	0,035
-511,043	65,702	0,120	0,090
-510,029	468,372	0,063	-0,105
-509,014	800,000	-0,031	0,086
-507,999	290,541	-0,008	-0,010
-506,985	-15,350	0,043	-0,020
-505,970	800,000	0,021	0,051
-504,956	199,207	-0,074	-0,084
-503,941	-31,600	0,124	-0,051
-502,926	339,366	-0,060	0,086
-501,912	90,974	0,086	0,071
-500,897	-100,095	-0,113	0,021
-499,883	495,472	0,033	-0,057
-498,868	-124,567	-0,153	0,017
-497,853	257,275	0,031	0,040
-496,839	-200,000	0,005	-0,031
-495,824	800,000	-0,020	0,041
-494,810	328,035	0,046	0,065
-493,795	494,164	-0,029	0,049
-492,781	-127,775	-0,124	0,013
-491,766	626,393	0,026	-0,048
-490,751	800,000	-0,009	-0,022
-489,737	54,282	-0,129	-0,092
-488,722	694,256	0,017	-0,033
-487,708	600,748	-0,038	-0,070
-486,693	-90,613	-0,101	-0,021
-485,678	-200,000	-0,008	0,107
-484,664	148,445	-0,089	-0,088
-483,649	384,197	-0,030	0,046
-482,635	-81,890	-0,124	0,030
-481,620	163,763	-0,073	0,076
-480,605	800,000	-0,019	0,057
-479,591	800,000	-0,084	0,213
-478,576	-65,384	0,135	-0,040
-477,562	73,532	0,117	-0,090
-476,547	473,339	0,047	-0,079
-475,532	562,479	0,027	0,048
-474,518	55,279	0,093	-0,066
-473,503	695,243	0,019	-0,037
-472,489	-0,317	0,071	0,037
-471,474	268,121	0,049	-0,064
-470,459	-200,000	0,012	-0,131
-469,445	-173,277	-0,082	-0,002
-468,430	244,743	0,065	-0,081
-467,416	-200,000	-0,030	0,106
-466,401	175,507	-0,064	-0,068
-465,386	3,643	-0,131	-0,070
-464,372	-55,531	-0,063	-0,021
-463,357	150,661	-0,007	0,007
-462,343	-30,393	-0,192	0,080
-461,328	341,239	0,047	0,068
-460,313	-200,000	0,013	-0,068
-459,299	800,000	0,054	-0,159
-458,284	-165,954	-0,063	0,002
-457,270	-42,330	0,012	-0,004
-456,255	-200,000	0,008	-0,044
-455,241	-40,004	-0,128	0,049
-454,226	111,791	0,061	0,054
-453,211	-174,243	-0,004	0,000
-452,197	800,000	-0,064	-0,177
-451,182	66,617	0,066	-0,049
-450,168	-30,513	0,100	0,041
-449,153	-57,283	-0,048	-0,015
-448,138	485,429	0,043	-0,072
-447,124	-200,000	-0,022	-0,156
-446,109	-150,212	0,191	-0,011
-445,095	9,844	0,073	0,041
-444,080	-200,000	-0,004	0,061
-443,065	-200,000	0,044	0,229
-442,051	-200,000	-0,004	-0,055
-441,036	544,388	-0,099	-0,176
-440,022	22,367	0,050	0,030
-439,007	-200,000	0,025	0,108
-437,992	153,376	-0,066	0,067
-436,978	800,000	-0,037	0,098
-435,963	-56,202	-0,109	0,036
-434,949	-181,131	-0,073	-0,001
-433,934	-200,000	0,007	-0,029
-432,919	800,000	-0,063	-0,135
-431,905	-100,086	-0,131	-0,024
-430,890	-200,000	0,006	0,097
-429,876	-198,047	0,052	0,000
-428,861	4,337	-0,029	-0,016
-427,846	-32,655	0,089	0,036
-426,832	337,042	-0,033	0,048
-425,817	800,000	0,024	-0,072
-424,803	-200,000	0,005	-0,030
-423,788	77,450	0,140	0,110
-422,773	-36,747	-0,137	0,054
-421,759	-200,000	0,014	0,080
-420,744	-90,111	-0,126	0,027
-419,730	-200,000	-0,023	-0,117
-418,715	-18,348	-0,084	-0,039
-417,701	800,000	0,034	-0,078
-416,686	62,417	0,120	-0,088
-415,671	-33,448	0,042	-0,017
-414,657	47,749	0,059	0,040
-413,642	0,164	0,091	0,048
-412,628	3,877	-0,110	-0,059
-411,613	-76,834	-0,057	0,014
-410,598	361,763	0,048	0,071
-409,584	-159,370	0,086	-0,003
-408,569	800,000	-0,040	0,089
-407,555	32,813	-0,053	0,034
-406,540	-24,738	-0,051	0,022
-405,525	68,790	-0,091	-0,069
-404,511	-200,000	0,003	-0,045
-403,496	187,917	0,117	-0,128
-402,482	147,143	0,107	0,106
-401,467	800,000	-0,026	0,077
-400,452	-52,020	0,090	-0,031
-399,438	32,703	-0,072	0,046
-398,423	-200,000	0,001	0,012
-397,409	800,000	-0,007	0,018
-396,394	-200,000	0,003	-0,028
-395,379	-200,000	0,010	-0,103
-394,365	-64,146	0,077	-0,023
-393,350	-76,795	0,164	-0,042
-392,336	-200,000	0,026	0,108
-391,321	800,000	0,015	0,041
-390,306	-160,394	0,060	-0,002
-389,292	58,614	0,060	0,043
-388,277	91,331	0,035	0,029
-387,263	-189,873	0,201	0,002
-386,248	78,012	-0,053	0,041
-385,233	-200,000	0,004	0,068
-384,219	102,756	0,119	-0,102
-383,204	-200,000	-0,036	-0,137
-382,190	650,301	0,035	-0,066
-381,175	119,722	-0,080	0,073
-380,160	225,931	-0,051	0,060
-379,146	39,411	0,045	0,030
-378,131	108,820	0,076	0,067
-377,117	33,500	0,056	-0,036
-376,102	-200,000	0,005	-0,139
-375,088	-113,668	0,056	-0,008
-374,073	-42,424	0,085	-0,032
-373,058	800,000	0,027	0,075
-372,044	-200,000	0,013	0,102
-371,029	-9,306	-0,195	0,095
-370,015	-20,819	0,212	0,095
-369,000	-200,000	-0,018	-0,117
-367,985	376,241	-0,063	-0,095
-366,971	-200,000	0,000	0,072
-365,956	800,000	0,057	-0,146
-364,942	-31,917	0,194	0,079
-363,927	-85,732	-0,111	0,025
-362,912	-45,011	-0,043	-0,016
-361,898	-112,668	-0,177	0,026
-360,883	5,092	0,061	-0,033
-359,869	800,000	-0,022	0,056
-358,854	56,367	-0,134	0,095
-357,839	22,109	0,087	0,052
-356,825	93,465	0,085	0,071
-355,810	-200,000	-0,002	-0,030
-354,796	-78,680	-0,104	-0,026
-353,781	-69,883	0,037	-0,010
-352,766	79,176	-0,071	-0,056
-351,752	800,000	0,025	-0,071
-350,737	-200,000	-0,011	0,042
-349,723	73,636	-0,110	0,084
-348,708	-8,560	0,105	0,052
-347,693	-200,000	-0,003	0,036
-346,679	181,366	-0,043	-0,047
-345,664	357,098	0,035	-0,052
-344,650	700,231	-0,011	0,021
-343,635	-123,525	0,098	0,011
-342,620	-200,000	0,012	0,150
-341,606	-75,141	-0,098	0,026
-340,591	-200,000	0,023	0,118
-339,577	-37,794	-0,023	0,009
-338,562	-200,000	0,021	-0,111
-337,548	-200,000	0,012	-0,141
-336,533	-200,000	0,018	-0,062
-335,518	800,000	0,045	0,096
-334,504	-68,604	0,060	0,017
-333,489	34,514	-0,033	-0,021
-332,475	720,329	-0,059	-0,116
-331,460	800,000	-0,029	-0,085
-330,445	403,924	0,041	0,063
-329,431	-9,121	0,048	0,023
-328,416	277,861	0,059	0,077
-327,402	-55,727	-0,043	-0,014
-326,387	800,000	-0,026	0,061
-325,372	800,000	0,013	-0,031
-324,358	48,032	-0,048	-0,033
-323,343	-22,337	0,083	0,037
-322,329	-200,000	-0,010	0,063
-321,314	-121,265	-0,062	0,007
-320,299	76,215	0,087	0,067
-319,285	-110,321	0,094	0,014
-318,270	-200,000	0,027	-0,139
-317,256	-200,000	-0,046	0,157
-316,241	-200,000	-0,047	0,173
-315,226	258,599	-0,063	-0,080
-314,212	-47,351	-0,106	0,037
-313,197	90,177	0,183	0,150
-312,183	104,296	-0,035	0,030
-311,168	86,382	0,011	0,009
-310,153	800,000	-0,018	-0,047
-309,139	-200,000	-0,021	-0,146
-308,124	-42,556	0,054	0,020
-307,110	-153,454	-0,025	-0,001
-306,095	595,831	0,031	0,056
-305,080	-33,251	0,073	-0,029
-304,066	-200,000	0,015	0,096
-303,051	800,000	-0,025	-0,054
-302,037	573,744	-0,043	-0,077
-301,022	-70,882	0,032	0,009
-300,008	800,000	-0,072	0,170
-298,993	343,713	0,044	0,063
-297,978	-173,751	0,076	0,002
-296,964	-170,659	-0,055	-0,001
-295,949	-200,000	-0,001	-0,029
-294,935	-40,239	-0,041	-0,016
-293,920	575,236	-0,084	-0,151
-292,905	800,000	0,034	0,080
-291,891	182,046	0,064	0,069
-290,876	-104,826	-0,127	0,021
-289,862	-200,000	-0,001	0,021
-288,847	800,000	0,052	-0,131
-287,832	800,000	-0,033	-0,095
-286,818	198,154	0,046	-0,051
-285,803	800,000	0,073	-0,206
-284,789	-61,822	0,107	0,032
-283,774	-85,941	0,148	-0,033
-282,759	177,276	-0,064	0,068
-281,745	-200,000	-0,001	0,103
-280,730	288,327	-0,073	0,097
-279,716	-200,000	-0,032	-0,120
-278,701	800,000	0,027	0,066
-277,686	-33,290	0,109	-0,044
-276,672	-200,000	-0,020	-0,077
-275,657	-132,902	0,195	0,018
-274,643	735,746	-0,068	-0,133
-273,628	517,372	0,062	-0,107
-272,613	800,000	-0,049	0,131
-271,599	800,000	0,045	-0,093
-270,584	170,165	0,017	0,018
-269,570	714,094	-0,016	0,032
-268,555	-95,624	-0,078	0,015
-267,540	-200,000	-0,009	-0,085
-266,526	800,000	0,051	0,122
-265,511	26,730	0,103	-0,063
-264,497	-11,771	-0,004	-0,002
-263,482	-200,000	-0,012	-0,111
-262,467	381,231	0,046	0,069
-261,453	222,159	-0,075	0,089
-260,438	-105,190	0,057	-0,009
-259,424	112,355	0,109	-0,096
-258,409	360,770	0,092	-0,134
-257,395	800,000	-0,084	0,215
-256,380	73,639	-0,098	-0,075
-255,365	-200,000	0,003	0,071
-254,351	602,988	0,027	-0,049
-253,336	647,760	0,073	-0,137
-252,322	-130,419	0,110	0,011
-251,307	-103,351	-0,054	-0,009
-250,292	289,072	-0,036	0,048
-249,278	-200,000	-0,004	-0,046
-248,263	-65,946	0,123	0,036
-247,249	41,384	-0,016	-0,011
-246,234	800,000	0,053	-0,163
-245,219	-35,167	-0,109	0,043
-244,205	-106,078	0,089	-0,015
-243,190	-3,937	-0,043	-0,022
-242,176	-200,000	-0,020	0,138
-241,161	-200,000	-0,026	0,110
-240,146	9,408	0,115	0,063
-239,132	-83,092	0,056	-0,013
-238,117	-19,276	-0,158	-0,071
-237,103	-166,603	0,152	-0,005
-236,088	54,336	-0,050	0,035
-235,073	56,938	0,040	0,028
-234,059	-151,282	0,125	0,007
-233,044	-200,000	-0,004	0,050
-232,030	800,000	0,011	0,027
-231,015	461,224	-0,095	0,155
-230,000	21,035	-0,107	-0,063
-228,986	132,784	0,056	0,053
-227,971	258,720	0,055	-0,069
-226,957	85,655	-0,065	0,052
-225,942	564,405	-0,046	-0,081
-224,927	-38,942	0,081	0,031
-223,913	-200,000	-0,000	0,103
-222,898	737,954	0,023	-0,045
-221,884	57,497	-0,148	-0,106
-220,869	427,805	0,023	-0,037
-219,855	488,089	0,044	0,074
-218,840	-200,000	0,016	0,130
-217,825	59,859	0,047	-0,034
-216,811	47,073	0,029	-0,020
-215,796	-27,769	0,054	-0,023
-214,782	800,000	-0,064	0,150
-213,767	132,353	0,074	0,069
-212,752	139,336	0,068	0,065
-211,738	-92,286	0,150	-0,031
-210,723	33,665	-0,125	0,079
-209,709	137,029	-0,083	-0,079
-208,694	-105,798	0,077	-0,013
-207,679	761,493	-0,068	-0,135
-206,665	800,000	-0,008	0,026
-205,650	344,800	0,027	0,038
-204,636	-200,000	0,003	-0,052
-203,621	506,861	0,067	0,114
-202,606	-127,565	-0,129	-0,013
-201,592	800,000	-0,036	-0,093
-200,577	-43,247	0,067	-0,025
-199,563	800,000	-0,062	0,127
-198,548	-83,660	0,020	-0,005
-197,533	-103,345	0,071	0,012
-196,519	-200,000	-0,002	-0,079
-195,504	28,061	0,104	-0,064
-194,490	-200,000	-0,001	-0,006
-193,475	139,494	0,081	-0,078
-192,460	4,574	-0,061	-0,033
-191,446	-200,000	-0,014	0,155
-190,431	800,000	0,028	-0,078
-189,417	-200,000	0,063	0,000
-188,402	-39,837	-0,124	-0,047
-187,387	-4,837	-0,033	0,016
-186,373	183,138	-0,032	0,035
-185,358	748,480	0,041	-0,081
-184,344	12,155	0,015	-0,009
-183,329	800,000	-0,122	0,248
-182,315	221,605	0,076	0,089
-181,300	32,841	0,145	0,091
-180,285	-84,407	-0,067	-0,015
-179,271	211,499	-0,099	0,114
-178,256	-110,934	-0,094	-0,014
-177,242	-11,701	-0,067	-0,032
-176,227	-15,901	0,031	0,014
-175,212	800,000	0,013	0,035
-174,198	1,022	0,068	0,035
-173,183	-62,276	-0,166	0,050
-172,169	-200,000	-0,003	-0,114
-171,154	-200,000	0,035	0,131
-170,139	800,000	0,026	0,069
-169,125	800,000	0,020	0,058
-168,110	800,000	0,030	0,090
-167,096	267,561	0,020	0,026
-166,081	800,000	0,022	0,053
-165,066	800,000	0,006	-0,015
-164,052	184,309	-0,064	-0,069
-163,037	277,622	-0,081	0,105
-162,023	-200,000	-0,032	-0,106
-161,008	800,000	0,018	-0,038
-159,993	-23,678	0,091	0,039
-158,979	-21,723	-0,086	0,038
-157,964	-55,606	-0,096	0,031
-156,950	64,277	-0,027	-0,020
-155,935	-200,000	0,048	0,174
-154,920	342,865	-0,032	0,046
-153,906	-61,983	-0,166	0,050
-152,891	-142,705	-0,053	0,004
-151,877	582,606	0,028	-0,051
-150,862	383,061	-0,026	-0,040
-149,847	80,599	0,072	0,056
-148,833	-200,000	-0,010	-0,041
-147,818	-3,183	0,030	0,015
-146,804	160,233	0,081	0,082
-145,789	-154,437	0,079	0,004
-144,775	800,000	-0,055	-0,165
-143,760	259,299	-0,044	-0,055
-142,745	800,000	0,035	-0,083
-141,731	-144,524	0,046	-0,003
-140,716	746,537	0,041	-0,081
-139,702	-142,826	0,087	0,006
-138,687	-64,348	0,024	-0,007
-137,672	136,537	0,056	-0,053
-136,658	60,771	-0,092	0,066
-135,643	-200,000	0,074	0,270
-134,629	48,976	0,085	-0,058
-133,614	-35,057	-0,096	-0,038
-132,599	800,000	-0,020	-0,055
-131,585	393,756	0,063	0,096
-130,570	-79,297	0,034	-0,008
-129,556	155,273	0,092	0,092
-128,541	-128,882	-0,046	-0,005
-127,526	116,495	-0,105	0,093
-126,512	39,104	0,076	-0,050
-125,497	-168,556	0,040	-0,001
-124,483	-200,000	-0,014	0,121
-123,468	-139,517	0,037	0,003
-122,453	54,174	-0,106	-0,074
-121,439	-124,975	0,148	0,016
-120,424	462,422	-0,034	-0,056
-119,410	194,566	0,045	0,049
-118,395	111,957	-0,085	0,074
-117,380	-200,000	0,008	0,070
-116,366	-13,507	-0,096	-0,045
-115,351	800,000	-0,064	0,132
-114,337	-200,000	0,020	-0,073
-113,322	52,522	-0,055	0,038
-112,307	-157,726	0,133	0,006
-111,293	570,369	-0,024	0,042
-110,278	-200,000	-0,010	-0,036
-109,264	54,425	0,050	-0,035
-108,249	-200,000	0,005	0,019
-107,234	151,719	-0,035	0,034
-106,220	800,000	-0,000	0,001
-105,205	-127,874	0,072	-0,007
-104,191	97,560	-0,089	0,074
-103,176	-20,583	0,104	0,046
-102,162	-92,017	0,072	-0,015
-101,147	800,000	-0,033	-0,081
-100,132	-200,000	-0,007	0,057
-99,118	800,000	0,046	-0,103
-98,103	6,040	-0,051	0,027
-97,089	389,994	0,010	-0,016
-96,074	-200,000	0,015	0,069
-95,059	-194,446	-0,116	0,001
-94,045	-200,000	-0,016	0,145
-93,030	-63,347	-0,064	-0,019
-92,016	-73,297	-0,128	0,034
-91,001	800,000	-0,022	0,046
-89,986	-6,051	0,052	0,026
-88,972	-40,372	0,073	0,027
-87,957	-200,000	-0,012	0,135
-86,943	36,380	-0,086	0,055
-85,928	70,352	-0,059	0,044
-84,913	3,296	-0,089	0,047
-83,899	608,562	0,056	-0,102
-82,884	11,929	0,089	0,050
-81,870	320,048	0,049	-0,067
-80,855	-36,074	-0,051	-0,020
-79,840	-58,017	0,095	0,030
-78,826	-42,779	-0,057	0,021
-77,811	-200,000	-0,002	-0,106
-76,797	-200,000	-0,021	0,151
-75,782	800,000	-0,051	0,104
-74,767	94,464	0,071	-0,059
-73,753	284,129	-0,049	-0,064
-72,738	258,935	-0,043	-0,054
-71,724	69,137	-0,063	0,047
-70,709	107,349	-0,067	-0,058
-69,694	699,548	0,031	-0,060
-68,680	-121,757	-0,050	-0,006
-67,665	-140,770	0,178	-0,013
-66,651	8,214	-0,060	-0,032
-65,636	148,677	0,057	-0,055
-64,622	62,223	-0,109	-0,079
-63,607	800,000	0,048	0,112
-62,592	4,545	-0,080	0,042
-61,578	-200,000	0,004	-0,115
-60,563	-9,932	0,131	-0,063
-59,549	249,033	0,020	-0,025
-58,534	-57,115	-1,354	-0,430
-57,519	644,572	-0,715	-1,329
-56,505	-200,000	-1,131	-4,513
-55,490	22,820	0,469	-0,278
-54,476	800,000	5,124	12,065
-53,461	-200,000	14,927	264,891
-52,446	-200,000	698,349	2259,256
-51,432	583,862	1622,755	2900,874
-50,417	121,201	1630,419	1471,536
-49,403	79,775	1284,526	999,234
-48,388	37,978	1023,267	658,223
-47,373	23,004	982,991	583,023
-46,359	22,079	972,110	573,510
-45,344	20,859	967,855	566,985
-44,330	20,863	966,534	566,201
-43,315	20,613	965,165	564,560
-42,300	20,697	964,004	564,132
-41,286	20,655	962,853	563,300
-40,271	20,647	962,004	562,755
-39,257	20,623	961,107	562,131
-38,242	20,644	960,356	561,735
-37,227	20,623	959,489	561,140
-36,213	20,579	958,404	560,340
-35,198	20,613	957,561	559,933
-34,184	20,653	956,840	559,621
-33,169	20,524	956,127	558,765
-32,154	20,599	954,900	558,266
-31,140	20,670	954,089	558,001
-30,125	20,614	953,554	557,485
-29,111	20,671	952,412	556,976
-28,096	20,641	951,879	556,548
-27,082	20,571	951,417	556,031
-26,067	20,584	950,515	555,523
-25,052	20,633	949,574	555,108
-24,038	20,610	949,127	554,751
-23,023	20,571	948,402	554,181
-22,009	20,742	947,531	554,196
-20,994	20,615	947,071	553,499
-19,979	20,582	946,578	553,082
-18,965	20,566	945,975	552,658
-17,950	20,597	945,293	552,337
-16,936	20,511	944,733	551,713
-15,921	20,567	943,970	551,422
-14,906	20,507	943,200	550,762
-13,892	20,482	942,805	550,430
-12,877	20,526	942,188	550,188
-11,863	20,460	941,487	549,545
-10,848	20,525	940,842	549,354
-9,833	20,541	940,627	549,257
-8,819	20,582	939,921	548,953
-7,804	20,565	938,984	548,332
-6,790	20,510	938,568	547,893
-5,775	20,505	938,052	547,552
-4,760	20,535	937,355	547,219
-3,746	20,446	936,890	546,646
-2,731	20,313	936,171	545,782
-1,717	20,382	935,285	545,462
-0,702	20,440	934,570	545,207
0,313	20,183	934,038	544,909
1,327	23,145	932,349	553,205
2,342	32,424	794,139	495,890
3,356	29,584	450,673	277,112
4,371	-1,037	294,933	150,623
5,386	-5,016	276,149	137,231
6,400	-6,716	270,372	132,761
7,415	-7,301	268,292	131,186
8,429	-6,819	266,992	130,984
9,444	-6,782	266,109	130,572
10,459	-6,600	265,403	130,381
11,473	-6,707	264,941	130,045
12,488	-6,720	264,416	129,763
13,502	-6,735	263,806	129,439
14,517	-6,760	263,470	129,239
15,531	-6,436	263,130	129,355
16,546	-6,255	262,641	129,267
17,561	-6,443	262,430	128,982
18,575	-6,343	262,182	128,939
19,590	-6,311	261,721	128,730
20,604	-6,325	261,541	128,617
21,619	-6,358	261,076	128,347
22,634	-6,280	260,787	128,264
23,648	-6,454	260,518	127,964
24,663	-6,544	260,353	127,790
25,677	-6,238	259,901	127,831
26,692	-6,464	259,750	127,543
27,707	-6,425	259,625	127,506
28,721	-6,524	259,239	127,216
29,736	-6,604	259,041	127,036
30,750	-6,549	258,730	126,922
31,765	-6,460	258,480	126,867
32,780	-6,341	258,081	126,765
33,794	-6,548	258,055	126,557
34,809	-6,489	257,869	126,507
35,823	-6,449	257,482	126,342
36,838	-6,560	257,423	126,203
37,853	-6,566	257,064	126,010
38,867	-6,485	256,818	125,951
39,882	-6,580	256,717	125,806
40,896	-6,549	256,481	125,706
41,911	-6,605	256,314	125,564
42,926	-6,501	255,979	125,480
43,940	-6,532	255,643	125,277
44,955	-6,498	255,372	125,162
45,969	-6,617	255,386	125,053
46,984	-6,862	255,044	124,660
47,999	-6,799	254,646	124,510
49,013	-7,159	254,541	124,133
50,028	-7,204	254,317	123,972
51,042	-7,147	253,920	123,818
52,057	-7,466	253,899	123,517
53,071	-7,166	253,616	123,631
54,086	-6,962	253,379	123,682
55,101	-7,033	253,251	123,547
56,115	-6,855	253,157	123,645
57,130	-6,505	252,969	123,846
58,144	-6,280	252,751	123,924
59,159	-6,527	252,680	123,664
60,174	-6,380	252,352	123,619
61,188	-6,544	252,133	123,359
62,203	-6,609	252,020	123,236
63,217	-6,436	251,808	123,271
64,232	-6,386	251,441	123,124
65,247	-6,480	251,416	123,020
66,261	-6,550	251,103	122,796
67,276	-6,537	250,901	122,697
68,290	-6,853	250,627	122,280
69,305	-6,928	250,373	122,080
70,320	-6,677	250,091	122,148
71,334	-6,378	250,074	122,385
72,349	-6,361	249,864	122,286
73,363	-6,348	249,706	122,209
74,378	-6,238	249,494	122,188
75,393	-6,482	249,235	121,841
76,407	-6,291	249,041	121,899
77,422	-6,561	248,904	121,591
78,436	-6,459	248,764	121,599
79,451	-6,338	248,473	121,549
80,466	-6,509	248,302	121,309
81,480	-6,522	247,978	121,128
82,495	-6,753	247,815	120,842
83,509	-6,730	247,685	120,787
84,524	-6,786	247,501	120,639
85,539	-6,807	247,247	120,487
86,553	-6,903	247,011	120,279
87,568	-6,504	246,749	120,479
88,582	-6,588	246,615	120,331
89,597	-6,750	246,469	120,113
90,611	-6,574	246,279	120,159
91,626	-6,557	246,178	120,112
92,641	-6,602	246,112	120,032
93,655	-6,663	245,919	119,875
94,670	-6,657	245,671	119,749
95,684	-6,566	245,380	119,672
96,699	-6,534	245,158	119,581
97,714	-6,648	244,888	119,343
98,728	-6,792	244,793	119,165
99,743	-6,749	244,590	119,091
100,757	-6,900	244,408	118,866
101,772	-7,007	244,243	118,686
102,787	-6,939	244,082	118,654
103,801	-6,814	243,976	118,696
104,816	-6,749	243,781	118,645
105,830	-6,454	243,693	118,837
106,845	-6,721	243,584	118,551
107,860	-6,562	243,291	118,530
108,874	-6,536	242,916	118,359
109,889	-6,617	242,639	118,146
110,903	-6,702	242,507	118,001
111,918	-6,997	242,539	117,760
112,933	-6,696	242,269	117,868
113,947	-6,540	242,138	117,923
114,962	-6,638	242,037	117,783
115,976	-6,615	241,851	117,701
116,991	-6,744	241,556	117,440
118,006	-6,648	241,545	117,504
119,020	-6,609	241,382	117,446
120,035	-6,607	241,224	117,360
121,049	-6,561	241,022	117,289
122,064	-6,595	240,998	117,239
123,079	-6,690	240,514	116,915
124,093	-6,649	240,407	116,887
125,108	-6,720	240,182	116,708
126,122	-6,923	239,994	116,441
127,137	-7,058	239,880	116,264
128,151	-6,783	239,605	116,345
129,166	-6,676	239,493	116,368
130,181	-6,812	239,267	116,137
131,195	-6,799	239,065	116,039
132,210	-6,980	239,082	115,889
133,224	-6,785	238,889	115,945
134,239	-6,795	238,701	115,835
135,254	-6,756	238,562	115,788
136,268	-6,730	238,228	115,637
137,283	-6,931	238,042	115,373
138,297	-6,922	237,792	115,249
139,312	-6,945	237,734	115,192
140,327	-6,771	237,580	115,248
141,341	-6,511	237,598	115,457
142,356	-6,233	237,315	115,535
143,370	-6,401	237,180	115,323
144,385	-6,423	237,023	115,218
145,400	-6,345	236,942	115,232
146,414	-6,017	236,707	115,372
147,429	-6,295	236,617	115,094
148,443	-6,456	236,424	114,859
149,458	-6,579	236,198	114,641
150,473	-6,504	235,955	114,573
151,487	-6,588	235,852	114,445
152,502	-6,640	235,685	114,312
153,516	-6,438	235,576	114,411
154,531	-6,453	235,436	114,321
155,546	-6,363	235,173	114,255
156,560	-6,443	234,863	114,031
157,575	-6,673	234,884	113,846
158,589	-6,601	234,560	113,737
159,604	-6,471	234,580	113,840
160,619	-6,351	234,357	113,817
161,633	-6,275	234,331	113,855
162,648	-6,119	234,059	113,838
163,662	-6,347	233,856	113,546
164,677	-6,411	233,613	113,368
165,692	-6,235	233,381	113,385
166,706	-6,260	233,339	113,335
167,721	-6,131	233,226	113,372
168,735	-6,208	233,042	113,211
169,750	-6,277	232,866	113,061
170,764	-6,290	232,911	113,062
171,779	-6,362	232,635	112,862
172,794	-6,350	232,562	112,826
173,808	-6,723	232,432	112,458
174,823	-6,844	231,984	112,135
175,837	-6,684	231,791	112,158
176,852	-6,541	231,632	112,184
177,867	-6,574	231,793	112,226
178,881	-6,247	231,481	112,322
179,896	-6,343	231,496	112,244
180,910	-6,325	231,172	112,091
181,925	-6,184	231,053	112,134
182,940	-6,346	230,793	111,871
183,954	-6,159	230,701	111,963
184,969	-6,152	230,556	111,888
185,983	-6,120	230,501	111,876
186,998	-6,173	230,287	111,721
188,013	-6,318	230,308	111,608
189,027	-6,083	230,025	111,644
190,042	-6,313	229,881	111,385
191,056	-6,247	229,657	111,318
192,071	-6,290	229,443	111,170
193,086	-6,413	229,301	110,996
194,100	-6,655	229,037	110,670
195,115	-7,141	228,586	110,065
196,129	-8,021	228,520	109,341
197,144	-4,066	229,543	112,902
198,159	0,737	230,969	117,349
199,173	4,187	231,836	120,480
200,188	4,290	231,994	120,632
201,202	4,600	231,668	120,693
202,217	4,592	231,662	120,673
203,232	4,845	231,624	120,840
204,246	4,946	231,359	120,770
205,261	4,871	231,181	120,608
206,275	5,152	231,104	120,776
207,290	5,452	230,886	120,885
208,304	5,227	230,765	120,636
209,319	5,068	230,751	120,494
210,334	4,961	230,403	120,218
211,348	4,521	230,188	119,754
212,363	4,269	229,864	119,381
213,377	4,269	229,586	119,225
214,392	4,052	229,536	119,021
215,407	4,381	229,397	119,193
216,421	4,276	229,276	119,037
217,436	4,263	229,083	118,917
218,450	4,233	228,788	118,730
219,465	4,014	228,724	118,518
220,480	3,868	228,610	118,336
221,494	3,889	228,441	118,253
222,509	4,196	228,436	118,477
223,523	4,020	228,183	118,200
224,538	4,064	228,043	118,151
225,553	4,196	227,993	118,215
226,567	4,227	227,868	118,164
227,582	4,388	227,798	118,240
228,596	4,545	227,564	118,228
229,611	4,393	227,226	117,926
230,626	3,900	227,214	117,532
231,640	4,265	226,970	117,675
232,655	4,367	226,863	117,686
233,669	4,812	226,864	118,015
234,684	4,898	226,746	118,009
235,699	4,681	226,509	117,711
236,713	4,429	226,351	117,426
237,728	4,267	226,145	117,186
238,742	4,139	225,870	116,935
239,757	4,186	225,814	116,932
240,772	4,194	225,678	116,857
241,786	4,194	225,539	116,774
242,801	4,311	225,531	116,849
243,815	4,506	225,355	116,895
244,830	4,571	225,356	116,934
245,844	4,429	224,833	116,545
246,859	4,256	224,767	116,370
247,874	4,471	224,810	116,544
248,888	4,543	224,607	116,482
249,903	4,256	224,414	116,156
250,917	4,132	224,248	115,966
251,932	3,928	224,085	115,717
252,947	3,958	224,019	115,696
253,961	3,938	223,811	115,564
254,976	4,161	223,676	115,651
255,990	4,501	223,551	115,831
257,005	4,458	223,447	115,734
258,020	4,323	223,303	115,549
259,034	4,544	223,222	115,661
260,049	4,484	222,992	115,487
261,063	4,321	222,965	115,341
262,078	4,524	222,760	115,376
263,093	4,632	222,604	115,366
264,107	4,666	222,427	115,290
265,122	4,625	222,248	115,155
266,136	4,856	222,168	115,276
267,151	4,770	222,050	115,140
268,166	4,388	221,733	114,682
269,180	3,929	221,597	114,261
270,195	4,171	221,572	114,417
271,209	4,060	221,222	114,144
272,224	4,223	221,237	114,262
273,239	4,383	221,086	114,292
274,253	4,262	220,789	114,039
275,268	4,053	220,632	113,793
276,282	4,122	220,476	113,754
277,297	3,696	220,480	113,431
278,312	3,860	220,322	113,461
279,326	4,222	220,104	113,605
280,341	4,184	220,022	113,525
281,355	4,117	220,034	113,471
282,370	4,107	219,858	113,363
283,384	3,960	219,693	113,160
284,399	3,966	219,415	113,011
285,414	3,678	219,324	112,743
286,428	3,945	219,279	112,906
287,443	4,141	219,201	112,999
288,457	4,303	219,015	113,012
289,472	4,250	218,705	112,803
290,487	3,706	218,583	112,332
291,501	3,634	218,397	112,174
292,516	3,783	218,314	112,231
293,530	3,896	218,253	112,272
294,545	3,880	218,024	112,132
295,560	3,972	217,921	112,136
296,574	3,990	217,793	112,073
297,589	4,227	217,681	112,178
298,603	4,251	217,587	112,137
299,618	4,251	217,492	112,078
300,633	4,226	217,337	111,970
301,647	4,379	217,265	112,034
302,662	4,511	217,163	112,067
303,676	4,187	216,955	111,715
304,691	4,210	216,855	111,670
305,706	4,301	216,716	111,654
306,720	4,517	216,538	111,709
307,735	4,244	216,347	111,404
308,749	4,176	216,262	111,300
309,764	4,238	216,030	111,216
310,779	4,371	216,008	111,291
311,793	4,262	215,847	111,120
312,808	4,309	215,673	111,054
313,822	4,418	215,512	111,039
314,837	4,201	215,288	110,758
315,852	4,021	215,120	110,532
316,866	4,007	215,071	110,487
317,881	4,417	215,041	110,756
318,895	4,294	214,754	110,510
319,910	4,196	214,649	110,376
320,925	3,927	214,393	110,043
321,939	3,511	214,329	109,702
322,954	3,895	214,317	109,961
323,968	4,179	214,226	110,107
324,983	4,151	213,992	109,957
325,997	4,556	213,821	110,149
327,012	4,069	213,803	109,782
328,027	4,131	213,676	109,751
329,041	4,304	213,563	109,807
330,056	4,470	213,528	109,897
331,070	4,201	213,169	109,512
332,085	3,983	213,008	109,264
333,100	4,144	212,744	109,233
334,114	4,241	212,647	109,242
335,129	4,341	212,697	109,329
336,143	4,150	212,359	109,011
337,158	4,016	212,318	108,885
338,173	4,183	212,215	108,940
339,187	4,027	212,070	108,746
340,202	3,877	211,894	108,540
341,216	3,863	211,708	108,425
342,231	3,715	211,704	108,309
343,246	4,094	211,412	108,417
344,260	4,102	211,466	108,441
345,275	4,190	211,270	108,393
346,289	4,339	211,122	108,411
347,304	4,279	210,948	108,271
348,319	4,244	210,792	108,157
349,333	4,167	210,696	108,043
350,348	4,282	210,716	108,125
351,362	4,199	210,600	107,997
352,377	4,279	210,418	107,950
353,392	4,076	210,181	107,677
354,406	4,348	210,104	107,818
355,421	193,052	1345,380	1429,852
356,435	154,045	1483,774	1429,926
