DTS Sentinel unit serial number:	SN410029Multiplexer serial number:	ORYXHardware model number:	OX2-SRSoftware version number:	ORYX F/W v4,00 Oryx Data Collector v3.7.2.0data status	okinstallation	B6 Nyhavnadifferential loss correction	single-endedforward channel	channel 2reverse channel	N/Adate	2023/12/11time	06:25:08forward acquisition time	300,00reverse acquisition time	0,00gamma	499,1914k internal	0,3126k external	0,3126temperature offset calibration	1,0000default loss term (dB/km)	0,3820temperature slope calibration	1,0000multiplexer offset coefficient	1,0000multiplexer slope coefficient	1,0000fibre end	0,00T internal ref (°C)	19,57T ext. ref 1 (°C)	2,67T ext. ref 2 (°C)	2,67length (m)	temperature (°C)	Stokes	anti-Stokes-744,400	-200,000	-0,023	-0,084
-743,385	-108,116	-0,274	0,044
-742,371	410,933	0,046	-0,074
-741,356	140,808	-0,156	0,154
-740,342	-97,655	0,154	-0,029
-739,327	-21,689	-0,386	0,174
-738,312	-200,000	-0,003	0,098
-737,298	-38,706	-0,293	0,115
-736,283	-96,421	0,103	0,020
-735,269	-53,732	-0,181	0,061
-734,254	51,523	-0,015	0,010
-733,239	-135,896	-0,498	-0,043
-732,225	-15,037	0,125	0,059
-731,210	-200,000	-0,015	0,133
-730,196	-43,608	0,102	-0,038
-729,181	-130,941	0,070	-0,007
-728,167	-27,708	0,064	0,027
-727,152	800,000	0,044	0,125
-726,137	42,369	-0,153	0,103
-725,123	-41,667	-0,041	0,015
-724,108	-53,066	0,096	-0,033
-723,094	-5,134	-0,141	-0,072
-722,079	121,801	-0,037	0,034
-721,064	-200,000	-0,018	-0,112
-720,050	247,415	-0,031	-0,039
-719,035	386,829	-0,071	-0,110
-718,021	483,834	0,058	-0,098
-717,006	-76,241	-0,075	0,019
-715,991	-200,000	0,028	-0,111
-714,977	800,000	0,066	-0,158
-713,962	800,000	0,044	-0,113
-712,948	-200,000	0,012	-0,121
-711,933	363,934	0,045	-0,067
-710,918	-103,081	0,093	-0,016
-709,904	591,443	-0,044	0,082
-708,889	90,470	-0,067	-0,056
-707,875	-34,351	-0,170	-0,069
-706,860	65,787	-0,018	-0,013
-705,845	79,728	-0,020	-0,016
-704,831	-200,000	-0,025	0,194
-703,816	-200,000	-0,036	-0,123
-702,802	-200,000	0,015	-0,064
-701,787	-98,874	-0,150	-0,028
-700,772	-116,887	-0,040	-0,005
-699,758	-11,142	0,054	-0,027
-698,743	-20,337	0,053	0,024
-697,729	-200,000	-0,028	0,184
-696,714	141,478	0,051	0,050
-695,699	274,364	-0,018	-0,024
-694,685	-110,466	-0,164	-0,025
-693,670	81,109	-0,077	0,062
-692,656	-200,000	0,016	0,089
-691,641	-200,000	-0,005	-0,198
-690,627	-200,000	0,007	0,027
-689,612	314,496	0,060	-0,084
-688,597	-80,006	0,034	0,008
-687,583	722,218	-0,034	-0,067
-686,568	800,000	-0,045	0,099
-685,554	-3,612	0,016	0,008
-684,539	-126,130	0,030	-0,003
-683,524	-49,058	-0,025	0,009
-682,510	-200,000	0,004	0,025
-681,495	-40,518	0,100	-0,038
-680,481	112,652	0,033	0,030
-679,466	76,449	0,016	-0,012
-678,451	131,941	-0,133	-0,128
-677,437	404,362	0,068	-0,107
-676,422	793,976	-0,064	-0,131
-675,408	-29,932	0,026	0,011
-674,393	425,168	-0,065	-0,105
-673,378	-101,711	-0,157	-0,028
-672,364	-78,923	-0,152	-0,038
-671,349	65,386	0,088	-0,066
-670,335	232,224	0,042	-0,051
-669,320	43,972	-0,115	-0,078
-668,305	-200,000	0,014	-0,148
-667,291	766,840	-0,032	0,065
-666,276	-14,889	0,095	-0,045
-665,262	-200,000	-0,001	-0,082
-664,247	-90,833	0,074	0,016
-663,232	-87,109	-0,032	0,007
-662,218	580,976	0,035	0,064
-661,203	-200,000	-0,012	-0,061
-660,189	-200,000	-0,009	0,102
-659,174	-11,598	-0,152	0,074
-658,159	737,724	-0,047	-0,094
-657,145	-200,000	0,001	-0,087
-656,130	800,000	-0,029	-0,067
-655,116	800,000	0,052	-0,139
-654,101	-200,000	-0,002	0,073
-653,086	-1,800	-0,075	-0,039
-652,072	462,365	-0,037	-0,062
-651,057	-200,000	-0,002	-0,066
-650,043	-200,000	0,011	-0,052
-649,028	-126,494	0,102	-0,011
-648,014	135,832	-0,025	-0,024
-646,999	185,614	-0,010	0,011
-645,984	195,120	-0,063	-0,072
-644,970	800,000	-0,020	-0,055
-643,955	-82,599	0,057	0,014
-642,941	118,621	-0,088	-0,080
-641,926	-200,000	-0,015	-0,057
-640,911	-200,000	0,006	0,024
-639,897	-200,000	-0,015	0,114
-638,882	-87,103	-0,080	-0,018
-637,868	-200,000	0,028	0,125
-636,853	-13,351	0,044	-0,021
-635,838	-200,000	-0,029	-0,121
-634,824	459,531	-0,120	0,198
-633,809	-59,151	0,135	0,043
-632,795	91,169	-0,122	0,102
-631,780	-200,000	0,011	0,101
-630,765	-200,000	0,007	-0,051
-629,751	242,955	-0,059	0,073
-628,736	156,619	-0,070	-0,071
-627,722	-66,596	-0,062	0,018
-626,707	-200,000	-0,002	0,070
-625,692	442,157	0,033	0,054
-624,678	-0,853	-0,027	-0,014
-623,663	-161,552	-0,112	0,004
-622,649	-200,000	0,008	-0,039
-621,634	-9,148	-0,052	0,026
-620,619	-164,741	0,052	-0,002
-619,605	800,000	0,060	0,150
-618,590	377,594	0,011	-0,017
-617,576	107,979	0,057	-0,050
-616,561	67,193	-0,048	0,036
-615,546	-200,000	-0,015	-0,068
-614,532	-200,000	-0,002	-0,132
-613,517	-162,338	0,262	0,009
-612,503	484,533	-0,018	-0,030
-611,488	800,000	0,006	0,015
-610,474	103,054	0,087	0,076
-609,459	449,786	-0,067	0,109
-608,444	497,610	-0,081	-0,138
-607,430	800,000	-0,042	0,093
-606,415	12,178	0,085	0,048
-605,401	76,350	-0,075	-0,059
-604,386	-87,352	-0,043	0,010
-603,371	-65,529	0,217	0,064
-602,357	-136,716	-0,025	0,002
-601,342	800,000	0,025	-0,068
-600,328	-64,051	-0,202	-0,061
-599,313	-200,000	-0,011	-0,152
-598,298	-200,000	0,021	-0,120
-597,284	786,783	-0,031	-0,064
-596,269	-50,569	0,086	0,030
-595,255	505,715	-0,034	0,059
-594,240	-200,000	-0,008	0,125
-593,225	-200,000	-0,002	-0,023
-592,211	182,746	0,072	-0,079
-591,196	800,000	0,024	0,061
-590,182	-200,000	0,005	-0,017
-589,167	800,000	-0,012	0,031
-588,152	47,527	-0,073	-0,050
-587,138	-29,920	0,135	-0,057
-586,123	-200,000	-0,005	-0,064
-585,109	-200,000	-0,025	-0,096
-584,094	43,194	-0,192	-0,130
-583,079	-87,166	0,111	-0,025
-582,065	255,612	-0,109	-0,139
-581,050	-177,017	0,091	-0,002
-580,036	-200,000	0,008	0,080
-579,021	101,648	-0,092	-0,079
-578,006	48,876	-0,088	-0,061
-576,992	-200,000	0,017	0,061
-575,977	153,512	-0,045	-0,046
-574,963	-7,043	-0,057	-0,029
-573,948	456,298	0,049	0,080
-572,934	181,157	0,055	-0,060
-571,919	-200,000	-0,028	-0,105
-570,904	-143,780	0,029	0,002
-569,890	800,000	-0,028	0,063
-568,875	800,000	-0,023	0,073
-567,861	-133,307	-0,074	-0,007
-566,846	800,000	0,061	0,148
-565,831	-200,000	-0,009	-0,065
-564,817	800,000	0,027	-0,057
-563,802	470,523	-0,026	0,043
-562,788	-39,605	-0,059	-0,023
-561,773	-50,434	0,003	-0,001
-560,758	-27,315	0,039	-0,017
-559,744	-46,006	0,086	0,031
-558,729	-200,000	0,004	-0,093
-557,715	-93,014	-0,024	-0,005
-556,700	100,765	-0,079	-0,068
-555,685	312,032	-0,070	-0,097
-554,671	-16,449	0,038	0,018
-553,656	-200,000	-0,001	0,091
-552,642	-133,961	0,193	-0,017
-551,627	-169,460	-0,113	-0,003
-550,612	-9,111	-0,130	-0,064
-549,598	-119,253	-0,074	-0,009
-548,583	-53,663	-0,044	0,015
-547,569	-200,000	-0,051	-0,174
-546,554	58,540	-0,062	0,045
-545,539	-4,885	0,139	-0,070
-544,525	289,597	0,054	0,073
-543,510	-200,000	0,005	-0,018
-542,496	75,440	-0,122	0,095
-541,481	211,108	0,055	0,064
-540,466	249,306	0,070	-0,087
-539,452	435,027	0,062	0,100
-538,437	800,000	0,036	-0,087
-537,423	88,542	-0,100	0,082
-536,408	-200,000	0,008	-0,127
-535,393	267,358	-0,036	-0,047
-534,379	132,537	-0,096	-0,091
-533,364	-108,605	0,183	-0,029
-532,350	295,001	-0,024	-0,033
-531,335	-127,129	0,125	0,013
-530,321	427,790	0,068	-0,108
-529,306	-200,000	-0,004	0,018
-528,291	-151,030	-0,113	-0,006
-527,277	89,718	0,026	0,022
-526,262	-43,716	-0,092	0,034
-525,248	387,209	0,053	-0,081
-524,233	800,000	-0,008	-0,018
-523,218	24,801	0,090	-0,055
-522,204	-200,000	0,008	-0,061
-521,189	-130,740	-0,150	0,015
-520,175	52,947	0,047	0,033
-519,160	69,386	-0,041	0,031
-518,145	-117,715	-0,033	-0,004
-517,131	-103,955	0,090	-0,015
-516,116	-200,000	-0,014	0,091
-515,102	541,020	-0,063	-0,112
-514,087	120,896	0,051	-0,047
-513,072	65,391	-0,142	-0,106
-512,058	476,008	0,046	-0,078
-511,043	800,000	0,021	0,049
-510,029	-20,188	0,121	0,055
-509,014	258,951	-0,104	0,133
-507,999	324,561	-0,053	-0,075
-506,985	-96,589	0,149	0,029
-505,970	753,961	0,058	0,115
-504,956	800,000	-0,081	-0,215
-503,941	-200,000	-0,019	-0,120
-502,926	252,702	-0,154	0,194
-501,912	-32,387	0,036	-0,015
-500,897	-100,838	0,086	0,015
-499,883	109,830	-0,090	-0,079
-498,868	514,400	-0,019	-0,032
-497,853	104,069	0,037	0,032
-496,839	155,093	0,133	-0,135
-495,824	800,000	0,049	0,104
-494,810	461,656	-0,053	0,088
-493,795	58,814	-0,138	-0,100
-492,781	800,000	0,011	-0,029
-491,766	800,000	0,041	-0,099
-490,751	-200,000	-0,014	0,099
-489,737	-34,514	0,074	0,030
-488,722	222,661	0,058	0,069
-487,708	510,682	-0,088	0,152
-486,693	-102,588	0,139	0,024
-485,678	-159,622	0,037	0,001
-484,664	229,997	0,062	0,074
-483,649	-200,000	-0,001	-0,018
-482,635	-200,000	-0,006	0,061
-481,620	-200,000	-0,015	0,079
-480,605	43,589	0,043	0,029
-479,591	439,091	0,047	-0,076
-478,576	-200,000	0,016	-0,098
-477,562	-57,781	-0,028	-0,009
-476,547	67,902	-0,104	-0,078
-475,532	30,292	0,080	-0,050
-474,518	-182,815	0,081	-0,001
-473,503	-21,053	0,091	0,041
-472,489	753,118	0,016	0,032
-471,474	800,000	-0,048	-0,151
-470,459	-200,000	0,014	-0,056
-469,445	135,274	0,006	-0,006
-468,430	70,030	0,021	-0,016
-467,416	-99,055	-0,115	-0,021
-466,401	-97,514	0,213	-0,040
-465,386	-200,000	0,015	0,091
-464,372	-72,657	-0,054	0,014
-463,357	-200,000	0,015	-0,065
-462,343	226,963	0,126	-0,151
-461,328	148,691	-0,022	-0,022
-460,313	45,001	0,065	-0,044
-459,299	-200,000	-0,006	0,086
-458,284	-97,469	0,163	0,031
-457,270	125,271	-0,031	0,029
-456,255	9,094	-0,059	0,033
-455,241	-26,721	-0,163	-0,070
-454,226	800,000	-0,049	-0,103
-453,211	-200,000	0,010	-0,069
-452,197	509,535	-0,023	-0,039
-451,182	-12,465	-0,120	-0,057
-450,168	-35,458	0,030	0,012
-449,153	-127,841	-0,101	-0,011
-448,138	-200,000	0,009	-0,076
-447,124	-163,595	-0,144	0,005
-446,109	576,193	0,032	0,057
-445,095	-37,302	0,061	0,024
-444,080	-121,835	0,087	-0,010
-443,065	-200,000	-0,045	0,147
-442,051	-107,947	-0,050	0,008
-441,036	80,581	0,027	-0,022
-440,022	298,157	-0,023	0,031
-439,007	-200,000	-0,016	0,078
-437,992	-128,080	-0,021	0,002
-436,978	530,261	0,036	0,064
-435,963	-200,000	-0,005	0,019
-434,949	45,559	0,069	0,047
-433,934	-200,000	0,015	0,077
-432,919	-15,696	-0,011	-0,005
-431,905	76,144	0,140	0,109
-430,890	-100,206	-0,129	-0,023
-429,876	412,533	0,032	0,050
-428,861	455,715	0,011	0,019
-427,846	800,000	-0,044	-0,095
-426,832	800,000	0,008	-0,026
-425,817	-77,593	-0,065	-0,016
-424,803	-200,000	0,004	-0,053
-423,788	-200,000	0,004	-0,046
-422,773	434,020	0,026	0,042
-421,759	104,300	0,060	0,052
-420,744	-59,077	-0,124	0,039
-419,730	-161,753	-0,049	-0,002
-418,715	389,216	-0,043	-0,065
-417,701	-31,177	-0,091	-0,038
-416,686	211,532	0,030	0,035
-415,671	-92,547	0,123	0,025
-414,657	255,845	-0,042	0,053
-413,642	-200,000	-0,005	0,084
-412,628	-78,402	-0,132	0,033
-411,613	-23,659	-0,123	0,054
-410,598	186,566	0,110	0,121
-409,584	-200,000	0,014	-0,056
-408,569	-94,369	0,166	0,033
-407,555	-200,000	0,005	0,157
-406,540	-200,000	0,021	-0,078
-405,525	-116,145	-0,069	-0,009
-404,511	-53,351	-0,163	-0,054
-403,496	329,033	0,015	0,022
-402,482	351,266	-0,060	-0,087
-401,467	-200,000	0,005	-0,023
-400,452	110,113	0,048	-0,042
-399,438	-96,514	0,107	-0,020
-398,423	-200,000	-0,035	-0,126
-397,409	316,559	0,083	-0,115
-396,394	64,591	0,062	-0,046
-395,379	800,000	0,015	0,045
-394,365	5,673	0,042	0,023
-393,350	-27,056	-0,013	-0,005
-392,336	110,558	0,034	0,030
-391,321	9,714	-0,141	-0,078
-390,306	-133,827	0,052	-0,005
-389,292	486,416	0,017	-0,028
-388,277	-200,000	0,028	-0,129
-387,263	-106,192	-0,033	-0,005
-386,248	-61,378	0,143	0,044
-385,233	-165,733	0,065	-0,002
-384,219	-46,380	-0,049	0,018
-383,204	-200,000	0,013	-0,077
-382,190	-1,635	0,126	0,065
-381,175	270,879	0,015	0,019
-380,160	202,108	-0,067	0,076
-379,146	145,943	0,064	0,063
-378,131	-81,779	0,163	0,039
-377,117	69,857	-0,049	0,037
-376,102	75,007	-0,038	0,030
-375,088	800,000	-0,046	-0,135
-374,073	800,000	-0,018	0,045
-373,058	-200,000	-0,026	0,108
-372,044	-58,489	0,221	0,070
-371,029	-37,261	0,101	0,040
-370,015	-200,000	-0,008	0,085
-369,000	318,249	-0,069	0,096
-367,985	594,863	-0,054	0,099
-366,971	120,258	-0,108	-0,098
-365,956	-200,000	0,032	-0,217
-364,942	195,564	0,123	-0,137
-363,927	29,058	0,029	-0,018
-362,912	-200,000	0,007	-0,066
-361,898	268,336	0,012	0,015
-360,883	-200,000	0,015	0,183
-359,869	-200,000	-0,069	-0,274
-358,854	217,688	0,032	-0,037
-357,839	-200,000	0,002	0,062
-356,825	1,406	0,056	0,029
-355,810	104,998	0,040	-0,034
-354,796	-200,000	-0,004	0,025
-353,781	62,832	-0,013	-0,009
-352,766	-20,805	0,073	0,033
-351,752	-200,000	0,000	0,036
-350,737	-84,095	0,101	0,023
-349,723	-200,000	-0,044	0,175
-348,708	-5,102	-0,070	0,035
-347,693	230,885	0,079	0,095
-346,679	-200,000	-0,016	-0,055
-345,664	-33,395	-0,108	0,044
-344,650	800,000	0,019	0,052
-343,635	-200,000	0,007	0,108
-342,620	219,610	0,101	0,119
-341,606	-200,000	-0,004	0,037
-340,591	-137,047	-0,082	-0,007
-339,577	800,000	0,014	-0,037
-338,562	-34,520	-0,102	-0,041
-337,548	-200,000	0,024	-0,099
-336,533	-15,668	0,007	-0,003
-335,518	-200,000	0,003	-0,078
-334,504	-200,000	-0,017	0,102
-333,489	620,526	0,013	0,024
-332,475	-200,000	-0,023	0,080
-331,460	267,032	-0,049	-0,064
-330,445	800,000	0,015	0,043
-329,431	53,703	0,015	-0,011
-328,416	-123,483	-0,019	-0,002
-327,402	546,493	-0,044	0,078
-326,387	-44,826	-0,097	-0,035
-325,372	-200,000	0,009	-0,108
-324,358	-200,000	0,031	-0,110
-323,343	-200,000	0,017	-0,137
-322,329	172,013	-0,063	0,066
-321,314	114,120	0,116	0,104
-320,299	-200,000	-0,004	-0,061
-319,285	-124,377	-0,040	0,004
-318,270	28,461	-0,011	-0,007
-317,256	261,932	0,051	-0,065
-316,241	32,640	-0,095	-0,060
-315,226	57,489	0,038	0,027
-314,212	19,531	0,063	0,037
-313,197	-200,000	-0,007	0,077
-312,183	-143,913	0,038	-0,003
-311,168	-96,631	-0,134	0,026
-310,153	633,280	0,047	-0,088
-309,139	-200,000	-0,017	-0,132
-308,124	-200,000	-0,018	0,100
-307,110	-200,000	-0,025	0,089
-306,095	195,949	0,045	-0,050
-305,080	-200,000	0,012	0,107
-304,066	800,000	0,024	-0,066
-303,051	-200,000	0,004	-0,068
-302,037	411,783	-0,033	-0,051
-301,022	-18,476	0,114	0,052
-300,008	128,301	0,012	0,012
-298,993	-143,272	-0,059	0,004
-297,978	569,552	0,105	0,188
-296,964	-200,000	0,019	0,098
-295,949	507,304	0,019	0,033
-294,935	800,000	0,022	-0,044
-293,920	29,449	0,194	0,121
-292,905	-200,000	0,010	0,056
-291,891	15,818	0,133	0,076
-290,876	800,000	-0,018	0,054
-289,862	10,082	-0,091	-0,050
-288,847	604,944	0,029	0,053
-287,832	14,686	0,080	0,046
-286,818	-84,616	-0,012	-0,003
-285,803	800,000	0,023	-0,056
-284,789	253,994	-0,027	0,034
-283,774	-103,934	0,062	-0,011
-282,759	-8,310	0,070	0,034
-281,745	4,931	-0,151	0,081
-280,730	-200,000	0,032	-0,176
-279,716	74,876	-0,109	0,084
-278,701	-63,840	0,151	0,045
-277,686	128,364	0,169	-0,157
-276,672	-40,491	-0,100	-0,038
-275,657	19,745	-0,144	-0,085
-274,643	-200,000	0,019	-0,104
-273,628	712,641	-0,045	0,087
-272,613	-200,000	0,017	-0,081
-271,599	-74,089	-0,076	0,020
-270,584	-167,408	0,141	0,004
-269,570	-200,000	0,003	-0,017
-268,555	-4,385	-0,050	-0,025
-267,540	91,681	-0,062	0,051
-266,526	-200,000	0,015	-0,091
-265,511	-200,000	-0,051	0,174
-264,497	-162,445	0,026	0,001
-263,482	-57,523	0,106	-0,034
-262,467	-200,000	0,001	0,063
-261,453	-77,105	-0,075	-0,019
-260,438	369,711	-0,038	0,057
-259,424	311,594	0,033	-0,045
-258,409	-200,000	-0,008	-0,117
-257,395	-30,057	-0,012	-0,005
-256,380	-200,000	0,011	0,125
-255,365	188,377	0,103	0,112
-254,351	-60,948	0,143	0,044
-253,336	800,000	-0,033	0,103
-252,322	35,656	-0,069	-0,044
-251,307	167,887	0,023	-0,024
-250,292	-98,582	-0,069	0,013
-249,278	-111,320	-0,033	-0,005
-248,263	450,320	-0,030	-0,048
-247,249	800,000	0,029	0,084
-246,234	-23,783	0,116	0,051
-245,219	125,502	0,054	-0,050
-244,205	358,824	0,026	-0,039
-243,190	201,548	-0,082	0,093
-242,176	175,704	-0,038	-0,040
-241,161	-200,000	-0,009	-0,158
-240,146	800,000	0,023	0,052
-239,132	-28,359	0,086	-0,036
-238,117	-66,809	-0,094	-0,027
-237,103	187,775	-0,121	-0,133
-236,088	-144,195	-0,054	0,004
-235,073	170,173	0,048	0,050
-234,059	-70,497	0,117	0,032
-233,044	-78,159	-0,055	0,014
-232,030	-15,086	-0,074	0,034
-231,015	-200,000	-0,003	-0,065
-230,000	-147,847	0,068	0,004
-228,986	463,314	0,064	-0,105
-227,971	-200,000	0,019	0,079
-226,957	-200,000	-0,003	-0,074
-225,942	630,660	0,040	0,074
-224,927	-50,387	0,169	-0,058
-223,913	-145,471	-0,205	0,013
-222,898	299,859	-0,040	0,053
-221,884	21,993	-0,035	0,021
-220,869	-144,856	0,128	-0,008
-219,855	423,480	0,034	0,054
-218,840	-200,000	0,004	0,093
-217,825	32,659	-0,068	0,043
-216,811	-122,808	-0,112	0,013
-215,796	800,000	-0,026	-0,063
-214,782	800,000	0,071	-0,183
-213,767	45,900	0,115	-0,077
-212,752	-200,000	-0,009	0,114
-211,738	-137,217	0,132	-0,011
-210,723	-200,000	0,007	0,043
-209,709	15,970	-0,129	-0,074
-208,694	283,639	0,114	-0,150
-207,679	-200,000	-0,017	-0,165
-206,665	-53,940	-0,148	-0,049
-205,650	-11,865	-0,098	0,047
-204,636	-7,198	-0,063	-0,031
-203,621	197,942	-0,027	0,030
-202,606	90,674	0,133	0,109
-201,592	800,000	0,055	-0,137
-200,577	56,980	-0,147	0,104
-199,563	569,521	-0,071	0,126
-198,548	-74,606	0,155	0,040
-197,533	-36,373	-0,128	0,050
-196,519	378,737	0,028	0,042
-195,504	-29,410	0,042	0,018
-194,490	-200,000	-0,026	-0,096
-193,475	354,716	0,061	-0,088
-192,460	-37,239	-0,100	0,039
-191,446	800,000	0,041	0,110
-190,431	2,512	0,086	0,045
-189,417	133,635	-0,068	-0,064
-188,402	-158,163	0,073	0,003
-187,387	58,844	-0,104	0,074
-186,373	85,979	-0,063	0,051
-185,358	-200,000	-0,030	0,129
-184,344	-14,011	-0,071	-0,033
-183,329	-200,000	-0,038	-0,127
-182,315	231,618	-0,018	0,021
-181,300	-100,615	-0,033	0,006
-180,285	53,309	-0,037	-0,026
-179,271	-200,000	0,003	-0,020
-178,256	-200,000	0,028	0,132
-177,242	-105,560	-0,123	-0,020
-176,227	-200,000	0,029	-0,132
-175,212	161,058	0,074	0,076
-174,198	-174,958	-0,085	-0,002
-173,183	-153,392	-0,127	-0,006
-172,169	-19,799	-0,104	-0,047
-171,154	-200,000	-0,004	0,055
-170,139	625,697	-0,064	0,119
-169,125	-3,496	0,119	-0,060
-168,110	-200,000	0,013	0,053
-167,096	-55,836	-0,083	0,027
-166,081	73,884	-0,112	-0,085
-165,066	-200,000	-0,002	0,047
-164,052	-200,000	0,026	-0,134
-163,037	-200,000	0,001	0,052
-162,023	195,012	-0,094	0,104
-161,008	-107,385	0,074	-0,012
-159,993	800,000	0,072	0,190
-158,979	71,239	-0,108	-0,081
-157,964	523,838	0,042	0,072
-156,950	20,196	0,103	-0,061
-155,935	429,283	0,045	0,072
-154,920	-200,000	-0,031	0,168
-153,906	-13,829	-0,027	-0,012
-152,891	-35,911	-0,053	0,021
-151,877	-105,566	0,142	-0,023
-150,862	232,029	0,045	-0,054
-149,847	800,000	-0,011	0,030
-148,833	-45,230	-0,095	0,034
-147,818	2,248	0,132	0,069
-146,804	55,527	0,037	-0,026
-145,789	-123,105	0,070	0,008
-144,775	800,000	-0,030	0,090
-143,760	-13,721	-0,079	-0,037
-142,745	-125,855	-0,145	0,016
-141,731	-200,000	-0,010	-0,065
-140,716	-84,144	0,013	0,003
-139,702	-135,016	0,110	0,010
-138,687	0,359	-0,102	0,053
-137,672	48,986	-0,007	0,005
-136,658	-43,882	-0,020	0,007
-135,643	77,759	-0,038	-0,030
-134,629	115,761	-0,071	-0,063
-133,614	-43,020	0,120	0,044
-132,599	800,000	-0,028	0,064
-131,585	516,629	-0,061	-0,104
-130,570	-200,000	0,008	-0,064
-129,556	228,986	-0,051	-0,061
-128,541	65,701	-0,098	-0,072
-127,526	485,863	-0,068	-0,113
-126,512	482,216	-0,023	0,038
-125,497	62,905	0,079	-0,058
-124,483	-200,000	-0,038	0,220
-123,468	-127,097	0,158	-0,017
-122,453	-85,124	-0,087	-0,020
-121,439	72,679	-0,141	-0,107
-120,424	800,000	-0,036	0,099
-119,410	-176,145	0,045	-0,001
-118,395	-57,934	-0,027	0,008
-117,380	-57,293	-0,018	0,006
-116,366	71,848	0,017	0,013
-115,351	160,166	-0,100	-0,102
-114,337	-200,000	0,013	-0,083
-113,322	771,837	-0,011	-0,022
-112,307	-111,972	-0,063	0,009
-111,293	-83,348	0,103	0,024
-110,278	18,738	0,139	0,080
-109,264	722,029	0,040	-0,078
-108,249	554,426	-0,030	-0,053
-107,234	-78,039	0,068	-0,017
-106,220	-10,584	0,061	0,029
-105,205	-200,000	0,013	-0,051
-104,191	333,636	0,079	0,111
-103,176	-149,951	-0,089	-0,005
-102,162	-17,184	-0,074	-0,034
-101,147	700,681	0,012	-0,022
-100,132	-109,927	-0,180	0,027
-99,118	629,634	0,078	-0,144
-98,103	264,322	0,053	0,067
-97,089	656,468	0,032	0,059
-96,074	-200,000	0,020	-0,077
-95,059	22,310	0,081	0,048
-94,045	18,690	-0,110	-0,064
-93,030	-130,906	-0,199	-0,019
-92,016	-162,007	-0,064	-0,002
-91,001	113,475	0,105	-0,093
-89,986	-200,000	-0,008	0,055
-88,972	43,655	-0,058	0,038
-87,957	-200,000	-0,002	0,012
-86,943	111,845	0,069	-0,061
-85,928	460,152	-0,064	0,104
-84,913	156,089	-0,027	0,027
-83,899	388,082	-0,034	0,051
-82,884	-34,393	0,068	-0,027
-81,870	223,361	-0,031	0,036
-80,855	800,000	0,022	-0,061
-79,840	659,271	-0,064	-0,121
-78,826	-53,628	0,029	-0,010
-77,811	-119,052	-0,216	-0,027
-76,797	-55,153	-0,108	-0,035
-75,782	-200,000	0,004	0,131
-74,767	-200,000	-0,060	0,197
-73,753	135,707	-0,081	0,077
-72,738	699,761	0,056	0,108
-71,724	4,655	-0,169	0,090
-70,709	-42,968	-0,072	0,026
-69,694	344,354	-0,098	-0,140
-68,680	1,545	-0,036	-0,019
-67,665	-126,161	0,106	0,011
-66,651	-83,010	-0,080	-0,019
-65,636	-200,000	0,001	0,082
-64,622	-108,057	-0,086	0,013
-63,607	17,519	-0,067	-0,038
-62,592	71,456	-0,055	-0,041
-61,578	-170,900	-0,050	-0,001
-60,563	-15,875	0,195	0,090
-59,549	-78,012	-0,098	0,024
-58,534	-55,584	-1,568	-0,506
-57,519	800,000	-0,521	-1,165
-56,505	-200,000	-1,013	-4,642
-55,490	-123,007	0,498	0,057
-54,476	800,000	5,019	12,102
-53,461	-200,000	15,180	269,293
-52,446	-200,000	694,320	2243,106
-51,432	578,554	1615,386	2876,856
-50,417	121,355	1626,164	1468,228
-49,403	81,930	1284,220	1007,477
-48,388	37,588	1024,592	657,663
-47,373	22,334	985,366	582,126
-46,359	21,316	974,236	572,174
-45,344	19,839	970,028	564,834
-44,330	19,911	968,606	564,218
-43,315	19,636	967,382	562,582
-42,300	19,687	966,169	562,022
-41,286	19,649	965,254	561,345
-40,271	19,652	964,044	560,629
-39,257	19,649	963,410	560,228
-38,242	19,621	962,557	559,619
-37,227	19,652	961,782	559,246
-36,213	19,609	960,843	558,538
-35,198	19,623	959,949	558,042
-34,184	19,604	959,272	557,562
-33,169	19,599	958,374	557,005
-32,154	19,686	957,260	556,614
-31,140	19,671	956,512	556,111
-30,125	19,676	955,657	555,608
-29,111	19,643	955,114	555,162
-28,096	19,616	954,331	554,598
-27,082	19,598	953,904	554,269
-26,067	19,652	952,905	553,841
-25,052	19,586	952,309	553,260
-24,038	19,592	951,508	552,792
-23,023	19,580	950,790	552,315
-22,009	19,584	950,124	551,920
-20,994	19,650	949,401	551,687
-19,979	19,589	948,932	551,200
-18,965	19,546	948,315	550,681
-17,950	19,511	947,690	550,185
-16,936	19,592	946,910	549,968
-15,921	19,545	946,437	549,520
-14,906	19,502	945,632	548,893
-13,892	19,459	944,964	548,347
-12,877	19,483	944,312	548,024
-11,863	19,391	943,764	547,391
-10,848	19,467	943,230	547,301
-9,833	19,570	942,818	547,369
-8,819	19,550	941,958	546,786
-7,804	19,480	941,600	546,333
-6,790	19,492	940,943	545,966
-5,775	19,524	940,237	545,638
-4,760	19,543	939,632	545,326
-3,746	19,475	939,097	544,778
-2,731	19,344	938,310	543,885
-1,717	19,298	937,474	543,232
-0,702	19,333	936,891	542,982
0,313	19,135	936,375	542,877
1,327	22,333	934,614	551,914
2,342	31,808	794,649	494,509
3,356	29,091	448,985	275,297
4,371	-1,626	293,821	149,440
5,386	-5,957	275,208	135,851
6,400	-7,352	269,469	131,708
7,415	-7,617	267,181	130,334
8,429	-7,403	265,889	129,889
9,444	-7,448	265,018	129,411
10,459	-7,194	264,494	129,375
11,473	-7,346	263,889	128,929
12,488	-7,466	263,530	128,633
13,502	-7,452	262,864	128,309
14,517	-7,324	262,495	128,234
15,531	-7,309	262,112	128,049
16,546	-7,074	261,764	128,079
17,561	-7,125	261,319	127,804
18,575	-7,152	261,221	127,721
19,590	-7,205	260,825	127,468
20,604	-7,043	260,513	127,450
21,619	-7,181	260,174	127,149
22,634	-7,203	259,784	126,927
23,648	-7,104	259,450	126,841
24,663	-7,283	259,186	126,541
25,677	-7,098	258,958	126,583
26,692	-7,191	258,752	126,389
27,707	-7,193	258,515	126,259
28,721	-7,186	258,320	126,160
29,736	-7,256	257,977	125,918
30,750	-7,140	257,840	125,943
31,765	-7,124	257,517	125,789
32,780	-7,112	257,297	125,680
33,794	-7,273	257,092	125,426
34,809	-7,000	256,792	125,510
35,823	-7,034	256,629	125,390
36,838	-7,026	256,347	125,248
37,853	-7,361	256,183	124,861
38,867	-7,283	256,012	124,835
39,882	-7,197	255,726	124,760
40,896	-7,112	255,377	124,653
41,911	-7,236	255,223	124,459
42,926	-7,361	254,928	124,194
43,940	-7,273	254,878	124,235
44,955	-7,194	254,372	124,046
45,969	-7,290	254,336	123,935
46,984	-7,531	254,057	123,577
47,999	-7,812	253,879	123,234
49,013	-7,822	253,563	123,060
50,028	-7,757	253,319	122,988
51,042	-7,876	253,145	122,788
52,057	-7,895	252,792	122,589
53,071	-7,809	252,674	122,596
54,086	-7,673	252,466	122,602
55,101	-7,857	252,451	122,425
56,115	-7,542	252,267	122,598
57,130	-7,251	252,108	122,762
58,144	-7,164	251,929	122,739
59,159	-7,126	251,681	122,640
60,174	-7,162	251,434	122,478
61,188	-7,067	251,432	122,548
62,203	-7,033	251,080	122,394
63,217	-7,153	250,935	122,210
64,232	-6,997	250,662	122,200
65,247	-7,223	250,424	121,879
66,261	-7,002	250,130	121,915
67,276	-7,389	249,947	121,483
68,290	-7,394	249,800	121,395
69,305	-7,682	249,460	120,973
70,320	-7,660	249,338	120,922
71,334	-7,277	249,331	121,235
72,349	-7,226	248,989	121,102
73,363	-7,238	248,979	121,076
74,378	-6,952	248,609	121,129
75,393	-7,153	248,449	120,869
76,407	-7,194	248,176	120,691
77,422	-7,340	248,134	120,535
78,436	-7,152	247,869	120,556
79,451	-7,249	247,558	120,312
80,466	-7,383	247,350	120,086
81,480	-7,474	247,089	119,871
82,495	-7,122	246,960	120,097
83,509	-7,377	246,960	119,869
84,524	-7,417	246,703	119,700
85,539	-7,332	246,375	119,602
86,553	-7,449	246,229	119,422
87,568	-7,330	245,925	119,364
88,582	-7,543	245,799	119,113
89,597	-7,525	245,651	119,046
90,611	-7,232	245,540	119,228
91,626	-7,061	245,475	119,329
92,641	-7,404	245,317	118,954
93,655	-7,270	244,934	118,870
94,670	-7,148	244,656	118,827
95,684	-7,309	244,575	118,641
96,699	-7,323	244,282	118,477
97,714	-7,429	244,158	118,318
98,728	-7,442	243,979	118,210
99,743	-7,720	243,804	117,882
100,757	-7,749	243,717	117,806
101,772	-7,566	243,514	117,849
102,787	-7,326	243,238	117,906
103,801	-7,354	243,014	117,763
104,816	-7,343	243,008	117,759
105,830	-7,458	242,798	117,551
106,845	-7,176	242,665	117,711
107,860	-7,232	242,412	117,531
108,874	-7,428	242,282	117,295
109,889	-7,355	241,913	117,166
110,903	-7,667	241,751	116,819
111,918	-7,660	241,759	116,818
112,933	-7,425	241,455	116,855
113,947	-7,249	241,353	116,941
114,962	-7,251	241,114	116,813
115,976	-7,346	241,111	116,722
116,991	-7,440	240,872	116,519
118,006	-7,263	240,651	116,547
119,020	-7,490	240,604	116,327
120,035	-7,323	240,389	116,351
121,049	-7,209	240,258	116,370
122,064	-7,365	240,075	116,143
123,079	-7,219	239,865	116,150
124,093	-7,329	239,678	115,960
125,108	-7,621	239,353	115,553
126,122	-7,788	239,280	115,372
127,137	-7,732	239,123	115,331
128,151	-7,644	238,893	115,281
129,166	-7,613	238,700	115,204
130,181	-7,719	238,557	115,038
131,195	-7,561	238,304	115,035
132,210	-7,685	238,249	114,897
133,224	-7,363	238,006	115,031
134,239	-7,499	237,954	114,885
135,254	-7,366	237,726	114,873
136,268	-7,542	237,487	114,604
137,283	-7,691	237,243	114,356
138,297	-7,612	237,003	114,293
139,312	-7,636	236,815	114,173
140,327	-7,400	236,803	114,348
141,341	-6,892	236,564	114,632
142,356	-7,047	236,595	114,512
143,370	-7,035	236,407	114,420
144,385	-7,011	236,218	114,338
145,400	-6,985	236,100	114,292
146,414	-6,967	235,856	114,179
147,429	-7,099	235,833	114,050
148,443	-7,234	235,496	113,769
149,458	-7,124	235,357	113,780
150,473	-7,015	235,066	113,717
151,487	-7,180	235,093	113,588
152,502	-7,131	234,931	113,538
153,516	-7,163	234,862	113,469
154,531	-6,930	234,519	113,480
155,546	-7,071	234,261	113,232
156,560	-7,312	234,239	113,019
157,575	-7,256	233,989	112,932
158,589	-7,119	233,752	112,917
159,604	-6,945	233,534	112,940
160,619	-6,855	233,466	112,969
161,633	-6,930	233,545	112,937
162,648	-7,016	233,304	112,742
163,662	-7,156	233,107	112,526
164,677	-7,155	232,860	112,398
165,692	-7,271	232,738	112,237
166,706	-6,992	232,737	112,447
167,721	-6,860	232,483	112,419
168,735	-7,043	232,358	112,204
169,750	-6,926	232,178	112,200
170,764	-7,196	232,046	111,913
171,779	-7,001	231,962	112,016
172,794	-6,741	231,693	112,081
173,808	-7,076	231,484	111,706
174,823	-7,357	231,177	111,327
175,837	-7,757	230,972	110,904
176,852	-7,405	231,044	111,206
177,867	-6,999	230,875	111,433
178,881	-7,012	230,806	111,379
179,896	-6,916	230,643	111,367
180,910	-6,790	230,497	111,385
181,925	-6,904	230,272	111,176
182,940	-6,967	230,089	111,029
183,954	-7,038	230,041	110,940
184,969	-6,936	229,905	110,944
185,983	-6,854	229,702	110,900
186,998	-6,767	229,556	110,889
188,013	-6,758	229,465	110,841
189,027	-6,818	229,228	110,671
190,042	-7,025	229,056	110,416
191,056	-6,894	228,852	110,410
192,071	-6,771	228,727	110,436
193,086	-6,922	228,564	110,230
194,100	-7,058	228,399	110,034
195,115	-7,454	228,015	109,533
196,129	-7,865	227,903	109,151
197,144	-3,978	228,935	112,656
198,159	0,913	230,427	117,195
199,173	3,985	231,365	120,062
200,188	4,596	231,262	120,474
201,202	4,555	231,143	120,370
202,217	4,623	230,987	120,330
203,232	4,684	231,015	120,382
204,246	4,675	230,823	120,264
205,261	4,959	230,757	120,440
206,275	4,988	230,696	120,419
207,290	5,249	230,389	120,451
208,304	5,029	230,290	120,218
209,319	4,887	230,160	120,029
210,334	4,840	229,979	119,888
211,348	4,765	229,705	119,676
212,363	4,225	229,352	119,065
213,377	4,088	229,216	118,878
214,392	3,919	229,106	118,679
215,407	4,071	228,972	118,716
216,421	4,306	228,720	118,756
217,436	4,275	228,549	118,633
218,450	3,959	228,359	118,281
219,465	3,991	228,179	118,202
220,480	3,980	228,088	118,136
221,494	3,980	227,873	118,013
222,509	3,891	227,973	117,987
223,523	4,158	227,606	117,991
224,538	4,005	227,361	117,737
225,553	4,009	227,344	117,720
226,567	4,051	227,238	117,687
227,582	4,301	227,193	117,844
228,596	4,395	227,056	117,834
229,611	4,310	226,772	117,611
230,626	4,202	226,519	117,387
231,640	4,058	226,405	117,208
232,655	4,186	226,530	117,360
233,669	4,680	226,333	117,624
234,684	4,810	226,157	117,620
235,699	4,520	225,971	117,292
236,713	4,413	225,762	117,093
237,728	3,969	225,713	116,720
238,742	4,067	225,356	116,599
239,757	4,155	225,291	116,622
240,772	4,054	225,073	116,423
241,786	4,033	225,036	116,377
242,801	4,169	225,040	116,471
243,815	4,508	224,868	116,628
244,830	4,460	224,769	116,530
245,844	4,240	224,521	116,226
246,859	4,249	224,376	116,146
247,874	4,422	224,295	116,225
248,888	4,199	224,154	115,974
249,903	4,173	223,962	115,844
250,917	4,102	223,784	115,689
251,932	4,407	223,457	115,738
252,947	4,021	223,541	115,481
253,961	4,155	223,304	115,449
254,976	4,169	223,058	115,322
255,990	4,295	223,101	115,428
257,005	4,525	222,874	115,473
258,020	4,402	222,717	115,289
259,034	4,544	222,793	115,424
260,049	4,463	222,480	115,191
261,063	4,377	222,345	115,047
262,078	4,604	222,148	115,104
263,093	4,478	222,090	114,970
264,107	4,577	221,884	114,926
265,122	4,669	221,730	114,904
266,136	4,577	221,747	114,835
267,151	4,742	221,450	114,794
268,166	4,311	221,275	114,373
269,180	3,746	221,054	113,830
270,195	4,172	220,963	114,089
271,209	4,001	220,899	113,919
272,224	4,027	220,783	113,868
273,239	4,046	220,571	113,762
274,253	4,094	220,408	113,704
275,268	3,870	220,251	113,447
276,282	3,862	220,034	113,320
277,297	4,025	219,641	113,226
278,312	3,865	219,747	113,153
279,326	3,948	219,766	113,214
280,341	4,055	219,613	113,203
281,355	3,946	219,465	113,038
282,370	4,077	219,259	113,018
283,384	3,957	219,135	112,856
284,399	4,049	218,971	112,828
285,414	3,969	218,854	112,699
286,428	4,206	218,683	112,775
287,443	4,251	218,595	112,752
288,457	4,258	218,481	112,689
289,472	4,234	218,349	112,593
290,487	3,665	217,975	111,975
291,501	3,697	217,847	111,923
292,516	3,775	217,772	111,931
293,530	3,809	217,718	111,918
294,545	4,164	217,447	112,027
295,560	4,056	217,493	111,961
296,574	4,014	217,303	111,824
297,589	4,031	217,193	111,770
298,603	4,261	217,102	111,880
299,618	3,953	217,053	111,621
300,633	4,140	216,793	111,612
301,647	4,357	216,748	111,737
302,662	4,251	216,626	111,587
303,676	4,389	216,333	111,526
304,691	4,527	216,206	111,551
305,706	4,410	216,108	111,406
306,720	4,346	216,045	111,317
307,735	4,221	215,813	111,097
308,749	3,928	215,657	110,796
309,764	4,358	215,531	111,031
310,779	4,392	215,457	111,008
311,793	4,274	215,282	110,822
312,808	4,391	215,117	110,811
313,822	4,165	215,049	110,604
314,837	4,125	214,821	110,449
315,852	3,896	214,665	110,195
316,866	4,101	214,508	110,251
317,881	4,207	214,586	110,357
318,895	4,437	214,365	110,398
319,910	4,272	214,191	110,181
320,925	3,846	214,045	109,792
321,939	3,586	213,795	109,468
322,954	3,848	213,631	109,561
323,968	4,232	213,637	109,828
324,983	4,185	213,673	109,803
325,997	4,319	213,429	109,763
327,012	4,117	213,221	109,503
328,027	4,089	213,200	109,462
329,041	4,603	213,081	109,757
330,056	4,663	212,989	109,742
331,070	4,155	212,760	109,254
332,085	4,050	212,447	109,009
333,100	4,075	212,399	108,993
334,114	4,120	212,292	108,960
335,129	3,947	212,175	108,768
336,143	3,992	211,965	108,682
337,158	4,145	211,711	108,651
338,173	4,102	211,770	108,641
339,187	3,974	211,565	108,435
340,202	4,045	211,270	108,325
341,216	3,626	211,268	108,019
342,231	4,073	211,070	108,222
343,246	3,750	211,129	108,016
344,260	3,864	210,854	107,946
345,275	3,940	210,785	107,954
346,289	4,103	210,765	108,048
347,304	4,329	210,525	108,074
348,319	3,954	210,404	107,740
349,333	4,074	210,305	107,764
350,348	4,135	210,180	107,732
351,362	4,544	209,963	107,897
352,377	4,341	209,946	107,737
353,392	4,275	209,690	107,550
354,406	4,245	209,677	107,513
355,421	192,527	1343,779	1426,238
356,435	153,605	1481,996	1426,304
