DTS Sentinel unit serial number:	SN410029Multiplexer serial number:	ORYXHardware model number:	OX2-SRSoftware version number:	ORYX F/W v4,00 Oryx Data Collector v3.7.2.0data status	okinstallation	B6 Nyhavnadifferential loss correction	single-endedforward channel	channel 2reverse channel	N/Adate	2023/12/07time	19:20:08forward acquisition time	300,00reverse acquisition time	0,00gamma	499,1914k internal	0,3164k external	0,3164temperature offset calibration	1,0000default loss term (dB/km)	0,3820temperature slope calibration	1,0000multiplexer offset coefficient	1,0000multiplexer slope coefficient	1,0000fibre end	0,00T internal ref (°C)	14,05T ext. ref 1 (°C)	-3,02T ext. ref 2 (°C)	-3,03length (m)	temperature (°C)	Stokes	anti-Stokes-744,400	-81,636	0,173	0,041
-743,385	-99,348	-0,256	-0,047
-742,371	-4,936	0,165	-0,083
-741,356	-72,097	-0,217	-0,059
-740,342	-67,309	0,062	-0,018
-739,327	-130,396	-0,407	-0,040
-738,312	57,180	0,126	0,091
-737,298	-143,511	-0,430	-0,030
-736,283	75,814	0,066	0,051
-735,269	-60,972	-0,326	0,101
-734,254	-200,000	0,022	0,182
-733,239	18,232	-0,389	-0,228
-732,225	-22,716	0,156	0,069
-731,210	108,942	0,053	0,047
-730,196	50,357	0,091	-0,063
-729,181	235,866	-0,055	-0,067
-728,167	43,959	-0,055	-0,037
-727,152	-55,198	-0,107	0,035
-726,137	-48,058	0,084	-0,030
-725,123	-200,000	-0,031	-0,101
-724,108	-94,992	-0,153	-0,030
-723,094	152,470	-0,074	-0,075
-722,079	-159,261	-0,050	0,002
-721,064	-88,515	-0,085	0,019
-720,050	-200,000	0,005	-0,133
-719,035	-76,125	-0,195	-0,050
-718,021	-200,000	-0,012	-0,119
-717,006	-85,851	-0,097	0,022
-715,991	500,459	-0,025	-0,042
-714,977	-200,000	-0,017	-0,076
-713,962	-85,224	0,014	-0,003
-712,948	-200,000	0,018	0,105
-711,933	-200,000	-0,005	0,022
-710,918	735,798	-0,034	-0,067
-709,904	272,123	-0,090	-0,117
-708,889	-17,848	0,083	0,038
-707,875	311,008	-0,001	-0,001
-706,860	-176,334	0,077	-0,001
-705,845	329,258	-0,030	0,043
-704,831	-85,285	0,087	0,020
-703,816	-158,498	-0,063	-0,003
-702,802	-43,574	-0,096	0,035
-701,787	594,498	0,058	-0,105
-700,772	-200,000	-0,026	-0,093
-699,758	317,331	-0,032	0,045
-698,743	28,559	0,115	0,071
-697,729	800,000	0,053	-0,112
-696,714	-200,000	-0,011	-0,144
-695,699	-171,472	0,125	0,003
-694,685	-200,000	0,024	-0,167
-693,670	409,002	-0,091	-0,142
-692,656	170,886	0,034	0,036
-691,641	159,649	-0,039	-0,040
-690,627	480,066	0,050	0,084
-689,612	800,000	0,041	0,109
-688,597	-200,000	-0,003	0,058
-687,583	-200,000	-0,001	-0,048
-686,568	26,321	-0,120	-0,073
-685,554	736,838	0,094	-0,186
-684,539	-200,000	-0,013	-0,122
-683,524	800,000	0,035	-0,082
-682,510	198,583	-0,039	-0,044
-681,495	-200,000	0,018	-0,164
-680,481	-33,388	-0,166	-0,067
-679,466	-121,351	0,089	-0,011
-678,451	154,404	-0,048	0,048
-677,437	96,758	-0,087	0,073
-676,422	-55,520	-0,027	0,009
-675,408	-200,000	-0,008	0,139
-674,393	-32,075	-0,220	0,090
-673,378	-12,127	0,127	-0,061
-672,364	-10,279	-0,201	-0,097
-671,349	-200,000	-0,006	0,022
-670,335	195,863	0,048	-0,054
-669,320	-200,000	-0,000	-0,071
-668,305	-200,000	-0,012	0,047
-667,291	599,886	-0,040	-0,073
-666,276	-46,107	-0,081	-0,029
-665,262	104,345	-0,116	-0,101
-664,247	61,887	0,044	-0,032
-663,232	618,288	0,022	0,041
-662,218	94,885	0,086	0,072
-661,203	365,673	-0,021	0,031
-660,189	89,068	-0,016	-0,013
-659,174	-200,000	-0,028	0,116
-658,159	399,813	-0,075	-0,115
-657,145	392,264	-0,008	0,012
-656,130	795,495	0,041	-0,084
-655,116	-200,000	0,004	0,065
-654,101	-200,000	0,018	0,151
-653,086	-130,950	-0,196	-0,019
-652,072	800,000	-0,024	-0,076
-651,057	22,929	-0,159	-0,095
-650,043	-29,325	0,044	0,019
-649,028	191,887	0,041	0,046
-648,014	33,757	-0,139	0,089
-646,999	164,709	0,035	-0,036
-645,984	-9,719	-0,055	0,027
-644,970	-85,062	-0,071	-0,016
-643,955	-57,457	0,080	-0,026
-642,941	85,347	-0,143	0,115
-641,926	-103,644	0,155	-0,026
-640,911	-200,000	0,046	0,185
-639,897	800,000	-0,033	0,104
-638,882	433,343	-0,034	-0,054
-637,868	800,000	0,035	-0,086
-636,853	-200,000	-0,007	-0,055
-635,838	800,000	-0,048	-0,124
-634,824	-57,752	0,065	0,021
-633,809	297,117	-0,075	-0,101
-632,795	-163,616	0,071	-0,002
-631,780	777,064	-0,061	-0,122
-630,765	193,627	-0,130	0,144
-629,751	-200,000	0,007	-0,105
-628,736	-200,000	0,012	-0,062
-627,722	89,136	-0,026	-0,021
-626,707	-200,000	0,007	-0,100
-625,692	142,019	-0,074	0,072
-624,678	-200,000	-0,022	-0,103
-623,663	-133,115	0,081	-0,007
-622,649	11,731	-0,100	-0,056
-621,634	69,680	0,161	-0,121
-620,619	289,323	-0,078	-0,104
-619,605	325,850	0,011	-0,015
-618,590	-200,000	-0,008	-0,098
-617,576	53,396	-0,028	-0,020
-616,561	-118,915	-0,111	0,014
-615,546	60,231	0,055	0,040
-614,532	-200,000	-0,025	-0,108
-613,517	-86,337	-0,087	0,020
-612,503	63,088	-0,085	-0,062
-611,488	-200,000	0,006	0,025
-610,474	34,493	-0,052	-0,033
-609,459	-63,851	-0,040	0,012
-608,444	552,613	-0,044	0,078
-607,430	-167,694	0,117	0,003
-606,415	800,000	0,039	-0,089
-605,401	-200,000	0,004	-0,031
-604,386	127,698	-0,078	-0,073
-603,371	359,001	-0,058	-0,085
-602,357	16,321	-0,089	0,051
-601,342	68,276	0,068	0,051
-600,328	-116,051	-0,075	0,010
-599,313	-200,000	-0,003	-0,154
-598,298	800,000	-0,031	0,073
-597,284	-200,000	0,016	0,163
-596,269	3,551	0,057	-0,030
-595,255	-17,627	-0,040	-0,018
-594,240	-200,000	0,021	-0,083
-593,225	-99,027	-0,218	0,040
-592,211	-200,000	-0,003	-0,082
-591,196	213,468	-0,046	-0,053
-590,182	-200,000	-0,013	-0,073
-589,167	800,000	0,051	-0,106
-588,152	75,926	-0,059	0,045
-587,138	-125,442	0,123	-0,014
-586,123	-56,970	-0,121	0,039
-585,109	247,433	0,067	-0,083
-584,094	-27,663	-0,162	0,068
-583,079	58,542	0,043	-0,031
-582,065	-9,799	0,109	-0,053
-581,050	-200,000	-0,006	0,120
-580,036	-34,500	0,048	-0,019
-579,021	171,974	-0,009	-0,009
-578,006	229,385	0,072	-0,086
-576,992	-9,782	-0,092	-0,045
-575,977	-200,000	-0,005	0,084
-574,963	-200,000	0,016	0,129
-573,948	-200,000	0,028	-0,178
-572,934	800,000	-0,058	-0,124
-571,919	-147,628	-0,169	0,010
-570,904	-200,000	0,008	-0,076
-569,890	-95,730	0,118	-0,023
-568,875	186,360	0,032	-0,035
-567,861	-90,019	-0,155	0,033
-566,846	775,266	-0,067	0,133
-565,831	123,384	0,092	-0,085
-564,817	243,085	-0,122	-0,150
-563,802	-200,000	-0,033	-0,277
-562,788	725,468	-0,010	-0,019
-561,773	-97,568	-0,123	-0,023
-560,758	-102,089	0,145	0,025
-559,744	-200,000	0,012	-0,047
-558,729	-132,345	0,216	-0,020
-557,715	206,673	-0,022	0,025
-556,700	800,000	-0,065	-0,169
-555,685	131,370	-0,132	-0,124
-554,671	319,745	0,058	0,081
-553,656	4,612	0,138	0,074
-552,642	362,400	-0,059	-0,087
-551,627	404,344	-0,084	0,129
-550,612	-14,294	-0,079	-0,037
-549,598	-49,201	-0,071	-0,025
-548,583	-5,173	-0,053	-0,027
-547,569	-200,000	-0,007	0,130
-546,554	-200,000	-0,001	0,044
-545,539	620,124	0,056	0,104
-544,525	69,261	-0,097	-0,073
-543,510	575,961	-0,037	-0,066
-542,496	-51,460	-0,147	-0,050
-541,481	-200,000	-0,012	-0,062
-540,466	-200,000	-0,012	0,109
-539,452	-200,000	-0,007	0,044
-538,437	82,539	0,069	0,054
-537,423	71,328	-0,034	0,026
-536,408	535,987	0,036	0,063
-535,393	269,680	0,033	0,042
-534,379	-85,104	0,045	0,010
-533,364	-200,000	-0,014	0,080
-532,350	-200,000	0,011	-0,085
-531,335	800,000	0,007	-0,021
-530,321	-73,481	0,218	0,058
-529,306	311,127	0,045	-0,062
-528,291	-200,000	0,017	-0,072
-527,277	-167,905	-0,175	0,005
-526,262	-62,119	-0,104	0,031
-525,248	800,000	0,026	0,077
-524,233	-171,124	0,061	0,001
-523,218	-200,000	0,000	0,121
-522,204	617,312	-0,033	0,061
-521,189	161,552	0,097	-0,099
-520,175	91,934	-0,088	-0,072
-519,160	-200,000	-0,028	-0,188
-518,145	-98,897	0,040	-0,007
-517,131	-137,345	0,129	-0,011
-516,116	203,309	0,036	0,041
-515,102	75,658	0,111	0,086
-514,087	748,645	0,080	0,159
-513,072	-200,000	-0,001	0,012
-512,058	-198,472	0,046	0,000
-511,043	-200,000	0,014	0,059
-510,029	-85,131	0,051	0,012
-509,014	-9,433	0,057	0,027
-507,999	60,322	-0,064	-0,046
-506,985	-180,834	0,034	0,000
-505,970	388,280	0,030	0,046
-504,956	76,127	0,008	0,006
-503,941	-1,544	-0,152	0,078
-502,926	-115,019	0,144	0,020
-501,912	-200,000	-0,001	0,032
-500,897	800,000	-0,028	-0,089
-499,883	-200,000	-0,010	-0,049
-498,868	-55,012	-0,099	0,032
-497,853	368,299	-0,077	0,113
-496,839	-200,000	0,005	0,049
-495,824	308,687	0,058	0,080
-494,810	268,568	0,031	0,040
-493,795	406,736	-0,116	0,179
-492,781	-28,153	-0,113	-0,047
-491,766	-200,000	-0,002	-0,071
-490,751	-46,022	-0,058	-0,021
-489,737	178,220	0,038	0,041
-488,722	-200,000	0,020	-0,073
-487,708	358,094	-0,015	0,022
-486,693	212,718	-0,031	-0,036
-485,678	565,475	-0,072	-0,128
-484,664	33,076	0,090	0,057
-483,649	37,262	-0,113	-0,073
-482,635	-200,000	-0,012	0,048
-481,620	332,672	0,009	-0,013
-480,605	800,000	-0,068	0,149
-479,591	-159,757	0,113	-0,004
-478,576	368,230	-0,055	0,081
-477,562	-123,993	-0,061	0,007
-476,547	179,017	-0,040	-0,043
-475,532	157,580	0,130	0,131
-474,518	38,027	0,148	0,095
-473,503	76,976	-0,032	0,025
-472,489	-200,000	0,009	0,033
-471,474	-117,171	-0,036	-0,005
-470,459	36,817	0,107	-0,069
-469,445	-62,830	-0,132	0,039
-468,430	-200,000	-0,025	0,089
-467,416	669,127	-0,089	0,168
-466,401	2,806	0,087	-0,046
-465,386	-200,000	0,012	0,042
-464,372	800,000	-0,019	-0,058
-463,357	-59,933	-0,087	-0,027
-462,343	435,273	0,063	-0,101
-461,328	-93,448	0,034	0,007
-460,313	-200,000	-0,012	0,046
-459,299	270,502	0,066	0,085
-458,284	368,092	0,053	-0,078
-457,270	9,072	-0,095	-0,052
-456,255	800,000	-0,074	-0,161
-455,241	800,000	-0,011	-0,028
-454,226	720,163	-0,076	-0,147
-453,211	-200,000	-0,002	-0,020
-452,197	-200,000	0,002	-0,038
-451,182	-200,000	0,014	-0,080
-450,168	194,387	0,050	0,056
-449,153	-60,150	0,198	-0,061
-448,138	800,000	-0,018	0,050
-447,124	-200,000	-0,011	0,043
-446,109	516,525	0,059	0,101
-445,095	-13,862	-0,102	0,048
-444,080	-200,000	0,011	-0,041
-443,065	595,483	-0,044	0,080
-442,051	-69,603	-0,095	-0,026
-441,036	-119,334	-0,035	-0,004
-440,022	121,354	-0,122	-0,111
-439,007	63,274	0,053	0,039
-437,992	10,111	0,055	0,030
-436,978	362,734	0,025	0,036
-435,963	41,333	-0,154	0,101
-434,949	734,942	-0,066	-0,130
-433,934	-200,000	-0,003	0,123
-432,919	800,000	-0,021	0,046
-431,905	-200,000	-0,019	0,105
-430,890	-104,500	0,122	-0,020
-429,876	62,487	0,056	0,041
-428,861	14,176	0,074	0,042
-427,846	-44,537	-0,071	-0,026
-426,832	800,000	-0,069	0,154
-425,817	113,113	0,034	0,030
-424,803	-200,000	0,010	-0,137
-423,788	-200,000	-0,032	-0,123
-422,773	199,267	-0,058	0,064
-421,759	-107,279	0,112	-0,018
-420,744	800,000	-0,019	0,050
-419,730	297,950	-0,068	0,091
-418,715	12,103	-0,115	-0,064
-417,701	2,911	-0,137	-0,072
-416,686	35,327	0,104	-0,066
-415,671	800,000	-0,026	0,064
-414,657	21,445	0,064	0,038
-413,642	156,453	0,049	0,050
-412,628	33,132	0,133	-0,084
-411,613	253,529	0,022	0,027
-410,598	-157,639	0,082	-0,003
-409,584	282,087	0,072	-0,094
-408,569	184,599	0,075	0,081
-407,555	486,458	-0,039	0,065
-406,540	-200,000	-0,021	-0,084
-405,525	25,525	-0,102	-0,061
-404,511	-85,591	-0,073	-0,016
-403,496	-200,000	-0,008	-0,122
-402,482	-139,508	0,032	0,002
-401,467	-200,000	0,001	0,029
-400,452	462,678	0,117	0,190
-399,438	524,415	0,044	0,076
-398,423	-5,139	-0,132	0,066
-397,409	-1,790	-0,115	-0,059
-396,394	-139,149	-0,209	-0,016
-395,379	-82,289	-0,051	-0,012
-394,365	67,528	-0,121	0,090
-393,350	-58,800	-0,073	-0,023
-392,336	201,181	0,031	-0,035
-391,321	-92,497	0,050	0,010
-390,306	-200,000	-0,007	0,065
-389,292	572,569	0,041	0,073
-388,277	45,887	0,074	0,050
-387,263	25,808	-0,132	-0,079
-386,248	504,961	-0,014	-0,023
-385,233	-120,809	-0,024	0,003
-384,219	-32,187	0,143	0,058
-383,204	60,591	-0,142	-0,102
-382,190	211,392	-0,021	-0,023
-381,175	77,433	-0,045	0,035
-380,160	601,343	0,017	0,031
-379,146	247,521	-0,050	0,061
-378,131	96,017	-0,059	0,049
-377,117	144,665	0,055	0,053
-376,102	516,484	-0,042	0,071
-375,088	19,701	-0,066	-0,038
-374,073	176,419	0,035	0,037
-373,058	72,710	0,020	-0,015
-372,044	-21,234	0,065	-0,029
-371,029	18,963	-0,081	-0,047
-370,015	-140,577	0,083	0,006
-369,000	7,921	-0,095	-0,051
-367,985	-200,000	-0,009	-0,103
-366,971	549,224	0,029	0,051
-365,956	-200,000	-0,000	-0,029
-364,942	-69,730	0,092	0,025
-363,927	-113,727	-0,060	-0,008
-362,912	-127,854	0,077	-0,008
-361,898	18,376	-0,120	-0,069
-360,883	91,449	0,051	0,041
-359,869	-50,910	0,056	0,019
-358,854	289,563	0,047	-0,062
-357,839	800,000	0,063	0,133
-356,825	800,000	0,046	0,112
-355,810	-137,625	0,069	0,006
-354,796	-37,409	0,020	-0,008
-353,781	81,348	0,021	0,017
-352,766	-200,000	0,001	0,009
-351,752	24,575	0,083	-0,049
-350,737	800,000	0,032	0,099
-349,723	682,668	-0,040	0,077
-348,708	-151,207	-0,082	0,004
-347,693	51,699	0,168	-0,115
-346,679	-30,997	0,055	0,022
-345,664	277,486	-0,033	-0,043
-344,650	383,179	-0,023	-0,035
-343,635	-200,000	0,030	0,107
-342,620	58,656	0,038	-0,027
-341,606	800,000	0,025	0,060
-340,591	-200,000	0,019	0,066
-339,577	800,000	0,078	-0,222
-338,562	563,064	0,024	0,042
-337,548	612,349	0,065	-0,118
-336,533	112,601	0,071	0,062
-335,518	-94,944	-0,029	-0,006
-334,504	800,000	0,024	-0,051
-333,489	458,036	0,022	0,036
-332,475	-38,130	0,041	-0,016
-331,460	-200,000	-0,002	-0,099
-330,445	-139,798	-0,059	-0,004
-329,431	129,895	-0,176	-0,163
-328,416	-200,000	-0,004	0,094
-327,402	800,000	0,019	-0,053
-326,387	44,410	-0,034	-0,022
-325,372	-200,000	-0,010	0,045
-324,358	167,408	0,076	0,078
-323,343	-62,362	0,064	-0,019
-322,329	-200,000	0,020	-0,135
-321,314	494,318	-0,026	-0,043
-320,299	150,611	0,159	-0,156
-319,285	386,421	-0,042	0,063
-318,270	195,685	-0,084	-0,093
-317,256	-133,814	0,061	-0,005
-316,241	-175,335	0,063	-0,001
-315,226	-121,991	0,116	0,014
-314,212	-3,011	0,130	0,065
-313,197	800,000	-0,057	0,137
-312,183	18,364	0,089	-0,051
-311,168	8,977	0,037	-0,020
-310,153	-192,182	-0,103	-0,001
-309,139	591,317	0,010	-0,018
-308,124	112,774	0,035	-0,030
-307,110	-94,305	0,076	0,015
-306,095	-76,762	0,160	0,040
-305,080	198,147	0,059	-0,065
-304,066	-1,646	-0,179	0,091
-303,051	-53,507	-0,119	-0,039
-302,037	-200,000	0,009	0,086
-301,022	74,512	0,081	-0,062
-300,008	-67,317	0,023	0,006
-298,993	800,000	0,065	0,151
-297,978	-160,649	0,124	-0,005
-296,964	800,000	-0,023	-0,060
-295,949	800,000	-0,027	-0,066
-294,935	183,896	0,099	-0,106
-293,920	760,535	-0,026	0,051
-292,905	-57,524	-0,106	-0,033
-291,891	-200,000	0,028	0,141
-290,876	-200,000	0,004	0,042
-289,862	-24,620	0,121	-0,052
-288,847	-200,000	-0,012	0,062
-287,832	9,060	0,004	0,002
-286,818	52,781	0,019	0,013
-285,803	-200,000	0,013	0,042
-284,789	118,683	0,131	0,117
-283,774	-68,613	-0,130	-0,036
-282,759	43,843	0,043	-0,028
-281,745	675,797	-0,062	-0,117
-280,730	244,365	-0,129	-0,157
-279,716	800,000	0,025	-0,064
-278,701	126,354	-0,086	0,079
-277,686	800,000	0,034	-0,091
-276,672	95,859	0,185	0,153
-275,657	-35,893	-0,134	-0,052
-274,643	-200,000	0,001	-0,107
-273,628	600,042	-0,029	0,053
-272,613	544,873	0,026	0,046
-271,599	222,303	0,055	0,065
-270,584	-171,104	0,146	-0,003
-269,570	426,650	0,067	-0,104
-268,555	71,310	-0,066	0,049
-267,540	-41,470	0,006	0,002
-266,526	-200,000	0,008	-0,046
-265,511	120,255	0,074	0,067
-264,497	-68,147	-0,027	-0,007
-263,482	112,736	0,038	0,033
-262,467	800,000	0,016	0,036
-261,453	800,000	-0,043	0,119
-260,438	-200,000	-0,007	0,066
-259,424	21,986	0,091	-0,054
-258,409	268,695	0,072	0,091
-257,395	-25,949	-0,097	-0,041
-256,380	-200,000	-0,022	0,137
-255,365	172,427	0,048	0,050
-254,351	800,000	0,010	0,020
-253,336	-200,000	0,046	-0,158
-252,322	-200,000	0,007	-0,030
-251,307	-200,000	-0,013	-0,070
-250,292	564,398	-0,049	-0,086
-249,278	-200,000	0,009	-0,109
-248,263	-24,837	0,158	0,068
-247,249	-200,000	-0,002	-0,041
-246,234	57,079	0,041	0,029
-245,219	-37,598	-0,080	0,031
-244,205	368,489	-0,017	-0,025
-243,190	25,545	-0,064	0,038
-242,176	29,060	0,110	0,067
-241,161	-22,830	0,101	0,044
-240,146	210,957	-0,050	0,057
-239,132	225,645	0,123	-0,144
-238,117	48,093	-0,031	-0,021
-237,103	-91,512	0,103	-0,021
-236,088	800,000	-0,029	-0,063
-235,073	-1,402	0,162	0,082
-234,059	800,000	0,054	0,151
-233,044	-200,000	-0,014	-0,207
-232,030	-21,087	-0,101	-0,045
-231,015	88,218	-0,060	0,048
-230,000	-133,654	0,180	-0,016
-228,986	-200,000	0,013	0,061
-227,971	-167,741	-0,090	-0,003
-226,957	-138,828	0,078	0,006
-225,942	-200,000	0,022	-0,151
-224,927	-200,000	0,009	0,136
-223,913	-18,984	0,031	0,014
-222,898	315,385	0,052	0,070
-221,884	395,683	0,057	-0,086
-220,869	251,962	-0,068	0,083
-219,855	-91,843	-0,073	0,015
-218,840	290,831	0,062	0,082
-217,825	339,585	0,053	-0,074
-216,811	-200,000	-0,020	-0,079
-215,796	664,875	0,055	0,104
-214,782	-200,000	0,012	0,134
-213,767	-200,000	0,014	0,145
-212,752	-17,730	-0,094	0,042
-211,738	-181,472	-0,081	-0,001
-210,723	443,746	0,062	0,098
-209,709	-49,794	-0,046	0,016
-208,694	775,100	-0,012	-0,023
-207,679	107,013	-0,095	-0,081
-206,665	233,082	0,095	-0,113
-205,650	296,078	0,065	0,086
-204,636	253,867	0,141	0,174
-203,621	82,581	-0,097	-0,076
-202,606	800,000	-0,060	-0,129
-201,592	-200,000	-0,033	0,107
-200,577	800,000	0,025	0,067
-199,563	-161,849	-0,019	-0,001
-198,548	-200,000	-0,036	0,121
-197,533	-200,000	0,009	-0,137
-196,519	136,997	0,014	0,013
-195,504	-200,000	-0,007	0,070
-194,490	162,080	-0,083	0,084
-193,475	-70,063	0,186	-0,051
-192,460	38,047	-0,051	-0,033
-191,446	226,365	-0,050	-0,058
-190,431	63,279	0,092	0,066
-189,417	583,174	-0,045	0,080
-188,402	-61,195	0,066	0,020
-187,387	-200,000	0,024	-0,077
-186,373	-177,044	-0,051	-0,001
-185,358	-86,287	-0,118	-0,026
-184,344	800,000	0,059	0,122
-183,329	-19,623	-0,044	-0,019
-182,315	145,770	-0,027	-0,026
-181,300	53,536	-0,069	0,048
-180,285	-200,000	-0,004	-0,067
-179,271	-190,092	-0,148	0,001
-178,256	-101,503	-0,046	-0,008
-177,242	139,671	0,022	-0,021
-176,227	-200,000	0,023	0,206
-175,212	-200,000	-0,026	-0,094
-174,198	-200,000	-0,001	-0,015
-173,183	-113,924	-0,152	0,021
-172,169	-50,797	-0,092	-0,031
-171,154	0,194	-0,068	-0,035
-170,139	622,306	0,056	0,102
-169,125	-2,620	-0,100	-0,050
-168,110	176,895	0,056	0,058
-167,096	-11,282	-0,096	-0,045
-166,081	60,965	0,039	-0,028
-165,066	800,000	-0,046	-0,130
-164,052	-129,967	0,125	-0,012
-163,037	425,925	-0,055	-0,086
-162,023	542,943	0,062	0,107
-161,008	-200,000	-0,026	0,094
-159,993	-49,898	0,090	-0,030
-158,979	-68,837	0,075	-0,021
-157,964	163,904	-0,020	-0,020
-156,950	274,970	0,023	0,029
-155,935	800,000	-0,014	-0,038
-154,920	278,972	0,059	0,076
-153,906	193,349	0,104	-0,113
-152,891	800,000	0,015	0,031
-151,877	99,105	-0,103	-0,085
-150,862	181,691	0,077	-0,082
-149,847	118,491	-0,043	0,038
-148,833	-70,011	-0,097	0,026
-147,818	36,736	0,059	-0,038
-146,804	19,202	0,042	-0,024
-145,789	76,435	0,042	0,032
-144,775	-200,000	0,025	-0,136
-143,760	-200,000	0,003	-0,017
-142,745	-75,268	-0,186	-0,047
-141,731	800,000	-0,072	0,162
-140,716	585,596	0,025	-0,044
-139,702	118,218	-0,029	0,026
-138,687	-25,550	0,023	0,010
-137,672	5,117	0,085	-0,045
-136,658	111,164	-0,073	0,063
-135,643	91,867	-0,016	-0,013
-134,629	32,313	0,101	0,062
-133,614	800,000	-0,029	0,073
-132,599	-95,991	0,137	0,026
-131,585	108,094	-0,145	0,125
-130,570	-149,549	-0,035	-0,002
-129,556	-24,406	-0,088	0,037
-128,541	437,603	-0,068	0,107
-127,526	-200,000	0,015	-0,062
-126,512	43,270	0,166	0,109
-125,497	453,177	-0,094	0,151
-124,483	95,979	0,040	0,033
-123,468	273,943	-0,042	-0,054
-122,453	-77,205	-0,047	0,012
-121,439	143,243	-0,134	0,128
-120,424	-51,973	-0,054	-0,018
-119,410	520,226	0,017	0,028
-118,395	552,515	0,073	0,127
-117,380	800,000	-0,024	0,064
-116,366	70,763	0,119	0,089
-115,351	-93,498	-0,113	-0,022
-114,337	-114,292	0,116	-0,016
-113,322	-65,062	0,034	-0,010
-112,307	-25,859	-0,095	-0,040
-111,293	800,000	-0,054	0,122
-110,278	-200,000	0,000	0,063
-109,264	-200,000	0,006	0,070
-108,249	-118,064	0,135	0,017
-107,234	250,227	0,017	0,021
-106,220	423,396	0,052	-0,080
-105,205	-146,892	0,018	-0,001
-104,191	-88,571	0,044	-0,009
-103,176	-200,000	0,003	0,046
-102,162	-200,000	-0,039	0,179
-101,147	113,889	-0,041	0,036
-100,132	-8,023	-0,089	-0,043
-99,118	800,000	-0,017	-0,042
-98,103	800,000	-0,033	0,078
-97,089	293,138	0,075	0,098
-96,074	-200,000	0,027	0,191
-95,059	-5,261	-0,140	-0,069
-94,045	26,542	0,066	-0,039
-93,030	800,000	-0,037	0,076
-92,016	-158,044	0,085	0,004
-91,001	-200,000	-0,004	-0,021
-89,986	800,000	0,036	0,081
-88,972	226,624	-0,076	0,088
-87,957	800,000	-0,061	-0,136
-86,943	-85,500	0,040	0,009
-85,928	-30,280	-0,057	-0,023
-84,913	-200,000	-0,023	-0,126
-83,899	30,764	0,097	-0,059
-82,884	1,079	-0,046	-0,023
-81,870	-200,000	-0,008	0,065
-80,855	93,727	-0,029	0,023
-79,840	488,476	0,052	-0,085
-78,826	385,833	0,076	-0,112
-77,811	-200,000	-0,012	-0,071
-76,797	369,584	-0,050	-0,073
-75,782	33,653	0,103	0,064
-74,767	50,880	0,066	-0,045
-73,753	91,075	0,071	-0,057
-72,738	-93,088	-0,101	-0,020
-71,724	683,089	-0,034	-0,064
-70,709	-111,997	0,074	0,011
-69,694	-104,717	-0,138	-0,023
-68,680	-79,710	-0,186	-0,045
-67,665	-112,105	0,110	0,016
-66,651	565,778	0,031	-0,054
-65,636	800,000	-0,065	0,136
-64,622	-200,000	0,009	0,038
-63,607	35,635	-0,152	-0,095
-62,592	532,400	0,030	-0,052
-61,578	-200,000	0,021	-0,116
-60,563	181,755	0,042	0,044
-59,549	-200,000	-0,035	0,173
-58,534	32,784	-2,087	-1,291
-57,519	-200,000	-0,058	-0,915
-56,505	-200,000	-1,448	-5,151
-55,490	44,959	0,913	0,601
-54,476	800,000	5,412	12,066
-53,461	-200,000	18,295	300,026
-52,446	800,000	734,022	2247,485
-51,432	529,352	1646,815	2795,649
-50,417	107,244	1633,716	1390,662
-49,403	71,291	1284,403	953,323
-48,388	30,047	1025,401	624,879
-47,373	19,709	987,875	567,998
-46,359	17,579	975,365	553,821
-45,344	14,418	971,466	541,273
-44,330	14,633	970,091	541,189
-43,315	14,090	968,202	538,344
-42,300	14,067	966,945	537,550
-41,286	14,104	966,031	537,140
-40,271	14,033	965,124	536,383
-39,257	14,097	964,256	536,086
-38,242	14,032	963,563	535,472
-37,227	14,034	962,641	534,943
-36,213	14,072	961,582	534,456
-35,198	14,056	960,774	533,935
-34,184	14,106	960,097	533,700
-33,169	14,015	959,302	532,941
-32,154	14,119	958,150	532,617
-31,140	14,108	957,432	532,162
-30,125	14,141	956,630	531,799
-29,111	14,073	955,900	531,153
-28,096	14,110	955,009	530,756
-27,082	14,041	954,499	530,231
-26,067	14,127	953,473	529,915
-25,052	14,077	952,859	529,394
-24,038	14,076	952,341	529,080
-23,023	14,076	951,748	528,732
-22,009	14,099	951,066	528,405
-20,994	14,096	950,252	527,920
-19,979	14,118	949,789	527,712
-18,965	14,095	949,102	527,237
-17,950	14,084	948,511	526,853
-16,936	13,984	948,096	526,284
-15,921	14,047	947,195	525,964
-14,906	13,986	946,378	525,295
-13,892	14,004	945,835	525,027
-12,877	13,970	945,135	524,512
-11,863	13,980	944,645	524,251
-10,848	13,985	944,066	523,925
-9,833	13,965	943,888	523,743
-8,819	14,097	942,850	523,563
-7,804	14,007	942,200	522,897
-6,790	13,998	941,695	522,568
-5,775	13,969	941,248	522,207
-4,760	14,025	940,429	521,907
-3,746	13,976	939,723	521,341
-2,731	13,829	939,334	520,639
-1,717	13,805	938,573	520,122
-0,702	13,851	937,878	519,862
0,313	13,618	937,294	519,589
1,327	16,915	935,312	528,805
2,342	25,975	787,143	468,804
3,356	22,184	443,145	258,310
4,371	-7,118	296,152	143,290
5,386	-10,972	278,095	130,881
6,400	-12,385	272,301	126,828
7,415	-12,485	270,129	125,712
8,429	-12,509	268,490	124,916
9,444	-12,538	267,563	124,448
10,459	-12,491	266,964	124,200
11,473	-12,715	266,425	123,735
12,488	-12,813	265,777	123,334
13,502	-12,797	265,234	123,085
14,517	-12,826	265,023	122,950
15,531	-12,810	264,533	122,726
16,546	-12,627	264,229	122,739
17,561	-12,625	263,661	122,467
18,575	-12,754	263,486	122,258
19,590	-12,884	263,149	121,974
20,604	-12,535	262,838	122,133
21,619	-12,461	262,400	121,984
22,634	-12,760	262,116	121,574
23,648	-12,853	261,698	121,286
24,663	-12,719	261,625	121,361
25,677	-12,694	261,128	121,142
26,692	-12,584	261,067	121,202
27,707	-12,589	260,782	121,054
28,721	-12,858	260,513	120,679
29,736	-12,693	260,259	120,697
30,750	-12,797	259,900	120,427
31,765	-12,992	259,805	120,200
32,780	-12,695	259,471	120,297
33,794	-12,946	259,309	119,989
34,809	-12,909	259,062	119,897
35,823	-12,758	258,706	119,855
36,838	-12,651	258,301	119,751
37,853	-12,894	258,073	119,420
38,867	-12,674	258,012	119,575
39,882	-13,010	257,888	119,212
40,896	-12,839	257,482	119,163
41,911	-12,779	257,186	119,068
42,926	-12,947	257,145	118,892
43,940	-12,989	256,769	118,671
44,955	-12,835	256,526	118,683
45,969	-12,958	256,250	118,436
46,984	-13,065	256,095	118,261
47,999	-13,172	255,904	118,069
49,013	-13,405	255,681	117,753
50,028	-13,624	255,337	117,393
51,042	-13,402	255,129	117,480
52,057	-13,466	254,881	117,299
53,071	-13,275	254,464	117,262
54,086	-13,380	254,507	117,181
55,101	-13,426	254,474	117,116
56,115	-13,143	254,177	117,213
57,130	-12,570	254,015	117,624
58,144	-12,779	253,996	117,424
59,159	-12,663	253,688	117,371
60,174	-12,508	253,354	117,340
61,188	-12,688	253,283	117,141
62,203	-12,675	253,065	117,041
63,217	-12,859	252,863	116,779
64,232	-12,754	252,585	116,730
65,247	-12,859	252,369	116,531
66,261	-12,797	252,181	116,486
67,276	-12,853	251,860	116,280
68,290	-13,035	251,588	115,987
69,305	-13,174	251,333	115,742
70,320	-13,278	251,188	115,575
71,334	-12,973	251,079	115,776
72,349	-12,663	250,891	115,943
73,363	-12,531	250,721	115,966
74,378	-12,527	250,374	115,799
75,393	-12,747	250,359	115,594
76,407	-12,829	250,009	115,352
77,422	-12,825	249,813	115,255
78,436	-12,640	249,635	115,320
79,451	-12,564	249,429	115,279
80,466	-12,872	249,155	114,881
81,480	-12,733	249,013	114,923
82,495	-12,857	248,649	114,640
83,509	-12,918	248,736	114,619
84,524	-12,881	248,349	114,461
85,539	-13,176	248,176	114,123
86,553	-13,092	247,953	114,081
87,568	-12,891	247,825	114,181
88,582	-12,880	247,723	114,133
89,597	-13,068	247,558	113,889
90,611	-13,130	247,404	113,755
91,626	-12,719	247,065	113,934
92,641	-12,805	246,936	113,792
93,655	-12,631	246,715	113,826
94,670	-12,741	246,635	113,687
95,684	-12,833	246,248	113,422
96,699	-12,997	246,059	113,188
97,714	-12,992	245,899	113,108
98,728	-13,137	245,736	112,902
99,743	-13,096	245,384	112,764
100,757	-13,098	245,195	112,666
101,772	-13,078	245,172	112,662
102,787	-12,811	244,911	112,754
103,801	-13,005	244,873	112,565
104,816	-13,013	244,538	112,395
105,830	-12,743	244,567	112,621
106,845	-12,525	244,266	112,653
107,860	-12,663	244,082	112,444
108,874	-12,881	243,737	112,095
109,889	-12,890	243,654	112,039
110,903	-12,883	243,507	111,968
111,918	-12,774	243,170	111,893
112,933	-12,828	243,136	111,823
113,947	-12,746	242,965	111,801
114,962	-12,747	242,693	111,665
115,976	-12,925	242,675	111,501
116,991	-12,806	242,335	111,432
118,006	-12,819	242,162	111,332
119,020	-12,693	242,075	111,386
120,035	-13,021	242,086	111,112
121,049	-12,823	241,908	111,182
122,064	-12,718	241,740	111,182
123,079	-12,747	241,346	110,967
124,093	-12,899	241,148	110,741
125,108	-12,900	240,901	110,617
126,122	-13,117	240,594	110,290
127,137	-13,053	240,490	110,284
128,151	-13,145	240,496	110,202
129,166	-13,016	240,172	110,148
130,181	-13,142	239,948	109,934
131,195	-13,211	239,791	109,797
132,210	-12,808	239,611	110,030
133,224	-12,835	239,613	110,001
134,239	-12,701	239,292	109,951
135,254	-12,722	239,281	109,920
136,268	-13,049	239,012	109,522
137,283	-13,157	238,653	109,260
138,297	-13,220	238,441	109,103
139,312	-13,424	238,311	108,869
140,327	-13,102	238,403	109,161
141,341	-12,547	238,180	109,496
142,356	-12,631	238,102	109,383
143,370	-12,588	237,947	109,336
144,385	-12,452	237,690	109,318
145,400	-12,648	237,418	109,025
146,414	-12,562	237,319	109,040
147,429	-12,702	237,121	108,827
148,443	-12,425	236,842	108,911
149,458	-12,767	236,855	108,633
150,473	-12,714	236,600	108,549
151,487	-12,661	236,342	108,463
152,502	-12,696	236,210	108,365
153,516	-12,645	236,111	108,351
154,531	-12,635	235,939	108,269
155,546	-12,624	235,630	108,127
156,560	-12,852	235,588	107,917
157,575	-12,928	235,397	107,760
158,589	-12,649	235,213	107,887
159,604	-12,489	235,087	107,947
160,619	-12,369	234,944	107,966
161,633	-12,262	234,662	107,912
162,648	-12,533	234,656	107,685
163,662	-12,696	234,415	107,436
164,677	-12,770	234,238	107,287
165,692	-12,656	234,075	107,293
166,706	-12,591	233,994	107,297
167,721	-12,421	233,818	107,341
168,735	-12,528	233,678	107,183
169,750	-12,723	233,602	106,985
170,764	-12,572	233,384	106,994
171,779	-12,533	233,231	106,945
172,794	-12,493	233,146	106,928
173,808	-12,688	232,811	106,612
174,823	-13,065	232,504	106,167
175,837	-13,095	232,477	106,121
176,852	-12,852	232,449	106,290
177,867	-12,518	232,233	106,442
178,881	-12,633	232,031	106,250
179,896	-12,598	232,119	106,308
180,910	-12,667	231,720	106,063
181,925	-12,618	231,653	106,061
182,940	-12,297	231,483	106,224
183,954	-12,438	231,309	106,024
184,969	-12,376	231,137	105,984
185,983	-12,325	231,175	106,032
186,998	-12,310	230,932	105,923
188,013	-12,316	230,612	105,762
189,027	-12,538	230,534	105,545
190,042	-12,327	230,395	105,635
191,056	-12,403	230,299	105,523
192,071	-12,523	230,048	105,306
193,086	-12,675	230,010	105,161
194,100	-12,246	229,906	105,436
195,115	-12,839	229,441	104,756
196,129	-12,762	229,381	104,778
197,144	-7,265	231,230	109,883
198,159	-1,781	232,836	114,915
199,173	1,590	233,632	117,930
200,188	2,234	233,791	118,501
201,202	1,971	233,720	118,250
202,217	2,090	233,360	118,150
203,232	2,354	233,310	118,319
204,246	2,252	233,209	118,178
205,261	2,424	233,122	118,258
206,275	2,483	232,957	118,209
207,290	2,609	232,759	118,196
208,304	2,669	232,611	118,157
209,319	2,446	232,563	117,949
210,334	2,455	232,261	117,792
211,348	2,280	232,066	117,547
212,363	2,004	231,902	117,240
213,377	1,834	231,512	116,902
214,392	1,882	231,452	116,898
215,407	1,985	231,406	116,944
216,421	1,972	231,294	116,867
217,436	1,910	231,052	116,687
218,450	1,697	230,774	116,372
219,465	1,621	230,655	116,243
220,480	1,803	230,629	116,359
221,494	1,788	230,481	116,263
222,509	1,973	230,470	116,389
223,523	1,982	230,210	116,254
224,538	2,128	229,888	116,193
225,553	1,766	229,969	115,946
226,567	1,807	229,605	115,784
227,582	2,293	229,681	116,184
228,596	2,401	229,551	116,189
229,611	1,998	229,309	115,750
230,626	1,630	229,064	115,335
231,640	1,866	228,873	115,408
232,655	2,122	228,824	115,568
233,669	2,297	228,736	115,646
234,684	2,627	228,520	115,778
235,699	2,246	228,431	115,433
236,713	1,940	228,354	115,151
237,728	1,984	228,081	115,037
238,742	1,788	227,894	114,783
239,757	1,810	227,703	114,694
240,772	1,824	227,588	114,636
241,786	1,915	227,312	114,556
242,801	2,100	227,450	114,755
243,815	2,452	227,331	114,951
244,830	2,317	227,174	114,759
245,844	2,182	226,875	114,496
246,859	1,814	226,594	114,067
247,874	2,208	226,648	114,381
248,888	2,321	226,441	114,351
249,903	2,322	226,189	114,214
250,917	2,055	226,161	113,990
251,932	1,788	226,191	113,793
252,947	1,599	225,810	113,450
253,961	1,499	225,607	113,263
254,976	1,636	225,601	113,353
255,990	2,165	225,547	113,712
257,005	2,112	225,284	113,530
258,020	2,095	225,204	113,466
259,034	1,974	225,021	113,273
260,049	2,164	224,887	113,337
261,063	2,152	224,730	113,240
262,078	2,384	224,688	113,381
263,093	2,442	224,531	113,335
264,107	2,194	224,289	113,018
265,122	2,239	224,128	112,961
266,136	2,283	224,257	113,048
267,151	2,374	224,029	112,991
268,166	2,181	223,671	112,656
269,180	1,739	223,466	112,216
270,195	1,847	223,271	112,188
271,209	1,846	223,224	112,154
272,224	2,077	223,215	112,310
273,239	2,121	222,830	112,139
274,253	1,888	222,720	111,902
275,268	1,788	222,439	111,677
276,282	1,710	222,389	111,584
277,297	1,723	222,333	111,556
278,312	1,804	222,244	111,561
279,326	1,889	222,070	111,525
280,341	2,131	221,999	111,658
281,355	2,127	221,827	111,559
282,370	2,248	221,647	111,547
283,384	2,028	221,396	111,250
284,399	1,883	221,255	111,063
285,414	1,774	221,085	110,888
286,428	2,174	221,064	111,160
287,443	2,192	221,095	111,179
288,457	2,272	220,912	111,135
289,472	1,965	220,621	110,755
290,487	1,445	220,546	110,328
291,501	1,585	220,262	110,278
292,516	1,318	220,284	110,084
293,530	1,524	220,028	110,096
294,545	1,794	219,718	110,128
295,560	1,845	219,870	110,232
296,574	1,847	219,662	110,119
297,589	2,098	219,461	110,191
298,603	1,933	219,398	110,029
299,618	1,794	219,286	109,862
300,633	2,262	219,271	110,185
301,647	2,440	219,107	110,221
302,662	2,238	218,921	109,972
303,676	2,110	218,856	109,836
304,691	2,201	218,671	109,800
305,706	2,215	218,478	109,703
306,720	2,289	218,446	109,731
307,735	2,013	218,159	109,378
308,749	2,074	218,065	109,365
309,764	2,052	217,853	109,233
310,779	2,388	217,741	109,409
311,793	2,137	217,622	109,158
312,808	2,117	217,501	109,073
313,822	1,901	217,292	108,804
314,837	1,933	217,102	108,722
315,852	1,795	217,022	108,574
316,866	2,127	217,000	108,791
317,881	2,223	216,828	108,764
318,895	2,073	216,682	108,574
319,910	1,982	216,456	108,386
320,925	1,641	216,237	108,023
321,939	1,453	216,074	107,797
322,954	1,510	216,014	107,799
323,968	1,817	216,017	108,010
324,983	2,098	215,835	108,109
325,997	2,258	215,706	108,148
327,012	2,126	215,430	107,907
328,027	2,120	215,310	107,833
329,041	2,321	215,460	108,041
330,056	2,594	215,225	108,108
331,070	2,128	215,083	107,696
332,085	1,865	214,723	107,320
333,100	2,227	214,647	107,528
334,114	2,064	214,609	107,385
335,129	1,992	214,403	107,222
336,143	1,991	214,289	107,153
337,158	1,817	214,185	106,969
338,173	2,169	213,858	107,045
339,187	1,883	213,943	106,876
340,202	1,868	213,564	106,667
341,216	1,454	213,393	106,280
342,231	1,640	213,428	106,419
343,246	2,041	213,412	106,684
344,260	2,321	213,231	106,781
345,275	2,231	213,171	106,678
346,289	2,452	213,079	106,777
347,304	2,173	212,858	106,462
348,319	2,216	212,619	106,363
349,333	2,255	212,474	106,308
350,348	2,174	212,276	106,143
351,362	2,344	212,320	106,274
352,377	2,282	212,159	106,140
353,392	2,180	212,033	105,997
354,406	2,213	212,018	106,003
355,421	197,051	1316,231	1394,690
356,435	157,600	1450,724	1394,643
