DTS Sentinel unit serial number:	SN410029Multiplexer serial number:	ORYXHardware model number:	OX2-SRSoftware version number:	ORYX F/W v4,00 Oryx Data Collector v3.7.2.0data status	okinstallation	B6 Nyhavnadifferential loss correction	single-endedforward channel	channel 2reverse channel	N/Adate	2023/12/08time	20:00:08forward acquisition time	300,00reverse acquisition time	0,00gamma	499,1914k internal	0,3158k external	0,3158temperature offset calibration	1,0000default loss term (dB/km)	0,3820temperature slope calibration	1,0000multiplexer offset coefficient	1,0000multiplexer slope coefficient	1,0000fibre end	0,00T internal ref (°C)	15,20T ext. ref 1 (°C)	-1,43T ext. ref 2 (°C)	-1,42length (m)	temperature (°C)	Stokes	anti-Stokes-744,400	-44,507	0,027	-0,010
-743,385	-128,588	-0,296	0,031
-742,371	-38,217	0,060	0,023
-741,356	97,787	-0,293	0,248
-740,342	-82,236	0,082	0,019
-739,327	-80,838	-0,251	0,061
-738,312	-99,475	0,135	0,025
-737,298	-125,177	-0,411	0,046
-736,283	185,833	0,167	0,183
-735,269	-147,629	-0,405	0,025
-734,254	-94,890	0,098	-0,019
-733,239	-19,894	-0,419	-0,190
-732,225	-147,659	0,131	0,008
-731,210	1,166	0,119	0,063
-730,196	800,000	-0,041	0,090
-729,181	180,536	-0,058	0,063
-728,167	-70,591	-0,022	0,006
-727,152	-3,441	0,088	-0,045
-726,137	-200,000	-0,025	0,110
-725,123	597,561	-0,083	-0,152
-724,108	56,725	0,008	0,006
-723,094	-101,315	-0,196	-0,035
-722,079	-118,726	-0,100	0,013
-721,064	-42,059	0,098	-0,037
-720,050	800,000	0,042	-0,125
-719,035	62,435	-0,098	-0,072
-718,021	-113,796	-0,033	0,005
-717,006	-125,755	-0,092	0,010
-715,991	-6,799	-0,034	-0,017
-714,977	511,506	-0,003	0,006
-713,962	-157,595	-0,103	-0,004
-712,948	-68,806	0,135	0,038
-711,933	19,133	-0,100	0,059
-710,918	449,202	-0,017	-0,028
-709,904	-129,822	0,002	0,000
-708,889	103,808	-0,099	-0,086
-707,875	800,000	0,011	0,033
-706,860	-34,713	0,090	0,036
-705,845	106,065	-0,086	-0,075
-704,831	-90,789	0,024	0,005
-703,816	412,274	-0,041	-0,064
-702,802	-200,000	-0,008	0,044
-701,787	-180,507	-0,123	0,002
-700,772	-200,000	-0,017	-0,079
-699,758	311,202	0,062	-0,086
-698,743	-191,675	0,038	0,000
-697,729	-108,334	0,133	0,021
-696,714	-200,000	0,014	0,069
-695,699	-200,000	0,000	0,006
-694,685	221,300	-0,044	0,052
-693,670	-200,000	-0,006	-0,054
-692,656	-148,922	0,121	0,007
-691,641	-200,000	-0,008	0,096
-690,627	16,913	0,085	0,050
-689,612	342,060	0,030	0,044
-688,597	61,298	0,013	0,010
-687,583	-200,000	-0,006	0,027
-686,568	800,000	0,072	-0,205
-685,554	5,166	-0,120	-0,065
-684,539	800,000	0,022	-0,062
-683,524	13,771	0,044	0,025
-682,510	-118,911	0,056	0,007
-681,495	183,274	-0,037	-0,041
-680,481	84,627	-0,043	-0,035
-679,466	12,397	-0,076	-0,043
-678,451	-68,978	-0,154	0,043
-677,437	191,346	-0,036	0,040
-676,422	-151,163	0,017	-0,001
-675,408	235,732	-0,037	-0,046
-674,393	-197,400	-0,279	-0,001
-673,378	-181,930	-0,150	0,002
-672,364	145,746	0,011	0,011
-671,349	116,804	-0,151	-0,137
-670,335	-35,963	0,041	-0,016
-669,320	-109,923	-0,111	-0,017
-668,305	-38,053	0,078	0,030
-667,291	-200,000	0,017	0,061
-666,276	-200,000	0,019	0,073
-665,262	800,000	-0,073	-0,176
-664,247	800,000	-0,016	-0,049
-663,232	755,995	-0,071	-0,141
-662,218	800,000	0,064	-0,190
-661,203	-36,080	-0,110	0,043
-660,189	20,875	-0,079	-0,047
-659,174	117,072	-0,061	0,055
-658,159	-200,000	0,004	0,013
-657,145	3,190	-0,114	-0,061
-656,130	-200,000	-0,001	-0,166
-655,116	-200,000	0,024	-0,160
-654,101	-28,148	0,160	-0,068
-653,086	25,428	-0,231	0,141
-652,072	-142,166	0,142	-0,010
-651,057	-72,943	-0,193	-0,052
-650,043	800,000	-0,047	-0,103
-649,028	92,262	-0,057	0,048
-648,014	800,000	-0,011	-0,023
-646,999	800,000	-0,022	0,051
-645,984	322,675	0,022	-0,030
-644,970	528,748	-0,040	-0,070
-643,955	-200,000	0,038	-0,171
-642,941	336,481	-0,055	-0,079
-641,926	800,000	-0,029	0,066
-640,911	326,952	0,055	-0,077
-639,897	-48,351	0,175	0,062
-638,882	84,165	-0,100	-0,080
-637,868	279,422	0,053	-0,070
-636,853	73,693	-0,090	-0,069
-635,838	-200,000	-0,024	-0,098
-634,824	51,467	0,035	-0,024
-633,809	-68,685	0,117	-0,033
-632,795	-200,000	-0,007	0,144
-631,780	-73,243	0,045	-0,012
-630,765	800,000	0,023	-0,059
-629,751	-45,199	-0,052	-0,019
-628,736	53,298	-0,174	-0,122
-627,722	-5,231	-0,056	-0,028
-626,707	-200,000	0,007	-0,055
-625,692	233,936	0,054	-0,066
-624,678	132,875	-0,014	-0,013
-623,663	35,955	-0,092	0,059
-622,649	-109,376	-0,031	0,005
-621,634	-49,690	0,036	0,012
-620,619	-42,625	0,088	-0,033
-619,605	69,260	0,043	-0,032
-618,590	-44,929	-0,095	-0,034
-617,576	24,878	0,104	0,063
-616,561	44,949	-0,062	0,042
-615,546	135,457	-0,137	-0,131
-614,532	379,973	-0,072	-0,109
-613,517	-94,181	-0,085	0,017
-612,503	41,994	0,102	-0,068
-611,488	-55,618	0,028	0,009
-610,474	91,579	-0,178	0,147
-609,459	749,204	-0,040	0,079
-608,444	24,006	-0,116	-0,070
-607,430	485,174	0,010	0,018
-606,415	-51,971	-0,048	-0,016
-605,401	-77,506	0,134	0,034
-604,386	207,226	0,088	-0,101
-603,371	108,177	-0,052	-0,046
-602,357	-200,000	0,024	0,101
-601,342	-104,020	-0,135	0,023
-600,328	71,202	0,074	-0,056
-599,313	-200,000	0,006	-0,096
-598,298	443,283	-0,063	-0,101
-597,284	800,000	0,050	-0,157
-596,269	42,248	-0,044	-0,029
-595,255	-59,285	-0,189	-0,059
-594,240	-55,610	0,068	0,022
-593,225	283,496	-0,045	-0,060
-592,211	800,000	0,013	0,043
-591,196	-200,000	-0,018	-0,133
-590,182	184,167	0,108	0,118
-589,167	2,421	0,167	0,088
-588,152	671,147	0,054	0,103
-587,138	73,024	-0,044	0,034
-586,123	-70,478	-0,231	0,064
-585,109	42,728	0,027	0,018
-584,094	-200,000	-0,013	0,187
-583,079	734,894	0,058	0,115
-582,065	-200,000	0,007	0,206
-581,050	-200,000	-0,006	0,051
-580,036	-196,399	0,021	0,000
-579,021	274,980	0,085	-0,110
-578,006	162,669	-0,046	0,047
-576,992	129,159	-0,073	-0,068
-575,977	-200,000	0,003	-0,079
-574,963	66,963	0,085	0,063
-573,948	119,112	-0,064	-0,058
-572,934	371,097	0,026	0,039
-571,919	-28,685	-0,089	-0,037
-570,904	123,251	0,054	-0,050
-569,890	800,000	-0,037	-0,082
-568,875	-25,840	0,028	-0,012
-567,861	608,959	0,010	0,018
-566,846	-200,000	0,029	0,112
-565,831	-78,582	0,036	-0,009
-564,817	0,238	-0,049	-0,026
-563,802	-27,516	-0,113	-0,048
-562,788	156,247	-0,065	-0,065
-561,773	-128,298	0,158	0,016
-560,758	100,527	0,148	0,126
-559,744	-5,926	-0,051	0,026
-558,729	240,039	0,054	0,066
-557,715	-200,000	0,003	0,166
-556,700	178,812	-0,030	-0,032
-555,685	196,709	0,043	-0,048
-554,671	-200,000	-0,008	0,153
-553,656	-200,000	0,009	0,055
-552,642	53,973	-0,120	0,084
-551,627	790,274	-0,056	-0,113
-550,612	-200,000	0,026	-0,097
-549,598	-200,000	0,006	-0,083
-548,583	-134,507	0,035	0,003
-547,569	81,701	0,076	-0,060
-546,554	65,916	-0,067	0,050
-545,539	328,158	0,098	0,138
-544,525	14,302	0,019	-0,011
-543,510	258,165	-0,090	0,114
-542,496	149,805	-0,050	-0,049
-541,481	20,967	-0,069	-0,041
-540,466	-200,000	-0,012	-0,112
-539,452	337,977	0,058	-0,083
-538,437	145,952	0,124	-0,122
-537,423	800,000	0,047	0,104
-536,408	-141,587	-0,032	-0,002
-535,393	-149,595	-0,120	0,007
-534,379	-200,000	-0,005	-0,125
-533,364	800,000	0,045	0,137
-532,350	-159,898	0,150	-0,006
-531,335	67,098	0,090	-0,067
-530,321	800,000	-0,012	0,034
-529,306	-200,000	0,000	-0,045
-528,291	-200,000	0,006	-0,063
-527,277	19,484	-0,065	0,038
-526,262	105,611	0,034	-0,029
-525,248	370,453	0,053	-0,079
-524,233	-92,423	-0,081	-0,017
-523,218	-200,000	-0,016	0,131
-522,204	0,890	-0,125	-0,065
-521,189	-200,000	-0,012	0,086
-520,175	800,000	0,053	-0,121
-519,160	800,000	-0,057	0,161
-518,145	504,635	-0,103	0,176
-517,131	630,406	0,038	0,071
-516,116	800,000	-0,034	0,089
-515,102	32,251	-0,047	0,029
-514,087	-20,351	0,024	0,011
-513,072	75,735	0,099	0,077
-512,058	-134,268	-0,042	0,004
-511,043	29,771	0,074	0,046
-510,029	800,000	0,037	-0,092
-509,014	-200,000	-0,016	-0,055
-507,999	-200,000	0,008	0,135
-506,985	57,228	-0,025	-0,018
-505,970	-65,354	-0,031	-0,009
-504,956	-200,000	0,029	-0,104
-503,941	50,607	0,041	0,028
-502,926	103,900	0,077	0,066
-501,912	-117,670	0,230	0,030
-500,897	-53,144	-0,017	0,006
-499,883	-200,000	0,024	-0,108
-498,868	771,170	-0,045	-0,090
-497,853	182,220	0,037	-0,040
-496,839	-6,652	0,040	0,020
-495,824	-200,000	-0,020	0,067
-494,810	-23,195	-0,100	0,044
-493,795	27,456	-0,018	-0,011
-492,781	-92,652	-0,172	0,035
-491,766	187,997	-0,111	-0,121
-490,751	220,384	-0,059	-0,069
-489,737	14,205	0,079	-0,045
-488,722	471,803	0,062	-0,102
-487,708	-200,000	0,002	0,109
-486,693	800,000	0,008	0,018
-485,678	392,230	0,069	0,106
-484,664	290,149	0,091	0,120
-483,649	-119,680	0,070	0,009
-482,635	-22,839	0,044	-0,019
-481,620	244,552	0,039	0,047
-480,605	152,826	0,071	-0,071
-479,591	-200,000	0,012	0,041
-478,576	-156,407	0,063	-0,003
-477,562	-59,506	-0,113	-0,035
-476,547	-32,781	-0,057	-0,023
-475,532	-71,923	0,010	-0,003
-474,518	800,000	-0,027	0,079
-473,503	6,509	-0,131	-0,071
-472,489	-200,000	0,009	0,071
-471,474	311,871	0,029	0,040
-470,459	333,431	-0,101	-0,144
-469,445	-200,000	0,018	-0,147
-468,430	321,841	-0,075	-0,104
-467,416	800,000	-0,029	0,062
-466,401	252,309	0,122	0,152
-465,386	-200,000	0,023	0,076
-464,372	-9,831	-0,104	-0,050
-463,357	-200,000	0,010	0,034
-462,343	-158,563	0,126	-0,005
-461,328	158,025	-0,050	0,051
-460,313	-182,612	-0,066	0,001
-459,299	81,624	0,093	-0,073
-458,284	35,013	-0,048	-0,030
-457,270	-200,000	0,005	0,033
-456,255	5,308	0,064	-0,034
-455,241	100,951	-0,119	-0,101
-454,226	294,759	-0,051	-0,068
-453,211	470,116	0,045	0,075
-452,197	-2,566	0,066	0,033
-451,182	-200,000	0,020	-0,125
-450,168	24,679	0,035	-0,021
-449,153	-200,000	0,017	-0,079
-448,138	-200,000	0,013	-0,062
-447,124	171,759	0,092	-0,096
-446,109	554,110	-0,015	-0,026
-445,095	-17,897	0,046	-0,021
-444,080	-200,000	-0,003	-0,047
-443,065	-58,945	-0,042	0,013
-442,051	-52,652	0,084	0,028
-441,036	-63,055	0,059	0,018
-440,022	-171,526	-0,068	0,002
-439,007	12,759	-0,144	-0,081
-437,992	-62,663	0,141	-0,042
-436,978	800,000	-0,053	0,141
-435,963	-200,000	-0,012	-0,047
-434,949	219,310	-0,052	0,061
-433,934	-128,855	0,105	0,011
-432,919	388,767	0,043	-0,065
-431,905	72,623	0,106	0,080
-430,890	460,345	0,054	0,087
-429,876	-144,719	0,155	0,010
-428,861	217,145	0,034	-0,039
-427,846	-57,647	-0,128	-0,041
-426,832	582,070	-0,024	0,044
-425,817	20,827	-0,040	0,024
-424,803	-200,000	-0,023	0,136
-423,788	144,045	-0,030	0,029
-422,773	-200,000	-0,008	-0,043
-421,759	30,196	-0,086	0,053
-420,744	62,717	-0,115	0,084
-419,730	80,468	-0,082	-0,064
-418,715	-200,000	-0,010	-0,066
-417,701	-100,114	0,090	-0,016
-416,686	-11,666	0,030	0,014
-415,671	-200,000	-0,010	0,067
-414,657	597,655	-0,022	-0,040
-413,642	-200,000	-0,017	0,089
-412,628	-112,699	0,026	0,004
-411,613	800,000	0,036	0,103
-410,598	-88,294	-0,078	-0,017
-409,584	423,793	0,046	-0,072
-408,569	800,000	-0,055	0,169
-407,555	90,023	0,073	-0,060
-406,540	-87,911	0,167	-0,036
-405,525	800,000	-0,025	0,053
-404,511	-56,920	-0,025	-0,008
-403,496	39,248	0,074	-0,048
-402,482	-200,000	-0,009	-0,129
-401,467	14,275	0,142	-0,080
-400,452	-200,000	-0,007	-0,049
-399,438	742,507	0,036	0,070
-398,423	55,526	-0,064	-0,045
-397,409	361,509	0,027	-0,040
-396,394	-200,000	-0,034	-0,131
-395,379	9,353	-0,033	-0,018
-394,365	113,908	0,020	-0,018
-393,350	200,655	-0,073	0,082
-392,336	-200,000	0,013	0,060
-391,321	-148,974	0,043	-0,002
-390,306	-39,478	-0,025	-0,010
-389,292	-200,000	-0,034	-0,210
-388,277	-200,000	0,006	-0,066
-387,263	-200,000	-0,016	0,167
-386,248	-200,000	-0,010	-0,073
-385,233	-78,222	-0,039	0,010
-384,219	-200,000	0,020	0,086
-383,204	-200,000	0,016	-0,186
-382,190	99,664	-0,067	-0,056
-381,175	-200,000	-0,006	-0,052
-380,160	-200,000	0,017	-0,078
-379,146	-200,000	-0,019	-0,107
-378,131	764,978	0,084	0,166
-377,117	-200,000	0,020	0,075
-376,102	-167,483	-0,184	0,005
-375,088	42,855	0,038	0,025
-374,073	-37,424	0,069	0,027
-373,058	-58,979	-0,039	-0,012
-372,044	146,869	0,084	0,082
-371,029	-82,113	0,094	0,022
-370,015	122,802	-0,034	-0,031
-369,000	-200,000	0,011	-0,090
-367,985	-200,000	-0,019	-0,073
-366,971	558,249	-0,047	0,082
-365,956	159,009	0,047	0,048
-364,942	-102,468	-0,140	0,024
-363,927	-200,000	0,002	0,085
-362,912	126,950	-0,015	-0,013
-361,898	-109,256	-0,053	-0,008
-360,883	-74,609	0,159	-0,041
-359,869	-124,607	0,037	-0,004
-358,854	-123,855	0,051	0,006
-357,839	800,000	0,043	0,125
-356,825	-8,779	-0,032	0,016
-355,810	155,508	0,103	0,103
-354,796	524,768	-0,111	0,190
-353,781	800,000	-0,071	-0,147
-352,766	-50,448	0,082	-0,028
-351,752	44,171	0,128	0,085
-350,737	800,000	-0,069	-0,157
-349,723	800,000	-0,039	0,096
-348,708	-200,000	-0,002	0,039
-347,693	-153,113	-0,098	0,005
-346,679	72,873	-0,077	-0,059
-345,664	800,000	-0,026	-0,053
-344,650	-151,714	-0,156	-0,008
-343,635	50,333	0,037	0,025
-342,620	-5,302	0,203	-0,101
-341,606	-200,000	-0,007	0,072
-340,591	167,523	-0,011	0,011
-339,577	800,000	0,038	-0,096
-338,562	-106,997	-0,099	-0,016
-337,548	248,324	0,061	0,075
-336,533	336,108	0,029	-0,041
-335,518	442,844	0,037	0,060
-334,504	464,522	-0,049	-0,080
-333,489	-200,000	-0,013	-0,094
-332,475	800,000	0,023	-0,060
-331,460	451,784	-0,053	-0,085
-330,445	55,823	-0,110	0,077
-329,431	569,475	0,050	0,089
-328,416	84,577	0,071	0,056
-327,402	-52,687	-0,040	0,013
-326,387	-59,883	0,135	-0,042
-325,372	62,465	0,108	0,078
-324,358	800,000	-0,045	0,114
-323,343	-142,107	-0,054	0,004
-322,329	-47,295	-0,029	-0,010
-321,314	-200,000	0,004	0,176
-320,299	347,213	0,048	0,068
-319,285	-74,122	0,021	-0,005
-318,270	139,562	-0,148	-0,142
-317,256	476,399	0,066	-0,109
-316,241	-35,728	-0,122	0,048
-315,226	-114,248	-0,088	0,012
-314,212	-111,462	0,190	-0,028
-313,197	-57,932	0,088	0,028
-312,183	88,127	-0,133	0,107
-311,168	800,000	-0,024	-0,064
-310,153	-200,000	0,027	0,130
-309,139	35,899	-0,025	-0,016
-308,124	-200,000	-0,025	0,145
-307,110	45,657	-0,081	0,054
-306,095	179,100	0,035	-0,037
-305,080	109,320	0,090	-0,078
-304,066	151,055	-0,069	-0,068
-303,051	609,525	0,019	0,034
-302,037	102,032	0,116	-0,098
-301,022	422,681	-0,054	-0,085
-300,008	-96,294	0,128	-0,024
-298,993	-89,703	0,090	0,019
-297,978	-200,000	0,006	-0,030
-296,964	800,000	-0,022	-0,068
-295,949	39,649	-0,046	-0,030
-294,935	800,000	-0,043	-0,122
-293,920	-71,259	0,086	-0,023
-292,905	-200,000	0,014	0,070
-291,891	398,643	0,041	0,062
-290,876	25,465	0,076	0,046
-289,862	800,000	-0,066	0,159
-288,847	147,313	-0,082	0,080
-287,832	143,887	-0,008	-0,008
-286,818	-41,427	-0,087	0,032
-285,803	-75,276	0,053	-0,014
-284,789	127,913	-0,013	-0,012
-283,774	38,629	-0,050	-0,032
-282,759	-200,000	0,011	0,092
-281,745	-200,000	0,025	-0,107
-280,730	-200,000	-0,003	-0,068
-279,716	-126,891	-0,134	-0,014
-278,701	-200,000	0,000	0,060
-277,686	207,574	0,038	0,043
-276,672	-24,269	-0,053	-0,023
-275,657	-56,561	0,083	-0,026
-274,643	-44,070	0,049	-0,018
-273,628	33,162	-0,048	-0,030
-272,613	-198,645	0,041	-0,000
-271,599	1,498	-0,176	0,091
-270,584	347,484	0,084	0,119
-269,570	23,431	0,110	0,066
-268,555	-195,129	-0,193	0,001
-267,540	800,000	-0,050	-0,109
-266,526	-200,000	-0,014	-0,074
-265,511	278,640	0,066	-0,085
-264,497	-110,680	-0,156	0,023
-263,482	-48,339	0,079	0,027
-262,467	98,443	0,118	0,099
-261,453	626,256	-0,022	-0,040
-260,438	-27,654	-0,115	0,048
-259,424	-200,000	-0,026	-0,135
-258,409	-59,820	0,116	-0,036
-257,395	800,000	-0,048	-0,151
-256,380	159,628	0,050	-0,050
-255,365	369,491	0,005	0,008
-254,351	17,122	0,074	-0,042
-253,336	266,425	-0,062	0,079
-252,322	370,906	-0,096	-0,141
-251,307	-200,000	-0,015	0,065
-250,292	502,970	0,067	0,113
-249,278	-200,000	0,131	0,000
-248,263	-139,368	0,124	-0,009
-247,249	800,000	-0,034	0,092
-246,234	337,171	-0,048	-0,067
-245,219	55,443	0,007	0,005
-244,205	-37,463	-0,108	-0,042
-243,190	-58,948	0,081	0,025
-242,176	603,946	-0,015	-0,028
-241,161	1,433	0,083	-0,043
-240,146	-74,753	0,059	0,015
-239,132	800,000	0,010	-0,029
-238,117	-200,000	0,004	-0,073
-237,103	-52,007	0,178	-0,059
-236,088	-131,489	-0,072	0,007
-235,073	-200,000	-0,037	-0,150
-234,059	800,000	0,029	-0,061
-233,044	-5,957	0,089	-0,044
-232,030	-200,000	0,021	0,093
-231,015	131,036	-0,038	-0,036
-230,000	-55,019	-0,098	0,032
-228,986	368,791	0,038	0,056
-227,971	181,148	-0,088	0,093
-226,957	63,429	-0,040	0,029
-225,942	10,568	0,131	-0,072
-224,927	190,666	-0,035	-0,038
-223,913	-200,000	-0,001	-0,006
-222,898	-95,560	-0,051	0,010
-221,884	-172,792	0,071	-0,002
-220,869	-141,619	-0,066	0,005
-219,855	68,690	0,107	-0,079
-218,840	14,386	-0,007	0,004
-217,825	11,924	-0,120	-0,066
-216,811	-135,394	-0,043	0,004
-215,796	-104,488	-0,118	-0,019
-214,782	105,406	0,045	-0,038
-213,767	734,371	-0,071	0,138
-212,752	-68,365	0,192	0,054
-211,738	328,197	-0,046	-0,064
-210,723	-76,131	0,075	0,019
-209,709	-72,244	0,131	-0,035
-208,694	-200,000	0,031	-0,133
-207,679	382,864	0,050	0,074
-206,665	-70,897	-0,079	0,021
-205,650	136,762	0,128	0,121
-204,636	-200,000	0,003	0,020
-203,621	-122,949	-0,101	0,012
-202,606	800,000	-0,024	-0,059
-201,592	40,195	0,056	-0,036
-200,577	51,497	-0,086	0,059
-199,563	178,389	-0,062	-0,065
-198,548	-200,000	0,003	0,088
-197,533	-200,000	0,003	0,095
-196,519	800,000	0,053	0,169
-195,504	4,734	0,093	0,049
-194,490	110,006	0,106	-0,091
-193,475	-105,097	0,087	-0,014
-192,460	800,000	0,034	-0,099
-191,446	-200,000	-0,018	-0,064
-190,431	-200,000	0,041	0,134
-189,417	-200,000	-0,012	0,070
-188,402	-52,525	0,061	-0,020
-187,387	-200,000	0,031	0,160
-186,373	800,000	-0,021	-0,043
-185,358	-38,655	-0,187	0,071
-184,344	76,940	-0,079	0,060
-183,329	203,727	0,012	0,014
-182,315	446,425	0,102	0,163
-181,300	712,538	-0,049	-0,094
-180,285	-157,447	0,056	-0,002
-179,271	3,020	-0,063	-0,033
-178,256	-36,227	-0,037	0,014
-177,242	-200,000	0,026	0,134
-176,227	61,079	-0,062	0,044
-175,212	-200,000	0,055	0,000
-174,198	166,077	0,018	0,018
-173,183	-34,340	-0,179	0,070
-172,169	-200,000	0,005	0,163
-171,154	197,337	-0,069	-0,077
-170,139	244,952	0,031	0,038
-169,125	80,059	0,030	0,023
-168,110	-111,644	0,027	-0,004
-167,096	-95,734	-0,047	0,009
-166,081	189,400	-0,088	-0,095
-165,066	778,223	-0,030	0,059
-164,052	490,152	-0,045	0,074
-163,037	-4,176	0,041	0,020
-162,023	135,859	0,020	0,019
-161,008	-200,000	0,011	-0,138
-159,993	-200,000	-0,007	-0,055
-158,979	295,629	-0,068	0,090
-157,964	35,104	-0,094	-0,060
-156,950	90,893	0,043	0,035
-155,935	800,000	0,025	0,071
-154,920	-200,000	0,030	-0,120
-153,906	-200,000	-0,007	-0,039
-152,891	24,882	-0,150	0,089
-151,877	273,196	-0,077	-0,098
-150,862	-200,000	0,016	-0,173
-149,847	-137,819	0,142	0,011
-148,833	-69,911	-0,041	0,011
-147,818	800,000	0,042	0,120
-146,804	-9,779	0,134	-0,064
-145,789	309,810	0,060	-0,081
-144,775	-166,491	-0,046	-0,001
-143,760	800,000	0,037	0,075
-142,745	636,848	0,093	-0,171
-141,731	236,701	-0,030	0,035
-140,716	79,180	-0,062	-0,047
-139,702	-143,605	0,101	0,007
-138,687	103,112	0,097	0,082
-137,672	-200,000	-0,008	-0,049
-136,658	-200,000	-0,017	0,064
-135,643	-112,192	-0,082	-0,012
-134,629	-200,000	0,019	-0,113
-133,614	293,437	0,061	0,080
-132,599	-200,000	-0,027	0,186
-131,585	178,715	-0,088	0,093
-130,570	-200,000	-0,015	-0,061
-129,556	233,544	-0,055	-0,065
-128,541	174,351	0,137	-0,142
-127,526	800,000	0,033	0,066
-126,512	-157,620	0,055	0,002
-125,497	325,330	-0,070	0,097
-124,483	-200,000	0,035	0,114
-123,468	234,811	0,069	-0,082
-122,453	-140,255	-0,024	0,002
-121,439	-8,017	-0,083	-0,040
-120,424	128,178	-0,051	-0,046
-119,410	800,000	-0,032	0,081
-118,395	33,781	0,021	-0,013
-117,380	16,908	0,095	0,054
-116,366	-99,654	-0,083	-0,015
-115,351	-162,484	0,025	-0,001
-114,337	665,797	-0,049	-0,092
-113,322	543,024	0,029	-0,049
-112,307	-114,564	0,135	0,018
-111,293	-120,758	0,092	0,011
-110,278	-100,409	-0,133	0,023
-109,264	800,000	-0,031	-0,066
-108,249	138,017	-0,151	-0,142
-107,234	157,885	-0,071	0,071
-106,220	800,000	-0,075	-0,164
-105,205	-119,318	0,071	-0,009
-104,191	-200,000	0,023	-0,148
-103,176	-94,698	0,137	0,026
-102,162	-185,505	0,116	0,001
-101,147	-200,000	-0,033	-0,155
-100,132	44,964	0,071	0,047
-99,118	-200,000	0,003	-0,211
-98,103	-55,121	-0,026	0,008
-97,089	-122,201	0,115	-0,013
-96,074	800,000	0,056	0,143
-95,059	-7,739	0,058	0,028
-94,045	73,543	-0,049	0,037
-93,030	519,222	-0,062	-0,105
-92,016	-74,722	-0,067	0,017
-91,001	122,880	-0,056	-0,050
-89,986	-14,277	0,040	-0,019
-88,972	-200,000	0,012	0,152
-87,957	-200,000	0,027	0,107
-86,943	-200,000	0,000	0,002
-85,928	800,000	-0,032	0,083
-84,913	223,646	0,047	-0,055
-83,899	181,738	0,093	-0,098
-82,884	50,672	0,021	0,014
-81,870	706,103	-0,011	0,021
-80,855	38,529	0,090	-0,058
-79,840	-200,000	0,027	-0,137
-78,826	-81,023	-0,108	0,025
-77,811	125,147	-0,090	-0,081
-76,797	-102,539	0,065	0,011
-75,782	800,000	-0,029	-0,080
-74,767	345,155	0,059	-0,083
-73,753	123,997	0,046	0,041
-72,738	224,587	-0,099	0,116
-71,724	179,173	-0,126	-0,133
-70,709	-99,579	-0,070	0,013
-69,694	40,321	-0,034	-0,022
-68,680	-102,173	-0,040	0,007
-67,665	-187,515	0,145	0,001
-66,651	-200,000	-0,003	0,054
-65,636	30,745	0,136	-0,083
-64,622	196,083	-0,126	-0,137
-63,607	55,463	-0,060	0,042
-62,592	800,000	-0,005	-0,011
-61,578	-90,786	0,156	0,032
-60,563	-200,000	0,003	-0,042
-59,549	385,276	-0,033	-0,049
-58,534	38,169	-1,980	-1,263
-57,519	-200,000	-0,153	-0,859
-56,505	-200,000	-1,303	-5,030
-55,490	23,330	0,811	0,477
-54,476	800,000	5,377	11,945
-53,461	-200,000	17,948	290,616
-52,446	800,000	727,032	2230,604
-51,432	536,197	1639,698	2803,732
-50,417	109,540	1629,433	1400,723
-49,403	73,125	1283,447	961,835
-48,388	31,514	1026,158	631,554
-47,373	19,901	988,112	569,884
-46,359	18,263	976,311	557,691
-45,344	15,494	972,452	546,408
-44,330	15,777	970,846	546,410
-43,315	15,323	969,138	543,947
-42,300	15,252	967,899	542,996
-41,286	15,205	967,131	542,393
-40,271	15,234	965,829	541,736
-39,257	15,280	965,013	541,405
-38,242	15,258	964,303	540,913
-37,227	15,231	963,509	540,358
-36,213	15,231	962,724	539,897
-35,198	15,259	961,493	539,278
-34,184	15,242	961,051	538,954
-33,169	15,181	960,114	538,207
-32,154	15,237	959,161	537,834
-31,140	15,253	958,435	537,456
-30,125	15,240	957,486	536,861
-29,111	15,297	956,563	536,507
-28,096	15,285	956,062	536,164
-27,082	15,268	955,387	535,712
-26,067	15,235	954,614	535,152
-25,052	15,227	953,863	534,684
-24,038	15,241	953,115	534,286
-23,023	15,199	952,508	533,790
-22,009	15,283	951,722	533,596
-20,994	15,192	951,174	532,977
-19,979	15,228	950,814	532,872
-18,965	15,290	949,933	532,555
-17,950	15,235	949,618	532,180
-16,936	15,249	948,752	531,717
-15,921	15,201	948,027	531,139
-14,906	15,019	947,654	530,328
-13,892	15,063	946,772	529,953
-12,877	15,108	946,017	529,655
-11,863	15,085	945,501	529,270
-10,848	15,152	945,150	529,266
-9,833	15,209	944,388	528,999
-8,819	15,166	943,976	528,610
-7,804	15,108	943,318	528,038
-6,790	15,141	942,823	527,843
-5,775	15,160	942,252	527,562
-4,760	15,165	941,375	527,067
-3,746	15,151	941,041	526,815
-2,731	15,017	940,197	525,899
-1,717	14,965	939,438	525,288
-0,702	14,923	938,941	524,856
0,313	14,808	938,123	524,830
1,327	18,215	936,108	534,377
2,342	27,311	789,924	474,892
3,356	23,800	444,767	262,164
4,371	-5,625	295,448	144,738
5,386	-9,774	277,252	131,877
6,400	-10,960	271,413	127,987
7,415	-11,115	269,128	126,754
8,429	-10,920	267,741	126,269
9,444	-11,126	266,928	125,686
10,459	-11,193	266,338	125,336
11,473	-11,233	265,831	125,050
12,488	-11,242	265,133	124,703
13,502	-11,361	264,452	124,264
14,517	-11,458	264,165	124,029
15,531	-11,407	263,858	123,920
16,546	-11,193	263,346	123,861
17,561	-11,220	263,141	123,730
18,575	-11,111	262,737	123,627
19,590	-11,350	262,330	123,210
20,604	-11,175	262,066	123,232
21,619	-11,210	261,709	123,021
22,634	-11,227	261,415	122,857
23,648	-11,125	261,002	122,743
24,663	-11,378	260,741	122,384
25,677	-11,153	260,523	122,471
26,692	-11,387	260,228	122,113
27,707	-11,133	260,066	122,252
28,721	-11,232	259,687	121,975
29,736	-11,262	259,401	121,804
30,750	-11,186	259,049	121,695
31,765	-11,377	259,032	121,507
32,780	-11,482	258,776	121,283
33,794	-11,417	258,555	121,226
34,809	-11,438	258,311	121,082
35,823	-11,443	258,010	120,926
36,838	-11,519	257,772	120,737
37,853	-11,519	257,493	120,596
38,867	-11,385	257,292	120,608
39,882	-11,238	257,098	120,635
40,896	-11,376	256,922	120,421
41,911	-11,458	256,716	120,242
42,926	-11,482	256,496	120,108
43,940	-11,498	256,143	119,917
44,955	-11,630	255,970	119,710
45,969	-11,500	255,684	119,679
46,984	-11,715	255,326	119,313
47,999	-12,159	255,226	118,870
49,013	-12,088	254,872	118,756
50,028	-12,181	254,619	118,547
51,042	-12,330	254,458	118,331
52,057	-12,371	254,132	118,134
53,071	-12,310	253,960	118,096
54,086	-12,221	253,884	118,128
55,101	-12,180	253,733	118,082
56,115	-11,857	253,390	118,191
57,130	-11,400	253,454	118,605
58,144	-11,088	253,246	118,767
59,159	-11,113	252,968	118,604
60,174	-11,040	252,758	118,559
61,188	-11,339	252,644	118,237
62,203	-11,128	252,441	118,313
63,217	-11,298	252,175	118,032
64,232	-11,269	251,958	117,944
65,247	-11,247	251,728	117,845
66,261	-11,363	251,631	117,690
67,276	-11,433	251,298	117,463
68,290	-11,711	250,958	117,056
69,305	-11,856	250,695	116,799
70,320	-11,697	250,542	116,853
71,334	-11,638	250,445	116,848
72,349	-11,141	250,290	117,189
73,363	-11,221	250,270	117,101
74,378	-11,276	249,887	116,865
75,393	-11,318	249,674	116,719
76,407	-11,430	249,526	116,544
77,422	-11,408	249,246	116,422
78,436	-11,163	249,065	116,534
79,451	-11,265	248,815	116,321
80,466	-11,461	248,555	116,022
81,480	-11,614	248,376	115,800
82,495	-11,755	248,116	115,549
83,509	-11,477	247,901	115,673
84,524	-11,794	247,658	115,282
85,539	-11,863	247,582	115,178
86,553	-11,690	247,374	115,217
87,568	-11,594	247,106	115,163
88,582	-11,833	247,006	114,905
89,597	-11,658	246,921	115,002
90,611	-11,485	246,653	115,012
91,626	-11,362	246,638	115,098
92,641	-11,251	246,276	115,012
93,655	-11,440	245,991	114,711
94,670	-11,488	246,026	114,676
95,684	-11,601	245,734	114,435
96,699	-11,443	245,539	114,467
97,714	-11,569	245,057	114,127
98,728	-11,604	245,101	114,107
99,743	-11,500	244,813	114,050
100,757	-11,658	244,699	113,855
101,772	-11,876	244,635	113,634
102,787	-11,728	244,369	113,623
103,801	-11,518	244,208	113,712
104,816	-11,529	244,149	113,666
105,830	-11,365	243,888	113,670
106,845	-11,258	243,710	113,666
107,860	-11,305	243,615	113,572
108,874	-11,388	243,298	113,346
109,889	-11,598	242,999	113,023
110,903	-11,720	242,954	112,892
111,918	-11,607	242,729	112,870
112,933	-11,473	242,533	112,879
113,947	-11,478	242,441	112,822
114,962	-11,441	242,198	112,730
115,976	-11,223	241,944	112,780
116,991	-11,275	241,721	112,623
118,006	-11,296	241,633	112,555
119,020	-11,369	241,597	112,468
120,035	-11,218	241,467	112,521
121,049	-11,520	241,358	112,214
122,064	-11,114	241,001	112,370
123,079	-11,579	241,014	111,986
124,093	-11,549	240,603	111,809
125,108	-11,752	240,367	111,524
126,122	-11,841	240,268	111,396
127,137	-11,988	240,040	111,160
128,151	-11,902	239,887	111,150
129,166	-11,594	239,641	111,276
130,181	-11,790	239,472	111,028
131,195	-12,052	239,293	110,723
132,210	-11,614	239,181	111,017
133,224	-11,540	238,978	110,972
134,239	-11,448	238,848	110,976
135,254	-11,426	238,570	110,855
136,268	-11,516	238,402	110,695
137,283	-11,800	238,033	110,285
138,297	-11,913	237,988	110,163
139,312	-11,918	237,676	110,004
140,327	-11,814	237,813	110,141
141,341	-11,056	237,731	110,704
142,356	-11,103	237,581	110,586
143,370	-11,182	237,549	110,497
144,385	-11,266	237,256	110,284
145,400	-11,196	237,089	110,253
146,414	-11,205	236,855	110,127
147,429	-11,233	236,681	110,014
148,443	-11,253	236,548	109,926
149,458	-11,312	236,338	109,771
150,473	-10,881	236,114	110,002
151,487	-11,228	235,937	109,633
152,502	-11,250	235,877	109,578
153,516	-11,127	235,851	109,653
154,531	-11,081	235,537	109,535
155,546	-11,356	235,356	109,222
156,560	-11,212	234,986	109,155
157,575	-11,574	234,864	108,802
158,589	-11,291	234,753	108,965
159,604	-11,043	234,650	109,104
160,619	-10,996	234,461	109,043
161,633	-10,833	234,362	109,116
162,648	-11,062	234,280	108,887
163,662	-11,093	233,975	108,712
164,677	-11,230	233,720	108,475
165,692	-11,113	233,607	108,505
166,706	-11,063	233,608	108,536
167,721	-10,948	233,485	108,560
168,735	-10,818	233,186	108,513
169,750	-10,794	233,009	108,439
170,764	-11,235	232,973	108,066
171,779	-11,036	232,887	108,173
172,794	-11,088	232,747	108,058
173,808	-11,188	232,362	107,791
174,823	-11,792	232,060	107,169
175,837	-11,894	231,902	107,006
176,852	-11,473	232,011	107,377
177,867	-11,123	231,709	107,501
178,881	-11,007	231,667	107,563
179,896	-10,996	231,444	107,458
180,910	-11,067	231,434	107,389
181,925	-11,172	231,309	107,239
182,940	-10,998	231,146	107,289
183,954	-10,910	230,899	107,233
184,969	-10,822	230,831	107,260
185,983	-10,886	230,648	107,117
186,998	-10,856	230,499	107,061
188,013	-10,965	230,353	106,899
189,027	-11,112	230,262	106,733
190,042	-10,920	230,019	106,760
191,056	-10,937	229,895	106,680
192,071	-10,883	229,656	106,601
193,086	-10,777	229,395	106,553
194,100	-10,953	229,368	106,394
195,115	-11,203	228,904	105,977
196,129	-11,284	228,940	105,922
197,144	-5,809	230,894	111,069
198,159	0,271	232,614	116,630
199,173	3,147	233,225	119,169
200,188	3,211	233,310	119,251
201,202	3,176	233,193	119,153
202,217	3,283	233,013	119,135
203,232	3,650	232,971	119,387
204,246	3,761	232,820	119,386
205,261	3,716	232,718	119,288
206,275	4,030	232,425	119,371
207,290	3,979	232,424	119,320
208,304	4,078	232,136	119,238
209,319	3,828	231,894	118,910
210,334	3,745	231,788	118,781
211,348	3,633	231,436	118,504
212,363	3,280	231,279	118,140
213,377	3,254	231,059	117,996
214,392	3,049	230,970	117,783
215,407	3,344	230,776	117,901
216,421	3,321	230,795	117,882
217,436	3,242	230,516	117,668
218,450	2,984	230,173	117,285
219,465	2,724	230,209	117,092
220,480	3,021	230,047	117,228
221,494	2,950	229,909	117,093
222,509	3,128	229,883	117,206
223,523	3,203	229,648	117,133
224,538	3,033	229,594	116,965
225,553	3,258	229,225	116,938
226,567	3,310	229,255	116,983
227,582	3,517	229,116	117,060
228,596	3,371	229,102	116,931
229,611	3,066	228,842	116,555
230,626	2,840	228,549	116,223
231,640	3,167	228,398	116,385
232,655	3,460	228,451	116,624
233,669	3,842	228,290	116,822
234,684	3,980	228,087	116,812
235,699	3,721	227,897	116,508
236,713	3,346	227,846	116,187
237,728	3,289	227,660	116,039
238,742	3,112	227,351	115,737
239,757	3,336	227,213	115,826
240,772	3,055	227,018	115,504
241,786	2,971	226,991	115,416
242,801	3,202	226,986	115,578
243,815	3,460	226,855	115,696
244,830	3,662	226,579	115,697
245,844	3,263	226,530	115,361
246,859	3,148	226,263	115,128
247,874	3,482	226,097	115,284
248,888	3,581	226,054	115,327
249,903	3,334	225,907	115,056
250,917	3,321	225,599	114,879
251,932	3,093	225,542	114,669
252,947	2,898	225,350	114,415
253,961	2,886	225,049	114,242
254,976	3,301	224,926	114,480
255,990	3,387	224,991	114,568
257,005	3,428	224,864	114,524
258,020	3,370	224,691	114,382
259,034	3,456	224,628	114,404
260,049	3,457	224,586	114,373
261,063	3,391	224,208	114,121
262,078	3,547	224,238	114,242
263,093	3,866	223,908	114,301
264,107	3,729	223,829	114,149
265,122	3,734	223,636	114,044
266,136	3,643	223,674	113,986
267,151	3,448	223,740	113,865
268,166	3,397	223,122	113,502
269,180	3,042	222,924	113,129
270,195	3,234	222,812	113,204
271,209	3,055	222,751	113,030
272,224	2,985	222,770	112,978
273,239	3,337	222,485	113,083
274,253	3,183	222,219	112,824
275,268	2,985	222,071	112,593
276,282	2,641	221,970	112,278
277,297	3,134	221,857	112,574
278,312	2,785	221,810	112,283
279,326	3,231	221,545	112,467
280,341	3,219	221,421	112,385
281,355	3,023	221,368	112,204
282,370	2,997	221,179	112,080
283,384	2,982	220,893	111,913
284,399	2,785	220,802	111,713
285,414	3,197	220,673	111,939
286,428	3,199	220,676	111,933
287,443	3,395	220,586	112,020
288,457	3,118	220,387	111,707
289,472	2,816	220,232	111,397
290,487	2,745	219,793	111,114
291,501	2,653	219,785	111,033
292,516	2,738	219,621	111,002
293,530	2,897	219,470	111,032
294,545	2,913	219,451	111,023
295,560	3,032	219,468	111,109
296,574	3,157	219,271	111,091
297,589	3,205	219,164	111,061
298,603	3,394	219,021	111,115
299,618	3,349	218,825	110,974
300,633	3,186	218,811	110,838
301,647	3,499	218,762	111,030
302,662	3,410	218,600	110,874
303,676	3,347	218,407	110,721
304,691	3,384	218,251	110,659
305,706	3,689	218,015	110,749
306,720	3,304	217,936	110,421
307,735	3,131	217,737	110,186
308,749	2,937	217,597	109,966
309,764	3,193	217,514	110,098
310,779	3,540	217,386	110,273
311,793	3,330	217,168	110,002
312,808	3,171	217,022	109,804
313,822	3,212	216,926	109,775
314,837	3,311	216,749	109,747
315,852	3,243	216,510	109,568
316,866	3,146	216,453	109,459
317,881	3,203	216,549	109,539
318,895	3,162	216,267	109,357
319,910	3,301	215,981	109,302
320,925	3,064	215,713	108,988
321,939	2,950	215,587	108,833
322,954	2,654	215,686	108,662
323,968	3,379	215,518	109,084
324,983	3,347	215,250	108,916
325,997	3,518	215,376	109,092
327,012	3,100	214,971	108,580
328,027	3,203	215,062	108,690
329,041	3,726	214,929	108,984
330,056	3,573	214,965	108,884
331,070	3,312	214,548	108,478
332,085	3,113	214,262	108,183
333,100	3,127	214,330	108,218
334,114	3,453	214,125	108,335
335,129	3,215	214,074	108,131
336,143	3,137	213,802	107,929
337,158	3,025	213,700	107,789
338,173	3,032	213,614	107,741
339,187	3,097	213,378	107,658
340,202	3,056	213,191	107,525
341,216	2,816	213,091	107,296
342,231	3,150	213,025	107,488
343,246	2,881	212,841	107,197
344,260	3,218	212,735	107,370
345,275	3,242	212,614	107,317
346,289	3,402	212,483	107,353
347,304	3,290	212,337	107,192
348,319	3,184	212,282	107,080
349,333	3,047	212,093	106,879
350,348	3,151	211,923	106,857
351,362	3,367	211,900	106,987
352,377	3,223	211,750	106,800
353,392	3,189	211,727	106,756
354,406	3,435	211,443	106,774
355,421	196,940	1340,187	1422,501
356,435	157,368	1477,701	1422,474
