DTS Sentinel unit serial number:	SN410029Multiplexer serial number:	ORYXHardware model number:	OX2-SRSoftware version number:	ORYX F/W v4,00 Oryx Data Collector v3.7.2.0data status	okinstallation	B6 Nyhavnadifferential loss correction	single-endedforward channel	channel 2reverse channel	N/Adate	2023/12/08time	17:10:08forward acquisition time	300,00reverse acquisition time	0,00gamma	499,1914k internal	0,3158k external	0,3158temperature offset calibration	1,0000default loss term (dB/km)	0,3820temperature slope calibration	1,0000multiplexer offset coefficient	1,0000multiplexer slope coefficient	1,0000fibre end	0,00T internal ref (°C)	15,15T ext. ref 1 (°C)	-1,37T ext. ref 2 (°C)	-1,37length (m)	temperature (°C)	Stokes	anti-Stokes-744,400	-200,000	0,166	-0,000
-743,385	3,630	-0,218	-0,117
-742,371	-54,093	0,059	-0,020
-741,356	-101,041	-0,234	0,042
-740,342	375,237	0,051	0,077
-739,327	38,775	-0,198	-0,130
-738,312	-111,068	0,081	0,012
-737,298	-95,049	-0,336	-0,066
-736,283	347,630	0,045	0,065
-735,269	-79,988	-0,332	0,081
-734,254	-74,289	0,135	-0,036
-733,239	-52,760	-0,485	-0,164
-732,225	-44,324	0,195	-0,071
-731,210	-28,918	-0,096	-0,040
-730,196	-183,647	-0,093	-0,001
-729,181	-200,000	0,001	0,060
-728,167	-102,894	0,091	-0,016
-727,152	-153,931	-0,061	0,003
-726,137	-124,677	-0,066	-0,007
-725,123	208,693	0,009	0,010
-724,108	448,627	0,035	-0,057
-723,094	207,869	-0,054	-0,062
-722,079	252,586	-0,132	-0,166
-721,064	-200,000	0,002	-0,041
-720,050	75,324	-0,070	0,055
-719,035	13,321	-0,073	-0,042
-718,021	280,009	0,045	-0,060
-717,006	-6,407	-0,100	-0,050
-715,991	-200,000	-0,011	-0,058
-714,977	-149,596	-0,236	0,013
-713,962	-118,464	0,074	0,010
-712,948	800,000	0,066	0,164
-711,933	-156,513	-0,157	0,007
-710,918	800,000	-0,052	-0,130
-709,904	113,244	-0,054	-0,048
-708,889	12,685	-0,054	0,031
-707,875	-108,467	0,059	0,009
-706,860	-200,000	-0,014	0,050
-705,845	-11,356	-0,054	0,026
-704,831	-200,000	-0,004	-0,049
-703,816	172,634	-0,086	0,091
-702,802	56,023	-0,134	0,095
-701,787	23,071	0,066	-0,040
-700,772	-200,000	-0,061	-0,203
-699,758	25,769	-0,057	0,035
-698,743	-176,889	-0,035	0,001
-697,729	-91,370	0,102	-0,021
-696,714	-34,787	-0,084	-0,034
-695,699	-119,264	-0,049	-0,006
-694,685	-27,743	-0,174	-0,074
-693,670	800,000	-0,079	-0,169
-692,656	-88,480	0,134	0,029
-691,641	100,278	0,128	0,109
-690,627	-200,000	0,013	0,117
-689,612	-188,482	-0,079	-0,001
-688,597	42,714	-0,096	-0,064
-687,583	178,172	-0,141	-0,152
-686,568	-200,000	-0,008	-0,120
-685,554	360,605	-0,074	-0,110
-684,539	-53,155	0,084	-0,028
-683,524	-200,000	-0,028	0,117
-682,510	-60,700	-0,154	-0,048
-681,495	800,000	-0,015	-0,047
-680,481	-41,269	-0,122	-0,046
-679,466	-200,000	0,016	-0,157
-678,451	-138,534	-0,057	-0,005
-677,437	85,255	0,078	-0,063
-676,422	83,236	-0,039	0,031
-675,408	-167,305	0,128	-0,004
-674,393	800,000	0,037	-0,110
-673,378	-120,868	0,109	-0,013
-672,364	104,310	-0,028	0,024
-671,349	-22,078	0,059	0,026
-670,335	800,000	-0,034	-0,092
-669,320	-72,930	0,091	-0,024
-668,305	519,858	0,093	0,161
-667,291	-200,000	-0,014	-0,123
-666,276	-65,951	-0,147	-0,043
-665,262	-200,000	-0,017	-0,126
-664,247	-69,833	0,128	-0,036
-663,232	-200,000	-0,027	-0,116
-662,218	9,337	-0,042	-0,023
-661,203	294,854	-0,054	0,072
-660,189	800,000	0,016	0,035
-659,174	243,705	-0,190	-0,234
-658,159	604,950	0,055	-0,101
-657,145	33,616	-0,129	0,082
-656,130	-200,000	-0,021	-0,076
-655,116	-115,487	0,030	0,004
-654,101	0,955	-0,066	0,035
-653,086	137,034	0,110	0,105
-652,072	25,862	-0,092	-0,056
-651,057	-45,105	-0,154	-0,056
-650,043	-200,000	-0,004	-0,036
-649,028	678,579	0,019	0,036
-648,014	800,000	-0,034	0,081
-646,999	-200,000	0,013	0,064
-645,984	-112,016	0,080	0,012
-644,970	171,046	-0,043	-0,045
-643,955	-200,000	-0,018	0,076
-642,941	-32,708	-0,047	-0,019
-641,926	800,000	-0,021	0,061
-640,911	204,676	0,100	-0,114
-639,897	383,919	-0,019	-0,029
-638,882	8,478	0,126	0,069
-637,868	40,822	-0,036	-0,024
-636,853	237,555	-0,105	-0,128
-635,838	800,000	0,070	-0,146
-634,824	-44,084	-0,028	-0,010
-633,809	-200,000	-0,007	-0,060
-632,795	-40,592	-0,100	0,038
-631,780	515,471	-0,024	-0,041
-630,765	800,000	0,058	0,168
-629,751	745,720	0,065	-0,129
-628,736	-6,240	-0,075	-0,037
-627,722	-157,142	0,108	0,005
-626,707	-200,000	0,026	-0,088
-625,692	536,507	0,062	0,108
-624,678	-52,477	0,095	0,032
-623,663	-200,000	0,001	0,041
-622,649	39,267	-0,076	-0,050
-621,634	-200,000	-0,060	-0,251
-620,619	27,627	-0,072	-0,044
-619,605	-91,802	0,039	-0,008
-618,590	382,291	0,025	-0,039
-617,576	-58,706	0,118	0,037
-616,561	-200,000	0,004	0,116
-615,546	800,000	0,034	-0,092
-614,532	800,000	-0,059	-0,125
-613,517	191,112	-0,092	-0,102
-612,503	551,751	0,081	0,142
-611,488	-110,938	-0,105	0,016
-610,474	144,934	-0,021	0,021
-609,459	673,795	0,027	0,051
-608,444	-200,000	0,000	-0,111
-607,430	-120,015	-0,153	0,019
-606,415	-200,000	0,012	0,054
-605,401	-200,000	0,012	0,117
-604,386	97,686	-0,045	0,038
-603,371	-200,000	-0,009	-0,071
-602,357	71,444	-0,057	-0,043
-601,342	-85,233	-0,161	0,036
-600,328	-200,000	0,022	0,124
-599,313	246,073	-0,103	-0,127
-598,298	-124,623	0,063	-0,007
-597,284	-105,778	-0,039	0,006
-596,269	239,869	0,057	0,070
-595,255	305,673	-0,057	0,078
-594,240	-146,214	0,108	0,007
-593,225	800,000	-0,057	-0,129
-592,211	-26,441	-0,064	0,027
-591,196	743,925	0,027	-0,054
-590,182	57,449	0,123	0,088
-589,167	205,672	0,043	0,049
-588,152	-35,176	0,120	0,047
-587,138	-86,721	-0,073	0,016
-586,123	-200,000	0,005	0,082
-585,109	62,047	-0,053	-0,039
-584,094	-13,731	0,025	0,012
-583,079	-200,000	-0,007	0,044
-582,065	438,674	0,036	-0,057
-581,050	800,000	0,034	-0,069
-580,036	800,000	0,035	-0,075
-579,021	-200,000	-0,027	-0,160
-578,006	7,757	-0,109	-0,060
-576,992	800,000	-0,017	0,042
-575,977	-200,000	0,001	-0,064
-574,963	-66,872	-0,023	0,006
-573,948	-200,000	-0,003	0,103
-572,934	44,872	0,145	0,098
-571,919	101,018	-0,055	-0,047
-570,904	-200,000	-0,003	-0,122
-569,890	-200,000	-0,024	-0,104
-568,875	-200,000	-0,005	0,086
-567,861	36,645	-0,026	-0,017
-566,846	-132,391	-0,084	-0,008
-565,831	279,615	0,039	-0,051
-564,817	51,934	0,092	-0,064
-563,802	800,000	0,023	-0,067
-562,788	29,328	0,047	-0,029
-561,773	243,396	-0,021	0,026
-560,758	399,337	0,036	0,055
-559,744	617,933	-0,063	-0,117
-558,729	311,571	0,122	-0,168
-557,715	154,993	-0,100	-0,101
-556,700	290,066	-0,099	-0,132
-555,685	-200,000	-0,066	-0,269
-554,671	800,000	0,065	-0,154
-553,656	-200,000	-0,008	-0,033
-552,642	-148,772	-0,131	-0,008
-551,627	-38,885	-0,055	0,021
-550,612	56,879	-0,071	-0,051
-549,598	211,389	-0,014	-0,017
-548,583	-85,934	-0,061	0,014
-547,569	342,090	-0,112	-0,161
-546,554	-110,915	0,102	-0,015
-545,539	290,892	0,055	0,073
-544,525	17,832	0,084	0,049
-543,510	-67,053	0,101	-0,029
-542,496	12,680	-0,121	-0,068
-541,481	-200,000	0,001	0,144
-540,466	-103,447	-0,134	-0,023
-539,452	140,812	0,069	0,067
-538,437	3,050	0,153	0,081
-537,423	-124,252	-0,147	0,017
-536,408	-87,507	0,052	-0,011
-535,393	-28,074	-0,071	-0,030
-534,379	-40,353	-0,116	-0,044
-533,364	-106,288	-0,148	-0,024
-532,350	149,909	0,114	0,113
-531,335	-72,030	0,107	0,029
-530,321	369,189	-0,038	0,057
-529,306	-139,993	-0,079	-0,006
-528,291	9,704	0,049	0,027
-527,277	-29,337	-0,095	0,040
-526,262	800,000	-0,015	0,041
-525,248	-200,000	-0,001	0,018
-524,233	-6,014	0,070	0,035
-523,218	39,364	0,091	0,060
-522,204	-35,482	0,049	0,019
-521,189	800,000	-0,028	-0,064
-520,175	4,403	-0,091	-0,049
-519,160	88,092	-0,035	0,028
-518,145	-33,383	0,045	0,018
-517,131	-9,619	0,109	-0,053
-516,116	-200,000	-0,026	0,114
-515,102	419,178	-0,047	0,073
-514,087	-200,000	-0,015	0,079
-513,072	-6,295	-0,118	-0,059
-512,058	-33,967	-0,106	-0,042
-511,043	-200,000	-0,018	-0,096
-510,029	-33,620	-0,047	0,019
-509,014	750,460	-0,038	0,075
-507,999	-200,000	-0,010	0,146
-506,985	227,707	-0,041	-0,048
-505,970	800,000	-0,039	0,115
-504,956	800,000	-0,051	0,148
-503,941	184,204	0,083	0,090
-502,926	-84,299	0,055	0,013
-501,912	-200,000	-0,014	0,252
-500,897	-7,224	0,175	-0,086
-499,883	398,793	-0,035	-0,054
-498,868	6,762	-0,178	-0,097
-497,853	799,211	0,073	-0,148
-496,839	638,170	0,034	0,064
-495,824	324,831	0,106	-0,148
-494,810	-69,005	-0,133	0,037
-493,795	209,961	-0,069	0,080
-492,781	-11,785	0,031	0,015
-491,766	-145,008	0,035	0,002
-490,751	-112,149	-0,122	-0,018
-489,737	-54,073	-0,062	0,021
-488,722	800,000	-0,040	0,083
-487,708	-119,708	0,085	-0,011
-486,693	48,371	-0,061	-0,042
-485,678	-133,779	0,116	-0,010
-484,664	800,000	-0,036	-0,090
-483,649	16,589	-0,007	0,004
-482,635	10,247	-0,034	0,019
-481,620	-149,443	-0,053	0,003
-480,605	66,665	0,085	-0,063
-479,591	-56,067	0,033	-0,011
-478,576	111,049	0,039	0,035
-477,562	469,077	-0,039	0,064
-476,547	257,374	0,068	-0,085
-475,532	-200,000	-0,002	-0,038
-474,518	-121,950	-0,054	0,006
-473,503	-200,000	0,016	-0,060
-472,489	23,521	-0,051	0,031
-471,474	-200,000	-0,007	-0,046
-470,459	-38,864	-0,042	0,016
-469,445	-200,000	-0,003	0,090
-468,430	29,723	0,050	0,031
-467,416	238,139	-0,130	0,158
-466,401	428,184	0,096	0,152
-465,386	228,372	0,029	-0,035
-464,372	-16,599	-0,093	-0,043
-463,357	37,886	0,048	-0,031
-462,343	-39,593	0,109	0,041
-461,328	-200,000	0,030	0,159
-460,313	391,122	0,005	-0,008
-459,299	-39,049	-0,099	0,038
-458,284	76,874	0,009	-0,007
-457,270	-83,944	-0,048	0,011
-456,255	200,400	-0,074	-0,083
-455,241	800,000	-0,046	-0,102
-454,226	35,449	0,093	-0,059
-453,211	800,000	-0,020	-0,047
-452,197	165,530	-0,067	0,069
-451,182	111,299	0,071	0,062
-450,168	-200,000	-0,015	0,069
-449,153	66,872	-0,105	0,078
-448,138	-70,067	-0,057	-0,016
-447,124	106,352	0,056	0,048
-446,109	63,194	0,079	-0,058
-445,095	-200,000	-0,028	0,109
-444,080	-200,000	-0,017	0,088
-443,065	-69,374	-0,024	0,007
-442,051	84,433	-0,015	0,012
-441,036	-200,000	0,019	-0,068
-440,022	95,564	-0,015	0,013
-439,007	-200,000	-0,010	0,077
-437,992	71,116	0,149	-0,112
-436,978	56,951	0,084	0,060
-435,963	102,186	-0,076	0,065
-434,949	494,670	0,028	0,047
-433,934	483,188	-0,035	0,058
-432,919	239,263	-0,042	-0,051
-431,905	652,688	0,076	-0,143
-430,890	-70,130	0,077	0,021
-429,876	-200,000	0,004	0,028
-428,861	10,846	0,166	0,092
-427,846	387,040	0,093	-0,140
-426,832	-6,472	0,075	0,037
-425,817	185,061	0,051	-0,056
-424,803	-200,000	0,018	-0,108
-423,788	730,140	-0,014	0,027
-422,773	18,351	0,166	0,096
-421,759	-200,000	0,037	0,153
-420,744	234,839	0,019	0,023
-419,730	21,595	-0,152	-0,090
-418,715	37,989	-0,058	0,037
-417,701	-200,000	-0,003	-0,039
-416,686	359,611	0,045	-0,066
-415,671	800,000	0,046	0,122
-414,657	-200,000	-0,017	-0,110
-413,642	72,052	0,040	-0,031
-412,628	422,043	-0,056	-0,087
-411,613	54,093	-0,063	0,044
-410,598	-46,472	0,068	0,024
-409,584	14,708	-0,043	-0,024
-408,569	297,475	0,059	0,079
-407,555	800,000	-0,013	-0,027
-406,540	540,604	-0,094	0,163
-405,525	8,383	0,094	0,051
-404,511	733,881	-0,061	-0,120
-403,496	-1,046	0,081	-0,042
-402,482	-8,684	-0,018	0,009
-401,467	305,166	0,048	-0,066
-400,452	361,600	0,051	0,075
-399,438	-200,000	-0,002	-0,025
-398,423	-200,000	-0,011	-0,105
-397,409	-200,000	-0,071	0,000
-396,394	800,000	-0,043	-0,101
-395,379	800,000	-0,018	0,054
-394,365	724,128	0,038	0,075
-393,350	182,447	0,106	0,113
-392,336	-200,000	0,022	-0,120
-391,321	13,825	0,038	-0,022
-390,306	800,000	-0,015	0,044
-389,292	514,887	-0,080	-0,136
-388,277	69,896	0,075	0,056
-387,263	-105,053	0,103	0,017
-386,248	-6,993	-0,037	0,018
-385,233	617,354	0,044	0,080
-384,219	23,761	0,082	-0,049
-383,204	-91,150	0,088	-0,018
-382,190	-200,000	-0,009	0,043
-381,175	800,000	-0,108	-0,220
-380,160	-31,197	-0,027	-0,011
-379,146	-15,150	-0,133	0,062
-378,131	47,060	0,087	0,058
-377,117	236,455	0,033	-0,040
-376,102	191,820	0,059	0,064
-375,088	-200,000	-0,010	-0,033
-374,073	518,797	-0,104	0,177
-373,058	116,035	0,156	0,138
-372,044	-200,000	0,182	0,000
-371,029	800,000	0,043	0,118
-370,015	303,625	0,034	0,046
-369,000	-97,909	-0,116	-0,022
-367,985	24,250	0,080	-0,048
-366,971	196,094	-0,053	-0,059
-365,956	37,934	0,072	0,046
-364,942	800,000	0,019	0,053
-363,927	28,667	0,066	0,041
-362,912	76,355	-0,087	0,067
-361,898	-86,330	-0,082	-0,018
-360,883	-42,070	0,033	-0,012
-359,869	-166,556	0,022	-0,001
-358,854	800,000	0,025	0,052
-357,839	-194,493	0,040	-0,000
-356,825	302,947	-0,041	0,056
-355,810	800,000	0,073	0,198
-354,796	-200,000	-0,035	0,115
-353,781	800,000	0,023	-0,051
-352,766	800,000	0,063	0,153
-351,752	-200,000	-0,009	-0,078
-350,737	132,604	0,133	-0,125
-349,723	17,410	-0,050	-0,029
-348,708	-166,421	-0,045	0,001
-347,693	-141,646	-0,108	0,008
-346,679	800,000	0,021	-0,043
-345,664	-123,175	-0,061	-0,007
-344,650	800,000	0,031	0,099
-343,635	-40,873	-0,119	0,045
-342,620	-127,421	0,132	-0,014
-341,606	-200,000	-0,002	0,025
-340,591	-67,191	-0,099	0,028
-339,577	-162,872	-0,103	0,004
-338,562	-200,000	0,013	0,133
-337,548	-189,333	-0,220	0,002
-336,533	-200,000	-0,004	0,069
-335,518	-200,000	-0,026	0,147
-334,504	15,068	0,089	-0,050
-333,489	-36,985	0,057	-0,022
-332,475	-80,191	-0,115	0,028
-331,460	-200,000	0,006	0,041
-330,445	-200,000	0,015	-0,058
-329,431	23,025	0,120	0,071
-328,416	-0,936	0,056	0,029
-327,402	-199,341	0,089	-0,000
-326,387	98,295	-0,095	-0,080
-325,372	-54,700	0,088	-0,029
-324,358	60,618	-0,130	0,093
-323,343	-189,688	0,053	0,000
-322,329	800,000	0,035	0,073
-321,314	-98,584	0,091	-0,017
-320,299	-200,000	0,009	-0,111
-319,285	-109,868	0,164	0,025
-318,270	800,000	0,016	-0,036
-317,256	137,770	0,089	-0,085
-316,241	-111,180	-0,074	0,011
-315,226	-200,000	-0,039	0,135
-314,212	190,916	0,056	0,061
-313,197	-200,000	-0,010	0,051
-312,183	-200,000	0,009	-0,041
-311,168	-119,645	-0,184	-0,023
-310,153	167,918	-0,021	0,022
-309,139	176,473	0,017	-0,018
-308,124	-75,646	0,071	-0,018
-307,110	-124,438	0,028	0,003
-306,095	135,626	0,065	-0,062
-305,080	-148,499	-0,030	-0,002
-304,066	800,000	0,005	-0,016
-303,051	-200,000	-0,020	-0,079
-302,037	318,147	-0,040	0,055
-301,022	561,954	0,065	-0,114
-300,008	40,232	0,054	0,035
-298,993	347,149	0,020	-0,028
-297,978	-200,000	0,003	-0,041
-296,964	-117,365	0,132	0,017
-295,949	260,924	-0,088	-0,111
-294,935	-18,267	-0,102	-0,046
-293,920	-16,820	-0,089	-0,040
-292,905	-107,940	0,177	-0,028
-291,891	151,774	0,021	0,020
-290,876	-81,323	0,119	0,028
-289,862	800,000	0,026	-0,077
-288,847	-200,000	0,010	0,073
-287,832	513,542	-0,032	0,055
-286,818	-200,000	-0,003	0,027
-285,803	-19,492	-0,080	0,036
-284,789	72,929	0,147	0,111
-283,774	-55,042	0,095	0,031
-282,759	390,642	0,060	-0,091
-281,745	-200,000	0,003	0,026
-280,730	463,898	-0,101	-0,164
-279,716	200,909	-0,015	-0,017
-278,701	-191,079	0,088	0,001
-277,686	-152,737	0,127	0,006
-276,672	53,973	-0,081	-0,056
-275,657	-118,288	0,065	0,008
-274,643	-200,000	0,005	-0,140
-273,628	70,567	-0,034	0,026
-272,613	-2,282	-0,085	0,043
-271,599	-180,399	-0,025	0,000
-270,584	359,499	0,080	0,115
-269,570	207,753	0,070	0,080
-268,555	-200,000	0,006	-0,130
-267,540	-77,823	-0,156	0,039
-266,526	538,064	-0,034	-0,059
-265,511	151,167	0,017	0,017
-264,497	-200,000	0,011	0,135
-263,482	105,708	0,064	-0,054
-262,467	391,199	0,085	0,128
-261,453	305,141	-0,046	0,062
-260,438	275,652	-0,069	-0,089
-259,424	-114,965	-0,096	0,013
-258,409	-200,000	0,009	-0,174
-257,395	800,000	0,032	0,093
-256,380	132,165	0,062	-0,058
-255,365	-200,000	-0,004	0,093
-254,351	122,579	-0,088	0,079
-253,336	771,092	-0,068	0,135
-252,322	13,923	-0,067	-0,038
-251,307	800,000	0,049	-0,137
-250,292	-119,943	-0,132	-0,016
-249,278	411,856	0,082	0,127
-248,263	86,138	-0,078	0,062
-247,249	-200,000	-0,024	-0,148
-246,234	234,256	0,042	-0,050
-245,219	-120,244	-0,052	-0,006
-244,205	-49,502	-0,117	-0,040
-243,190	-200,000	0,010	-0,105
-242,176	220,774	0,043	-0,050
-241,161	800,000	0,003	-0,010
-240,146	800,000	0,065	0,130
-239,132	226,703	0,134	0,157
-238,117	9,066	-0,193	-0,105
-237,103	-200,000	0,135	0,000
-236,088	681,617	-0,073	-0,139
-235,073	-200,000	0,011	-0,046
-234,059	140,471	-0,065	0,062
-233,044	-92,689	0,065	-0,013
-232,030	14,403	0,151	0,085
-231,015	264,866	-0,144	-0,182
-230,000	800,000	-0,082	-0,180
-228,986	-200,000	0,054	-0,177
-227,971	584,100	0,093	0,166
-226,957	-144,596	-0,027	-0,002
-225,942	106,447	-0,021	0,018
-224,927	-200,000	-0,017	-0,103
-223,913	60,850	-0,165	-0,118
-222,898	-162,044	0,114	-0,004
-221,884	800,000	-0,046	-0,103
-220,869	4,690	0,061	-0,032
-219,855	30,741	0,162	-0,100
-218,840	-84,169	-0,096	-0,022
-217,825	-19,700	-0,119	0,053
-216,811	23,121	-0,070	0,042
-215,796	-200,000	0,003	-0,129
-214,782	15,187	-0,070	-0,040
-213,767	41,999	0,043	0,028
-212,752	-200,000	0,019	0,159
-211,738	-200,000	0,004	0,080
-210,723	-84,890	0,071	0,016
-209,709	-26,396	0,147	-0,062
-208,694	-75,755	-0,072	-0,018
-207,679	-200,000	0,005	0,086
-206,665	121,509	-0,035	0,032
-205,650	91,451	-0,086	0,070
-204,636	-63,726	0,105	-0,031
-203,621	571,031	0,025	0,044
-202,606	-113,230	-0,087	-0,012
-201,592	-200,000	0,004	0,034
-200,577	714,680	0,006	-0,011
-199,563	-200,000	0,012	0,139
-198,548	-8,088	0,072	-0,035
-197,533	35,412	-0,081	-0,051
-196,519	-200,000	0,014	0,059
-195,504	550,847	-0,019	0,034
-194,490	226,967	0,029	-0,034
-193,475	800,000	-0,018	0,038
-192,460	96,132	0,068	-0,056
-191,446	143,046	0,034	0,032
-190,431	-200,000	-0,004	0,013
-189,417	-53,092	-0,107	-0,035
-188,402	800,000	0,009	-0,023
-187,387	-57,871	-0,146	-0,046
-186,373	336,277	0,045	0,063
-185,358	105,108	-0,011	0,009
-184,344	800,000	0,036	-0,092
-183,329	396,596	-0,062	-0,094
-182,315	-52,859	0,086	0,029
-181,300	303,435	-0,058	0,078
-180,285	17,180	0,049	-0,028
-179,271	279,994	-0,096	0,123
-178,256	7,742	0,022	-0,012
-177,242	-57,878	-0,148	0,046
-176,227	-200,000	0,026	0,085
-175,212	-200,000	-0,042	-0,155
-174,198	-10,863	-0,045	0,021
-173,183	-57,752	-0,114	0,036
-172,169	-200,000	0,007	-0,037
-171,154	-121,424	0,105	0,012
-170,139	-200,000	0,007	0,101
-169,125	-41,824	-0,128	0,047
-168,110	346,817	-0,030	0,042
-167,096	-200,000	-0,005	-0,093
-166,081	46,687	-0,057	-0,038
-165,066	-200,000	0,025	-0,124
-164,052	-117,298	-0,076	0,010
-163,037	800,000	0,045	-0,091
-162,023	800,000	0,018	0,056
-161,008	364,811	0,033	-0,048
-159,993	-200,000	0,013	-0,062
-158,979	-200,000	-0,000	-0,040
-157,964	255,744	-0,063	-0,078
-156,950	12,366	0,130	0,072
-155,935	531,967	0,012	-0,020
-154,920	800,000	0,016	-0,047
-153,906	-200,000	0,043	0,161
-152,891	55,876	0,082	-0,057
-151,877	800,000	-0,018	-0,040
-150,862	149,599	0,039	0,038
-149,847	-200,000	0,005	-0,024
-148,833	-200,000	-0,002	0,086
-147,818	72,815	0,081	0,061
-146,804	-62,850	0,125	0,037
-145,789	800,000	-0,031	0,086
-144,775	800,000	-0,049	-0,134
-143,760	-124,436	-0,082	0,009
-142,745	-200,000	-0,013	0,175
-141,731	190,583	0,018	0,019
-140,716	299,171	-0,037	-0,049
-139,702	-163,662	0,063	-0,002
-138,687	89,644	-0,113	0,090
-137,672	125,770	0,087	-0,079
-136,658	198,559	-0,034	-0,038
-135,643	93,022	0,091	0,074
-134,629	3,567	0,055	-0,029
-133,614	-200,000	0,018	-0,185
-132,599	544,726	0,009	-0,016
-131,585	-200,000	-0,032	0,153
-130,570	-200,000	-0,009	-0,031
-129,556	515,610	-0,046	0,077
-128,541	393,676	-0,033	-0,049
-127,526	800,000	-0,031	-0,064
-126,512	800,000	-0,003	-0,007
-125,497	74,760	0,084	0,064
-124,483	-40,331	-0,028	-0,011
-123,468	-100,751	-0,098	0,017
-122,453	-200,000	0,034	-0,170
-121,439	-85,448	-0,121	-0,027
-120,424	-95,353	-0,024	-0,005
-119,410	12,820	0,107	-0,059
-118,395	-155,436	0,090	-0,004
-117,380	800,000	-0,010	-0,022
-116,366	-200,000	-0,009	-0,144
-115,351	-42,390	0,132	0,048
-114,337	-114,026	-0,067	0,009
-113,322	-200,000	-0,019	-0,083
-112,307	184,266	0,130	0,138
-111,293	452,956	0,052	-0,084
-110,278	-200,000	-0,020	0,097
-109,264	172,527	-0,037	0,038
-108,249	152,239	0,081	0,079
-107,234	-200,000	0,006	-0,072
-106,220	305,669	-0,061	-0,082
-105,205	-132,248	-0,010	-0,001
-104,191	-200,000	-0,005	0,109
-103,176	-200,000	-0,023	0,099
-102,162	-56,423	-0,042	0,013
-101,147	-200,000	-0,014	-0,048
-100,132	611,701	-0,033	-0,060
-99,118	-200,000	0,036	-0,124
-98,103	-12,461	-0,036	-0,017
-97,089	-38,702	0,114	0,043
-96,074	-200,000	0,009	-0,040
-95,059	-59,205	0,056	-0,017
-94,045	253,022	0,005	0,006
-93,030	-27,048	-0,114	-0,047
-92,016	-127,971	0,291	0,030
-91,001	-200,000	0,005	0,027
-89,986	446,941	-0,031	0,049
-88,972	139,583	-0,068	0,064
-87,957	-200,000	-0,010	-0,127
-86,943	487,188	-0,036	0,060
-85,928	29,014	0,092	-0,056
-84,913	-200,000	0,023	0,094
-83,899	-147,534	0,116	-0,007
-82,884	-81,802	0,087	0,020
-81,870	66,875	0,105	0,077
-80,855	-28,165	-0,103	-0,043
-79,840	2,271	-0,084	-0,044
-78,826	-200,000	0,004	0,027
-77,811	-200,000	-0,027	-0,179
-76,797	800,000	0,027	0,069
-75,782	214,289	0,071	-0,081
-74,767	-200,000	-0,028	-0,107
-73,753	-175,149	-0,011	0,000
-72,738	290,042	-0,054	-0,071
-71,724	116,608	-0,086	0,075
-70,709	-71,485	0,056	-0,015
-69,694	-200,000	0,013	-0,072
-68,680	42,366	0,145	0,095
-67,665	27,535	0,100	-0,060
-66,651	425,594	0,006	-0,009
-65,636	-200,000	-0,007	-0,080
-64,622	-200,000	-0,009	-0,089
-63,607	639,110	-0,048	0,088
-62,592	-200,000	-0,006	-0,082
-61,578	22,109	0,089	0,052
-60,563	-200,000	0,045	0,175
-59,549	50,835	-0,146	0,099
-58,534	33,680	-2,057	-1,281
-57,519	-200,000	-0,102	-0,700
-56,505	-200,000	-1,399	-4,950
-55,490	105,926	0,906	0,769
-54,476	800,000	5,082	11,534
-53,461	-200,000	17,942	290,095
-52,446	800,000	727,507	2227,026
-51,432	534,147	1640,271	2799,544
-50,417	109,030	1629,452	1397,911
-49,403	72,769	1282,986	959,799
-48,388	31,278	1025,967	630,457
-47,373	19,816	988,112	569,443
-46,359	18,240	976,061	557,314
-45,344	15,454	972,203	545,986
-44,330	15,691	970,550	545,812
-43,315	15,164	968,944	543,168
-42,300	15,118	967,868	542,394
-41,286	15,176	966,684	541,895
-40,271	15,116	965,837	541,204
-39,257	15,213	964,791	540,911
-38,242	15,114	964,059	540,158
-37,227	15,136	963,487	539,888
-36,213	15,177	962,237	539,299
-35,198	15,118	961,593	538,725
-34,184	15,258	960,504	538,549
-33,169	15,158	959,867	537,845
-32,154	15,218	958,798	537,419
-31,140	15,168	957,906	536,736
-30,125	15,197	957,285	536,460
-29,111	15,139	956,602	535,871
-28,096	15,207	955,853	535,647
-27,082	15,206	955,097	535,199
-26,067	15,221	954,292	534,777
-25,052	15,170	953,697	534,259
-24,038	15,161	952,801	533,705
-23,023	15,150	952,223	533,325
-22,009	15,182	951,565	533,039
-20,994	15,196	950,833	532,651
-19,979	15,202	950,395	532,405
-18,965	15,152	949,825	531,904
-17,950	15,181	949,294	531,679
-16,936	15,163	948,419	531,108
-15,921	15,107	947,772	530,547
-14,906	15,124	946,972	530,133
-13,892	15,092	946,414	529,697
-12,877	15,063	946,017	529,364
-11,863	15,001	945,222	528,700
-10,848	15,078	944,902	528,743
-9,833	15,172	944,188	528,622
-8,819	15,165	943,566	528,229
-7,804	15,020	943,091	527,484
-6,790	15,089	942,399	527,295
-5,775	15,153	941,769	527,123
-4,760	15,149	941,167	526,753
-3,746	15,107	940,452	526,198
-2,731	14,955	939,806	525,337
-1,717	14,901	939,246	524,831
-0,702	14,892	938,623	524,435
0,313	14,704	937,942	524,254
1,327	18,176	935,618	533,827
2,342	27,351	789,485	474,601
3,356	23,796	445,113	262,289
4,371	-5,729	296,115	144,919
5,386	-9,581	277,814	132,291
6,400	-10,946	272,150	128,311
7,415	-11,034	269,916	127,165
8,429	-11,036	268,435	126,454
9,444	-10,959	267,490	126,068
10,459	-10,987	266,823	125,717
11,473	-11,164	266,342	125,318
12,488	-11,184	265,800	125,034
13,502	-11,408	265,367	124,616
14,517	-11,529	264,812	124,234
15,531	-11,103	264,220	124,330
16,546	-11,368	264,216	124,078
17,561	-11,301	263,659	123,866
18,575	-11,112	263,276	123,845
19,590	-11,297	262,994	123,534
20,604	-11,420	262,836	123,339
21,619	-11,427	262,395	123,115
22,634	-11,222	261,944	123,076
23,648	-11,464	261,666	122,718
24,663	-11,415	261,471	122,659
25,677	-11,230	261,164	122,669
26,692	-11,322	261,017	122,507
27,707	-11,398	260,592	122,230
28,721	-11,537	260,473	122,039
29,736	-11,472	260,068	121,896
30,750	-11,562	259,846	121,701
31,765	-11,450	259,516	121,635
32,780	-11,306	259,232	121,619
33,794	-11,328	259,162	121,555
34,809	-11,599	259,065	121,260
35,823	-11,482	258,663	121,164
36,838	-11,372	258,416	121,134
37,853	-11,557	258,119	120,821
38,867	-11,563	258,004	120,752
39,882	-11,482	257,646	120,644
40,896	-11,488	257,348	120,488
41,911	-11,556	257,151	120,326
42,926	-11,615	256,838	120,117
43,940	-11,575	256,673	120,064
44,955	-11,619	256,519	119,943
45,969	-11,505	256,194	119,880
46,984	-11,990	256,040	119,374
47,999	-11,960	255,644	119,204
49,013	-11,919	255,347	119,091
50,028	-12,322	255,335	118,724
51,042	-12,317	255,003	118,563
52,057	-12,342	254,675	118,378
53,071	-12,143	254,523	118,470
54,086	-12,197	254,290	118,304
55,101	-12,028	254,181	118,390
56,115	-11,775	254,034	118,529
57,130	-11,531	253,925	118,680
58,144	-11,288	253,774	118,809
59,159	-11,066	253,661	118,936
60,174	-11,101	253,313	118,733
61,188	-11,228	253,167	118,544
62,203	-11,307	253,002	118,388
63,217	-11,342	252,771	118,240
64,232	-11,351	252,571	118,128
65,247	-11,088	252,345	118,238
66,261	-11,185	251,999	117,982
67,276	-11,498	251,678	117,552
68,290	-11,825	251,541	117,198
69,305	-11,908	251,320	117,014
70,320	-11,889	251,139	116,935
71,334	-11,456	250,955	117,209
72,349	-11,329	250,955	117,307
73,363	-11,281	250,717	117,227
74,378	-11,079	250,334	117,208
75,393	-11,261	250,149	116,956
76,407	-11,235	249,952	116,876
77,422	-11,445	249,831	116,631
78,436	-11,481	249,736	116,545
79,451	-11,322	249,337	116,484
80,466	-11,469	249,129	116,252
81,480	-11,629	248,909	116,003
82,495	-11,648	248,692	115,875
83,509	-11,767	248,653	115,746
84,524	-11,622	248,336	115,711
85,539	-11,706	248,100	115,520
86,553	-11,802	247,820	115,298
87,568	-11,499	247,619	115,449
88,582	-11,497	247,466	115,369
89,597	-11,748	247,390	115,113
90,611	-11,607	247,139	115,104
91,626	-11,446	247,045	115,185
92,641	-11,458	246,866	115,082
93,655	-11,413	246,633	115,000
94,670	-11,691	246,565	114,725
95,684	-11,560	246,212	114,661
96,699	-11,731	246,125	114,467
97,714	-11,608	245,818	114,417
98,728	-11,690	245,533	114,205
99,743	-11,904	245,556	114,027
100,757	-11,936	245,244	113,845
101,772	-11,927	245,168	113,808
102,787	-11,559	244,815	113,939
103,801	-11,620	244,775	113,861
104,816	-11,563	244,504	113,771
105,830	-11,306	244,383	113,918
106,845	-11,520	244,289	113,686
107,860	-11,520	244,057	113,569
108,874	-11,699	243,814	113,297
109,889	-11,624	243,702	113,297
110,903	-11,569	243,397	113,190
111,918	-11,790	243,152	112,885
112,933	-11,631	243,058	112,962
113,947	-11,507	242,883	112,972
114,962	-11,631	242,799	112,822
115,976	-11,531	242,607	112,804
116,991	-11,543	242,324	112,653
118,006	-11,647	242,447	112,614
119,020	-11,502	242,194	112,606
120,035	-11,433	241,989	112,557
121,049	-11,268	241,827	112,607
122,064	-11,484	241,717	112,368
123,079	-11,471	241,366	112,206
124,093	-11,452	241,110	112,093
125,108	-11,761	240,984	111,772
126,122	-11,603	240,604	111,714
127,137	-12,005	240,617	111,383
128,151	-11,834	240,326	111,377
129,166	-11,700	240,096	111,370
130,181	-11,705	239,915	111,271
131,195	-11,808	239,713	111,084
132,210	-11,570	239,525	111,181
133,224	-11,469	239,450	111,218
134,239	-11,482	239,328	111,141
135,254	-11,466	239,301	111,131
136,268	-11,445	238,781	110,896
137,283	-11,860	238,632	110,482
138,297	-12,133	238,474	110,179
139,312	-12,030	238,337	110,189
140,327	-11,711	238,260	110,401
141,341	-10,967	238,142	110,935
142,356	-11,125	238,032	110,747
143,370	-11,154	237,879	110,643
144,385	-11,123	237,880	110,658
145,400	-11,039	237,571	110,572
146,414	-11,084	237,270	110,386
147,429	-11,309	237,264	110,193
148,443	-11,074	236,981	110,240
149,458	-11,189	236,744	110,028
150,473	-11,151	236,625	109,994
151,487	-11,215	236,441	109,846
152,502	-11,261	236,331	109,749
153,516	-11,210	236,267	109,750
154,531	-11,002	236,015	109,789
155,546	-11,070	235,835	109,642
156,560	-11,168	235,473	109,386
157,575	-11,565	235,395	109,024
158,589	-11,412	235,190	109,041
159,604	-10,992	235,147	109,345
160,619	-11,034	235,047	109,255
161,633	-10,937	234,856	109,233
162,648	-11,039	234,624	109,035
163,662	-11,110	234,374	108,853
164,677	-11,378	234,462	108,672
165,692	-11,126	234,211	108,746
166,706	-10,974	234,096	108,802
167,721	-10,979	233,951	108,722
168,735	-10,968	233,940	108,715
169,750	-11,064	233,534	108,441
170,764	-11,330	233,390	108,155
171,779	-11,194	233,413	108,263
172,794	-11,004	233,237	108,322
173,808	-11,246	232,945	107,986
174,823	-11,809	232,597	107,373
175,837	-11,667	232,303	107,340
176,852	-11,369	232,396	107,606
177,867	-11,136	232,279	107,725
178,881	-11,229	232,321	107,662
179,896	-11,025	232,087	107,704
180,910	-11,068	231,969	107,606
181,925	-11,080	231,755	107,487
182,940	-11,204	231,609	107,313
183,954	-11,142	231,463	107,284
184,969	-10,856	231,312	107,428
185,983	-10,914	231,187	107,315
186,998	-10,856	230,913	107,223
188,013	-11,024	230,841	107,050
189,027	-10,818	230,629	107,102
190,042	-10,788	230,280	106,953
191,056	-10,913	230,277	106,846
192,071	-10,839	230,118	106,820
193,086	-10,839	229,807	106,666
194,100	-10,957	229,923	106,619
195,115	-10,973	229,300	106,308
196,129	-11,328	229,371	106,057
197,144	-6,026	231,096	110,966
198,159	-0,310	232,877	116,275
199,173	2,889	233,897	119,277
200,188	3,344	233,787	119,566
201,202	3,186	233,574	119,322
202,217	3,436	233,479	119,459
203,232	3,606	233,450	119,566
204,246	3,683	233,317	119,547
205,261	3,678	233,078	119,410
206,275	3,749	233,044	119,437
207,290	4,143	232,732	119,572
208,304	3,991	232,704	119,430
209,319	3,894	232,555	119,266
210,334	4,087	232,238	119,243
211,348	3,754	231,977	118,841
212,363	3,217	231,767	118,307
213,377	3,139	231,548	118,125
214,392	3,023	231,339	117,918
215,407	3,129	231,462	118,052
216,421	3,291	231,094	117,979
217,436	3,065	230,839	117,664
218,450	2,998	230,700	117,531
219,465	2,911	230,525	117,365
220,480	3,045	230,524	117,457
221,494	3,060	230,427	117,409
222,509	3,169	230,348	117,441
223,523	3,214	230,011	117,294
224,538	2,796	230,050	116,982
225,553	3,067	229,889	117,098
226,567	3,060	229,667	116,969
227,582	3,171	229,706	117,063
228,596	3,385	229,539	117,132
229,611	3,341	229,155	116,892
230,626	2,880	228,983	116,442
231,640	2,930	228,831	116,392
232,655	3,121	228,887	116,556
233,669	3,668	228,729	116,881
234,684	3,523	228,737	116,765
235,699	3,425	228,520	116,569
236,713	3,115	228,266	116,194
237,728	3,104	228,036	116,058
238,742	2,829	227,872	115,755
239,757	3,066	227,736	115,856
240,772	3,079	227,462	115,716
241,786	3,039	227,347	115,616
242,801	3,150	227,440	115,737
243,815	3,365	227,279	115,808
244,830	3,843	227,052	116,042
245,844	3,250	226,953	115,534
246,859	3,172	226,798	115,387
247,874	3,433	226,579	115,461
248,888	3,338	226,382	115,279
249,903	3,234	226,180	115,087
250,917	3,431	226,046	115,157
251,932	3,081	226,075	114,898
252,947	2,931	225,872	114,673
253,961	3,002	225,700	114,628
254,976	3,206	225,537	114,688
255,990	3,415	225,375	114,752
257,005	3,486	225,243	114,728
258,020	3,149	225,207	114,448
259,034	3,366	225,054	114,521
260,049	3,350	224,972	114,458
261,063	3,203	224,801	114,251
262,078	3,317	224,697	114,272
263,093	3,505	224,554	114,330
264,107	3,382	224,462	114,181
265,122	3,448	224,289	114,132
266,136	3,430	224,212	114,070
267,151	3,585	223,908	114,020
268,166	3,210	223,721	113,636
269,180	3,123	223,417	113,407
270,195	2,974	223,413	113,284
271,209	3,088	223,095	113,197
272,224	3,030	223,223	113,209
273,239	3,055	222,975	113,092
274,253	3,025	222,870	113,006
275,268	2,808	222,621	112,710
276,282	2,902	222,406	112,660
277,297	2,876	222,374	112,615
278,312	3,026	222,166	112,610
279,326	3,221	222,114	112,717
280,341	3,277	221,930	112,655
281,355	3,258	221,880	112,606
282,370	2,975	221,710	112,301
283,384	2,648	221,487	111,938
284,399	2,834	221,202	111,920
285,414	2,878	221,110	111,896
286,428	2,923	221,184	111,956
287,443	3,172	221,050	112,061
288,457	3,081	221,028	111,974
289,472	3,167	220,596	111,808
290,487	2,734	220,440	111,402
291,501	2,706	220,240	111,271
292,516	2,758	220,175	111,266
293,530	3,008	220,110	111,405
294,545	2,755	220,011	111,161
295,560	2,892	219,881	111,185
296,574	3,100	219,660	111,215
297,589	2,997	219,518	111,058
298,603	3,261	219,344	111,152
299,618	3,217	219,324	111,100
300,633	2,972	219,267	110,883
301,647	3,067	219,247	110,932
302,662	3,469	219,019	111,099
303,676	3,482	218,632	110,901
304,691	3,417	218,650	110,854
305,706	3,316	218,435	110,662
306,720	3,284	218,349	110,586
307,735	3,159	218,208	110,414
308,749	3,049	217,960	110,199
309,764	3,428	217,885	110,425
310,779	3,363	217,794	110,322
311,793	3,441	217,649	110,295
312,808	2,993	217,584	109,929
313,822	3,153	217,375	109,929
314,837	2,873	217,313	109,687
315,852	2,726	217,085	109,456
316,866	3,077	217,116	109,714
317,881	3,268	216,785	109,674
318,895	3,435	216,599	109,690
319,910	3,133	216,391	109,358
320,925	2,721	216,198	108,957
321,939	2,621	216,104	108,828
322,954	2,746	216,004	108,858
323,968	3,237	216,126	109,260
324,983	3,225	215,829	109,092
325,997	3,359	215,759	109,141
327,012	3,183	215,635	108,944
328,027	2,941	215,637	108,763
329,041	3,305	215,573	108,980
330,056	3,336	215,153	108,780
331,070	2,836	214,893	108,284
332,085	2,506	214,754	107,970
333,100	3,139	214,666	108,366
334,114	3,417	214,517	108,477
335,129	3,543	214,450	108,523
336,143	3,267	214,243	108,213
337,158	3,129	214,163	108,066
338,173	3,230	214,033	108,062
339,187	3,060	213,845	107,837
340,202	3,056	213,721	107,762
341,216	2,966	213,506	107,581
342,231	2,933	213,471	107,530
343,246	3,006	213,319	107,496
344,260	2,990	213,280	107,455
345,275	3,145	213,135	107,482
346,289	3,176	212,994	107,423
347,304	3,433	212,885	107,538
348,319	3,080	212,831	107,254
349,333	2,907	212,583	106,998
350,348	3,143	212,524	107,124
351,362	3,393	212,343	107,198
352,377	3,229	212,207	107,005
353,392	3,360	211,930	106,948
354,406	3,152	211,929	106,792
355,421	195,518	1339,496	1416,797
356,435	156,196	1476,844	1416,762
