DTS Sentinel unit serial number:	SN410029Multiplexer serial number:	ORYXHardware model number:	OX2-SRSoftware version number:	ORYX F/W v4,00 Oryx Data Collector v3.7.2.0data status	okinstallation	B6 Nyhavnadifferential loss correction	single-endedforward channel	channel 2reverse channel	N/Adate	2023/12/11time	08:45:08forward acquisition time	300,00reverse acquisition time	0,00gamma	499,1914k internal	0,3131k external	0,3131temperature offset calibration	1,0000default loss term (dB/km)	0,3820temperature slope calibration	1,0000multiplexer offset coefficient	1,0000multiplexer slope coefficient	1,0000fibre end	0,00T internal ref (°C)	17,50T ext. ref 1 (°C)	-0,19T ext. ref 2 (°C)	-0,20length (m)	temperature (°C)	Stokes	anti-Stokes-744,400	-2,394	0,090	-0,047
-743,385	-63,749	-0,221	0,067
-742,371	-200,000	-0,029	0,100
-741,356	-3,586	-0,319	0,164
-740,342	800,000	0,016	0,050
-739,327	-100,403	-0,252	-0,046
-738,312	-13,596	0,028	0,013
-737,298	-128,207	-0,325	-0,034
-736,283	-162,387	0,136	-0,005
-735,269	-144,915	-0,293	-0,020
-734,254	23,875	0,123	0,075
-733,239	-50,034	-0,491	-0,172
-732,225	-151,463	0,164	0,009
-731,210	143,233	0,048	0,047
-730,196	800,000	-0,044	-0,106
-729,181	-119,146	-0,110	0,014
-728,167	301,909	0,040	0,055
-727,152	-200,000	0,015	0,124
-726,137	239,124	0,095	-0,118
-725,123	-99,894	-0,056	0,010
-724,108	-135,429	0,039	0,003
-723,094	344,511	-0,091	-0,133
-722,079	-68,931	-0,072	-0,020
-721,064	173,124	0,065	0,070
-720,050	252,525	-0,100	-0,127
-719,035	-46,104	-0,037	-0,014
-718,021	-200,000	-0,023	-0,108
-717,006	-200,000	-0,017	-0,118
-715,991	125,968	0,052	-0,049
-714,977	-200,000	-0,012	-0,115
-713,962	74,050	0,069	0,054
-712,948	-200,000	-0,026	-0,118
-711,933	52,555	0,072	-0,051
-710,918	-114,020	-0,048	0,007
-709,904	-146,405	-0,185	0,012
-708,889	-34,155	0,042	-0,017
-707,875	800,000	0,006	-0,016
-706,860	-19,422	-0,063	-0,029
-705,845	-0,172	-0,142	0,075
-704,831	-2,189	-0,149	0,077
-703,816	800,000	0,006	-0,014
-702,802	2,206	-0,146	-0,078
-701,787	-91,809	0,095	-0,020
-700,772	41,356	-0,019	-0,013
-699,758	361,511	0,040	-0,060
-698,743	69,695	0,136	-0,104
-697,729	-1,397	0,087	0,046
-696,714	279,264	-0,060	0,080
-695,699	-200,000	-0,029	-0,094
-694,685	-30,368	-0,094	0,039
-693,670	-200,000	-0,007	-0,093
-692,656	-96,888	0,065	-0,012
-691,641	538,184	0,075	0,132
-690,627	-200,000	-0,015	0,128
-689,612	2,763	-0,121	0,065
-688,597	129,858	-0,107	-0,101
-687,583	-200,000	0,020	-0,078
-686,568	131,409	-0,098	0,093
-685,554	411,173	-0,086	-0,136
-684,539	169,793	-0,079	-0,084
-683,524	-90,383	-0,183	-0,039
-682,510	-200,000	0,008	0,101
-681,495	364,821	0,056	-0,084
-680,481	-34,483	-0,053	-0,021
-679,466	-10,714	-0,102	0,050
-678,451	111,980	-0,045	0,040
-677,437	35,220	-0,048	0,031
-676,422	-29,225	0,041	-0,017
-675,408	736,477	0,012	-0,024
-674,393	-200,000	-0,019	-0,066
-673,378	-92,700	-0,149	0,031
-672,364	135,600	-0,085	-0,082
-671,349	-70,874	-0,082	-0,023
-670,335	343,991	-0,028	0,041
-669,320	-130,189	-0,124	-0,012
-668,305	-200,000	0,002	0,060
-667,291	-39,799	0,190	0,073
-666,276	50,945	0,070	-0,049
-665,262	800,000	-0,010	-0,031
-664,247	-29,890	-0,083	0,035
-663,232	-32,522	0,114	0,047
-662,218	-30,897	0,119	-0,050
-661,203	-200,000	-0,006	-0,026
-660,189	800,000	-0,023	-0,075
-659,174	93,554	-0,143	-0,120
-658,159	800,000	0,024	-0,067
-657,145	81,528	0,068	-0,054
-656,130	-31,958	-0,078	-0,032
-655,116	-200,000	-0,010	0,041
-654,101	-170,337	-0,116	-0,003
-653,086	-110,560	0,293	0,045
-652,072	-200,000	0,001	0,085
-651,057	-200,000	0,020	-0,109
-650,043	-135,846	-0,060	0,005
-649,028	-200,000	-0,028	0,164
-648,014	23,533	0,082	-0,050
-646,999	-200,000	0,006	0,031
-645,984	-38,404	-0,126	0,049
-644,970	-200,000	0,011	0,043
-643,955	115,611	-0,057	-0,052
-642,941	689,542	0,020	0,038
-641,926	-133,806	0,036	0,003
-640,911	800,000	-0,014	0,034
-639,897	-25,451	0,216	0,094
-638,882	-51,769	0,121	-0,041
-637,868	-13,600	0,020	-0,010
-636,853	800,000	-0,017	0,038
-635,838	-52,434	-0,043	-0,015
-634,824	-16,818	-0,069	0,032
-633,809	185,710	-0,027	0,029
-632,795	-151,711	-0,084	-0,005
-631,780	-200,000	-0,007	0,055
-630,765	19,127	-0,046	0,027
-629,751	-200,000	0,010	-0,045
-628,736	8,434	-0,040	-0,022
-627,722	-200,000	-0,027	-0,094
-626,707	152,705	0,066	0,067
-625,692	-8,205	0,142	0,071
-624,678	511,873	-0,023	-0,040
-623,663	4,504	0,147	0,079
-622,649	96,486	0,080	0,068
-621,634	-107,343	-0,051	-0,008
-620,619	697,019	0,027	0,053
-619,605	-200,000	-0,003	0,074
-618,590	800,000	-0,023	-0,053
-617,576	800,000	-0,039	0,124
-616,561	107,905	0,091	0,080
-615,546	-200,000	-0,023	-0,076
-614,532	-132,360	-0,109	-0,010
-613,517	-11,799	-0,084	0,041
-612,503	274,900	0,009	0,012
-611,488	-200,000	0,023	0,085
-610,474	-62,723	0,080	-0,024
-609,459	-107,318	-0,088	-0,014
-608,444	138,748	0,116	-0,113
-607,430	800,000	-0,010	-0,024
-606,415	76,558	-0,061	-0,048
-605,401	-31,208	-0,092	-0,038
-604,386	-148,916	0,075	-0,004
-603,371	651,858	0,018	0,034
-602,357	-128,772	0,037	-0,004
-601,342	-200,000	-0,005	-0,087
-600,328	-90,372	-0,137	-0,029
-599,313	-71,231	-0,047	0,013
-598,298	20,264	-0,040	-0,024
-597,284	-200,000	0,002	0,106
-596,269	164,525	-0,093	0,097
-595,255	-49,324	-0,095	0,033
-594,240	800,000	0,010	0,032
-593,225	-200,000	0,014	0,049
-592,211	714,081	-0,056	0,111
-591,196	160,706	-0,099	0,102
-590,182	800,000	0,037	0,086
-589,167	-200,000	0,010	-0,070
-588,152	263,403	0,050	-0,065
-587,138	-200,000	0,020	-0,118
-586,123	800,000	0,050	-0,136
-585,109	800,000	-0,030	-0,088
-584,094	-200,000	0,015	-0,051
-583,079	160,622	0,072	0,074
-582,065	-101,773	0,033	-0,006
-581,050	213,085	0,047	-0,055
-580,036	-200,000	0,012	-0,119
-579,021	-177,514	-0,107	-0,002
-578,006	316,068	0,088	-0,122
-576,992	-200,000	-0,008	0,047
-575,977	800,000	-0,028	-0,073
-574,963	-200,000	-0,011	-0,053
-573,948	11,719	-0,020	0,011
-572,934	191,424	0,058	0,065
-571,919	-200,000	0,012	-0,081
-570,904	-38,092	0,113	0,044
-569,890	-62,280	-0,019	-0,006
-568,875	-63,273	0,093	0,028
-567,861	800,000	-0,023	-0,073
-566,846	-200,000	-0,011	0,039
-565,831	36,259	-0,079	-0,051
-564,817	-79,245	0,027	-0,007
-563,802	-200,000	-0,033	-0,191
-562,788	622,436	0,036	-0,067
-561,773	-164,696	-0,055	-0,002
-560,758	-43,197	0,040	-0,015
-559,744	800,000	0,008	-0,023
-558,729	800,000	0,033	-0,074
-557,715	800,000	0,009	0,028
-556,700	-200,000	-0,028	0,195
-555,685	373,647	0,003	-0,004
-554,671	-200,000	-0,004	0,057
-553,656	-65,416	-0,093	0,027
-552,642	-200,000	0,021	0,101
-551,627	-59,758	-0,131	0,041
-550,612	-59,334	-0,180	0,057
-549,598	-100,098	0,168	-0,031
-548,583	-200,000	0,000	-0,055
-547,569	-79,367	0,102	-0,025
-546,554	612,584	-0,020	0,037
-545,539	-97,248	0,141	0,027
-544,525	163,182	-0,094	-0,098
-543,510	-200,000	0,045	-0,165
-542,496	638,576	-0,042	-0,079
-541,481	800,000	0,003	0,009
-540,466	190,804	0,081	0,090
-539,452	80,876	0,106	0,084
-538,437	-200,000	-0,019	0,107
-537,423	-200,000	0,008	0,060
-536,408	788,221	-0,038	-0,077
-535,393	22,163	-0,061	-0,037
-534,379	579,293	-0,071	-0,129
-533,364	-81,120	-0,154	-0,037
-532,350	-33,832	-0,054	-0,022
-531,335	-200,000	0,002	0,017
-530,321	-200,000	-0,001	-0,014
-529,306	-200,000	-0,021	-0,107
-528,291	235,663	-0,041	0,050
-527,277	-142,647	-0,086	0,006
-526,262	440,553	-0,055	-0,088
-525,248	312,255	0,042	-0,058
-524,233	57,319	0,042	0,030
-523,218	334,951	0,053	0,076
-522,204	800,000	-0,044	0,115
-521,189	-9,026	-0,081	-0,040
-520,175	-200,000	0,008	-0,038
-519,160	800,000	-0,029	-0,063
-518,145	-200,000	0,012	0,073
-517,131	393,735	0,067	0,103
-516,116	149,155	0,080	0,079
-515,102	-68,006	-0,047	0,013
-514,087	9,592	-0,167	0,093
-513,072	800,000	0,038	-0,093
-512,058	-200,000	0,003	-0,035
-511,043	289,684	0,071	-0,095
-510,029	207,222	0,101	0,116
-509,014	45,296	-0,164	0,111
-507,999	200,713	0,083	-0,094
-506,985	-200,000	-0,009	0,120
-505,970	542,473	-0,046	-0,080
-504,956	38,316	0,103	-0,067
-503,941	519,737	0,001	0,002
-502,926	107,637	0,063	-0,055
-501,912	127,992	0,053	0,049
-500,897	-200,000	-0,044	0,154
-499,883	800,000	-0,030	-0,077
-498,868	19,721	-0,071	-0,042
-497,853	-200,000	-0,005	0,062
-496,839	-150,328	-0,055	0,003
-495,824	75,234	-0,042	-0,032
-494,810	800,000	0,040	0,115
-493,795	298,331	0,086	0,116
-492,781	800,000	0,038	0,078
-491,766	5,764	-0,095	-0,051
-490,751	-200,000	-0,012	0,078
-489,737	800,000	0,025	0,076
-488,722	800,000	0,061	0,135
-487,708	587,848	-0,012	0,023
-486,693	93,456	0,056	-0,046
-485,678	-106,484	-0,053	-0,009
-484,664	-3,746	0,065	-0,033
-483,649	-9,314	-0,053	-0,026
-482,635	-112,981	0,054	-0,008
-481,620	-102,235	0,071	0,012
-480,605	222,988	-0,077	0,092
-479,591	402,528	-0,073	-0,113
-478,576	304,659	-0,050	-0,069
-477,562	800,000	-0,021	0,045
-476,547	0,201	-0,050	-0,026
-475,532	-200,000	0,052	0,000
-474,518	-118,273	0,045	-0,006
-473,503	800,000	0,068	0,160
-472,489	228,104	-0,120	0,144
-471,474	40,393	0,083	-0,055
-470,459	465,504	-0,012	0,020
-469,445	48,339	-0,057	-0,039
-468,430	103,801	0,057	-0,050
-467,416	-150,169	-0,070	-0,004
-466,401	166,383	0,101	0,106
-465,386	50,543	0,040	-0,027
-464,372	800,000	0,028	0,091
-463,357	443,901	-0,080	-0,130
-462,343	458,765	0,060	-0,099
-461,328	-79,279	0,085	-0,021
-460,313	58,406	-0,026	-0,018
-459,299	-200,000	0,034	-0,162
-458,284	800,000	-0,014	0,034
-457,270	-200,000	0,007	-0,096
-456,255	601,791	0,021	0,039
-455,241	99,343	-0,101	-0,086
-454,226	-98,395	-0,054	-0,010
-453,211	800,000	-0,028	0,090
-452,197	48,335	-0,055	0,038
-451,182	-200,000	0,020	0,071
-450,168	-37,682	0,090	0,035
-449,153	30,409	0,016	-0,010
-448,138	-71,416	-0,048	0,013
-447,124	260,153	0,079	0,100
-446,109	-200,000	-0,020	-0,103
-445,095	800,000	-0,047	0,119
-444,080	-154,488	0,129	-0,006
-443,065	122,845	0,059	0,054
-442,051	-200,000	-0,021	0,135
-441,036	-135,509	-0,143	0,012
-440,022	120,922	0,167	-0,153
-439,007	-150,004	-0,045	0,003
-437,992	163,229	0,037	0,038
-436,978	-1,481	0,105	0,054
-435,963	800,000	-0,019	-0,048
-434,949	-117,263	-0,085	-0,011
-433,934	-200,000	-0,002	0,024
-432,919	-200,000	-0,015	-0,053
-431,905	90,116	0,046	0,037
-430,890	-9,500	0,088	0,043
-429,876	-200,000	0,003	0,131
-428,861	-200,000	0,010	0,058
-427,846	-95,680	0,071	0,014
-426,832	583,107	0,060	-0,109
-425,817	187,953	-0,033	-0,036
-424,803	98,256	-0,037	0,031
-423,788	-10,907	-0,015	-0,007
-422,773	800,000	-0,040	-0,107
-421,759	-34,809	0,091	-0,036
-420,744	-200,000	0,008	-0,057
-419,730	-101,020	-0,054	-0,010
-418,715	443,035	0,066	-0,107
-417,701	228,644	-0,075	0,090
-416,686	-15,947	-0,044	0,021
-415,671	-200,000	-0,008	0,151
-414,657	52,920	0,146	-0,103
-413,642	47,711	-0,040	0,027
-412,628	22,207	0,117	-0,070
-411,613	146,070	0,024	-0,024
-410,598	-38,598	0,046	-0,018
-409,584	390,145	-0,024	0,036
-408,569	17,006	-0,031	0,018
-407,555	-200,000	0,000	-0,017
-406,540	800,000	-0,006	0,017
-405,525	111,774	-0,061	-0,054
-404,511	333,077	0,055	-0,078
-403,496	-78,261	-0,144	0,036
-402,482	30,746	-0,074	0,047
-401,467	-8,752	0,103	-0,051
-400,452	124,565	-0,006	0,005
-399,438	441,730	-0,043	0,069
-398,423	308,617	-0,058	-0,080
-397,409	-200,000	-0,019	-0,124
-396,394	-200,000	-0,007	-0,083
-395,379	708,063	0,028	0,054
-394,365	138,159	-0,046	-0,045
-393,350	123,463	0,070	0,064
-392,336	-200,000	-0,005	0,128
-391,321	74,327	-0,098	0,075
-390,306	-200,000	-0,008	-0,028
-389,292	-56,064	-0,100	-0,032
-388,277	142,079	-0,032	0,031
-387,263	18,087	-0,048	0,028
-386,248	547,854	0,082	0,144
-385,233	800,000	0,003	-0,011
-384,219	267,905	-0,149	-0,191
-383,204	694,359	-0,075	-0,145
-382,190	-200,000	-0,026	-0,139
-381,175	29,947	0,066	0,041
-380,160	-76,372	-0,079	0,020
-379,146	653,832	0,077	0,146
-378,131	230,780	-0,047	0,057
-377,117	37,901	-0,020	0,013
-376,102	147,618	-0,083	-0,082
-375,088	-47,197	-0,124	-0,044
-374,073	85,076	0,035	-0,028
-373,058	0,212	0,104	0,054
-372,044	-200,000	0,008	0,097
-371,029	271,823	0,035	0,046
-370,015	-93,610	-0,112	0,023
-369,000	58,861	-0,010	0,007
-367,985	519,729	-0,053	-0,092
-366,971	398,262	-0,019	-0,030
-365,956	-133,793	-0,067	0,006
-364,942	-200,000	-0,022	0,087
-363,927	479,995	0,040	0,066
-362,912	335,995	0,054	0,076
-361,898	-200,000	-0,019	-0,117
-360,883	109,356	-0,180	-0,158
-359,869	105,204	-0,027	-0,024
-358,854	190,002	-0,050	-0,055
-357,839	800,000	-0,017	0,036
-356,825	124,101	0,019	0,017
-355,810	800,000	-0,051	0,119
-354,796	-30,224	-0,106	-0,044
-353,781	-200,000	0,005	-0,146
-352,766	-145,106	-0,143	-0,009
-351,752	-200,000	-0,013	-0,046
-350,737	-152,807	0,086	-0,004
-349,723	90,103	0,047	0,038
-348,708	-19,134	-0,106	0,048
-347,693	119,594	0,035	-0,031
-346,679	-200,000	-0,007	-0,170
-345,664	-200,000	-0,051	-0,182
-344,650	-121,653	-0,011	-0,001
-343,635	606,660	0,013	-0,024
-342,620	279,603	0,063	0,082
-341,606	690,133	-0,011	-0,022
-340,591	1,728	-0,088	0,046
-339,577	270,630	0,056	-0,072
-338,562	-152,470	0,063	0,003
-337,548	79,607	0,075	-0,059
-336,533	178,870	-0,053	-0,057
-335,518	-87,117	0,023	-0,005
-334,504	-200,000	0,005	-0,022
-333,489	16,850	0,116	0,067
-332,475	-70,270	0,109	-0,030
-331,460	-200,000	-0,021	-0,089
-330,445	670,889	-0,033	0,063
-329,431	-66,996	0,137	0,039
-328,416	800,000	-0,053	0,109
-327,402	180,676	0,061	0,065
-326,387	-200,000	0,024	0,108
-325,372	698,385	0,034	-0,065
-324,358	157,255	0,040	-0,041
-323,343	-200,000	-0,012	-0,119
-322,329	800,000	0,012	-0,033
-321,314	-45,812	0,071	0,026
-320,299	-200,000	0,028	0,112
-319,285	217,473	0,053	0,061
-318,270	800,000	-0,049	-0,125
-317,256	553,612	0,063	0,112
-316,241	-148,794	-0,181	-0,011
-315,226	36,934	0,110	-0,071
-314,212	-33,061	0,021	0,008
-313,197	604,561	-0,058	-0,105
-312,183	179,583	0,049	0,052
-311,168	134,716	0,119	-0,113
-310,153	-24,164	-0,188	-0,082
-309,139	800,000	-0,028	-0,065
-308,124	-200,000	-0,010	-0,075
-307,110	197,394	0,029	0,032
-306,095	146,816	0,059	-0,058
-305,080	225,538	-0,037	0,044
-304,066	381,583	-0,086	-0,130
-303,051	-3,493	0,133	-0,068
-302,037	-200,000	0,028	-0,129
-301,022	-87,895	-0,041	-0,009
-300,008	-86,924	0,148	0,033
-298,993	-200,000	0,000	0,056
-297,978	-200,000	-0,004	0,021
-296,964	-87,896	0,053	-0,011
-295,949	562,870	-0,048	0,086
-294,935	70,574	-0,053	-0,040
-293,920	-33,165	0,152	-0,061
-292,905	800,000	-0,028	0,061
-291,891	-33,315	0,106	0,043
-290,876	-56,416	0,025	0,008
-289,862	-101,365	-0,057	0,010
-288,847	-172,127	-0,139	0,003
-287,832	-200,000	-0,009	-0,060
-286,818	-200,000	0,002	0,062
-285,803	403,638	-0,031	-0,048
-284,789	-24,655	0,048	-0,021
-283,774	-29,723	0,042	-0,017
-282,759	64,993	-0,048	0,035
-281,745	-200,000	-0,032	-0,138
-280,730	157,698	0,064	-0,065
-279,716	-27,850	0,120	-0,051
-278,701	-200,000	0,016	0,101
-277,686	-6,522	0,043	0,021
-276,672	199,619	0,116	0,130
-275,657	-93,704	-0,125	0,025
-274,643	-200,000	-0,038	-0,161
-273,628	-80,898	-0,019	0,004
-272,613	-181,306	-0,119	-0,002
-271,599	571,505	0,041	0,074
-270,584	800,000	0,072	0,158
-269,570	42,221	0,082	0,054
-268,555	-200,000	0,026	-0,094
-267,540	-118,988	-0,148	-0,019
-266,526	20,378	-0,110	-0,065
-265,511	-200,000	-0,037	-0,122
-264,497	48,396	0,077	0,053
-263,482	-84,030	0,129	-0,030
-262,467	216,711	-0,079	-0,092
-261,453	800,000	-0,040	-0,099
-260,438	-0,805	-0,104	-0,053
-259,424	-200,000	-0,008	0,191
-258,409	547,438	-0,058	0,103
-257,395	549,966	0,022	0,039
-256,380	800,000	0,013	-0,032
-255,365	-200,000	-0,017	0,080
-254,351	263,252	0,046	0,059
-253,336	300,626	0,016	0,021
-252,322	-200,000	0,018	-0,164
-251,307	-200,000	0,040	-0,152
-250,292	-200,000	0,010	0,055
-249,278	800,000	-0,024	0,066
-248,263	180,327	0,107	0,115
-247,249	800,000	0,015	0,032
-246,234	-85,783	-0,148	0,033
-245,219	-52,899	-0,081	0,027
-244,205	-101,844	0,016	-0,003
-243,190	181,282	0,088	0,094
-242,176	-2,525	0,101	-0,051
-241,161	-81,362	0,149	-0,036
-240,146	-121,307	0,055	0,007
-239,132	113,593	0,021	0,019
-238,117	800,000	0,032	-0,072
-237,103	35,242	-0,109	-0,070
-236,088	-200,000	0,019	-0,082
-235,073	-174,071	0,086	-0,002
-234,059	-172,799	0,099	-0,002
-233,044	37,884	0,091	0,059
-232,030	-102,807	0,044	-0,007
-231,015	620,883	-0,004	-0,007
-230,000	-200,000	0,002	-0,013
-228,986	-135,704	-0,111	-0,009
-227,971	-200,000	0,022	-0,076
-226,957	-0,251	0,070	-0,036
-225,942	155,403	0,100	0,100
-224,927	329,177	-0,018	-0,026
-223,913	-52,701	-0,069	-0,023
-222,898	-33,874	-0,107	0,043
-221,884	286,851	0,049	0,064
-220,869	-200,000	0,001	-0,121
-219,855	-140,398	0,091	-0,007
-218,840	-200,000	0,013	0,075
-217,825	70,203	0,016	-0,012
-216,811	-21,370	-0,092	-0,041
-215,796	70,368	-0,139	-0,105
-214,782	-200,000	0,007	0,073
-213,767	-200,000	-0,003	0,076
-212,752	-200,000	-0,011	-0,048
-211,738	277,632	-0,041	0,053
-210,723	486,571	0,037	0,061
-209,709	72,779	0,020	-0,015
-208,694	-18,134	-0,084	-0,038
-207,679	-200,000	0,020	0,079
-206,665	89,179	0,091	-0,074
-205,650	135,633	0,047	-0,045
-204,636	-42,756	0,059	0,022
-203,621	800,000	-0,024	0,066
-202,606	140,281	0,027	0,026
-201,592	197,727	-0,063	0,070
-200,577	-64,829	-0,089	-0,026
-199,563	-148,626	0,119	-0,007
-198,548	386,443	-0,034	0,051
-197,533	-139,877	-0,171	-0,013
-196,519	20,567	-0,034	0,020
-195,504	221,121	-0,089	-0,104
-194,490	-124,278	-0,031	-0,004
-193,475	-200,000	0,020	-0,140
-192,460	-200,000	0,013	-0,045
-191,446	-200,000	0,001	0,062
-190,431	-200,000	-0,003	0,011
-189,417	-200,000	-0,025	0,097
-188,402	454,270	0,055	0,088
-187,387	800,000	-0,045	0,095
-186,373	800,000	-0,042	-0,095
-185,358	92,536	0,084	0,069
-184,344	-131,108	-0,154	-0,015
-183,329	460,112	0,011	-0,017
-182,315	800,000	-0,051	-0,118
-181,300	637,957	-0,028	0,053
-180,285	-200,000	0,010	0,104
-179,271	333,331	-0,048	0,068
-178,256	230,259	-0,069	-0,082
-177,242	342,925	0,042	0,061
-176,227	385,723	-0,027	-0,040
-175,212	50,883	0,114	0,078
-174,198	-200,000	-0,002	0,020
-173,183	-29,398	-0,194	-0,080
-172,169	140,305	0,048	0,046
-171,154	724,461	-0,032	0,062
-170,139	-200,000	0,014	-0,057
-169,125	556,085	0,033	-0,057
-168,110	13,606	0,106	0,060
-167,096	-200,000	0,003	-0,091
-166,081	-17,023	0,155	-0,071
-165,066	800,000	-0,056	0,177
-164,052	187,277	-0,033	-0,035
-163,037	107,307	0,077	-0,066
-162,023	-167,250	-0,069	0,002
-161,008	71,467	-0,026	-0,020
-159,993	-200,000	0,019	0,121
-158,979	42,853	-0,132	0,087
-157,964	108,193	0,105	-0,091
-156,950	4,257	-0,041	0,022
-155,935	432,564	0,041	-0,065
-154,920	247,060	0,062	0,077
-153,906	-89,017	0,177	0,038
-152,891	-50,138	0,093	0,032
-151,877	800,000	-0,019	0,051
-150,862	-79,292	-0,019	-0,005
-149,847	521,431	-0,007	0,013
-148,833	15,921	0,158	-0,090
-147,818	-200,000	-0,010	0,056
-146,804	127,271	-0,053	0,049
-145,789	-142,199	0,172	-0,012
-144,775	526,153	-0,009	0,015
-143,760	-200,000	-0,003	-0,097
-142,745	-47,865	-0,024	0,008
-141,731	139,415	0,072	-0,069
-140,716	-200,000	-0,001	0,113
-139,702	-200,000	-0,014	0,049
-138,687	800,000	-0,058	0,151
-137,672	561,285	0,100	0,177
-136,658	620,930	-0,020	-0,037
-135,643	800,000	0,029	0,069
-134,629	328,347	-0,010	0,014
-133,614	-108,889	0,088	-0,014
-132,599	88,011	-0,030	-0,024
-131,585	719,688	0,023	-0,045
-130,570	-133,095	-0,023	0,002
-129,556	-200,000	0,014	-0,158
-128,541	-37,280	0,035	0,014
-127,526	669,245	0,009	0,018
-126,512	-200,000	0,020	0,093
-125,497	-80,369	0,164	0,040
-124,483	396,195	0,050	0,076
-123,468	739,819	0,055	0,108
-122,453	-200,000	-0,005	-0,062
-121,439	-43,468	-0,106	-0,039
-120,424	-50,569	-0,131	-0,044
-119,410	164,109	0,034	0,035
-118,395	68,415	0,046	-0,034
-117,380	82,690	-0,015	0,011
-116,366	800,000	-0,025	0,077
-115,351	800,000	0,075	0,218
-114,337	-200,000	-0,017	0,063
-113,322	225,354	0,022	-0,026
-112,307	800,000	0,071	0,154
-111,293	126,650	0,043	-0,039
-110,278	-200,000	0,007	-0,034
-109,264	800,000	0,023	0,068
-108,249	740,141	0,092	0,179
-107,234	800,000	-0,040	-0,092
-106,220	142,851	0,051	-0,049
-105,205	-200,000	-0,029	-0,168
-104,191	396,832	0,028	0,043
-103,176	206,330	-0,033	0,037
-102,162	-70,872	0,068	0,019
-101,147	-24,111	-0,087	0,037
-100,132	310,844	0,020	0,027
-99,118	482,895	-0,025	-0,041
-98,103	72,511	-0,038	0,028
-97,089	800,000	-0,025	-0,054
-96,074	159,815	0,138	0,140
-95,059	183,793	-0,087	0,094
-94,045	-200,000	-0,009	0,056
-93,030	-8,339	-0,066	0,032
-92,016	81,111	-0,020	-0,016
-91,001	154,215	0,059	0,059
-89,986	-200,000	0,042	0,181
-88,972	-200,000	0,028	0,176
-87,957	-200,000	-0,001	0,097
-86,943	728,049	0,036	0,069
-85,928	-200,000	-0,010	-0,123
-84,913	-102,660	0,057	-0,010
-83,899	800,000	0,028	0,086
-82,884	205,052	0,024	0,027
-81,870	713,811	0,026	0,050
-80,855	142,436	0,019	0,018
-79,840	296,629	-0,049	0,065
-78,826	196,134	-0,086	-0,095
-77,811	-140,135	-0,078	-0,006
-76,797	-30,842	-0,033	-0,013
-75,782	-16,233	-0,078	0,036
-74,767	800,000	0,028	0,086
-73,753	-31,758	-0,027	0,011
-72,738	-148,051	0,016	-0,001
-71,724	457,608	-0,018	0,029
-70,709	-38,505	-0,040	-0,015
-69,694	-121,426	-0,041	0,005
-68,680	762,340	-0,057	0,112
-67,665	221,104	0,028	0,033
-66,651	-68,167	0,045	0,013
-65,636	-200,000	-0,020	0,103
-64,622	88,293	-0,109	-0,088
-63,607	203,654	0,018	0,020
-62,592	178,797	-0,138	-0,146
-61,578	328,218	0,061	0,085
-60,563	-70,572	-0,039	-0,011
-59,549	-200,000	-0,019	0,091
-58,534	17,389	-1,689	-0,968
-57,519	800,000	-0,328	-1,005
-56,505	-200,000	-1,178	-4,767
-55,490	-84,817	0,708	0,160
-54,476	800,000	5,193	12,260
-53,461	-200,000	16,580	271,347
-52,446	800,000	710,169	2219,394
-51,432	565,466	1621,386	2856,382
-50,417	117,061	1619,046	1439,137
-49,403	80,840	1280,761	998,722
-48,388	35,242	1027,539	650,437
-47,373	20,997	990,034	579,420
-46,359	19,816	978,375	568,671
-45,344	17,888	973,992	559,746
-44,330	17,940	973,054	559,359
-43,315	17,589	971,247	557,143
-42,300	17,580	970,078	556,419
-41,286	17,561	969,180	555,819
-40,271	17,537	968,221	555,168
-39,257	17,630	967,267	554,906
-38,242	17,521	966,754	554,230
-37,227	17,551	965,822	553,774
-36,213	17,557	964,873	553,227
-35,198	17,470	964,031	552,438
-34,184	17,569	963,388	552,372
-33,169	17,486	962,419	551,524
-32,154	17,513	961,492	551,058
-31,140	17,556	960,527	550,624
-30,125	17,565	959,842	550,237
-29,111	17,587	958,974	549,791
-28,096	17,555	958,308	549,283
-27,082	17,557	957,735	548,937
-26,067	17,570	956,864	548,458
-25,052	17,500	956,089	547,766
-24,038	17,593	955,351	547,622
-23,023	17,499	954,880	547,026
-22,009	17,571	954,167	546,830
-20,994	17,576	953,342	546,351
-19,979	17,548	952,905	545,989
-18,965	17,529	952,269	545,540
-17,950	17,499	951,756	545,130
-16,936	17,482	950,903	544,564
-15,921	17,422	950,283	543,994
-14,906	17,409	949,502	543,486
-13,892	17,432	948,973	543,233
-12,877	17,373	948,247	542,608
-11,863	17,397	947,455	542,211
-10,848	17,422	947,033	542,025
-9,833	17,458	946,491	541,811
-8,819	17,390	945,968	541,273
-7,804	17,425	945,207	540,927
-6,790	17,382	944,648	540,448
-5,775	17,451	944,021	540,289
-4,760	17,487	943,225	539,925
-3,746	17,446	942,828	539,547
-2,731	17,322	941,912	538,607
-1,717	17,275	941,300	538,085
-0,702	17,285	940,649	537,723
0,313	17,052	940,141	537,502
1,327	20,345	938,352	546,888
2,342	29,723	794,800	488,227
3,356	26,270	447,728	269,827
4,371	-5,029	294,885	146,273
5,386	-9,026	276,240	133,205
6,400	-10,748	270,437	128,788
7,415	-10,901	268,091	127,517
8,429	-10,428	266,916	127,384
9,444	-10,419	266,075	126,979
10,459	-10,292	265,472	126,797
11,473	-10,223	264,744	126,500
12,488	-10,147	264,317	126,354
13,502	-10,375	263,790	125,884
14,517	-10,045	263,422	125,996
15,531	-9,722	263,390	126,264
16,546	-9,531	263,014	126,245
17,561	-9,704	262,767	125,959
18,575	-9,452	262,415	126,007
19,590	-9,511	262,034	125,759
20,604	-9,477	261,721	125,629
21,619	-9,686	261,375	125,263
22,634	-9,564	261,003	125,183
23,648	-9,573	260,715	125,026
24,663	-9,731	260,458	124,750
25,677	-9,717	260,247	124,650
26,692	-9,638	260,119	124,648
27,707	-9,569	259,750	124,522
28,721	-9,629	259,461	124,319
29,736	-9,753	259,225	124,084
30,750	-9,584	258,919	124,077
31,765	-9,719	258,716	123,849
32,780	-9,605	258,464	123,818
33,794	-9,538	258,301	123,789
34,809	-9,550	258,002	123,624
35,823	-9,706	257,932	123,441
36,838	-9,406	257,445	123,462
37,853	-9,585	257,389	123,266
38,867	-9,278	256,942	123,312
39,882	-9,488	256,810	123,053
40,896	-9,687	256,850	122,885
41,911	-9,474	256,277	122,787
42,926	-9,777	256,204	122,475
43,940	-9,728	255,828	122,327
44,955	-9,667	255,808	122,360
45,969	-9,740	255,356	122,069
46,984	-9,789	255,257	121,968
47,999	-9,670	254,959	121,919
49,013	-9,855	254,938	121,736
50,028	-9,765	254,575	121,630
51,042	-10,000	254,377	121,319
52,057	-9,996	254,244	121,249
53,071	-9,752	253,801	121,240
54,086	-10,023	253,926	121,052
55,101	-10,055	253,725	120,917
56,115	-9,846	253,388	120,928
57,130	-9,805	253,288	120,905
58,144	-9,593	252,884	120,885
59,159	-9,739	252,756	120,687
60,174	-9,735	252,567	120,589
61,188	-9,701	252,297	120,479
62,203	-9,548	252,108	120,510
63,217	-9,443	251,965	120,523
64,232	-9,780	251,822	120,152
65,247	-9,923	251,488	119,858
66,261	-9,788	251,236	119,843
67,276	-9,732	250,976	119,758
68,290	-9,939	250,900	119,532
69,305	-10,023	250,540	119,278
70,320	-9,990	250,556	119,303
71,334	-9,657	250,276	119,446
72,349	-9,750	250,141	119,290
73,363	-9,740	249,779	119,116
74,378	-9,702	249,725	119,112
75,393	-9,849	249,419	118,829
76,407	-9,529	249,203	118,990
77,422	-9,707	249,000	118,730
78,436	-9,756	248,791	118,578
79,451	-9,719	248,482	118,452
80,466	-9,807	248,377	118,316
81,480	-9,750	248,113	118,228
82,495	-9,878	247,897	118,006
83,509	-9,812	247,871	118,040
84,524	-9,527	247,687	118,183
85,539	-9,777	247,465	117,855
86,553	-9,616	247,130	117,821
87,568	-9,587	246,918	117,734
88,582	-9,878	246,807	117,424
89,597	-9,997	246,628	117,228
90,611	-9,767	246,558	117,378
91,626	-9,717	246,425	117,348
92,641	-9,674	246,146	117,240
93,655	-9,719	245,911	117,080
94,670	-9,656	245,629	116,988
95,684	-9,533	245,367	116,956
96,699	-9,878	245,443	116,693
97,714	-9,819	245,244	116,637
98,728	-9,714	244,984	116,590
99,743	-9,705	244,799	116,500
100,757	-9,957	244,708	116,235
101,772	-9,888	244,489	116,178
102,787	-10,104	244,389	115,939
103,801	-9,833	244,021	115,981
104,816	-9,827	243,932	115,934
105,830	-9,887	243,492	115,663
106,845	-9,774	243,469	115,737
107,860	-10,007	243,354	115,478
108,874	-9,979	243,085	115,363
109,889	-10,000	242,893	115,244
110,903	-9,981	242,769	115,191
111,918	-10,067	242,513	114,988
112,933	-10,084	242,382	114,902
113,947	-9,803	242,079	114,980
114,962	-9,943	242,128	114,877
115,976	-9,915	241,804	114,736
116,991	-9,943	241,738	114,672
118,006	-9,936	241,531	114,569
119,020	-9,693	241,266	114,633
120,035	-9,896	241,252	114,450
121,049	-9,743	241,119	114,502
122,064	-9,725	240,772	114,342
123,079	-9,765	240,649	114,240
124,093	-9,858	240,479	114,073
125,108	-9,888	240,320	113,963
126,122	-9,758	240,128	113,969
127,137	-9,773	239,899	113,837
128,151	-9,924	239,893	113,700
129,166	-9,759	239,435	113,609
130,181	-9,744	239,318	113,555
131,195	-9,826	239,117	113,383
132,210	-9,868	238,901	113,236
133,224	-10,019	238,810	113,059
134,239	-9,918	238,622	113,043
135,254	-10,037	238,525	112,890
136,268	-9,792	238,152	112,902
137,283	-9,994	238,088	112,698
138,297	-9,905	237,838	112,642
139,312	-10,010	237,679	112,471
140,327	-9,755	237,387	112,529
141,341	-9,653	237,453	112,633
142,356	-9,861	237,356	112,409
143,370	-9,830	237,196	112,347
144,385	-9,703	237,123	112,406
145,400	-9,764	236,890	112,236
146,414	-9,621	236,618	112,213
147,429	-9,866	236,481	111,940
148,443	-9,742	236,278	111,934
149,458	-9,759	236,074	111,814
150,473	-9,742	235,981	111,774
151,487	-10,032	235,733	111,413
152,502	-9,740	235,607	111,578
153,516	-9,571	235,412	111,611
154,531	-9,669	235,207	111,426
155,546	-9,528	234,940	111,402
156,560	-9,631	234,870	111,277
157,575	-9,856	234,565	110,943
158,589	-9,847	234,430	110,875
159,604	-9,596	234,371	111,038
160,619	-9,622	234,369	111,006
161,633	-9,430	234,130	111,036
162,648	-9,333	233,887	110,989
163,662	-9,536	233,677	110,718
164,677	-9,807	233,657	110,483
165,692	-9,756	233,450	110,416
166,706	-9,522	233,308	110,524
167,721	-9,483	233,156	110,473
168,735	-9,421	233,002	110,440
169,750	-9,445	232,687	110,261
170,764	-9,610	232,592	110,076
171,779	-9,571	232,387	110,000
172,794	-9,647	232,301	109,889
173,808	-9,839	232,118	109,642
174,823	-9,860	231,778	109,455
175,837	-10,131	231,784	109,234
176,852	-10,003	231,679	109,276
177,867	-9,729	231,330	109,317
178,881	-9,949	231,501	109,215
179,896	-9,633	231,221	109,322
180,910	-9,649	231,096	109,240
181,925	-9,884	230,968	108,985
182,940	-9,824	230,687	108,890
183,954	-9,628	230,501	108,946
184,969	-9,637	230,443	108,902
185,983	-9,431	230,315	108,993
186,998	-9,347	230,127	108,959
188,013	-9,329	229,941	108,876
189,027	-9,375	229,723	108,727
190,042	-9,562	229,645	108,534
191,056	-9,806	229,521	108,276
192,071	-9,873	229,270	108,096
193,086	-9,846	229,142	108,047
194,100	-10,315	228,613	107,424
195,115	-11,833	228,002	105,952
196,129	-11,811	228,188	106,046
197,144	-7,175	229,527	110,270
198,159	-1,558	230,990	115,355
199,173	1,271	231,827	117,976
200,188	1,991	232,108	118,672
201,202	2,643	232,010	119,121
202,217	3,165	232,047	119,538
203,232	3,272	231,984	119,578
204,246	3,521	231,579	119,553
205,261	3,262	231,545	119,323
206,275	3,433	231,375	119,358
207,290	3,431	231,409	119,363
208,304	3,556	231,082	119,281
209,319	3,428	230,925	119,090
210,334	3,267	230,743	118,860
211,348	2,988	230,408	118,461
212,363	2,422	230,255	117,933
213,377	2,235	229,846	117,568
214,392	2,048	229,676	117,327
215,407	2,175	229,486	117,317
216,421	2,006	229,355	117,109
217,436	1,955	229,216	116,989
218,450	1,725	229,292	116,839
219,465	1,737	228,926	116,652
220,480	1,870	228,787	116,673
221,494	1,894	228,598	116,584
222,509	2,046	228,432	116,606
223,523	2,212	228,355	116,684
224,538	2,061	228,318	116,539
225,553	2,220	228,058	116,517
226,567	2,088	227,837	116,293
227,582	2,045	227,858	116,260
228,596	2,163	227,597	116,207
229,611	2,080	227,465	116,066
230,626	2,099	227,269	115,970
231,640	1,803	227,256	115,727
232,655	2,049	226,939	115,743
233,669	2,025	226,998	115,745
234,684	2,024	226,696	115,579
235,699	1,888	226,823	115,530
236,713	2,309	226,529	115,691
237,728	2,250	226,380	115,559
238,742	2,271	226,178	115,461
239,757	2,106	226,009	115,240
240,772	2,213	225,839	115,224
241,786	2,357	225,818	115,312
242,801	2,645	225,639	115,428
243,815	2,589	225,648	115,381
244,830	2,665	225,381	115,291
245,844	2,465	225,214	115,044
246,859	2,368	224,998	114,851
247,874	2,248	224,922	114,711
248,888	2,160	224,749	114,546
249,903	2,245	224,545	114,496
250,917	2,396	224,432	114,542
251,932	2,091	224,322	114,246
252,947	2,221	224,263	114,303
253,961	2,132	224,186	114,188
254,976	2,025	223,895	113,948
255,990	2,456	223,596	114,109
257,005	2,304	223,673	114,024
258,020	2,553	223,510	114,118
259,034	2,471	223,300	113,939
260,049	2,388	223,241	113,837
261,063	2,396	223,095	113,759
262,078	2,439	222,875	113,668
263,093	2,254	222,755	113,458
264,107	2,388	222,766	113,554
265,122	2,259	222,549	113,337
266,136	2,302	222,364	113,265
267,151	2,344	222,127	113,165
268,166	2,438	222,029	113,175
269,180	2,274	221,765	112,909
270,195	1,960	221,671	112,617
271,209	2,199	221,508	112,702
272,224	2,304	221,398	112,714
273,239	2,116	221,157	112,442
274,253	1,943	221,086	112,268
275,268	2,234	221,021	112,440
276,282	2,084	220,886	112,250
277,297	2,090	220,623	112,111
278,312	2,041	220,524	112,015
279,326	2,070	220,439	111,983
280,341	2,052	220,311	111,894
281,355	2,159	220,105	111,858
282,370	2,512	219,838	111,973
283,384	2,176	219,794	111,693
284,399	2,264	219,525	111,611
285,414	2,189	219,606	111,587
286,428	2,433	219,499	111,702
287,443	2,263	219,324	111,479
288,457	2,306	219,193	111,433
289,472	2,323	219,033	111,355
290,487	2,020	218,811	111,010
291,501	2,277	218,468	111,014
292,516	2,178	218,588	110,993
293,530	2,204	218,397	110,905
294,545	2,445	218,280	111,011
295,560	2,377	218,178	110,900
296,574	2,465	218,220	110,976
297,589	2,530	218,057	110,930
298,603	2,587	217,859	110,861
299,618	2,405	217,485	110,528
300,633	2,481	217,601	110,632
301,647	2,683	217,534	110,736
302,662	2,456	217,333	110,459
303,676	2,646	217,139	110,488
304,691	2,624	216,887	110,334
305,706	2,347	216,951	110,156
306,720	2,492	216,837	110,193
307,735	2,523	216,334	109,951
308,749	2,441	216,393	109,911
309,764	2,292	216,280	109,737
310,779	2,426	216,153	109,759
311,793	2,368	215,987	109,623
312,808	2,514	215,777	109,612
313,822	2,287	215,669	109,384
314,837	2,203	215,538	109,247
315,852	2,169	215,405	109,145
316,866	2,350	215,293	109,209
317,881	2,373	215,194	109,165
318,895	2,301	214,888	108,949
319,910	2,219	214,856	108,865
320,925	2,142	214,622	108,681
321,939	2,245	214,410	108,638
322,954	2,196	214,461	108,619
323,968	2,152	214,306	108,499
324,983	1,998	214,170	108,311
325,997	2,290	213,945	108,396
327,012	2,122	213,930	108,258
328,027	2,002	213,760	108,077
329,041	2,094	213,725	108,116
330,056	2,320	213,438	108,121
331,070	2,403	213,357	108,130
332,085	2,288	213,035	107,876
333,100	2,260	213,091	107,874
334,114	2,287	212,891	107,783
335,129	2,344	212,700	107,717
336,143	2,394	212,443	107,612
337,158	2,243	212,555	107,552
338,173	2,416	212,386	107,580
339,187	2,385	212,176	107,442
340,202	2,201	212,020	107,224
341,216	2,268	211,788	107,144
342,231	2,176	211,800	107,076
343,246	2,691	211,577	107,316
344,260	2,471	211,438	107,081
345,275	2,392	211,394	106,993
346,289	2,713	211,192	107,107
347,304	2,416	211,140	106,862
348,319	2,385	211,111	106,817
349,333	2,416	210,731	106,636
350,348	2,472	210,561	106,580
351,362	2,362	210,501	106,463
352,377	2,414	210,510	106,495
353,392	2,229	210,422	106,312
354,406	2,293	210,171	106,219
355,421	194,076	1341,993	1426,983
356,435	154,925	1479,910	1427,010
