DTS Sentinel unit serial number:	SN410029Multiplexer serial number:	ORYXHardware model number:	OX2-SRSoftware version number:	ORYX F/W v4,00 Oryx Data Collector v3.7.2.0data status	okinstallation	B6 Nyhavnadifferential loss correction	single-endedforward channel	channel 2reverse channel	N/Adate	2023/12/08time	04:10:08forward acquisition time	300,00reverse acquisition time	0,00gamma	499,1914k internal	0,3165k external	0,3165temperature offset calibration	1,0000default loss term (dB/km)	0,3820temperature slope calibration	1,0000multiplexer offset coefficient	1,0000multiplexer slope coefficient	1,0000fibre end	0,00T internal ref (°C)	13,06T ext. ref 1 (°C)	-3,80T ext. ref 2 (°C)	-3,80length (m)	temperature (°C)	Stokes	anti-Stokes-744,400	-125,649	0,233	0,026
-743,385	-81,154	-0,300	-0,072
-742,371	469,573	0,017	0,028
-741,356	-26,198	-0,232	0,100
-740,342	-200,000	0,005	0,188
-739,327	-116,713	-0,295	0,039
-738,312	-66,008	0,146	0,043
-737,298	-123,554	-0,448	-0,052
-736,283	-80,805	0,185	0,045
-735,269	-189,225	-0,263	-0,002
-734,254	-73,492	0,239	-0,064
-733,239	-23,012	-0,541	-0,239
-732,225	670,028	0,036	-0,068
-731,210	-78,205	-0,069	0,017
-730,196	-27,018	0,131	-0,056
-729,181	-1,055	-0,205	0,106
-728,167	125,105	0,066	-0,062
-727,152	-5,946	0,031	-0,016
-726,137	58,975	-0,109	0,078
-725,123	5,758	-0,088	0,048
-724,108	27,760	-0,066	-0,040
-723,094	-200,000	0,009	0,056
-722,079	-200,000	-0,011	-0,045
-721,064	-17,478	0,011	-0,005
-720,050	64,306	0,098	-0,072
-719,035	-200,000	0,007	-0,046
-718,021	800,000	-0,037	0,101
-717,006	-200,000	-0,002	0,081
-715,991	708,730	-0,013	0,026
-714,977	3,490	0,021	0,011
-713,962	246,856	-0,085	0,106
-712,948	-200,000	0,017	-0,097
-711,933	-16,386	-0,027	0,013
-710,918	-38,911	-0,173	0,067
-709,904	99,614	-0,061	-0,052
-708,889	-72,057	-0,226	-0,061
-707,875	-121,868	-0,089	-0,011
-706,860	-200,000	0,016	0,087
-705,845	-200,000	0,011	0,145
-704,831	800,000	0,043	0,115
-703,816	-200,000	0,020	-0,089
-702,802	412,310	0,027	-0,043
-701,787	165,403	0,044	-0,046
-700,772	-90,237	-0,043	-0,009
-699,758	-109,928	-0,019	-0,003
-698,743	800,000	-0,035	0,081
-697,729	19,350	-0,076	-0,045
-696,714	800,000	0,046	0,101
-695,699	-33,336	-0,068	-0,028
-694,685	800,000	-0,066	-0,165
-693,670	-114,118	-0,143	-0,020
-692,656	94,514	-0,093	-0,078
-691,641	-29,801	0,120	-0,050
-690,627	-49,717	-0,096	0,033
-689,612	-122,670	0,071	-0,008
-688,597	-61,661	0,078	-0,024
-687,583	730,795	0,023	-0,044
-686,568	350,846	0,080	-0,116
-685,554	-200,000	-0,024	-0,096
-684,539	-200,000	-0,007	-0,089
-683,524	-48,816	0,066	-0,023
-682,510	-86,628	0,074	0,017
-681,495	800,000	-0,029	-0,070
-680,481	94,213	-0,075	-0,063
-679,466	-200,000	-0,015	-0,138
-678,451	-125,505	0,009	0,001
-677,437	800,000	0,028	-0,075
-676,422	-107,079	-0,026	0,004
-675,408	-200,000	0,002	-0,044
-674,393	-200,000	-0,011	-0,126
-673,378	-130,902	-0,155	0,015
-672,364	-200,000	0,013	0,056
-671,349	103,162	-0,050	-0,043
-670,335	17,378	0,108	0,063
-669,320	800,000	0,047	-0,140
-668,305	-59,763	0,103	-0,032
-667,291	-161,292	0,017	0,001
-666,276	265,676	0,042	0,054
-665,262	-67,599	-0,020	-0,006
-664,247	800,000	-0,033	-0,072
-663,232	-36,191	-0,101	0,040
-662,218	-73,085	0,122	-0,033
-661,203	-200,000	-0,020	0,080
-660,189	60,886	0,041	0,030
-659,174	83,181	-0,032	0,026
-658,159	-184,012	-0,030	0,000
-657,145	181,675	-0,143	-0,154
-656,130	800,000	-0,046	-0,093
-655,116	-52,374	-0,064	0,021
-654,101	4,613	-0,015	-0,008
-653,086	-200,000	0,000	-0,062
-652,072	23,708	0,003	-0,002
-651,057	64,252	-0,005	-0,003
-650,043	-65,019	-0,130	-0,038
-649,028	-23,516	0,046	0,020
-648,014	208,416	0,075	0,086
-646,999	-76,552	0,084	-0,021
-645,984	305,463	-0,096	0,132
-644,970	-59,057	0,137	0,043
-643,955	22,427	-0,114	-0,068
-642,941	157,058	-0,070	-0,071
-641,926	-104,194	0,166	0,028
-640,911	800,000	-0,007	0,017
-639,897	-200,000	0,022	0,142
-638,882	121,560	-0,035	-0,032
-637,868	231,799	0,082	-0,098
-636,853	420,015	0,026	0,040
-635,838	696,091	0,012	-0,024
-634,824	800,000	0,030	-0,086
-633,809	-55,130	0,054	0,018
-632,795	254,316	0,048	0,061
-631,780	383,602	0,055	-0,083
-630,765	-106,715	-0,027	-0,004
-629,751	253,482	-0,036	-0,045
-628,736	-129,505	-0,060	0,006
-627,722	-200,000	-0,015	-0,165
-626,707	-62,740	0,165	0,050
-625,692	-200,000	0,009	0,067
-624,678	-140,868	0,007	0,001
-623,663	16,460	-0,071	-0,041
-622,649	331,395	-0,123	-0,175
-621,634	-164,548	-0,095	-0,003
-620,619	-200,000	0,006	-0,030
-619,605	231,914	-0,043	0,051
-618,590	800,000	0,037	0,107
-617,576	-101,150	0,049	-0,009
-616,561	-200,000	-0,011	0,105
-615,546	800,000	0,005	0,017
-614,532	-200,000	0,010	0,060
-613,517	-200,000	0,002	0,014
-612,503	800,000	-0,034	0,078
-611,488	-81,227	0,039	-0,009
-610,474	129,051	0,041	-0,038
-609,459	800,000	0,016	0,046
-608,444	218,059	-0,018	-0,022
-607,430	-200,000	-0,006	0,134
-606,415	-68,136	-0,146	0,041
-605,401	-12,286	0,063	-0,030
-604,386	800,000	0,024	0,057
-603,371	314,559	0,059	0,082
-602,357	-200,000	0,005	-0,029
-601,342	-200,000	-0,010	-0,054
-600,328	800,000	-0,024	-0,066
-599,313	-58,232	0,130	-0,041
-598,298	-89,835	-0,022	0,005
-597,284	7,794	0,026	-0,014
-596,269	-155,057	-0,053	-0,002
-595,255	138,877	-0,041	-0,039
-594,240	75,255	0,029	0,022
-593,225	-100,683	-0,106	-0,019
-592,211	800,000	0,026	0,082
-591,196	-116,861	0,109	-0,014
-590,182	-124,712	0,111	0,012
-589,167	-200,000	0,020	0,087
-588,152	108,820	-0,069	0,060
-587,138	-200,000	0,030	-0,100
-586,123	-200,000	0,016	-0,057
-585,109	800,000	-0,001	-0,002
-584,094	286,976	0,057	-0,076
-583,079	-200,000	-0,008	-0,249
-582,065	-200,000	-0,008	0,089
-581,050	800,000	-0,011	-0,028
-580,036	-76,798	-0,181	0,046
-579,021	38,643	-0,099	-0,065
-578,006	-103,153	-0,086	-0,015
-576,992	-55,020	0,069	0,023
-575,977	-13,960	0,003	0,002
-574,963	-88,846	-0,051	0,011
-573,948	712,788	0,051	0,098
-572,934	428,023	0,032	0,050
-571,919	800,000	-0,039	-0,123
-570,904	-200,000	-0,039	-0,127
-569,890	-162,983	0,065	0,002
-568,875	-200,000	-0,003	0,064
-567,861	-38,814	-0,079	0,030
-566,846	-200,000	0,009	0,090
-565,831	28,630	-0,054	-0,033
-564,817	-80,646	0,062	0,015
-563,802	-47,255	-0,058	-0,020
-562,788	9,411	-0,042	-0,023
-561,773	-29,709	-0,079	0,033
-560,758	31,530	-0,025	-0,016
-559,744	-76,068	0,074	-0,019
-558,729	691,290	-0,029	-0,055
-557,715	23,313	-0,090	0,054
-556,700	-118,112	-0,131	0,017
-555,685	-85,623	0,040	-0,009
-554,671	361,177	0,071	0,104
-553,656	722,593	0,078	-0,152
-552,642	767,500	-0,030	0,060
-551,627	-200,000	0,009	0,099
-550,612	-121,787	-0,073	0,009
-549,598	-166,635	0,113	0,003
-548,583	120,051	0,040	-0,036
-547,569	800,000	0,033	-0,093
-546,554	467,936	0,076	-0,125
-545,539	-200,000	-0,019	0,127
-544,525	638,737	-0,008	-0,015
-543,510	153,490	-0,066	0,066
-542,496	800,000	0,015	-0,046
-541,481	-200,000	0,033	-0,131
-540,466	298,659	0,032	-0,044
-539,452	-184,459	0,047	0,001
-538,437	-35,229	-0,036	0,014
-537,423	-200,000	-0,004	0,108
-536,408	112,814	-0,068	-0,060
-535,393	243,191	0,064	0,078
-534,379	-195,211	-0,068	0,000
-533,364	-200,000	-0,012	-0,072
-532,350	166,084	0,143	0,148
-531,335	167,359	-0,067	0,070
-530,321	-165,555	-0,023	-0,001
-529,306	275,224	-0,085	0,110
-528,291	-110,165	0,061	0,009
-527,277	-0,109	-0,111	0,058
-526,262	-200,000	0,013	0,106
-525,248	-13,850	-0,130	-0,061
-524,233	318,731	0,026	-0,036
-523,218	-89,253	-0,066	-0,014
-522,204	206,540	0,017	0,019
-521,189	42,401	0,119	0,079
-520,175	375,681	0,011	-0,016
-519,160	279,842	-0,070	-0,091
-518,145	260,386	-0,044	-0,055
-517,131	-200,000	0,012	0,129
-516,116	800,000	-0,027	0,063
-515,102	-60,905	-0,021	0,006
-514,087	14,596	0,078	-0,045
-513,072	-200,000	-0,011	-0,208
-512,058	-29,766	-0,096	0,040
-511,043	-53,332	0,036	-0,012
-510,029	-200,000	-0,006	0,117
-509,014	618,550	-0,025	0,047
-507,999	-110,878	-0,022	0,003
-506,985	2,134	0,105	0,055
-505,970	449,982	-0,023	0,037
-504,956	800,000	0,008	-0,020
-503,941	-200,000	-0,012	-0,102
-502,926	52,488	-0,053	0,037
-501,912	-200,000	-0,001	0,085
-500,897	-200,000	0,013	0,142
-499,883	-134,742	-0,078	0,007
-498,868	144,504	0,123	-0,119
-497,853	75,286	-0,019	-0,015
-496,839	-101,935	-0,068	-0,012
-495,824	-18,818	0,150	0,068
-494,810	800,000	-0,057	-0,123
-493,795	125,425	0,108	-0,100
-492,781	-152,080	-0,062	0,003
-491,766	216,212	-0,033	-0,039
-490,751	-200,000	-0,000	-0,002
-489,737	-81,287	0,077	-0,018
-488,722	-200,000	-0,002	-0,022
-487,708	-161,178	0,103	-0,004
-486,693	469,041	-0,085	0,140
-485,678	53,371	-0,049	-0,034
-484,664	-44,831	-0,096	-0,035
-483,649	-200,000	0,008	-0,151
-482,635	-120,318	-0,042	-0,005
-481,620	-200,000	0,033	0,182
-480,605	30,357	0,063	-0,039
-479,591	-200,000	-0,028	-0,108
-478,576	699,874	0,017	0,033
-477,562	-53,266	-0,088	0,029
-476,547	800,000	-0,028	-0,067
-475,532	29,953	0,151	0,093
-474,518	-124,694	0,131	-0,015
-473,503	-200,000	0,015	-0,049
-472,489	-158,245	0,018	0,001
-471,474	600,208	0,086	-0,156
-470,459	-103,456	-0,066	-0,011
-469,445	-85,617	-0,099	0,022
-468,430	-200,000	-0,033	-0,133
-467,416	587,984	0,018	0,033
-466,401	-74,279	0,052	0,014
-465,386	-200,000	0,039	0,136
-464,372	-23,148	0,205	0,090
-463,357	-116,428	0,089	0,012
-462,343	-84,780	0,144	0,033
-461,328	27,844	0,005	0,003
-460,313	119,399	0,113	0,102
-459,299	800,000	-0,082	0,173
-458,284	-200,000	-0,006	0,052
-457,270	-200,000	0,001	-0,067
-456,255	-32,716	-0,046	-0,018
-455,241	50,725	-0,030	-0,021
-454,226	800,000	0,094	-0,190
-453,211	-94,827	0,119	-0,023
-452,197	56,624	-0,041	-0,029
-451,182	-200,000	-0,001	0,011
-450,168	552,840	0,032	0,056
-449,153	800,000	-0,034	-0,081
-448,138	-78,003	-0,105	-0,026
-447,124	-200,000	0,000	-0,019
-446,109	-200,000	-0,006	0,038
-445,095	-200,000	0,002	-0,044
-444,080	431,972	0,030	0,047
-443,065	2,208	0,118	0,062
-442,051	-200,000	-0,018	-0,173
-441,036	-136,256	-0,065	-0,005
-440,022	-187,267	-0,168	-0,002
-439,007	-200,000	0,033	0,179
-437,992	800,000	-0,050	0,103
-436,978	800,000	-0,049	-0,132
-435,963	366,840	-0,052	-0,077
-434,949	69,996	0,103	-0,077
-433,934	-200,000	-0,007	-0,111
-432,919	-200,000	0,002	0,091
-431,905	-200,000	0,001	0,136
-430,890	800,000	-0,010	-0,020
-429,876	-200,000	0,032	-0,115
-428,861	292,913	-0,050	-0,067
-427,846	-1,458	0,094	-0,048
-426,832	-200,000	0,014	-0,098
-425,817	47,073	-0,115	-0,077
-424,803	-200,000	-0,008	-0,101
-423,788	-147,831	0,069	0,004
-422,773	-200,000	-0,013	0,047
-421,759	327,911	0,065	0,091
-420,744	-200,000	-0,024	-0,082
-419,730	-200,000	-0,010	0,121
-418,715	800,000	-0,024	-0,064
-417,701	-18,390	-0,096	-0,043
-416,686	-158,463	0,066	0,003
-415,671	453,485	0,064	-0,103
-414,657	-200,000	-0,007	0,067
-413,642	344,021	-0,102	-0,146
-412,628	632,122	0,022	-0,040
-411,613	-200,000	0,008	0,036
-410,598	56,532	0,055	0,039
-409,584	-200,000	0,019	-0,081
-408,569	-10,752	0,027	0,013
-407,555	-164,758	0,074	-0,002
-406,540	20,257	0,020	0,012
-405,525	800,000	0,015	0,042
-404,511	281,791	0,020	-0,026
-403,496	-200,000	0,002	-0,115
-402,482	102,187	-0,051	0,043
-401,467	34,636	-0,068	0,043
-400,452	-200,000	-0,002	0,011
-399,438	800,000	0,084	0,201
-398,423	-200,000	0,005	-0,153
-397,409	-177,814	-0,095	-0,002
-396,394	44,094	-0,068	-0,045
-395,379	56,498	0,102	-0,072
-394,365	304,878	-0,053	-0,072
-393,350	-9,248	0,128	0,062
-392,336	-200,000	-0,007	-0,047
-391,321	-173,735	-0,020	-0,000
-390,306	-145,473	-0,089	-0,006
-389,292	-98,737	-0,100	-0,018
-388,277	-107,515	-0,141	-0,022
-387,263	800,000	-0,035	0,071
-386,248	77,042	-0,113	0,087
-385,233	-23,194	-0,034	0,015
-384,219	-82,305	0,041	-0,010
-383,204	800,000	-0,028	-0,069
-382,190	-53,964	0,106	-0,035
-381,175	-200,000	-0,010	-0,056
-380,160	-200,000	0,018	-0,093
-379,146	507,685	0,068	0,115
-378,131	800,000	-0,016	-0,035
-377,117	48,590	-0,022	0,015
-376,102	800,000	-0,062	0,133
-375,088	-200,000	-0,002	-0,057
-374,073	-200,000	-0,007	-0,055
-373,058	590,100	0,027	0,048
-372,044	375,738	0,116	0,172
-371,029	-200,000	0,001	0,071
-370,015	-200,000	0,006	0,025
-369,000	107,214	-0,098	-0,085
-367,985	-200,000	0,005	0,040
-366,971	129,351	0,057	-0,053
-365,956	800,000	0,019	0,058
-364,942	17,049	-0,025	0,014
-363,927	209,470	0,090	-0,103
-362,912	202,179	-0,090	0,100
-361,898	-51,239	-0,139	-0,047
-360,883	-80,128	-0,116	0,028
-359,869	-71,806	-0,073	0,020
-358,854	325,107	-0,044	0,061
-357,839	800,000	0,046	0,134
-356,825	118,333	0,072	0,064
-355,810	525,590	-0,042	0,072
-354,796	171,788	-0,116	-0,121
-353,781	-82,402	-0,105	0,025
-352,766	81,960	-0,102	-0,080
-351,752	329,492	0,081	-0,113
-350,737	307,612	0,080	-0,108
-349,723	800,000	0,064	0,198
-348,708	800,000	0,054	0,139
-347,693	46,869	-0,083	-0,055
-346,679	51,260	-0,118	-0,081
-345,664	-200,000	-0,013	0,103
-344,650	-200,000	-0,005	-0,154
-343,635	149,224	-0,054	-0,053
-342,620	800,000	-0,013	-0,040
-341,606	-6,082	0,079	0,039
-340,591	458,603	0,077	0,124
-339,577	800,000	-0,017	-0,051
-338,562	-165,534	0,066	-0,002
-337,548	-176,163	0,039	-0,001
-336,533	99,761	-0,155	0,130
-335,518	800,000	-0,086	0,193
-334,504	-91,141	0,134	0,028
-333,489	-100,346	-0,012	0,002
-332,475	800,000	0,075	-0,180
-331,460	-200,000	0,000	-0,119
-330,445	-200,000	-0,007	-0,141
-329,431	-57,845	0,143	-0,045
-328,416	-91,248	0,068	0,014
-327,402	-200,000	-0,007	0,042
-326,387	289,314	-0,054	-0,072
-325,372	704,584	0,024	0,045
-324,358	94,307	0,075	0,062
-323,343	-200,000	0,002	0,009
-322,329	-3,719	0,121	0,060
-321,314	800,000	-0,015	-0,037
-320,299	-77,770	0,101	0,025
-319,285	-81,242	-0,039	0,009
-318,270	170,960	0,040	-0,041
-317,256	64,838	0,087	-0,063
-316,241	-100,383	-0,055	0,010
-315,226	-142,061	-0,013	-0,001
-314,212	800,000	-0,036	0,073
-313,197	800,000	-0,086	0,237
-312,183	-45,335	0,099	0,035
-311,168	-8,777	-0,109	0,053
-310,153	412,881	0,063	-0,098
-309,139	409,398	-0,017	-0,026
-308,124	479,230	0,068	0,112
-307,110	-200,000	-0,022	0,082
-306,095	-200,000	-0,011	0,059
-305,080	800,000	-0,026	0,081
-304,066	188,291	-0,049	0,053
-303,051	-200,000	-0,006	-0,130
-302,037	80,556	-0,100	0,078
-301,022	525,313	0,089	0,152
-300,008	136,956	-0,049	-0,046
-298,993	-200,000	0,049	0,244
-297,978	-200,000	-0,003	0,037
-296,964	-109,789	-0,028	-0,004
-295,949	103,166	-0,027	0,023
-294,935	-100,168	-0,122	-0,022
-293,920	-200,000	0,015	-0,071
-292,905	-85,614	0,098	-0,022
-291,891	48,674	0,043	-0,029
-290,876	800,000	-0,036	-0,094
-289,862	-122,605	0,116	0,013
-288,847	14,409	-0,117	-0,066
-287,832	488,288	-0,052	-0,086
-286,818	193,088	-0,055	0,061
-285,803	162,292	0,040	0,040
-284,789	56,725	0,061	0,043
-283,774	-200,000	-0,024	0,081
-282,759	104,277	-0,109	0,093
-281,745	-200,000	0,001	-0,049
-280,730	223,525	0,127	-0,148
-279,716	70,811	-0,106	-0,079
-278,701	-200,000	0,005	0,078
-277,686	800,000	0,026	0,053
-276,672	174,865	0,056	-0,058
-275,657	40,271	0,029	0,019
-274,643	-200,000	-0,019	-0,103
-273,628	-58,182	0,084	-0,026
-272,613	-200,000	-0,064	0,000
-271,599	-140,832	-0,081	0,006
-270,584	307,977	0,057	-0,077
-269,570	-200,000	0,002	0,102
-268,555	113,518	0,048	0,042
-267,540	38,817	-0,113	0,073
-266,526	800,000	0,047	-0,120
-265,511	800,000	-0,067	-0,147
-264,497	-152,576	0,101	0,005
-263,482	-67,390	0,049	0,014
-262,467	-200,000	0,003	0,025
-261,453	-81,792	0,039	-0,009
-260,438	800,000	-0,037	-0,094
-259,424	632,023	0,026	-0,047
-258,409	800,000	-0,059	-0,165
-257,395	-74,453	0,110	0,029
-256,380	-28,942	0,034	-0,014
-255,365	-144,674	0,066	0,004
-254,351	340,676	0,025	-0,035
-253,336	800,000	-0,048	0,102
-252,322	-171,178	-0,060	0,001
-251,307	-200,000	0,021	0,067
-250,292	800,000	0,028	-0,062
-249,278	29,869	0,127	-0,078
-248,263	322,272	-0,010	-0,014
-247,249	237,277	-0,043	-0,052
-246,234	118,724	-0,030	-0,027
-245,219	265,539	0,057	-0,071
-244,205	-200,000	0,005	-0,016
-243,190	-200,000	-0,057	0,196
-242,176	331,023	-0,062	0,087
-241,161	-177,042	0,091	-0,002
-240,146	223,495	-0,018	-0,022
-239,132	-20,379	-0,159	0,070
-238,117	417,788	-0,016	-0,024
-237,103	135,274	0,099	-0,093
-236,088	341,436	-0,043	-0,060
-235,073	-200,000	0,021	-0,129
-234,059	-189,053	0,056	0,000
-233,044	30,819	0,060	0,037
-232,030	-200,000	-0,003	-0,036
-231,015	-200,000	-0,006	0,019
-230,000	-134,616	-0,069	0,006
-228,986	40,768	0,074	-0,048
-227,971	672,559	0,039	-0,072
-226,957	-33,595	0,129	-0,051
-225,942	800,000	-0,052	0,123
-224,927	-34,991	-0,010	-0,004
-223,913	-200,000	-0,007	0,034
-222,898	16,458	0,068	-0,039
-221,884	196,520	0,067	0,074
-220,869	503,839	-0,045	-0,076
-219,855	308,354	0,015	-0,020
-218,840	83,266	0,112	-0,088
-217,825	-200,000	0,044	-0,164
-216,811	473,682	-0,016	-0,026
-215,796	-200,000	-0,003	-0,027
-214,782	-7,702	-0,048	-0,023
-213,767	-153,748	0,068	-0,003
-212,752	135,088	0,056	0,052
-211,738	-36,952	-0,080	-0,031
-210,723	-52,867	-0,009	0,003
-209,709	-200,000	-0,029	0,114
-208,694	-0,361	-0,121	-0,062
-207,679	-28,334	-0,127	0,053
-206,665	180,847	-0,046	0,048
-205,650	-46,379	0,115	-0,040
-204,636	-170,853	-0,081	0,002
-203,621	-200,000	-0,009	0,158
-202,606	150,641	-0,015	0,015
-201,592	-24,944	0,019	0,008
-200,577	-200,000	-0,031	-0,117
-199,563	-200,000	-0,001	0,035
-198,548	-108,400	0,057	-0,009
-197,533	-182,747	0,108	-0,001
-196,519	9,596	0,067	-0,037
-195,504	-200,000	-0,009	-0,099
-194,490	8,795	-0,063	-0,034
-193,475	235,079	-0,099	0,118
-192,460	269,114	-0,043	0,054
-191,446	9,909	0,198	-0,108
-190,431	-122,689	-0,079	-0,009
-189,417	335,353	-0,044	0,062
-188,402	800,000	0,022	0,059
-187,387	240,947	-0,086	0,103
-186,373	-92,627	0,073	0,015
-185,358	-93,471	-0,077	-0,015
-184,344	-200,000	-0,004	-0,027
-183,329	800,000	0,041	0,094
-182,315	497,857	-0,020	-0,034
-181,300	-200,000	-0,010	0,127
-180,285	-118,720	0,052	0,006
-179,271	-200,000	-0,001	0,035
-178,256	-200,000	0,020	-0,089
-177,242	207,224	0,036	0,041
-176,227	-200,000	-0,011	0,161
-175,212	308,113	-0,025	-0,034
-174,198	-125,068	-0,117	-0,013
-173,183	60,141	0,010	-0,007
-172,169	-68,580	-0,060	0,017
-171,154	-44,023	-0,063	0,023
-170,139	-200,000	-0,007	0,061
-169,125	-200,000	-0,008	-0,046
-168,110	-27,678	0,037	-0,015
-167,096	65,679	-0,072	0,053
-166,081	131,401	0,039	-0,036
-165,066	426,146	0,120	-0,187
-164,052	189,991	-0,068	0,074
-163,037	217,995	-0,025	0,028
-162,023	23,005	0,074	0,044
-161,008	125,943	-0,082	0,074
-159,993	-141,711	-0,155	0,011
-158,979	356,708	-0,047	-0,067
-157,964	-117,700	-0,052	0,007
-156,950	-15,206	-0,055	0,025
-155,935	44,317	0,069	-0,045
-154,920	800,000	-0,031	-0,094
-153,906	800,000	0,020	0,048
-152,891	340,030	-0,026	-0,036
-151,877	-42,172	-0,148	0,054
-150,862	-153,007	-0,095	-0,005
-149,847	-93,820	0,049	0,010
-148,833	-200,000	0,001	0,188
-147,818	800,000	0,032	0,079
-146,804	-160,332	-0,160	0,006
-145,789	-134,555	0,024	-0,002
-144,775	-53,851	-0,133	-0,043
-143,760	55,363	-0,043	0,030
-142,745	-200,000	-0,007	-0,084
-141,731	145,433	-0,032	-0,031
-140,716	361,545	0,009	-0,014
-139,702	-152,470	0,158	0,008
-138,687	-119,097	-0,097	-0,012
-137,672	-200,000	-0,001	-0,007
-136,658	25,514	-0,117	-0,070
-135,643	290,779	0,083	-0,109
-134,629	800,000	-0,058	-0,172
-133,614	201,342	0,057	0,063
-132,599	206,628	0,090	0,101
-131,585	-11,513	-0,091	0,043
-130,570	161,138	-0,008	-0,008
-129,556	8,493	0,065	-0,035
-128,541	369,356	0,025	-0,037
-127,526	800,000	0,014	0,033
-126,512	800,000	-0,041	-0,094
-125,497	-92,308	0,104	-0,021
-124,483	-57,029	-0,006	-0,002
-123,468	-10,335	-0,112	-0,053
-122,453	256,714	0,028	0,035
-121,439	478,935	-0,066	-0,107
-120,424	-200,000	0,010	-0,059
-119,410	8,348	0,034	-0,018
-118,395	-200,000	0,000	-0,011
-117,380	174,849	0,048	-0,050
-116,366	800,000	-0,023	0,057
-115,351	-200,000	0,019	-0,137
-114,337	-85,747	-0,065	-0,014
-113,322	-22,196	-0,124	-0,054
-112,307	-116,467	0,038	-0,005
-111,293	46,807	0,067	0,045
-110,278	132,228	-0,037	0,034
-109,264	32,655	-0,076	-0,047
-108,249	-43,529	-0,122	-0,044
-107,234	-200,000	0,003	-0,081
-106,220	563,055	0,057	-0,099
-105,205	-54,880	0,108	0,035
-104,191	-200,000	-0,038	0,122
-103,176	-54,479	0,143	0,046
-102,162	-92,057	0,106	-0,021
-101,147	74,173	-0,024	0,018
-100,132	800,000	-0,062	-0,189
-99,118	-83,385	-0,058	0,013
-98,103	280,918	-0,068	0,087
-97,089	-38,937	0,141	0,053
-96,074	-9,281	-0,074	0,035
-95,059	8,069	-0,028	0,015
-94,045	89,799	0,054	-0,043
-93,030	-200,000	-0,004	-0,117
-92,016	192,293	0,083	-0,090
-91,001	-200,000	-0,017	-0,147
-89,986	-56,012	-0,075	0,024
-88,972	-40,848	0,085	0,031
-87,957	574,711	-0,012	0,021
-86,943	-137,015	-0,190	0,015
-85,928	-12,582	-0,123	0,057
-84,913	14,748	0,066	-0,037
-83,899	-200,000	0,005	0,099
-82,884	35,193	0,057	0,036
-81,870	-200,000	-0,012	0,086
-80,855	36,775	0,050	0,032
-79,840	30,605	0,142	0,087
-78,826	488,655	-0,086	-0,142
-77,811	-93,818	0,056	-0,011
-76,797	729,471	0,039	0,076
-75,782	350,078	-0,069	0,097
-74,767	38,615	0,122	0,078
-73,753	-200,000	-0,000	-0,053
-72,738	-200,000	0,018	0,120
-71,724	-118,144	-0,084	0,011
-70,709	368,151	-0,085	-0,124
-69,694	-13,461	-0,153	0,071
-68,680	-200,000	0,019	-0,101
-67,665	800,000	0,018	0,050
-66,651	-200,000	-0,006	-0,064
-65,636	167,915	0,058	0,059
-64,622	79,031	-0,090	-0,069
-63,607	19,682	-0,058	-0,033
-62,592	-84,518	0,021	-0,005
-61,578	19,469	-0,024	-0,014
-60,563	-200,000	-0,049	0,174
-59,549	151,182	0,075	0,073
-58,534	50,646	-2,274	-1,539
-57,519	-200,000	0,150	-0,714
-56,505	-200,000	-1,430	-5,290
-55,490	137,618	0,898	0,842
-54,476	800,000	5,346	12,184
-53,461	-200,000	18,886	320,177
-52,446	800,000	741,468	2323,997
-51,432	548,668	1654,494	2848,951
-50,417	109,664	1637,519	1404,971
-49,403	73,189	1288,036	963,270
-48,388	29,408	1029,591	625,014
-47,373	19,518	992,601	569,860
-46,359	16,812	980,126	553,791
-45,344	13,515	976,222	540,750
-44,330	13,769	974,708	540,723
-43,315	13,131	973,010	537,669
-42,300	13,122	971,921	537,016
-41,286	13,126	970,937	536,466
-40,271	13,118	970,165	535,992
-39,257	13,116	969,175	535,418
-38,242	13,028	968,510	534,742
-37,227	13,127	967,279	534,362
-36,213	13,070	966,631	533,798
-35,198	13,032	965,709	533,145
-34,184	13,054	965,154	532,889
-33,169	13,060	964,030	532,266
-32,154	13,143	962,902	531,891
-31,140	13,078	962,092	531,213
-30,125	13,113	961,436	530,943
-29,111	13,133	960,445	530,438
-28,096	13,114	959,980	530,098
-27,082	13,111	959,161	529,616
-26,067	13,080	958,400	529,074
-25,052	13,084	957,832	528,753
-24,038	13,023	957,159	528,166
-23,023	13,098	956,284	527,902
-22,009	13,078	955,969	527,642
-20,994	13,091	955,211	527,243
-19,979	13,121	954,579	526,970
-18,965	13,110	953,939	526,562
-17,950	13,057	953,588	526,177
-16,936	13,050	952,790	525,694
-15,921	13,079	952,049	525,356
-14,906	13,085	951,155	524,862
-13,892	12,966	950,718	524,220
-12,877	13,023	949,900	523,929
-11,863	12,958	949,481	523,469
-10,848	12,991	948,985	523,282
-9,833	13,093	948,443	523,287
-8,819	13,069	947,697	522,777
-7,804	12,995	946,911	522,088
-6,790	12,974	946,334	521,684
-5,775	13,061	945,924	521,713
-4,760	13,046	945,216	521,254
-3,746	12,988	944,703	520,766
-2,731	12,849	943,892	519,858
-1,717	12,790	943,377	519,365
-0,702	12,723	942,742	518,784
0,313	12,612	942,267	518,952
1,327	16,161	939,826	528,774
2,342	25,241	790,462	468,671
3,356	21,281	445,505	258,242
4,371	-7,930	298,938	143,754
5,386	-11,889	280,938	131,288
6,400	-13,035	275,063	127,454
7,415	-13,067	272,658	126,298
8,429	-13,187	271,261	125,528
9,444	-13,294	270,336	124,990
10,459	-13,327	269,734	124,671
11,473	-13,483	269,110	124,227
12,488	-13,467	268,599	123,995
13,502	-13,646	267,849	123,474
14,517	-13,625	267,526	123,333
15,531	-13,355	267,055	123,351
16,546	-13,395	266,672	123,127
17,561	-13,389	266,334	122,965
18,575	-13,252	265,992	122,921
19,590	-13,375	265,650	122,641
20,604	-13,341	265,391	122,541
21,619	-13,300	265,002	122,387
22,634	-13,491	264,750	122,088
23,648	-13,336	264,292	122,005
24,663	-13,320	264,090	121,916
25,677	-13,410	263,807	121,693
26,692	-13,295	263,654	121,715
27,707	-13,277	263,224	121,522
28,721	-13,388	262,958	121,288
29,736	-13,379	262,692	121,163
30,750	-13,462	262,518	120,997
31,765	-13,573	262,191	120,737
32,780	-13,522	261,954	120,663
33,794	-13,469	261,733	120,597
34,809	-13,588	261,450	120,350
35,823	-13,653	261,269	120,198
36,838	-13,577	260,948	120,108
37,853	-13,583	260,772	120,011
38,867	-13,610	260,508	119,855
39,882	-13,714	260,276	119,645
40,896	-13,550	260,033	119,667
41,911	-13,549	259,788	119,545
42,926	-13,781	259,603	119,244
43,940	-13,724	259,383	119,183
44,955	-13,797	259,102	118,979
45,969	-13,827	258,850	118,825
46,984	-13,822	258,489	118,654
47,999	-14,003	258,126	118,318
49,013	-14,576	258,181	117,828
50,028	-14,255	257,780	117,917
51,042	-14,732	257,578	117,395
52,057	-14,473	257,127	117,406
53,071	-14,435	257,061	117,398
54,086	-14,253	256,911	117,479
55,101	-14,208	256,731	117,425
56,115	-13,876	256,529	117,613
57,130	-13,252	256,414	118,094
58,144	-13,309	256,320	117,990
59,159	-13,291	256,044	117,868
60,174	-13,414	255,867	117,670
61,188	-13,373	255,529	117,539
62,203	-13,452	255,459	117,428
63,217	-13,375	255,217	117,373
64,232	-13,497	254,908	117,115
65,247	-13,570	254,809	116,995
66,261	-13,446	254,533	116,965
67,276	-13,681	254,319	116,654
68,290	-14,061	253,915	116,129
69,305	-13,934	253,700	116,130
70,320	-13,978	253,539	116,009
71,334	-13,758	253,514	116,177
72,349	-13,314	253,318	116,458
73,363	-13,228	253,102	116,423
74,378	-13,388	252,885	116,175
75,393	-13,437	252,842	116,103
76,407	-13,407	252,317	115,877
77,422	-13,689	252,465	115,693
78,436	-13,576	251,972	115,553
79,451	-13,664	251,851	115,412
80,466	-13,639	251,447	115,239
81,480	-13,866	251,323	114,977
82,495	-13,656	250,988	114,993
83,509	-13,677	250,791	114,875
84,524	-13,775	250,687	114,734
85,539	-13,982	250,442	114,434
86,553	-13,841	250,124	114,399
87,568	-13,654	249,985	114,483
88,582	-13,674	249,757	114,352
89,597	-13,751	249,621	114,215
90,611	-13,463	249,391	114,343
91,626	-13,432	249,516	114,416
92,641	-13,444	249,195	114,249
93,655	-13,753	249,040	113,907
94,670	-13,676	248,747	113,827
95,684	-13,739	248,594	113,694
96,699	-13,707	248,383	113,614
97,714	-13,842	248,160	113,389
98,728	-13,905	247,897	113,205
99,743	-13,984	247,748	113,061
100,757	-13,715	247,518	113,171
101,772	-13,798	247,452	113,061
102,787	-13,702	247,234	113,033
103,801	-13,623	247,060	113,009
104,816	-13,640	246,836	112,882
105,830	-13,625	246,787	112,862
106,845	-13,466	246,511	112,859
107,860	-13,532	246,424	112,754
108,874	-13,660	246,172	112,521
109,889	-13,760	245,816	112,266
110,903	-13,867	245,767	112,144
111,918	-13,756	245,405	112,061
112,933	-13,717	245,392	112,077
113,947	-13,655	245,217	112,039
114,962	-13,562	244,938	111,979
115,976	-13,616	244,792	111,857
116,991	-13,775	244,737	111,691
118,006	-13,648	244,485	111,670
119,020	-13,644	244,408	111,629
120,035	-13,451	244,235	111,699
121,049	-13,467	244,007	111,572
122,064	-13,289	243,738	111,585
123,079	-13,437	243,564	111,375
124,093	-13,778	243,537	111,071
125,108	-13,755	243,195	110,924
126,122	-13,816	242,791	110,680
127,137	-14,205	242,723	110,319
128,151	-13,894	242,581	110,501
129,166	-13,629	242,326	110,591
130,181	-13,844	242,121	110,312
131,195	-13,865	241,955	110,209
132,210	-13,847	241,664	110,082
133,224	-13,568	241,471	110,211
134,239	-13,587	241,620	110,254
135,254	-13,554	241,328	110,138
136,268	-13,675	241,010	109,884
137,283	-14,021	240,838	109,515
138,297	-14,072	240,614	109,361
139,312	-14,087	240,424	109,253
140,327	-13,945	240,412	109,354
141,341	-13,406	240,346	109,751
142,356	-13,294	240,186	109,759
143,370	-13,090	240,037	109,847
144,385	-13,173	239,867	109,693
145,400	-13,093	239,675	109,660
146,414	-13,340	239,466	109,354
147,429	-13,276	239,247	109,296
148,443	-13,129	239,049	109,315
149,458	-13,254	238,907	109,139
150,473	-13,141	238,733	109,141
151,487	-13,448	238,489	108,773
152,502	-13,433	238,582	108,818
153,516	-13,207	238,354	108,885
154,531	-13,087	238,053	108,835
155,546	-13,391	237,855	108,490
156,560	-13,308	237,663	108,460
157,575	-13,480	237,449	108,215
158,589	-13,459	237,364	108,184
159,604	-13,116	237,110	108,332
160,619	-13,044	236,892	108,280
161,633	-13,105	236,854	108,205
162,648	-13,138	236,762	108,127
163,662	-13,283	236,620	107,936
164,677	-13,294	236,402	107,818
165,692	-13,363	236,260	107,689
166,706	-13,007	236,006	107,847
167,721	-12,885	235,918	107,895
168,735	-13,011	235,741	107,703
169,750	-13,085	235,698	107,615
170,764	-13,481	235,507	107,204
171,779	-13,317	235,375	107,265
172,794	-13,318	235,274	107,209
173,808	-13,404	234,925	106,972
174,823	-13,773	234,668	106,554
175,837	-13,974	234,463	106,292
176,852	-13,636	234,446	106,542
177,867	-13,301	234,330	106,744
178,881	-13,019	234,128	106,865
179,896	-13,089	234,007	106,745
180,910	-13,090	233,899	106,685
181,925	-13,119	233,730	106,576
182,940	-13,116	233,538	106,481
183,954	-13,146	233,486	106,425
184,969	-13,054	233,248	106,379
185,983	-12,998	233,052	106,324
186,998	-13,151	233,005	106,172
188,013	-12,776	232,560	106,254
189,027	-13,023	232,698	106,115
190,042	-12,968	232,428	106,024
191,056	-12,864	232,475	106,118
192,071	-13,045	232,136	105,812
193,086	-13,073	232,021	105,729
194,100	-12,938	231,688	105,673
195,115	-13,512	231,533	105,146
196,129	-13,248	231,505	105,329
197,144	-7,822	233,269	110,374
198,159	-2,063	235,083	115,757
199,173	2,105	236,405	119,690
200,188	3,071	236,369	120,422
201,202	2,879	236,329	120,239
202,217	2,894	236,130	120,139
203,232	3,283	235,820	120,276
204,246	3,295	235,875	120,303
205,261	3,207	235,653	120,110
206,275	3,494	235,541	120,267
207,290	3,268	235,475	120,046
208,304	3,363	235,353	120,047
209,319	3,661	234,971	120,075
210,334	3,324	234,744	119,685
211,348	3,111	234,605	119,437
212,363	2,873	234,280	119,075
213,377	2,619	234,149	118,800
214,392	2,533	234,015	118,654
215,407	2,773	233,764	118,703
216,421	2,638	233,744	118,578
217,436	2,747	233,526	118,541
218,450	2,411	233,302	118,156
219,465	2,487	233,176	118,140
220,480	2,523	233,047	118,092
221,494	2,410	232,976	117,958
222,509	2,772	232,851	118,165
223,523	2,913	232,675	118,175
224,538	2,675	232,428	117,854
225,553	2,725	232,249	117,792
226,567	2,709	232,265	117,777
227,582	2,961	232,176	117,915
228,596	3,122	232,100	117,991
229,611	2,842	231,594	117,507
230,626	2,450	231,590	117,193
231,640	2,407	231,475	117,091
232,655	2,811	231,376	117,342
233,669	3,013	231,210	117,402
234,684	3,230	231,090	117,498
235,699	3,013	230,980	117,265
236,713	2,951	230,543	116,985
237,728	2,635	230,535	116,728
238,742	2,600	230,232	116,538
239,757	2,605	230,196	116,513
240,772	2,765	229,941	116,496
241,786	2,498	229,922	116,272
242,801	2,879	229,794	116,488
243,815	3,017	229,854	116,613
244,830	3,208	229,604	116,621
245,844	2,804	229,371	116,184
246,859	2,764	229,161	116,038
247,874	2,882	229,061	116,066
248,888	3,009	228,955	116,099
249,903	2,861	228,774	115,885
250,917	2,836	228,496	115,715
251,932	2,511	228,383	115,400
252,947	2,371	228,221	115,202
253,961	2,363	228,081	115,115
254,976	2,491	228,040	115,181
255,990	2,789	227,940	115,345
257,005	2,890	227,802	115,342
258,020	2,983	227,619	115,309
259,034	3,046	227,512	115,292
260,049	2,802	227,372	115,027
261,063	2,861	227,205	114,977
262,078	2,871	227,165	114,954
263,093	3,067	226,975	114,995
264,107	3,019	226,795	114,857
265,122	3,094	226,583	114,796
266,136	3,275	226,573	114,917
267,151	3,166	226,360	114,717
268,166	2,726	226,220	114,306
269,180	2,374	225,899	113,869
270,195	2,521	225,874	113,957
271,209	2,665	225,577	113,904
272,224	2,658	225,396	113,798
273,239	2,682	225,376	113,795
274,253	2,546	225,271	113,631
275,268	2,552	225,010	113,494
276,282	2,414	224,833	113,291
277,297	2,233	224,779	113,119
278,312	2,534	224,652	113,269
279,326	2,836	224,402	113,357
280,341	2,528	224,470	113,153
281,355	2,484	224,459	113,104
282,370	2,611	224,198	113,057
283,384	2,518	223,877	112,816
284,399	2,451	223,689	112,661
285,414	2,474	223,589	112,618
286,428	2,542	223,532	112,630
287,443	2,871	223,325	112,759
288,457	2,814	223,332	112,710
289,472	2,472	223,020	112,290
290,487	2,165	222,867	111,977
291,501	1,961	222,685	111,725
292,516	2,459	222,469	111,973
293,530	2,179	222,582	111,814
294,545	2,455	222,382	111,907
295,560	2,696	222,201	111,982
296,574	2,644	222,044	111,855
297,589	2,772	221,857	111,845
298,603	2,854	221,862	111,898
299,618	2,762	221,595	111,686
300,633	2,704	221,545	111,608
301,647	2,887	221,471	111,695
302,662	2,870	221,383	111,628
303,676	2,962	221,174	111,579
304,691	2,945	221,004	111,472
305,706	3,065	220,784	111,438
306,720	2,823	220,806	111,263
307,735	2,552	220,517	110,910
308,749	2,496	220,440	110,821
309,764	2,757	220,256	110,908
310,779	2,826	220,101	110,870
311,793	2,787	220,039	110,801
312,808	2,894	219,876	110,787
313,822	2,839	219,661	110,629
314,837	2,740	219,434	110,432
315,852	2,768	219,325	110,388
316,866	2,919	219,313	110,481
317,881	2,953	219,156	110,417
318,895	2,975	218,902	110,295
319,910	2,731	218,786	110,051
320,925	2,291	218,580	109,620
321,939	2,056	218,353	109,328
322,954	2,257	218,399	109,485
323,968	2,905	218,286	109,886
324,983	2,741	218,255	109,742
325,997	3,073	217,989	109,837
327,012	2,815	217,988	109,641
328,027	2,817	217,832	109,554
329,041	3,023	217,769	109,660
330,056	3,027	217,665	109,602
331,070	2,757	217,460	109,295
332,085	2,594	217,104	108,990
333,100	2,432	217,108	108,866
334,114	3,010	216,851	109,140
335,129	2,913	216,597	108,934
336,143	2,572	216,497	108,631
337,158	2,345	216,413	108,417
338,173	2,386	216,325	108,392
339,187	2,700	216,309	108,599
340,202	2,704	216,201	108,538
341,216	2,564	215,827	108,241
342,231	2,639	215,848	108,295
343,246	2,757	215,657	108,273
344,260	2,706	215,548	108,173
345,275	2,823	215,435	108,189
346,289	2,844	215,359	108,156
347,304	2,907	215,126	108,074
348,319	2,467	215,103	107,741
349,333	2,565	214,825	107,662
350,348	2,773	214,782	107,777
351,362	3,077	214,709	107,946
352,377	2,882	214,522	107,705
353,392	2,735	214,257	107,459
354,406	2,905	214,175	107,528
355,421	196,764	1313,417	1390,270
356,435	157,443	1447,283	1390,214
