DTS Sentinel unit serial number:	SN410029Multiplexer serial number:	ORYXHardware model number:	OX2-SRSoftware version number:	ORYX F/W v4,00 Oryx Data Collector v3.7.2.0data status	okinstallation	B6 Nyhavnadifferential loss correction	single-endedforward channel	channel 2reverse channel	N/Adate	2023/12/11time	08:25:08forward acquisition time	300,00reverse acquisition time	0,00gamma	499,1914k internal	0,3129k external	0,3129temperature offset calibration	1,0000default loss term (dB/km)	0,3820temperature slope calibration	1,0000multiplexer offset coefficient	1,0000multiplexer slope coefficient	1,0000fibre end	0,00T internal ref (°C)	17,91T ext. ref 1 (°C)	0,17T ext. ref 2 (°C)	0,18length (m)	temperature (°C)	Stokes	anti-Stokes-744,400	145,106	0,091	0,090
-743,385	-109,074	-0,106	0,017
-742,371	800,000	0,027	-0,060
-741,356	-42,216	-0,254	0,096
-740,342	40,559	0,161	-0,107
-739,327	-111,130	-0,332	-0,050
-738,312	-200,000	0,002	0,094
-737,298	-122,499	-0,243	-0,029
-736,283	-101,395	0,159	-0,029
-735,269	137,025	-0,158	-0,153
-734,254	800,000	0,050	0,129
-733,239	-52,119	-0,417	-0,143
-732,225	-170,533	0,334	0,008
-731,210	-200,000	-0,001	0,147
-730,196	-116,670	-0,011	0,001
-729,181	-200,000	-0,013	0,061
-728,167	42,740	-0,108	0,073
-727,152	623,379	-0,032	0,060
-726,137	800,000	-0,015	0,039
-725,123	-183,369	-0,081	0,001
-724,108	27,476	-0,083	-0,051
-723,094	-200,000	-0,001	-0,161
-722,079	89,571	0,043	-0,036
-721,064	688,825	-0,049	-0,096
-720,050	-123,544	0,191	0,022
-719,035	-37,361	-0,071	-0,028
-718,021	800,000	0,024	0,071
-717,006	15,343	-0,160	-0,093
-715,991	-200,000	-0,009	-0,107
-714,977	-200,000	-0,001	-0,173
-713,962	-200,000	0,019	-0,097
-712,948	371,708	-0,048	0,073
-711,933	3,048	-0,135	0,073
-710,918	187,629	0,100	0,111
-709,904	-102,840	-0,144	-0,025
-708,889	21,599	0,217	-0,131
-707,875	-75,888	-0,061	-0,016
-706,860	-178,139	0,054	0,001
-705,845	284,743	0,053	0,071
-704,831	-200,000	-0,019	0,073
-703,816	297,853	0,029	0,040
-702,802	85,059	-0,107	-0,087
-701,787	-114,077	-0,079	0,011
-700,772	800,000	-0,017	-0,042
-699,758	-144,216	0,050	-0,003
-698,743	-134,787	-0,044	0,004
-697,729	175,226	0,064	0,069
-696,714	552,885	0,061	0,109
-695,699	102,084	-0,051	-0,044
-694,685	-88,900	-0,114	-0,025
-693,670	145,388	-0,110	-0,110
-692,656	-200,000	-0,013	-0,042
-691,641	800,000	-0,048	-0,144
-690,627	1,121	0,172	-0,091
-689,612	-200,000	0,012	-0,076
-688,597	217,914	0,032	-0,037
-687,583	77,858	0,010	-0,008
-686,568	77,386	-0,098	-0,077
-685,554	-22,730	0,082	-0,037
-684,539	222,418	-0,091	0,109
-683,524	218,745	-0,024	-0,028
-682,510	217,500	0,070	-0,083
-681,495	203,251	-0,043	-0,050
-680,481	-2,204	-0,181	-0,094
-679,466	163,268	-0,095	-0,099
-678,451	-60,488	-0,139	-0,044
-677,437	35,474	-0,027	-0,017
-676,422	270,141	0,052	0,068
-675,408	1,475	-0,063	-0,033
-674,393	167,166	-0,055	-0,058
-673,378	53,708	-0,103	-0,073
-672,364	181,698	-0,054	-0,059
-671,349	106,215	-0,069	0,061
-670,335	7,799	0,075	0,041
-669,320	10,888	-0,208	-0,118
-668,305	800,000	-0,120	0,328
-667,291	356,604	-0,056	0,084
-666,276	502,084	-0,043	-0,074
-665,262	-165,780	-0,174	-0,005
-664,247	-200,000	-0,004	0,120
-663,232	681,530	-0,020	0,038
-662,218	-200,000	-0,030	0,123
-661,203	800,000	-0,012	-0,027
-660,189	104,343	-0,055	-0,048
-659,174	-200,000	0,018	0,124
-658,159	9,291	-0,111	0,062
-657,145	-77,561	0,035	-0,009
-656,130	-53,422	0,021	0,007
-655,116	92,118	-0,085	0,071
-654,101	-200,000	0,029	0,122
-653,086	-110,973	0,101	-0,015
-652,072	282,223	-0,028	0,038
-651,057	100,850	-0,063	-0,054
-650,043	-200,000	0,013	-0,104
-649,028	664,690	0,013	-0,024
-648,014	365,252	-0,029	0,044
-646,999	-47,158	0,028	-0,010
-645,984	66,378	-0,019	0,014
-644,970	52,248	-0,083	0,059
-643,955	7,541	0,104	-0,058
-642,941	52,533	-0,123	-0,087
-641,926	18,814	-0,038	-0,022
-640,911	-200,000	-0,027	0,109
-639,897	-200,000	0,003	0,084
-638,882	-28,720	0,152	0,064
-637,868	-100,560	-0,065	0,012
-636,853	13,422	-0,096	-0,055
-635,838	-52,353	-0,045	0,015
-634,824	267,065	-0,107	-0,139
-633,809	-119,110	0,130	0,017
-632,795	785,562	0,054	0,111
-631,780	-24,977	-0,048	0,021
-630,765	5,392	-0,091	-0,049
-629,751	109,074	-0,109	-0,097
-628,736	98,743	-0,082	-0,070
-627,722	50,535	-0,073	0,051
-626,707	-47,928	-0,173	0,062
-625,692	73,208	-0,046	-0,036
-624,678	346,231	-0,095	0,138
-623,663	-200,000	-0,010	0,158
-622,649	800,000	0,050	-0,131
-621,634	52,205	-0,080	-0,056
-620,619	-106,301	0,037	-0,006
-619,605	-200,000	0,022	-0,084
-618,590	161,162	0,057	-0,059
-617,576	800,000	0,041	-0,101
-616,561	-143,128	0,071	0,005
-615,546	-98,092	-0,085	0,016
-614,532	35,858	-0,073	-0,047
-613,517	-200,000	0,016	-0,065
-612,503	38,186	-0,036	0,023
-611,488	-200,000	0,026	0,129
-610,474	800,000	-0,027	0,065
-609,459	-200,000	0,015	0,070
-608,444	-143,907	-0,108	-0,007
-607,430	75,292	-0,043	-0,033
-606,415	800,000	-0,034	-0,092
-605,401	-200,000	-0,013	0,082
-604,386	216,479	0,050	0,059
-603,371	-146,543	0,057	0,004
-602,357	-17,173	-0,046	0,022
-601,342	592,241	-0,046	-0,084
-600,328	-10,903	-0,118	-0,058
-599,313	-59,264	0,128	0,040
-598,298	-55,817	0,052	-0,017
-597,284	106,330	-0,055	-0,049
-596,269	161,954	-0,024	0,025
-595,255	800,000	-0,038	0,116
-594,240	-105,662	-0,071	-0,012
-593,225	-67,876	-0,083	-0,024
-592,211	138,534	0,125	-0,121
-591,196	189,693	-0,136	-0,150
-590,182	2,526	0,072	-0,039
-589,167	-200,000	0,021	0,132
-588,152	-56,721	0,098	-0,032
-587,138	13,148	-0,035	-0,020
-586,123	-167,174	-0,160	-0,005
-585,109	131,554	0,100	-0,095
-584,094	800,000	-0,025	0,065
-583,079	106,299	0,061	-0,054
-582,065	240,643	0,042	0,052
-581,050	800,000	0,014	-0,043
-580,036	417,567	0,036	-0,057
-579,021	689,444	-0,036	0,071
-578,006	491,893	-0,085	-0,144
-576,992	100,258	-0,067	-0,057
-575,977	269,846	0,043	-0,055
-574,963	161,923	0,109	-0,113
-573,948	-200,000	0,004	-0,016
-572,934	800,000	0,023	-0,050
-571,919	674,094	-0,049	-0,095
-570,904	242,937	-0,152	-0,189
-569,890	-21,328	-0,141	-0,063
-568,875	-81,122	0,076	-0,018
-567,861	154,138	0,102	0,104
-566,846	161,803	0,013	0,014
-565,831	-23,818	-0,131	0,058
-564,817	-200,000	0,009	-0,037
-563,802	-169,928	-0,107	-0,003
-562,788	207,478	-0,035	-0,041
-561,773	-200,000	-0,012	-0,042
-560,758	245,912	-0,057	0,071
-559,744	103,770	0,022	0,019
-558,729	-86,942	0,031	-0,007
-557,715	126,259	-0,032	-0,030
-556,700	202,556	-0,022	-0,025
-555,685	800,000	-0,029	0,061
-554,671	-200,000	-0,004	0,116
-553,656	-76,359	0,120	-0,031
-552,642	-25,369	-0,069	0,030
-551,627	-200,000	-0,026	0,175
-550,612	202,963	-0,073	-0,084
-549,598	-200,000	-0,047	-0,209
-548,583	62,702	0,080	-0,059
-547,569	-13,775	0,055	-0,026
-546,554	-200,000	0,001	-0,033
-545,539	800,000	0,057	0,133
-544,525	-77,014	0,061	0,016
-543,510	2,220	-0,190	-0,101
-542,496	23,268	-0,070	-0,042
-541,481	169,786	-0,063	-0,066
-540,466	-113,559	0,122	-0,017
-539,452	-79,062	-0,087	0,022
-538,437	-200,000	-0,002	0,114
-537,423	800,000	-0,054	0,137
-536,408	-66,882	0,086	-0,025
-535,393	-96,039	-0,165	-0,032
-534,379	800,000	0,007	-0,020
-533,364	142,070	0,063	-0,062
-532,350	141,516	0,061	-0,059
-531,335	-105,702	-0,044	-0,007
-530,321	-200,000	-0,017	-0,096
-529,306	133,669	-0,040	0,038
-528,291	155,481	-0,018	0,018
-527,277	-124,365	0,105	-0,012
-526,262	139,363	-0,016	0,016
-525,248	758,019	-0,034	0,069
-524,233	-32,450	0,186	0,076
-523,218	800,000	0,067	0,163
-522,204	800,000	-0,046	-0,129
-521,189	-135,746	0,080	-0,007
-520,175	614,327	0,072	-0,133
-519,160	-64,936	0,083	0,025
-518,145	800,000	0,031	0,101
-517,131	623,274	-0,028	-0,052
-516,116	363,835	0,059	0,088
-515,102	36,595	-0,132	-0,086
-514,087	65,976	0,102	0,076
-513,072	232,056	0,070	0,085
-512,058	-128,468	-0,142	0,015
-511,043	13,785	0,051	0,029
-510,029	-200,000	-0,003	0,225
-509,014	-200,000	0,013	0,193
-507,999	170,923	0,048	0,050
-506,985	-139,729	0,129	0,010
-505,970	-47,406	-0,096	-0,034
-504,956	-200,000	-0,024	-0,163
-503,941	-49,404	0,041	0,014
-502,926	9,622	0,074	-0,041
-501,912	683,470	0,054	0,105
-500,897	-200,000	0,002	0,023
-499,883	615,327	-0,040	0,073
-498,868	324,251	-0,023	-0,032
-497,853	458,705	-0,062	-0,102
-496,839	6,424	-0,066	0,036
-495,824	33,376	0,180	-0,115
-494,810	-8,915	-0,065	-0,032
-493,795	146,959	-0,079	-0,078
-492,781	-159,912	0,083	-0,003
-491,766	-200,000	0,034	-0,133
-490,751	-125,536	0,051	-0,006
-489,737	-200,000	0,001	0,029
-488,722	-200,000	0,008	0,042
-487,708	800,000	0,058	0,138
-486,693	117,910	-0,083	-0,076
-485,678	10,398	0,112	-0,063
-484,664	47,782	0,158	0,108
-483,649	800,000	-0,042	0,101
-482,635	379,816	-0,051	-0,077
-481,620	-40,223	-0,057	0,022
-480,605	-22,133	0,062	-0,027
-479,591	-107,976	0,204	0,032
-478,576	-200,000	-0,083	0,000
-477,562	110,707	-0,107	0,095
-476,547	800,000	-0,047	0,112
-475,532	-25,669	0,099	-0,043
-474,518	-26,348	0,122	-0,052
-473,503	312,006	0,051	-0,070
-472,489	-142,671	0,059	-0,004
-471,474	234,743	-0,016	-0,020
-470,459	-80,449	-0,139	-0,034
-469,445	55,997	-0,053	-0,038
-468,430	-131,573	0,074	0,007
-467,416	-13,539	-0,051	0,024
-466,401	-171,227	0,056	-0,001
-465,386	-101,267	0,093	-0,017
-464,372	46,610	0,071	0,049
-463,357	-169,278	-0,043	0,001
-462,343	296,304	-0,118	-0,159
-461,328	-200,000	0,006	-0,062
-460,313	-47,399	0,133	0,047
-459,299	-110,629	-0,144	0,022
-458,284	-111,011	-0,021	-0,003
-457,270	86,272	-0,118	0,095
-456,255	-143,296	-0,051	-0,004
-455,241	93,797	-0,041	0,034
-454,226	-200,000	0,003	-0,023
-453,211	40,562	0,109	-0,072
-452,197	14,011	0,073	-0,042
-451,182	213,253	-0,023	0,027
-450,168	582,310	-0,065	-0,118
-449,153	-200,000	0,016	-0,087
-448,138	-124,652	0,214	0,024
-447,124	-200,000	-0,020	-0,082
-446,109	800,000	0,063	0,173
-445,095	-135,433	0,104	0,009
-444,080	800,000	0,028	0,070
-443,065	-93,457	0,102	0,021
-442,051	-36,698	-0,192	0,075
-441,036	160,571	0,002	0,002
-440,022	32,403	0,167	0,106
-439,007	244,511	0,044	0,055
-437,992	-1,912	-0,018	-0,009
-436,978	605,707	-0,021	0,039
-435,963	422,442	0,042	0,067
-434,949	-80,472	-0,083	0,020
-433,934	-71,594	0,062	0,017
-432,919	-200,000	0,002	-0,070
-431,905	287,683	0,071	-0,094
-430,890	-200,000	-0,002	0,049
-429,876	-200,000	0,024	0,168
-428,861	-200,000	-0,026	0,093
-427,846	800,000	-0,018	-0,056
-426,832	-89,336	-0,140	-0,030
-425,817	800,000	-0,033	-0,097
-424,803	105,815	-0,056	-0,049
-423,788	-122,220	-0,070	-0,008
-422,773	676,456	0,031	0,060
-421,759	30,068	0,018	-0,011
-420,744	-200,000	0,023	0,084
-419,730	51,820	-0,085	-0,059
-418,715	-200,000	0,001	-0,124
-417,701	-200,000	-0,014	-0,129
-416,686	64,990	-0,068	-0,050
-415,671	-200,000	0,037	-0,137
-414,657	-157,020	0,055	0,002
-413,642	320,261	0,086	0,120
-412,628	-200,000	-0,019	-0,144
-411,613	800,000	0,024	-0,050
-410,598	59,287	0,110	-0,079
-409,584	0,372	0,067	-0,035
-408,569	374,366	-0,081	0,121
-407,555	-200,000	-0,036	0,199
-406,540	800,000	-0,034	0,090
-405,525	202,481	0,040	0,045
-404,511	-48,407	-0,074	0,026
-403,496	-200,000	0,005	-0,208
-402,482	-200,000	0,001	0,008
-401,467	-89,172	0,093	0,020
-400,452	359,684	0,058	0,085
-399,438	-200,000	0,021	-0,099
-398,423	800,000	0,036	0,087
-397,409	-6,437	-0,034	-0,017
-396,394	-194,541	-0,047	-0,000
-395,379	-16,444	-0,133	-0,062
-394,365	-200,000	-0,013	-0,072
-393,350	800,000	0,026	0,062
-392,336	-200,000	0,043	0,163
-391,321	-100,719	-0,131	-0,023
-390,306	75,807	-0,051	0,039
-389,292	800,000	-0,053	-0,142
-388,277	-157,375	-0,103	0,004
-387,263	-3,262	0,079	0,040
-386,248	8,786	0,120	-0,066
-385,233	-200,000	-0,014	-0,047
-384,219	310,690	-0,036	-0,050
-383,204	657,977	0,027	-0,051
-382,190	-24,082	-0,123	-0,054
-381,175	284,826	0,073	0,096
-380,160	-124,714	-0,040	-0,004
-379,146	376,806	0,035	-0,053
-378,131	29,621	-0,075	0,047
-377,117	-89,041	0,070	0,015
-376,102	123,119	-0,028	-0,026
-375,088	-78,269	0,100	0,025
-374,073	81,235	-0,056	-0,044
-373,058	161,104	0,070	0,071
-372,044	800,000	-0,035	0,091
-371,029	-7,419	0,017	-0,008
-370,015	-200,000	-0,013	0,136
-369,000	338,584	-0,084	0,120
-367,985	-54,752	-0,055	0,018
-366,971	142,916	0,050	0,049
-365,956	61,018	0,082	0,060
-364,942	-200,000	0,033	0,120
-363,927	431,405	0,094	0,150
-362,912	-200,000	-0,026	0,117
-361,898	-200,000	-0,018	0,057
-360,883	-67,724	0,110	0,031
-359,869	-200,000	-0,017	0,058
-358,854	-1,739	0,122	-0,063
-357,839	-200,000	-0,015	0,104
-356,825	72,112	0,062	-0,047
-355,810	-200,000	-0,007	0,050
-354,796	-108,092	-0,079	-0,012
-353,781	-116,443	-0,128	0,017
-352,766	-200,000	0,021	-0,086
-351,752	-104,314	-0,146	0,025
-350,737	-200,000	-0,011	-0,118
-349,723	216,245	-0,057	-0,066
-348,708	42,314	-0,093	-0,062
-347,693	-200,000	0,012	-0,051
-346,679	-89,158	-0,074	0,016
-345,664	781,003	0,040	-0,080
-344,650	800,000	-0,018	0,046
-343,635	-168,953	-0,026	0,001
-342,620	-142,711	0,086	0,006
-341,606	-154,369	0,131	0,006
-340,591	-200,000	0,003	0,064
-339,577	800,000	0,030	-0,094
-338,562	54,445	-0,116	-0,082
-337,548	150,032	0,081	-0,081
-336,533	-6,986	-0,028	0,014
-335,518	149,736	0,101	0,100
-334,504	733,217	0,019	0,037
-333,489	74,469	-0,044	0,034
-332,475	18,545	0,080	0,047
-331,460	-200,000	-0,008	-0,071
-330,445	-200,000	0,023	-0,087
-329,431	214,970	0,062	-0,072
-328,416	269,314	-0,093	-0,119
-327,402	-79,960	0,054	-0,013
-326,387	-200,000	0,012	-0,079
-325,372	-200,000	-0,018	-0,059
-324,358	11,653	-0,047	0,026
-323,343	-6,243	0,080	-0,040
-322,329	-200,000	0,024	0,103
-321,314	1,452	0,074	0,039
-320,299	393,515	0,112	0,171
-319,285	109,478	0,022	0,019
-318,270	-29,406	-0,063	0,026
-317,256	137,201	-0,137	-0,131
-316,241	-53,975	0,103	-0,034
-315,226	-200,000	-0,029	-0,145
-314,212	79,968	0,150	-0,118
-313,197	800,000	-0,037	0,111
-312,183	-200,000	-0,004	-0,050
-311,168	-200,000	-0,019	-0,087
-310,153	-200,000	0,014	-0,052
-309,139	-144,107	-0,156	-0,011
-308,124	187,065	0,081	-0,089
-307,110	800,000	-0,015	-0,045
-306,095	-70,887	0,158	-0,043
-305,080	-172,338	-0,144	0,003
-304,066	80,034	0,031	0,024
-303,051	-200,000	-0,009	-0,095
-302,037	299,437	0,070	0,094
-301,022	158,661	-0,105	-0,107
-300,008	26,133	-0,094	0,057
-298,993	-200,000	-0,013	0,047
-297,978	-59,541	-0,035	0,011
-296,964	84,376	0,062	0,049
-295,949	-118,716	-0,135	-0,017
-294,935	-200,000	0,004	-0,061
-293,920	-150,858	-0,017	0,001
-292,905	-107,032	0,082	0,013
-291,891	-130,762	0,069	-0,007
-290,876	-200,000	0,005	0,133
-289,862	452,595	-0,029	-0,047
-288,847	69,653	0,128	-0,096
-287,832	-58,341	-0,077	-0,024
-286,818	16,442	0,036	-0,021
-285,803	-200,000	0,014	-0,087
-284,789	-114,010	0,103	0,014
-283,774	50,367	0,057	0,039
-282,759	69,059	-0,065	-0,049
-281,745	645,624	-0,024	-0,046
-280,730	22,856	-0,122	0,073
-279,716	196,911	0,015	0,017
-278,701	-108,560	-0,105	-0,016
-277,686	800,000	-0,029	0,092
-276,672	-200,000	0,033	0,000
-275,657	130,044	-0,074	-0,069
-274,643	-64,187	0,060	0,018
-273,628	212,171	-0,038	0,044
-272,613	227,258	0,042	0,050
-271,599	800,000	0,056	0,165
-270,584	-2,276	0,121	-0,062
-269,570	800,000	0,056	-0,123
-268,555	156,319	0,056	0,057
-267,540	-200,000	-0,025	0,201
-266,526	769,891	0,038	-0,077
-265,511	800,000	-0,040	0,092
-264,497	-200,000	-0,005	0,034
-263,482	100,293	0,011	-0,009
-262,467	670,822	-0,087	-0,166
-261,453	154,659	-0,076	-0,077
-260,438	-121,025	0,073	0,009
-259,424	800,000	-0,014	-0,042
-258,409	800,000	-0,044	-0,107
-257,395	43,929	0,172	0,115
-256,380	-200,000	0,009	0,045
-255,365	800,000	-0,039	0,109
-254,351	335,838	0,078	0,110
-253,336	-98,462	-0,058	-0,011
-252,322	64,821	-0,020	0,015
-251,307	-105,443	0,031	-0,005
-250,292	72,674	0,082	0,063
-249,278	472,947	0,031	0,052
-248,263	102,784	-0,031	0,026
-247,249	800,000	0,014	0,030
-246,234	44,813	0,064	0,043
-245,219	333,895	-0,038	-0,054
-244,205	-200,000	0,015	-0,057
-243,190	436,772	0,063	-0,101
-242,176	177,254	-0,010	-0,010
-241,161	800,000	0,041	-0,107
-240,146	222,018	0,131	0,154
-239,132	153,100	-0,047	0,047
-238,117	408,111	-0,079	-0,122
-237,103	227,327	-0,052	0,062
-236,088	-200,000	0,001	0,063
-235,073	266,990	-0,075	0,096
-234,059	137,436	-0,048	0,046
-233,044	67,814	-0,121	0,090
-232,030	194,265	0,096	-0,106
-231,015	-200,000	0,005	-0,118
-230,000	-84,357	-0,062	0,014
-228,986	526,489	0,013	0,023
-227,971	-95,947	0,090	0,017
-226,957	-78,142	-0,037	0,009
-225,942	-24,024	-0,068	-0,029
-224,927	-91,985	-0,121	-0,025
-223,913	-200,000	-0,004	-0,097
-222,898	-200,000	0,014	-0,098
-221,884	693,096	0,067	-0,129
-220,869	127,566	-0,025	-0,024
-219,855	-200,000	0,013	0,128
-218,840	20,859	0,089	-0,052
-217,825	-200,000	0,029	-0,105
-216,811	297,308	-0,034	-0,046
-215,796	-200,000	-0,017	-0,072
-214,782	174,675	0,070	-0,073
-213,767	-90,106	0,092	0,019
-212,752	407,227	-0,027	0,042
-211,738	-140,352	0,038	-0,003
-210,723	643,196	0,036	0,067
-209,709	-200,000	-0,001	0,059
-208,694	-200,000	-0,004	0,164
-207,679	-51,978	-0,160	0,054
-206,665	-200,000	-0,004	-0,031
-205,650	800,000	-0,020	-0,060
-204,636	-200,000	0,004	0,034
-203,621	245,707	0,047	-0,058
-202,606	800,000	-0,041	-0,084
-201,592	311,951	0,021	-0,029
-200,577	250,457	0,071	0,089
-199,563	184,584	0,090	0,098
-198,548	-62,081	0,106	0,032
-197,533	-200,000	-0,010	0,171
-196,519	538,064	0,056	0,098
-195,504	-4,403	-0,034	-0,017
-194,490	-41,225	-0,119	-0,044
-193,475	519,565	0,031	-0,053
-192,460	-4,292	0,101	0,051
-191,446	-53,210	-0,105	0,035
-190,431	9,498	0,077	0,042
-189,417	541,048	0,057	-0,100
-188,402	-138,302	-0,107	-0,008
-187,387	15,476	-0,046	-0,026
-186,373	-9,921	-0,202	-0,098
-185,358	122,149	0,090	0,082
-184,344	800,000	-0,033	-0,070
-183,329	449,102	-0,062	-0,100
-182,315	-70,370	-0,048	-0,013
-181,300	330,855	0,070	0,098
-180,285	-121,765	0,054	0,006
-179,271	-89,182	-0,024	-0,005
-178,256	-200,000	-0,008	-0,079
-177,242	484,142	0,046	0,076
-176,227	716,141	-0,022	-0,044
-175,212	-128,612	0,041	0,004
-174,198	-200,000	0,011	0,157
-173,183	-125,807	-0,076	-0,008
-172,169	16,260	0,018	0,010
-171,154	65,611	-0,152	0,112
-170,139	-200,000	-0,011	-0,070
-169,125	800,000	0,006	0,012
-168,110	110,513	0,028	-0,024
-167,096	17,849	0,133	0,077
-166,081	-200,000	-0,004	0,061
-165,066	-7,818	-0,060	-0,029
-164,052	800,000	-0,016	0,041
-163,037	234,312	-0,050	0,060
-162,023	-90,886	0,106	0,022
-161,008	-106,520	0,120	0,019
-159,993	59,433	-0,119	-0,085
-158,979	-29,525	0,073	-0,030
-157,964	-75,812	0,049	-0,012
-156,950	-39,883	0,079	0,030
-155,935	-200,000	0,008	0,162
-154,920	-87,541	-0,105	0,023
-153,906	55,195	0,118	0,083
-152,891	-126,516	-0,112	-0,012
-151,877	800,000	-0,032	0,078
-150,862	117,984	-0,052	-0,047
-149,847	-200,000	0,011	-0,063
-148,833	-200,000	-0,002	-0,025
-147,818	106,515	0,040	-0,035
-146,804	-200,000	0,005	0,040
-145,789	753,614	0,038	0,075
-144,775	-90,495	-0,046	-0,010
-143,760	-200,000	0,019	-0,066
-142,745	-95,818	-0,136	0,026
-141,731	-33,790	-0,018	-0,007
-140,716	74,058	-0,099	-0,075
-139,702	-200,000	0,014	0,101
-138,687	31,432	0,088	0,055
-137,672	468,772	-0,074	-0,121
-136,658	-200,000	0,025	-0,110
-135,643	-164,991	-0,070	-0,002
-134,629	-200,000	0,029	0,103
-133,614	440,750	0,100	0,159
-132,599	146,073	0,063	0,061
-131,585	293,196	-0,073	0,097
-130,570	-200,000	0,012	-0,056
-129,556	353,832	0,029	0,042
-128,541	-73,019	-0,050	0,013
-127,526	462,146	0,011	-0,018
-126,512	800,000	0,018	0,039
-125,497	-121,917	0,073	0,009
-124,483	-200,000	0,021	0,118
-123,468	527,170	-0,021	-0,035
-122,453	-200,000	-0,024	-0,121
-121,439	56,382	-0,119	0,084
-120,424	-85,731	0,073	0,016
-119,410	102,389	-0,019	0,016
-118,395	-107,279	0,048	0,008
-117,380	800,000	0,054	-0,151
-116,366	800,000	0,012	0,038
-115,351	-66,073	0,099	-0,028
-114,337	215,750	0,059	-0,068
-113,322	205,029	0,044	-0,050
-112,307	110,239	-0,040	-0,035
-111,293	98,398	0,031	0,026
-110,278	450,029	0,008	0,013
-109,264	-22,726	0,062	0,027
-108,249	-200,000	-0,029	0,134
-107,234	-1,246	-0,109	-0,056
-106,220	-77,381	-0,035	0,009
-105,205	800,000	-0,045	-0,100
-104,191	800,000	0,033	-0,099
-103,176	30,814	0,085	0,052
-102,162	442,928	-0,029	0,046
-101,147	-200,000	-0,021	-0,078
-100,132	156,565	-0,119	0,119
-99,118	27,074	0,071	0,043
-98,103	-200,000	0,015	-0,083
-97,089	-83,438	0,138	-0,032
-96,074	221,188	0,057	-0,067
-95,059	180,988	-0,032	-0,034
-94,045	8,684	-0,093	0,051
-93,030	81,854	0,021	-0,016
-92,016	800,000	-0,017	-0,039
-91,001	-81,092	0,140	0,033
-89,986	-49,721	0,040	0,014
-88,972	-41,007	0,073	-0,027
-87,957	4,561	-0,128	0,068
-86,943	-200,000	0,008	0,099
-85,928	151,448	0,060	-0,059
-84,913	-57,183	-0,155	0,049
-83,899	-116,299	-0,075	0,010
-82,884	-116,778	-0,044	0,006
-81,870	800,000	0,049	0,120
-80,855	-101,220	0,081	-0,014
-79,840	-200,000	0,007	0,060
-78,826	175,478	0,056	-0,058
-77,811	174,067	0,111	0,116
-76,797	-38,196	-0,082	-0,031
-75,782	-200,000	-0,006	-0,104
-74,767	-92,139	0,139	0,028
-73,753	236,141	-0,015	0,018
-72,738	52,967	-0,040	-0,028
-71,724	-62,969	-0,144	0,043
-70,709	457,576	-0,051	0,083
-69,694	14,122	0,086	0,048
-68,680	44,725	0,026	-0,017
-67,665	367,833	0,060	0,088
-66,651	-200,000	0,041	0,139
-65,636	70,638	0,052	0,039
-64,622	800,000	-0,015	-0,036
-63,607	153,605	-0,082	-0,082
-62,592	-158,977	-0,124	0,005
-61,578	285,007	0,037	-0,048
-60,563	-200,000	-0,009	0,112
-59,549	247,391	0,111	0,136
-58,534	-41,169	-1,764	-0,656
-57,519	800,000	-0,547	-1,169
-56,505	-200,000	-1,150	-4,880
-55,490	-84,925	0,698	0,157
-54,476	800,000	5,271	12,019
-53,461	-200,000	16,244	273,567
-52,446	800,000	707,489	2235,526
-51,432	572,552	1619,465	2869,139
-50,417	120,532	1618,533	1455,951
-49,403	84,383	1280,101	1012,915
-48,388	36,593	1026,881	655,051
-47,373	21,323	989,371	580,500
-46,359	20,124	977,934	569,806
-45,344	18,198	973,656	560,943
-44,330	18,381	972,399	560,800
-43,315	18,026	970,662	558,607
-42,300	17,973	969,737	557,877
-41,286	17,965	968,543	557,143
-40,271	17,953	967,555	556,515
-39,257	18,044	966,902	556,414
-38,242	17,967	966,174	555,721
-37,227	18,033	965,247	555,383
-36,213	17,940	964,578	554,670
-35,198	17,942	963,451	554,006
-34,184	17,980	962,813	553,741
-33,169	17,936	961,892	553,048
-32,154	17,985	960,973	552,657
-31,140	17,933	960,043	551,931
-30,125	17,984	959,175	551,575
-29,111	17,987	958,518	551,187
-28,096	17,901	957,931	550,547
-27,082	17,876	957,326	550,095
-26,067	17,959	956,292	549,749
-25,052	17,983	955,691	549,461
-24,038	18,054	954,766	549,134
-23,023	17,979	954,222	548,558
-22,009	17,992	953,529	548,181
-20,994	17,979	952,815	547,708
-19,979	17,916	952,318	547,197
-18,965	17,888	951,598	546,669
-17,950	17,915	951,093	546,446
-16,936	17,852	950,360	545,799
-15,921	17,844	949,807	545,436
-14,906	17,776	948,923	544,689
-13,892	17,807	948,169	544,332
-12,877	17,814	947,553	543,980
-11,863	17,817	946,983	543,639
-10,848	17,809	946,584	543,364
-9,833	17,885	946,001	543,250
-8,819	17,866	945,517	542,890
-7,804	17,865	944,687	542,388
-6,790	17,717	944,396	541,727
-5,775	17,846	943,640	541,686
-4,760	17,873	942,922	541,338
-3,746	17,791	942,474	540,797
-2,731	17,674	941,801	540,018
-1,717	17,656	941,016	539,486
-0,702	17,615	940,340	538,947
0,313	17,350	940,017	538,733
1,327	20,670	937,956	548,043
2,342	29,946	795,118	489,335
3,356	26,476	448,295	270,656
4,371	-4,639	294,936	146,790
5,386	-8,931	276,302	133,413
6,400	-10,142	270,439	129,439
7,415	-10,567	268,000	127,867
8,429	-10,085	266,928	127,789
9,444	-9,982	266,141	127,495
10,459	-9,766	265,422	127,337
11,473	-9,970	264,894	126,886
12,488	-9,886	264,613	126,817
13,502	-10,066	264,019	126,356
14,517	-9,920	263,753	126,351
15,531	-9,257	263,341	126,745
16,546	-9,236	263,125	126,649
17,561	-9,073	262,514	126,491
18,575	-9,305	262,453	126,241
19,590	-9,196	262,031	126,125
20,604	-9,102	261,823	126,098
21,619	-9,075	261,370	125,893
22,634	-9,137	261,053	125,674
23,648	-9,178	260,774	125,491
24,663	-9,115	260,487	125,399
25,677	-9,221	260,270	125,187
26,692	-9,384	260,161	124,978
27,707	-9,139	259,772	124,999
28,721	-9,182	259,656	124,894
29,736	-9,305	259,324	124,613
30,750	-9,360	259,125	124,457
31,765	-9,204	258,752	124,406
32,780	-9,171	258,469	124,288
33,794	-9,176	258,230	124,158
34,809	-9,164	257,989	124,041
35,823	-9,316	257,755	123,783
36,838	-9,277	257,697	123,778
37,853	-9,240	257,253	123,587
38,867	-9,350	257,138	123,423
39,882	-9,287	257,019	123,411
40,896	-9,180	256,541	123,265
41,911	-9,085	256,524	123,330
42,926	-9,320	256,127	122,921
43,940	-9,292	255,935	122,842
44,955	-9,242	255,852	122,835
45,969	-9,387	255,515	122,536
46,984	-9,502	255,415	122,375
47,999	-9,485	255,253	122,301
49,013	-9,521	254,876	122,078
50,028	-9,438	254,718	122,065
51,042	-9,345	254,380	121,973
52,057	-9,578	254,108	121,628
53,071	-9,543	253,938	121,567
54,086	-9,420	253,801	121,598
55,101	-9,439	253,518	121,435
56,115	-9,550	253,421	121,281
57,130	-9,463	253,251	121,264
58,144	-9,459	253,048	121,160
59,159	-9,380	252,979	121,184
60,174	-9,202	252,555	121,125
61,188	-9,316	252,284	120,886
62,203	-9,115	252,213	121,015
63,217	-9,119	251,932	120,866
64,232	-9,308	251,836	120,645
65,247	-9,373	251,425	120,382
66,261	-9,442	251,297	120,250
67,276	-9,387	251,242	120,261
68,290	-9,365	250,723	120,020
69,305	-9,671	250,523	119,651
70,320	-9,458	250,513	119,819
71,334	-9,367	250,345	119,806
72,349	-9,389	250,252	119,731
73,363	-9,129	249,836	119,745
74,378	-9,554	249,909	119,405
75,393	-9,522	249,476	119,215
76,407	-9,436	249,359	119,221
77,422	-9,392	249,110	119,129
78,436	-9,447	248,923	118,983
79,451	-9,191	248,574	119,023
80,466	-9,495	248,582	118,757
81,480	-9,291	248,193	118,735
82,495	-9,359	248,021	118,584
83,509	-9,379	247,980	118,536
84,524	-9,400	247,768	118,407
85,539	-9,234	247,513	118,416
86,553	-9,354	247,313	118,208
87,568	-9,448	247,188	118,057
88,582	-9,335	246,985	118,045
89,597	-9,421	246,712	117,832
90,611	-9,448	246,629	117,759
91,626	-9,394	246,435	117,702
92,641	-9,467	246,291	117,561
93,655	-9,302	246,059	117,578
94,670	-9,499	245,879	117,316
95,684	-9,441	245,564	117,204
96,699	-9,609	245,424	116,986
97,714	-9,773	245,349	116,801
98,728	-9,559	245,114	116,858
99,743	-9,348	244,827	116,888
100,757	-9,343	244,498	116,726
101,772	-9,370	244,346	116,620
102,787	-9,611	244,359	116,414
103,801	-9,484	244,073	116,373
104,816	-9,639	243,917	116,160
105,830	-9,362	243,799	116,324
106,845	-9,358	243,560	116,203
107,860	-9,645	243,419	115,886
108,874	-9,594	243,176	115,803
109,889	-9,768	242,879	115,506
110,903	-9,781	242,727	115,412
111,918	-9,843	242,556	115,270
112,933	-9,531	242,429	115,458
113,947	-9,453	242,175	115,391
114,962	-9,729	242,109	115,120
115,976	-9,552	241,885	115,150
116,991	-9,484	241,804	115,157
118,006	-9,461	241,701	115,118
119,020	-9,425	241,457	115,020
120,035	-9,453	241,322	114,923
121,049	-9,408	241,228	114,905
122,064	-9,385	240,840	114,729
123,079	-9,460	240,562	114,525
124,093	-9,533	240,582	114,464
125,108	-9,470	240,292	114,367
126,122	-9,453	240,154	114,306
127,137	-9,500	240,062	114,213
128,151	-9,534	239,835	114,066
129,166	-9,527	239,647	113,973
130,181	-9,499	239,412	113,874
131,195	-9,577	239,226	113,712
132,210	-9,616	239,156	113,637
133,224	-9,521	238,878	113,572
134,239	-9,633	238,769	113,419
135,254	-9,599	238,523	113,319
136,268	-9,697	238,474	113,206
137,283	-9,546	238,146	113,163
138,297	-9,691	237,942	112,938
139,312	-9,543	237,702	112,935
140,327	-9,678	237,618	112,775
141,341	-9,302	237,599	113,060
142,356	-9,487	237,464	112,837
143,370	-9,530	237,263	112,696
144,385	-9,184	237,146	112,910
145,400	-9,096	236,943	112,875
146,414	-9,140	236,753	112,739
147,429	-9,299	236,506	112,482
148,443	-9,308	236,330	112,382
149,458	-9,307	236,117	112,271
150,473	-9,359	235,950	112,140
151,487	-9,471	235,857	111,995
152,502	-9,372	235,677	111,979
153,516	-9,215	235,466	111,995
154,531	-9,266	235,424	111,924
155,546	-9,433	235,134	111,643
156,560	-9,407	234,871	111,529
157,575	-9,643	234,822	111,307
158,589	-9,454	234,531	111,310
159,604	-9,416	234,548	111,338
160,619	-9,097	234,461	111,542
161,633	-8,970	234,121	111,471
162,648	-9,052	234,230	111,448
163,662	-9,312	233,976	111,110
164,677	-9,382	233,741	110,933
165,692	-9,043	233,377	111,019
166,706	-9,220	233,433	110,895
167,721	-9,024	233,371	111,012
168,735	-9,148	233,191	110,818
169,750	-9,258	233,015	110,637
170,764	-9,411	232,818	110,412
171,779	-9,346	232,682	110,389
172,794	-9,172	232,482	110,423
173,808	-9,236	232,280	110,267
174,823	-9,472	231,918	109,899
175,837	-9,563	231,870	109,794
176,852	-9,588	231,755	109,710
177,867	-9,613	231,673	109,642
178,881	-9,532	231,441	109,586
179,896	-9,350	231,244	109,626
180,910	-9,238	231,223	109,694
181,925	-9,230	230,964	109,568
182,940	-9,381	230,845	109,383
183,954	-9,433	230,728	109,277
184,969	-9,028	230,628	109,538
185,983	-9,098	230,440	109,384
186,998	-8,999	230,299	109,385
188,013	-9,089	230,090	109,205
189,027	-9,114	230,018	109,142
190,042	-9,025	229,739	109,069
191,056	-9,464	229,807	108,749
192,071	-9,268	229,414	108,706
193,086	-9,553	229,159	108,354
194,100	-10,027	228,753	107,784
195,115	-11,548	228,198	106,333
196,129	-11,433	228,021	106,331
197,144	-7,084	229,610	110,452
198,159	-1,381	231,160	115,653
199,173	1,779	231,845	118,460
200,188	2,415	232,143	119,100
201,202	2,845	232,223	119,467
202,217	3,367	232,020	119,760
203,232	3,510	231,927	119,813
204,246	3,590	231,890	119,846
205,261	3,512	231,791	119,723
206,275	3,660	231,670	119,765
207,290	3,597	231,414	119,574
208,304	3,504	231,145	119,352
209,319	3,627	230,956	119,339
210,334	3,299	230,940	119,065
211,348	2,995	230,523	118,603
212,363	2,656	230,322	118,226
213,377	2,252	229,909	117,691
214,392	2,308	229,784	117,660
215,407	2,302	229,654	117,578
216,421	2,232	229,419	117,393
217,436	2,104	229,335	117,241
218,450	1,951	229,132	117,009
219,465	2,113	228,920	117,015
220,480	2,086	228,842	116,944
221,494	2,007	228,744	116,822
222,509	2,276	228,534	116,911
223,523	2,301	228,454	116,879
224,538	2,354	228,343	116,853
225,553	2,300	228,188	116,722
226,567	2,275	228,044	116,619
227,582	2,109	227,911	116,413
228,596	2,127	227,712	116,314
229,611	2,293	227,553	116,350
230,626	2,077	227,372	116,081
231,640	2,049	227,230	115,978
232,655	2,159	227,067	115,968
233,669	1,887	227,198	115,817
234,684	2,133	226,833	115,808
235,699	2,050	226,879	115,757
236,713	2,414	226,540	115,851
237,728	2,472	226,474	115,852
238,742	2,371	226,247	115,648
239,757	2,385	226,113	115,580
240,772	2,726	225,851	115,695
241,786	2,617	225,980	115,668
242,801	2,623	225,839	115,590
243,815	2,765	225,683	115,607
244,830	2,764	225,474	115,490
245,844	2,679	225,354	115,353
246,859	2,497	225,181	115,117
247,874	2,416	224,995	114,950
248,888	2,585	224,968	115,054
249,903	2,521	224,668	114,842
250,917	2,412	224,490	114,659
251,932	2,453	224,425	114,646
252,947	2,449	224,398	114,619
253,961	2,291	224,195	114,386
254,976	2,467	223,995	114,406
255,990	2,485	223,675	114,247
257,005	2,700	223,639	114,379
258,020	2,569	223,679	114,291
259,034	2,627	223,507	114,236
260,049	2,733	223,385	114,244
261,063	2,473	223,166	113,927
262,078	2,567	222,975	113,889
263,093	2,758	222,904	113,985
264,107	2,761	222,561	113,802
265,122	2,621	222,597	113,706
266,136	2,639	222,505	113,662
267,151	2,357	222,363	113,369
268,166	2,320	222,104	113,199
269,180	2,239	222,025	113,089
270,195	2,131	221,871	112,920
271,209	2,433	221,674	113,034
272,224	2,284	221,561	112,856
273,239	2,310	221,301	112,732
274,253	2,227	221,249	112,634
275,268	2,313	221,004	112,564
276,282	2,176	220,847	112,372
277,297	2,111	220,705	112,242
278,312	2,185	220,606	112,236
279,326	2,384	220,515	112,327
280,341	2,426	220,391	112,284
281,355	2,190	220,329	112,068
282,370	2,352	220,062	112,042
283,384	2,434	219,789	111,953
284,399	2,133	219,891	111,774
285,414	2,245	219,653	111,726
286,428	2,404	219,582	111,796
287,443	2,546	219,475	111,836
288,457	2,531	219,282	111,717
289,472	2,602	219,081	111,656
290,487	2,634	218,850	111,552
291,501	2,354	218,812	111,318
292,516	2,498	218,609	111,310
293,530	2,454	218,631	111,279
294,545	2,651	218,433	111,312
295,560	2,826	218,221	111,322
296,574	2,598	218,095	111,082
297,589	2,527	218,092	111,018
298,603	2,791	217,846	111,075
299,618	2,754	217,829	111,030
300,633	2,760	217,545	110,880
301,647	2,739	217,503	110,833
302,662	2,657	217,430	110,726
303,676	2,682	217,162	110,598
304,691	2,644	217,069	110,513
305,706	2,831	216,812	110,508
306,720	2,493	216,908	110,303
307,735	2,353	216,587	110,028
308,749	2,581	216,580	110,179
309,764	2,711	216,273	110,108
310,779	2,847	216,160	110,139
311,793	2,674	215,913	109,878
312,808	2,558	215,839	109,747
313,822	2,405	215,755	109,584
314,837	2,284	215,658	109,438
315,852	2,279	215,589	109,390
316,866	2,344	215,395	109,328
317,881	2,627	215,241	109,443
318,895	2,361	215,074	109,157
319,910	2,427	214,944	109,130
320,925	2,305	214,689	108,903
321,939	2,444	214,611	108,953
322,954	2,379	214,431	108,805
323,968	2,417	214,440	108,828
324,983	2,336	214,220	108,649
325,997	2,563	214,074	108,727
327,012	2,677	213,861	108,690
328,027	2,018	213,822	108,191
329,041	2,490	213,585	108,397
330,056	2,330	213,549	108,255
331,070	2,122	213,547	108,096
332,085	2,113	213,202	107,906
333,100	2,508	213,100	108,126
334,114	2,626	212,957	108,126
335,129	2,220	212,905	107,803
336,143	2,293	212,669	107,725
337,158	2,171	212,674	107,632
338,173	2,452	212,496	107,731
339,187	2,263	212,282	107,479
340,202	2,365	212,083	107,441
341,216	2,361	212,057	107,416
342,231	2,515	211,894	107,432
343,246	2,483	211,820	107,362
344,260	2,426	211,672	107,238
345,275	2,368	211,572	107,137
346,289	2,668	211,496	107,300
347,304	2,387	211,323	107,005
348,319	2,555	211,122	107,011
349,333	2,555	210,942	106,911
350,348	2,302	210,867	106,686
351,362	2,537	210,728	106,770
352,377	2,587	210,642	106,753
353,392	2,296	210,435	106,434
354,406	2,305	210,364	106,395
355,421	193,678	1342,452	1427,101
356,435	154,595	1480,404	1427,138
