DTS Sentinel unit serial number:	SN410029Multiplexer serial number:	ORYXHardware model number:	OX2-SRSoftware version number:	ORYX F/W v4,00 Oryx Data Collector v3.7.2.0data status	okinstallation	B6 Nyhavnadifferential loss correction	single-endedforward channel	channel 2reverse channel	N/Adate	2023/12/10time	06:45:08forward acquisition time	300,00reverse acquisition time	0,00gamma	499,1914k internal	0,3124k external	0,3124temperature offset calibration	1,0000default loss term (dB/km)	0,3820temperature slope calibration	1,0000multiplexer offset coefficient	1,0000multiplexer slope coefficient	1,0000fibre end	0,00T internal ref (°C)	22,62T ext. ref 1 (°C)	6,42T ext. ref 2 (°C)	6,40length (m)	temperature (°C)	Stokes	anti-Stokes-744,400	-200,000	-0,000	-0,069
-743,385	181,543	-0,206	0,227
-742,371	43,743	0,107	-0,073
-741,356	208,617	-0,101	0,118
-740,342	-200,000	0,005	0,098
-739,327	-133,081	-0,188	0,018
-738,312	362,770	0,049	-0,073
-737,298	-163,854	-0,230	-0,008
-736,283	92,493	0,013	0,011
-735,269	161,847	-0,208	0,217
-734,254	800,000	0,039	-0,092
-733,239	-61,662	-0,418	-0,130
-732,225	215,978	-0,079	-0,094
-731,210	800,000	0,026	-0,083
-730,196	-22,897	0,159	0,071
-729,181	460,718	-0,058	-0,096
-728,167	636,872	-0,080	0,151
-727,152	36,828	-0,015	-0,010
-726,137	7,202	-0,031	-0,017
-725,123	-200,000	0,007	-0,051
-724,108	-64,358	-0,171	0,052
-723,094	-200,000	0,026	-0,143
-722,079	174,587	-0,114	-0,123
-721,064	-200,000	-0,053	-0,211
-720,050	800,000	-0,065	-0,175
-719,035	-200,000	0,015	-0,093
-718,021	399,239	-0,068	-0,106
-717,006	339,885	0,023	-0,034
-715,991	46,712	-0,149	0,103
-714,977	-200,000	-0,007	-0,034
-713,962	208,533	-0,126	-0,147
-712,948	68,091	0,035	-0,026
-711,933	-200,000	-0,035	0,130
-710,918	22,964	-0,089	-0,054
-709,904	-27,095	-0,117	-0,050
-708,889	-200,000	-0,032	-0,215
-707,875	-44,578	-0,110	-0,041
-706,860	-200,000	0,002	-0,094
-705,845	-200,000	-0,010	-0,067
-704,831	148,279	0,111	-0,112
-703,816	94,986	-0,044	-0,037
-702,802	800,000	-0,029	0,081
-701,787	28,693	-0,096	-0,061
-700,772	329,854	-0,075	-0,107
-699,758	-200,000	-0,001	-0,134
-698,743	-119,688	0,047	-0,006
-697,729	800,000	-0,036	0,099
-696,714	154,775	0,046	0,047
-695,699	-200,000	0,004	-0,026
-694,685	800,000	-0,035	-0,103
-693,670	-23,967	0,084	-0,037
-692,656	-132,275	0,097	0,009
-691,641	784,109	-0,055	0,112
-690,627	327,534	0,066	-0,094
-689,612	-112,724	0,052	-0,008
-688,597	511,061	-0,037	0,064
-687,583	-200,000	0,011	-0,132
-686,568	-33,501	0,045	-0,018
-685,554	626,924	0,047	0,089
-684,539	-3,652	-0,033	0,017
-683,524	-200,000	-0,005	-0,047
-682,510	-55,261	-0,186	-0,062
-681,495	97,664	0,027	0,023
-680,481	-200,000	-0,045	-0,165
-679,466	154,953	0,044	0,045
-678,451	-200,000	-0,001	-0,012
-677,437	-30,044	0,164	-0,069
-676,422	144,105	-0,030	0,030
-675,408	24,218	0,142	-0,087
-674,393	800,000	-0,017	0,043
-673,378	65,481	-0,073	-0,055
-672,364	-200,000	0,008	-0,080
-671,349	-200,000	0,013	-0,103
-670,335	-200,000	-0,021	-0,243
-669,320	-200,000	-0,044	0,170
-668,305	121,709	0,087	-0,080
-667,291	-128,920	0,096	0,010
-666,276	169,610	-0,088	-0,094
-665,262	566,616	0,038	-0,068
-664,247	-200,000	0,029	-0,138
-663,232	-125,983	-0,033	0,004
-662,218	411,371	0,039	-0,061
-661,203	800,000	-0,057	0,117
-660,189	14,518	-0,097	-0,056
-659,174	-16,286	-0,167	-0,079
-658,159	52,518	-0,097	-0,069
-657,145	800,000	-0,053	-0,125
-656,130	237,664	0,086	0,106
-655,116	-143,469	0,197	-0,014
-654,101	-126,799	0,095	0,010
-653,086	-200,000	0,011	0,092
-652,072	-76,294	-0,059	-0,015
-651,057	-77,232	-0,145	-0,037
-650,043	-200,000	-0,012	-0,073
-649,028	800,000	0,050	0,109
-648,014	-49,044	0,087	0,031
-646,999	-44,963	-0,013	0,005
-645,984	575,279	-0,024	-0,043
-644,970	-200,000	-0,015	0,081
-643,955	-173,383	-0,072	-0,002
-642,941	800,000	-0,006	-0,013
-641,926	151,574	0,071	0,072
-640,911	800,000	0,027	0,060
-639,897	-84,722	0,127	-0,029
-638,882	18,810	-0,081	0,048
-637,868	-40,360	-0,084	-0,032
-636,853	800,000	-0,008	-0,019
-635,838	-200,000	0,023	-0,097
-634,824	800,000	-0,028	-0,077
-633,809	-200,000	-0,005	0,212
-632,795	800,000	-0,021	-0,066
-631,780	800,000	-0,015	0,040
-630,765	-200,000	-0,034	-0,129
-629,751	-127,895	0,005	-0,001
-628,736	-15,187	-0,105	0,050
-627,722	169,931	-0,084	0,089
-626,707	160,786	0,074	0,077
-625,692	-34,380	0,042	-0,017
-624,678	-200,000	-0,005	0,034
-623,663	-7,822	-0,122	-0,061
-622,649	-54,158	0,133	-0,045
-621,634	387,417	-0,088	-0,135
-620,619	-200,000	-0,019	-0,201
-619,605	800,000	0,033	-0,078
-618,590	800,000	0,046	-0,123
-617,576	791,375	0,034	0,070
-616,561	253,442	0,076	0,097
-615,546	-101,209	-0,233	0,042
-614,532	-137,071	-0,172	-0,014
-613,517	-161,697	-0,033	0,001
-612,503	168,558	-0,124	-0,131
-611,488	-200,000	-0,017	0,103
-610,474	576,055	-0,012	-0,022
-609,459	93,907	0,049	-0,041
-608,444	-200,000	0,047	-0,155
-607,430	-170,192	0,053	-0,001
-606,415	251,496	-0,054	-0,068
-605,401	-38,352	0,026	-0,010
-604,386	-106,590	0,098	0,016
-603,371	-12,012	-0,104	-0,050
-602,357	482,534	-0,009	0,015
-601,342	471,981	-0,039	-0,065
-600,328	-200,000	-0,004	-0,061
-599,313	-148,244	0,110	0,007
-598,298	800,000	0,044	0,092
-597,284	130,669	-0,102	-0,097
-596,269	6,107	0,106	-0,058
-595,255	586,849	-0,040	-0,073
-594,240	800,000	-0,009	0,018
-593,225	-38,982	-0,073	-0,028
-592,211	103,393	0,015	-0,013
-591,196	47,485	0,049	-0,034
-590,182	18,716	0,083	0,049
-589,167	800,000	0,069	0,155
-588,152	-161,922	0,075	-0,003
-587,138	-200,000	0,006	0,043
-586,123	800,000	0,013	-0,041
-585,109	-40,490	-0,156	0,060
-584,094	-134,613	-0,031	0,003
-583,079	154,306	-0,081	0,082
-582,065	-92,338	0,056	0,012
-581,050	46,784	-0,082	-0,056
-580,036	165,084	0,144	-0,150
-579,021	-64,572	-0,034	0,010
-578,006	800,000	-0,053	-0,110
-576,992	-111,898	0,109	0,016
-575,977	72,127	-0,031	-0,024
-574,963	0,452	0,143	0,075
-573,948	800,000	-0,067	0,156
-572,934	-200,000	-0,038	0,127
-571,919	-200,000	0,000	0,057
-570,904	-200,000	-0,029	-0,128
-569,890	-200,000	-0,006	0,041
-568,875	-130,172	0,057	0,006
-567,861	-200,000	-0,010	0,132
-566,846	270,940	-0,086	0,112
-565,831	-124,635	-0,037	0,004
-564,817	225,955	0,051	-0,061
-563,802	571,463	0,017	-0,030
-562,788	-200,000	-0,006	-0,039
-561,773	-200,000	0,028	-0,099
-560,758	67,146	0,256	-0,193
-559,744	-165,752	-0,057	-0,002
-558,729	593,414	-0,064	-0,117
-557,715	65,241	0,113	-0,085
-556,700	35,569	-0,057	-0,037
-555,685	62,987	-0,125	0,093
-554,671	207,494	-0,045	-0,052
-553,656	408,600	-0,021	0,033
-552,642	4,284	-0,025	-0,014
-551,627	-93,767	-0,037	0,007
-550,612	-102,439	0,120	0,021
-549,598	-20,969	-0,130	0,058
-548,583	52,355	-0,211	-0,149
-547,569	-141,410	-0,134	-0,010
-546,554	800,000	-0,027	-0,088
-545,539	800,000	0,039	-0,093
-544,525	262,258	0,081	-0,104
-543,510	-200,000	0,002	-0,105
-542,496	800,000	-0,011	-0,027
-541,481	-56,951	-0,131	-0,042
-540,466	169,824	-0,021	-0,022
-539,452	158,734	0,090	-0,092
-538,437	-25,429	0,096	0,042
-537,423	-114,517	0,071	-0,010
-536,408	83,718	-0,123	-0,099
-535,393	800,000	-0,021	0,061
-534,379	-31,443	-0,034	0,014
-533,364	149,273	-0,078	-0,078
-532,350	-35,462	0,071	0,028
-531,335	192,735	-0,021	0,024
-530,321	58,246	0,083	0,060
-529,306	-129,822	0,032	0,003
-528,291	800,000	0,023	0,072
-527,277	800,000	0,015	0,043
-526,262	244,880	-0,040	-0,050
-525,248	-200,000	-0,014	-0,078
-524,233	-28,119	0,185	0,079
-523,218	-200,000	0,026	0,146
-522,204	-155,191	0,065	-0,003
-521,189	400,244	-0,058	-0,090
-520,175	-200,000	0,010	-0,101
-519,160	27,421	0,094	-0,058
-518,145	-24,908	0,058	-0,025
-517,131	-93,071	0,053	0,011
-516,116	-130,225	0,063	-0,006
-515,102	-200,000	-0,019	0,123
-514,087	-200,000	0,014	-0,050
-513,072	800,000	-0,045	0,105
-512,058	800,000	-0,032	-0,088
-511,043	97,824	0,068	-0,058
-510,029	480,978	0,048	-0,081
-509,014	-23,106	-0,037	-0,016
-507,999	-200,000	0,003	0,101
-506,985	-105,039	-0,210	0,035
-505,970	-71,485	0,125	0,034
-504,956	323,919	0,064	0,090
-503,941	606,861	-0,057	-0,106
-502,926	-153,426	-0,084	-0,004
-501,912	-200,000	0,007	0,062
-500,897	-9,625	-0,230	0,113
-499,883	-65,249	0,071	0,021
-498,868	-31,259	-0,110	-0,046
-497,853	-79,969	0,015	0,004
-496,839	-81,026	-0,033	0,008
-495,824	173,497	0,128	0,136
-494,810	-200,000	0,003	-0,028
-493,795	-10,803	0,104	0,050
-492,781	7,617	-0,188	0,104
-491,766	-80,112	0,087	-0,021
-490,751	7,843	-0,102	0,056
-489,737	-200,000	0,005	-0,032
-488,722	-0,391	-0,047	0,025
-487,708	247,635	0,112	0,140
-486,693	299,356	0,026	-0,035
-485,678	439,062	0,026	-0,042
-484,664	-200,000	0,008	-0,064
-483,649	53,199	-0,070	-0,050
-482,635	-200,000	0,000	-0,079
-481,620	800,000	0,016	-0,050
-480,605	-37,749	-0,033	0,013
-479,591	800,000	-0,038	0,120
-478,576	-3,883	0,072	-0,037
-477,562	-116,471	0,115	-0,016
-476,547	42,491	-0,106	-0,071
-475,532	-152,382	-0,210	-0,011
-474,518	-166,332	0,080	0,002
-473,503	-200,000	0,002	-0,039
-472,489	-105,988	-0,115	0,019
-471,474	-200,000	-0,009	0,035
-470,459	235,757	-0,041	-0,050
-469,445	363,249	-0,038	0,056
-468,430	800,000	0,023	-0,073
-467,416	-83,443	0,088	0,021
-466,401	7,667	0,042	0,023
-465,386	-200,000	0,033	0,150
-464,372	-200,000	-0,004	-0,058
-463,357	291,299	0,037	-0,050
-462,343	326,543	0,032	-0,045
-461,328	-200,000	-0,020	0,104
-460,313	800,000	0,022	0,063
-459,299	800,000	-0,009	0,029
-458,284	257,944	0,039	0,049
-457,270	108,921	0,023	-0,020
-456,255	-200,000	0,005	0,106
-455,241	-177,041	-0,086	0,002
-454,226	-45,333	-0,068	0,025
-453,211	408,463	-0,023	-0,035
-452,197	54,541	0,065	0,046
-451,182	99,716	0,100	0,085
-450,168	-200,000	0,015	-0,109
-449,153	-162,933	-0,057	-0,002
-448,138	227,023	-0,097	-0,116
-447,124	-200,000	0,008	-0,051
-446,109	704,847	0,033	-0,064
-445,095	69,326	0,035	-0,027
-444,080	-76,281	0,032	-0,008
-443,065	125,805	-0,038	0,035
-442,051	800,000	-0,032	-0,095
-441,036	3,328	-0,084	-0,045
-440,022	-200,000	0,016	-0,056
-439,007	800,000	-0,048	-0,105
-437,992	198,461	0,073	0,082
-436,978	351,642	0,043	0,063
-435,963	-200,000	-0,006	0,102
-434,949	36,966	0,034	-0,022
-433,934	800,000	0,010	-0,021
-432,919	180,938	-0,032	0,035
-431,905	428,546	0,055	-0,088
-430,890	-163,116	0,154	-0,005
-429,876	391,377	-0,039	-0,059
-428,861	15,471	-0,024	-0,014
-427,846	197,516	-0,029	-0,033
-426,832	-200,000	0,009	0,047
-425,817	-63,094	0,244	-0,074
-424,803	800,000	-0,048	-0,104
-423,788	-138,981	-0,151	-0,012
-422,773	-144,656	0,076	0,005
-421,759	-157,991	0,154	0,007
-420,744	71,727	0,024	0,019
-419,730	33,526	-0,080	0,051
-418,715	-196,367	-0,140	0,001
-417,701	-92,440	-0,107	-0,022
-416,686	800,000	-0,012	0,035
-415,671	-200,000	-0,006	0,041
-414,657	-94,425	0,098	0,020
-413,642	-200,000	-0,064	-0,000
-412,628	642,643	0,029	0,055
-411,613	-153,206	-0,073	-0,004
-410,598	115,832	-0,068	-0,061
-409,584	800,000	0,024	0,053
-408,569	417,826	-0,026	-0,041
-407,555	-200,000	0,007	-0,069
-406,540	-69,000	0,109	-0,031
-405,525	186,916	-0,044	0,049
-404,511	-102,336	0,066	0,011
-403,496	143,651	0,049	-0,048
-402,482	-200,000	-0,038	-0,133
-401,467	-166,761	0,034	-0,001
-400,452	335,409	-0,098	0,140
-399,438	-200,000	-0,004	-0,040
-398,423	-123,642	-0,108	-0,012
-397,409	294,133	-0,035	-0,047
-396,394	-43,825	0,071	0,026
-395,379	642,781	0,017	-0,032
-394,365	-46,697	0,034	-0,012
-393,350	800,000	0,074	0,152
-392,336	216,458	-0,118	-0,138
-391,321	89,334	-0,110	0,090
-390,306	301,099	0,016	-0,022
-389,292	800,000	-0,028	-0,086
-388,277	311,712	0,060	0,083
-387,263	79,466	0,095	0,074
-386,248	306,105	-0,081	-0,111
-385,233	87,692	0,108	0,088
-384,219	740,091	-0,017	0,033
-383,204	-76,442	0,055	-0,014
-382,190	352,512	0,045	0,066
-381,175	-200,000	0,007	-0,181
-380,160	-91,817	0,105	-0,022
-379,146	75,411	-0,037	-0,029
-378,131	172,877	0,078	0,083
-377,117	800,000	0,032	0,086
-376,102	281,384	-0,107	-0,140
-375,088	248,151	0,050	-0,063
-374,073	-151,851	0,069	-0,004
-373,058	-34,139	0,167	0,067
-372,044	-8,664	-0,093	-0,046
-371,029	182,242	0,043	-0,046
-370,015	-200,000	0,036	0,138
-369,000	-35,568	-0,104	0,041
-367,985	207,136	-0,057	-0,066
-366,971	100,271	0,063	0,054
-365,956	659,988	0,082	-0,155
-364,942	725,522	-0,025	-0,050
-363,927	800,000	0,043	-0,099
-362,912	-138,450	0,113	0,009
-361,898	-84,567	-0,113	0,026
-360,883	-24,942	0,110	-0,048
-359,869	-200,000	-0,007	-0,073
-358,854	10,941	-0,012	0,006
-357,839	134,071	-0,087	0,083
-356,825	-34,455	0,069	-0,027
-355,810	-98,703	0,116	0,022
-354,796	275,538	0,037	-0,049
-353,781	-200,000	0,018	-0,076
-352,766	93,849	-0,048	-0,040
-351,752	203,574	0,008	0,009
-350,737	-111,525	-0,128	0,019
-349,723	148,674	-0,073	0,072
-348,708	151,184	0,107	0,107
-347,693	121,251	0,045	-0,041
-346,679	318,582	-0,044	0,062
-345,664	126,105	-0,081	-0,075
-344,650	800,000	-0,005	0,017
-343,635	800,000	-0,024	-0,058
-342,620	574,455	-0,020	0,036
-341,606	142,944	-0,044	-0,043
-340,591	211,388	-0,100	-0,116
-339,577	800,000	-0,021	-0,065
-338,562	-200,000	-0,014	0,060
-337,548	92,651	0,113	-0,094
-336,533	665,343	0,080	0,152
-335,518	-0,296	-0,063	0,033
-334,504	-152,745	0,083	-0,004
-333,489	800,000	-0,038	0,098
-332,475	728,567	-0,065	-0,128
-331,460	103,637	-0,042	-0,036
-330,445	-76,804	-0,131	-0,033
-329,431	800,000	0,029	0,090
-328,416	9,713	0,105	-0,058
-327,402	800,000	0,020	0,043
-326,387	268,174	-0,047	0,061
-325,372	61,648	-0,129	0,094
-324,358	79,353	0,127	-0,100
-323,343	40,805	-0,077	0,051
-322,329	168,968	-0,067	0,070
-321,314	-200,000	0,010	0,063
-320,299	-146,473	-0,111	-0,007
-319,285	56,287	0,038	-0,027
-318,270	-200,000	0,012	-0,073
-317,256	194,257	-0,055	-0,061
-316,241	-15,638	-0,033	-0,015
-315,226	-6,947	0,054	0,027
-314,212	43,801	0,034	0,023
-313,197	128,905	-0,027	0,025
-312,183	-61,428	-0,084	0,026
-311,168	561,445	-0,059	0,106
-310,153	515,474	-0,065	0,111
-309,139	-34,959	0,084	0,034
-308,124	800,000	-0,040	0,116
-307,110	588,976	0,038	-0,069
-306,095	-200,000	-0,014	0,072
-305,080	-6,969	-0,090	0,044
-304,066	-200,000	0,016	-0,066
-303,051	800,000	0,043	0,103
-302,037	-25,566	-0,059	-0,025
-301,022	245,100	-0,087	0,107
-300,008	-30,231	0,055	0,023
-298,993	282,442	0,113	0,149
-297,978	-158,519	0,074	-0,003
-296,964	-200,000	0,006	-0,051
-295,949	-85,463	-0,135	-0,031
-294,935	378,163	0,065	-0,097
-293,920	406,846	0,032	-0,049
-292,905	800,000	-0,027	-0,073
-291,891	-36,399	0,089	0,035
-290,876	800,000	-0,024	0,050
-289,862	-172,316	0,102	0,002
-288,847	-54,720	-0,092	-0,030
-287,832	273,238	0,038	-0,049
-286,818	800,000	-0,033	-0,077
-285,803	52,455	0,130	0,091
-284,789	41,917	0,103	0,068
-283,774	50,089	0,030	0,020
-282,759	-200,000	-0,001	0,073
-281,745	800,000	-0,040	0,126
-280,730	17,107	-0,137	0,079
-279,716	271,064	-0,091	0,118
-278,701	-68,872	-0,045	0,013
-277,686	-123,942	-0,087	0,010
-276,672	57,350	0,050	-0,036
-275,657	-51,174	-0,011	0,004
-274,643	261,086	-0,118	-0,149
-273,628	378,394	-0,104	-0,156
-272,613	11,673	0,051	0,028
-271,599	800,000	0,037	0,085
-270,584	-81,783	-0,142	-0,034
-269,570	-15,861	0,106	-0,049
-268,555	-122,931	0,022	-0,003
-267,540	-117,072	0,094	-0,012
-266,526	-200,000	-0,010	0,061
-265,511	33,967	0,088	0,056
-264,497	25,501	0,098	0,060
-263,482	-128,978	0,047	-0,005
-262,467	800,000	-0,030	0,090
-261,453	166,533	0,072	-0,075
-260,438	152,248	-0,067	-0,067
-259,424	-200,000	-0,023	-0,088
-258,409	-154,832	-0,045	-0,002
-257,395	-84,402	0,149	0,034
-256,380	288,178	0,032	-0,043
-255,365	-32,441	-0,115	0,047
-254,351	-200,000	-0,025	0,132
-253,336	800,000	0,022	0,066
-252,322	-200,000	0,013	-0,082
-251,307	671,172	-0,063	-0,120
-250,292	113,181	-0,030	-0,027
-249,278	-200,000	0,020	0,075
-248,263	800,000	-0,011	0,023
-247,249	136,384	0,061	-0,058
-246,234	21,716	-0,079	0,047
-245,219	477,976	0,039	-0,064
-244,205	-200,000	0,007	-0,106
-243,190	800,000	0,027	-0,075
-242,176	134,367	0,045	-0,043
-241,161	15,706	0,076	-0,044
-240,146	305,360	-0,081	-0,110
-239,132	-200,000	0,000	-0,081
-238,117	-29,652	0,115	0,048
-237,103	3,352	-0,125	-0,066
-236,088	-60,649	0,110	-0,034
-235,073	800,000	-0,018	-0,041
-234,059	-136,721	0,081	-0,007
-233,044	-89,386	0,048	0,010
-232,030	217,976	-0,053	-0,062
-231,015	33,370	0,058	0,037
-230,000	-200,000	-0,001	-0,120
-228,986	24,398	-0,047	0,028
-227,971	-200,000	0,009	0,033
-226,957	18,317	0,090	0,052
-225,942	76,476	0,070	0,054
-224,927	-200,000	-0,034	-0,116
-223,913	-194,998	0,145	0,001
-222,898	800,000	-0,089	-0,218
-221,884	-64,109	-0,107	0,032
-220,869	69,771	0,100	0,076
-219,855	-51,970	0,100	0,034
-218,840	800,000	0,083	0,188
-217,825	-200,000	0,003	0,034
-216,811	284,967	0,055	-0,072
-215,796	-30,095	-0,027	0,011
-214,782	-200,000	0,013	0,099
-213,767	-44,238	-0,075	0,027
-212,752	751,227	0,044	0,087
-211,738	-106,336	0,055	-0,009
-210,723	-200,000	0,012	0,076
-209,709	569,376	-0,070	-0,126
-208,694	-91,064	-0,146	-0,030
-207,679	-44,603	-0,114	0,041
-206,665	36,872	0,139	-0,089
-205,650	11,573	0,125	0,070
-204,636	-14,570	-0,135	0,063
-203,621	-200,000	-0,012	-0,067
-202,606	-145,232	0,072	0,005
-201,592	0,107	-0,099	-0,051
-200,577	-29,626	-0,120	-0,050
-199,563	-10,270	0,025	-0,012
-198,548	497,503	0,032	0,054
-197,533	242,376	0,157	0,192
-196,519	-97,041	0,071	-0,013
-195,504	305,857	-0,049	0,066
-194,490	800,000	-0,016	-0,038
-193,475	-200,000	-0,024	0,104
-192,460	-200,000	0,045	0,146
-191,446	181,405	0,070	-0,076
-190,431	-200,000	-0,003	0,150
-189,417	-200,000	-0,022	0,097
-188,402	-200,000	0,036	0,147
-187,387	-133,692	-0,061	-0,005
-186,373	384,134	0,050	0,075
-185,358	-86,626	0,112	0,025
-184,344	800,000	0,065	0,156
-183,329	192,653	-0,066	-0,072
-182,315	-146,012	0,138	-0,009
-181,300	800,000	-0,080	0,203
-180,285	20,779	-0,070	0,041
-179,271	-63,418	-0,047	0,014
-178,256	41,501	-0,108	-0,071
-177,242	800,000	-0,034	0,069
-176,227	-121,146	-0,084	-0,010
-175,212	48,066	0,103	-0,070
-174,198	-200,000	-0,016	0,070
-173,183	-158,338	0,093	-0,004
-172,169	-200,000	-0,003	-0,014
-171,154	-22,437	-0,060	0,026
-170,139	644,268	0,042	0,079
-169,125	-200,000	0,016	0,113
-168,110	-200,000	-0,009	-0,062
-167,096	478,479	0,105	-0,174
-166,081	-66,467	-0,194	-0,056
-165,066	-143,407	-0,055	-0,004
-164,052	7,830	-0,020	-0,011
-163,037	-200,000	-0,017	-0,069
-162,023	308,589	0,022	-0,030
-161,008	556,479	0,037	0,065
-159,993	55,437	0,093	0,065
-158,979	645,796	-0,063	-0,118
-157,964	178,939	-0,031	-0,033
-156,950	161,840	-0,077	0,079
-155,935	-54,724	-0,037	-0,012
-154,920	-4,865	-0,026	0,013
-153,906	498,020	0,115	0,194
-152,891	765,849	0,045	0,089
-151,877	146,981	-0,043	0,042
-150,862	43,342	0,068	-0,045
-149,847	-111,212	0,099	0,015
-148,833	654,002	0,057	0,106
-147,818	-81,200	0,126	0,030
-146,804	80,149	0,150	0,117
-145,789	349,455	-0,014	0,021
-144,775	-68,146	-0,060	-0,017
-143,760	724,876	0,011	0,022
-142,745	-157,630	0,105	-0,005
-141,731	246,185	0,068	-0,083
-140,716	207,163	-0,121	0,137
-139,702	-98,471	-0,140	0,026
-138,687	65,735	0,082	-0,061
-137,672	800,000	-0,020	-0,057
-136,658	541,510	-0,065	0,113
-135,643	-56,881	0,105	-0,034
-134,629	156,833	-0,038	-0,038
-133,614	800,000	-0,035	0,100
-132,599	800,000	0,053	0,144
-131,585	-200,000	-0,006	-0,025
-130,570	-200,000	-0,021	-0,140
-129,556	77,072	-0,136	0,105
-128,541	5,052	0,072	0,038
-127,526	-200,000	-0,015	0,079
-126,512	-79,846	0,093	-0,023
-125,497	-200,000	0,002	-0,030
-124,483	-200,000	0,024	0,137
-123,468	-132,636	0,052	-0,005
-122,453	343,193	-0,011	0,015
-121,439	-200,000	-0,009	-0,109
-120,424	365,595	0,092	-0,134
-119,410	592,970	-0,027	-0,049
-118,395	287,834	-0,047	0,062
-117,380	192,798	0,036	0,039
-116,366	-200,000	0,010	0,103
-115,351	-200,000	-0,021	0,097
-114,337	105,324	-0,024	0,020
-113,322	-58,182	-0,052	0,016
-112,307	-33,738	-0,010	0,004
-111,293	-90,349	-0,064	-0,013
-110,278	227,773	0,052	0,062
-109,264	243,842	-0,018	0,022
-108,249	-27,184	-0,055	0,023
-107,234	369,732	-0,043	0,063
-106,220	-29,922	-0,040	0,016
-105,205	49,084	0,051	-0,035
-104,191	800,000	0,049	0,100
-103,176	81,091	0,058	0,045
-102,162	761,545	-0,007	-0,015
-101,147	800,000	-0,037	0,100
-100,132	-200,000	0,028	-0,148
-99,118	718,865	0,044	-0,085
-98,103	368,553	0,031	0,045
-97,089	53,803	0,038	0,027
-96,074	-200,000	0,000	0,042
-95,059	800,000	0,054	-0,148
-94,045	274,949	0,046	0,059
-93,030	-32,485	-0,034	0,014
-92,016	-149,347	0,183	-0,010
-91,001	35,660	-0,131	0,084
-89,986	-103,810	-0,065	-0,011
-88,972	-47,692	0,073	0,025
-87,957	800,000	-0,067	0,145
-86,943	286,291	0,024	0,031
-85,928	116,220	0,079	-0,070
-84,913	221,139	0,019	-0,022
-83,899	283,069	-0,071	0,093
-82,884	-36,679	0,080	-0,031
-81,870	750,835	0,107	-0,210
-80,855	373,051	0,031	0,046
-79,840	174,766	-0,063	-0,066
-78,826	616,823	0,040	-0,074
-77,811	-200,000	0,012	-0,158
-76,797	161,832	0,088	0,089
-75,782	84,858	-0,033	-0,026
-74,767	800,000	-0,015	-0,034
-73,753	56,249	-0,044	-0,031
-72,738	-200,000	0,006	0,022
-71,724	-200,000	0,008	0,051
-70,709	5,599	-0,011	-0,006
-69,694	227,529	0,070	-0,083
-68,680	-200,000	0,001	-0,075
-67,665	-200,000	-0,001	-0,006
-66,651	-200,000	-0,020	0,084
-65,636	-109,320	-0,071	-0,011
-64,622	795,812	-0,092	0,184
-63,607	138,571	-0,037	0,036
-62,592	65,256	0,093	0,068
-61,578	-100,162	-0,048	0,009
-60,563	-200,000	0,001	0,051
-59,549	-139,077	0,135	-0,010
-58,534	-153,345	-1,418	-0,070
-57,519	681,689	-0,780	-1,481
-56,505	-200,000	-0,911	-4,351
-55,490	56,300	0,577	-0,406
-54,476	800,000	4,887	11,956
-53,461	-200,000	13,359	252,455
-52,446	-200,000	688,672	2268,235
-51,432	596,479	1622,783	2927,328
-50,417	120,907	1636,443	1476,480
-49,403	73,582	1290,402	979,360
-48,388	38,512	1025,071	661,602
-47,373	24,541	982,596	588,240
-46,359	23,757	972,255	579,455
-45,344	22,814	968,199	573,933
-44,330	22,746	966,714	572,808
-43,315	22,709	965,276	571,812
-42,300	22,654	964,270	571,015
-41,286	22,646	963,292	570,387
-40,271	22,599	962,417	569,692
-39,257	22,636	961,468	569,230
-38,242	22,638	960,471	568,621
-37,227	22,637	959,558	568,056
-36,213	22,587	958,736	567,387
-35,198	22,597	957,890	566,894
-34,184	22,654	957,291	566,702
-33,169	22,570	956,426	565,896
-32,154	22,646	955,390	565,504
-31,140	22,725	954,693	565,326
-30,125	22,661	953,825	564,582
-29,111	22,634	953,069	564,024
-28,096	22,690	952,307	563,733
-27,082	22,699	951,507	563,266
-26,067	22,682	950,656	562,685
-25,052	22,588	950,240	562,113
-24,038	22,668	949,332	561,812
-23,023	22,634	948,861	561,401
-22,009	22,722	948,312	561,336
-20,994	22,755	947,455	560,911
-19,979	22,700	947,052	560,475
-18,965	22,626	946,355	559,806
-17,950	22,655	945,472	559,353
-16,936	22,655	944,774	558,917
-15,921	22,640	944,173	558,492
-14,906	22,571	943,614	557,919
-13,892	22,562	943,009	557,510
-12,877	22,557	942,298	557,054
-11,863	22,516	941,690	556,539
-10,848	22,524	941,222	556,267
-9,833	22,659	940,574	556,291
-8,819	22,606	940,268	555,918
-7,804	22,577	939,346	555,259
-6,790	22,584	938,672	554,863
-5,775	22,565	938,242	554,525
-4,760	22,586	937,547	554,160
-3,746	22,529	937,045	553,661
-2,731	22,480	936,256	553,016
-1,717	22,341	935,686	552,219
-0,702	22,402	934,800	551,866
0,313	22,147	934,236	551,564
1,327	25,247	932,201	560,064
2,342	34,710	796,868	503,974
3,356	32,807	451,821	282,858
4,371	1,786	293,700	152,938
5,386	-2,610	274,425	138,735
6,400	-4,085	268,664	134,444
7,415	-4,575	266,362	132,829
8,429	-3,895	265,080	132,800
9,444	-4,032	264,272	132,259
10,459	-4,071	263,662	131,906
11,473	-4,168	262,916	131,433
12,488	-4,209	262,630	131,241
13,502	-4,424	262,046	130,743
14,517	-4,437	261,585	130,490
15,531	-4,363	261,272	130,389
16,546	-4,178	260,861	130,339
17,561	-4,200	260,569	130,162
18,575	-4,241	260,334	129,995
19,590	-4,228	259,756	129,707
20,604	-4,124	259,462	129,641
21,619	-4,312	259,336	129,399
22,634	-4,278	258,848	129,174
23,648	-4,384	258,643	128,966
24,663	-4,350	258,411	128,869
25,677	-4,300	258,188	128,791
26,692	-4,541	258,029	128,486
27,707	-4,386	257,621	128,409
28,721	-4,241	257,252	128,342
29,736	-4,414	257,073	128,088
30,750	-4,533	256,829	127,850
31,765	-4,363	256,553	127,851
32,780	-4,273	256,334	127,810
33,794	-4,368	256,070	127,584
34,809	-4,327	255,785	127,466
35,823	-4,389	255,572	127,294
36,838	-4,337	255,435	127,261
37,853	-4,506	255,112	126,940
38,867	-4,552	255,109	126,887
39,882	-4,401	254,685	126,797
40,896	-4,468	254,535	126,652
41,911	-4,361	254,261	126,597
42,926	-4,464	254,145	126,438
43,940	-4,488	253,870	126,270
44,955	-4,409	253,433	126,110
45,969	-4,518	253,408	125,991
46,984	-4,716	253,111	125,660
47,999	-4,831	253,039	125,513
49,013	-5,031	252,648	125,134
50,028	-5,292	252,366	124,757
51,042	-5,133	252,171	124,787
52,057	-5,419	251,986	124,436
53,071	-5,128	251,810	124,590
54,086	-5,077	251,652	124,545
55,101	-4,982	251,431	124,507
56,115	-4,837	251,281	124,547
57,130	-4,328	251,193	124,932
58,144	-4,166	250,904	124,916
59,159	-4,277	250,789	124,752
60,174	-4,394	250,648	124,570
61,188	-4,162	250,480	124,675
62,203	-4,214	250,161	124,461
63,217	-4,285	249,895	124,256
64,232	-4,343	249,842	124,169
65,247	-4,247	249,602	124,122
66,261	-4,314	249,233	123,869
67,276	-4,477	249,131	123,668
68,290	-4,668	248,828	123,343
69,305	-4,825	248,564	123,068
70,320	-4,803	248,424	123,006
71,334	-4,468	248,307	123,222
72,349	-4,125	248,018	123,360
73,363	-4,165	247,885	123,249
74,378	-4,246	247,700	123,077
75,393	-4,299	247,465	122,905
76,407	-4,445	247,266	122,671
77,422	-4,592	247,132	122,469
78,436	-4,316	247,028	122,640
79,451	-4,163	246,761	122,626
80,466	-4,310	246,414	122,319
81,480	-4,629	246,290	121,977
82,495	-4,412	245,891	121,951
83,509	-4,498	245,896	121,870
84,524	-4,815	245,797	121,543
85,539	-4,657	245,373	121,456
86,553	-4,755	245,335	121,344
87,568	-4,566	245,044	121,347
88,582	-4,611	244,907	121,231
89,597	-4,636	244,714	121,104
90,611	-4,393	244,712	121,296
91,626	-4,417	244,573	121,196
92,641	-4,275	244,309	121,173
93,655	-4,557	244,077	120,812
94,670	-4,473	243,845	120,756
95,684	-4,356	243,508	120,676
96,699	-4,488	243,474	120,538
97,714	-4,463	243,339	120,482
98,728	-4,485	242,996	120,282
99,743	-4,546	242,813	120,131
100,757	-4,653	242,648	119,949
101,772	-4,621	242,448	119,867
102,787	-4,636	242,380	119,810
103,801	-4,578	242,167	119,742
104,816	-4,366	241,961	119,805
105,830	-4,431	241,984	119,752
106,845	-4,329	241,770	119,719
107,860	-4,404	241,659	119,592
108,874	-4,396	241,316	119,418
109,889	-4,406	241,009	119,247
110,903	-4,313	240,844	119,232
111,918	-4,458	240,671	119,015
112,933	-4,401	240,454	118,945
113,947	-4,426	240,644	119,007
114,962	-4,332	240,230	118,869
115,976	-4,342	240,195	118,834
116,991	-4,327	239,866	118,673
118,006	-4,515	239,915	118,532
119,020	-4,297	239,539	118,514
120,035	-4,357	239,581	118,475
121,049	-4,170	239,296	118,476
122,064	-4,524	239,132	118,096
123,079	-4,439	238,957	118,068
124,093	-4,408	238,693	117,952
125,108	-4,557	238,413	117,681
126,122	-4,849	238,309	117,382
127,137	-4,902	238,094	117,223
128,151	-4,780	237,888	117,210
129,166	-4,962	237,965	117,090
130,181	-4,687	237,538	117,092
131,195	-4,677	237,335	116,990
132,210	-4,374	237,165	117,141
133,224	-4,140	237,060	117,268
134,239	-4,341	237,030	117,080
135,254	-4,384	236,908	116,975
136,268	-4,332	236,497	116,803
137,283	-4,683	236,342	116,433
138,297	-4,876	236,149	116,172
139,312	-4,804	236,048	116,170
140,327	-4,338	235,839	116,431
141,341	-4,296	235,963	116,516
142,356	-4,102	235,732	116,548
143,370	-4,122	235,580	116,447
144,385	-4,047	235,316	116,366
145,400	-4,166	235,330	116,266
146,414	-3,884	234,878	116,258
147,429	-4,075	234,887	116,100
148,443	-4,013	234,779	116,086
149,458	-3,795	234,497	116,110
150,473	-3,958	234,218	115,832
151,487	-4,160	234,239	115,671
152,502	-4,165	234,083	115,579
153,516	-3,915	233,874	115,665
154,531	-4,206	233,726	115,349
155,546	-4,153	233,541	115,290
156,560	-4,548	233,418	114,905
157,575	-4,338	233,243	114,976
158,589	-4,101	232,880	114,974
159,604	-3,866	232,860	115,141
160,619	-3,940	232,742	115,013
161,633	-3,905	232,588	114,955
162,648	-4,012	232,442	114,787
163,662	-4,073	232,280	114,649
164,677	-4,136	232,013	114,458
165,692	-4,088	231,972	114,465
166,706	-3,901	231,674	114,455
167,721	-4,054	231,772	114,372
168,735	-4,091	231,586	114,241
169,750	-4,032	231,260	114,117
170,764	-3,996	231,161	114,086
171,779	-3,932	231,083	114,087
172,794	-4,021	230,924	113,929
173,808	-4,214	230,767	113,690
174,823	-4,346	230,217	113,305
175,837	-4,570	230,196	113,110
176,852	-4,320	230,119	113,258
177,867	-4,192	230,175	113,375
178,881	-4,004	229,988	113,420
179,896	-3,846	229,914	113,497
180,910	-3,969	229,682	113,276
181,925	-3,919	229,515	113,223
182,940	-4,059	229,444	113,069
183,954	-3,930	229,240	113,059
184,969	-4,056	229,154	112,907
185,983	-4,069	229,133	112,877
186,998	-3,892	228,768	112,825
188,013	-3,760	228,465	112,768
189,027	-3,663	228,438	112,819
190,042	-3,820	228,295	112,617
191,056	-3,869	227,962	112,405
192,071	-3,733	227,952	112,495
193,086	-3,867	227,830	112,321
194,100	-3,821	227,712	112,289
195,115	-4,210	227,307	111,778
196,129	-4,656	227,081	111,314
197,144	-2,324	227,902	113,509
198,159	1,298	228,995	116,852
199,173	3,985	229,531	119,199
200,188	4,314	229,441	119,396
201,202	4,454	229,283	119,411
202,217	4,361	229,211	119,291
203,232	4,502	229,101	119,332
204,246	4,553	228,989	119,302
205,261	4,582	228,863	119,249
206,275	4,658	228,836	119,282
207,290	4,966	228,527	119,348
208,304	4,770	228,401	119,121
209,319	4,948	228,128	119,105
210,334	4,663	227,998	118,807
211,348	4,692	227,752	118,691
212,363	4,100	227,589	118,142
213,377	4,018	227,335	117,936
214,392	3,895	227,220	117,771
215,407	3,948	226,993	117,684
216,421	4,137	226,965	117,803
217,436	3,975	226,686	117,524
218,450	3,788	226,578	117,315
219,465	3,593	226,437	117,083
220,480	3,953	226,241	117,245
221,494	3,803	226,115	117,056
222,509	3,924	225,919	117,036
223,523	3,997	225,824	117,032
224,538	3,861	225,633	116,819
225,553	3,858	225,619	116,799
226,567	3,736	225,596	116,684
227,582	4,326	225,221	116,927
228,596	4,219	225,350	116,902
229,611	4,033	224,948	116,542
230,626	3,687	224,932	116,262
231,640	3,835	224,676	116,231
232,655	4,100	224,596	116,379
233,669	4,468	224,502	116,598
234,684	4,723	224,425	116,741
235,699	4,429	224,122	116,351
236,713	4,156	223,973	116,058
237,728	3,955	223,874	115,845
238,742	3,656	223,672	115,505
239,757	4,101	223,402	115,689
240,772	3,844	223,328	115,448
241,786	4,015	223,115	115,456
242,801	4,158	223,192	115,592
243,815	4,406	223,021	115,679
244,830	4,317	222,814	115,495
245,844	3,886	222,680	115,093
246,859	3,861	222,560	115,002
247,874	4,321	222,339	115,221
248,888	4,571	222,230	115,341
249,903	4,106	222,104	114,918
250,917	3,799	222,088	114,671
251,932	3,841	221,819	114,553
252,947	3,794	221,630	114,410
253,961	4,002	221,222	114,344
254,976	3,888	221,337	114,308
255,990	4,088	221,302	114,428
257,005	4,310	221,146	114,503
258,020	4,213	221,003	114,346
259,034	4,389	221,023	114,477
260,049	4,252	220,699	114,198
261,063	4,141	220,660	114,085
262,078	4,253	220,451	114,050
263,093	4,242	220,373	113,991
264,107	4,266	220,014	113,812
265,122	4,216	220,018	113,767
266,136	4,653	219,865	114,001
267,151	4,199	219,740	113,591
268,166	4,118	219,591	113,444
269,180	3,540	219,389	112,905
270,195	3,751	219,094	112,898
271,209	3,954	218,949	112,962
272,224	3,959	218,964	112,964
273,239	4,275	218,716	113,057
274,253	3,758	218,601	112,609
275,268	3,777	218,459	112,540
276,282	3,879	218,261	112,502
277,297	3,713	218,175	112,326
278,312	3,621	218,253	112,289
279,326	3,942	218,011	112,389
280,341	4,033	217,757	112,315
281,355	4,021	217,642	112,237
282,370	3,982	217,376	112,061
283,384	3,676	217,320	111,799
284,399	3,598	217,252	111,698
285,414	3,658	216,951	111,576
286,428	4,012	216,983	111,840
287,443	3,988	216,978	111,810
288,457	4,114	216,760	111,780
289,472	4,074	216,481	111,597
290,487	3,788	216,128	111,198
291,501	3,484	216,073	110,940
292,516	3,685	215,971	111,022
293,530	3,733	215,978	111,051
294,545	3,579	215,843	110,861
295,560	3,819	215,645	110,922
296,574	4,014	215,559	111,009
297,589	4,138	215,300	110,955
298,603	4,108	215,297	110,922
299,618	4,138	215,126	110,846
300,633	3,991	215,035	110,683
301,647	4,128	214,955	110,730
302,662	4,078	214,890	110,651
303,676	4,215	214,642	110,612
304,691	4,305	214,576	110,632
305,706	4,233	214,485	110,524
306,720	4,338	214,158	110,421
307,735	3,939	214,063	110,076
308,749	3,688	213,967	109,837
309,764	4,105	213,829	110,055
310,779	4,460	213,725	110,245
311,793	4,208	213,700	110,043
312,808	4,130	213,386	109,816
313,822	3,938	213,240	109,593
314,837	3,971	213,081	109,526
315,852	3,683	212,999	109,268
316,866	4,094	212,734	109,415
317,881	4,184	212,791	109,499
318,895	4,148	212,559	109,343
319,910	4,154	212,394	109,254
320,925	3,583	212,286	108,783
321,939	3,749	211,934	108,711
322,954	3,420	211,954	108,479
323,968	3,727	211,950	108,684
324,983	3,995	211,887	108,832
325,997	4,074	211,726	108,795
327,012	4,175	211,611	108,798
328,027	4,123	211,297	108,590
329,041	4,418	211,342	108,811
330,056	4,620	211,208	108,875
331,070	3,989	210,989	108,309
332,085	3,777	210,671	107,987
333,100	3,899	210,493	107,971
334,114	4,008	210,449	108,016
335,129	4,100	210,325	108,007
336,143	4,030	210,196	107,882
337,158	3,962	210,177	107,815
338,173	4,044	210,034	107,789
339,187	3,945	209,746	107,563
340,202	3,645	209,644	107,291
341,216	3,554	209,498	107,143
342,231	3,699	209,504	107,238
343,246	3,747	209,411	107,215
344,260	3,708	209,232	107,086
345,275	3,888	209,098	107,134
346,289	4,153	208,957	107,236
347,304	4,132	208,753	107,108
348,319	4,105	208,655	107,029
349,333	3,909	208,503	106,805
350,348	4,100	208,444	106,898
351,362	4,118	208,258	106,805
352,377	4,149	208,247	106,812
353,392	3,797	208,176	106,522
354,406	4,004	207,881	106,505
355,421	194,113	1345,291	1434,110
356,435	154,869	1483,984	1434,225
