DTS Sentinel unit serial number:	SN410029Multiplexer serial number:	ORYXHardware model number:	OX2-SRSoftware version number:	ORYX F/W v4,00 Oryx Data Collector v3.7.2.0data status	okinstallation	B6 Nyhavnadifferential loss correction	single-endedforward channel	channel 2reverse channel	N/Adate	2023/12/08time	10:45:08forward acquisition time	300,00reverse acquisition time	0,00gamma	499,1914k internal	0,3163k external	0,3163temperature offset calibration	1,0000default loss term (dB/km)	0,3820temperature slope calibration	1,0000multiplexer offset coefficient	1,0000multiplexer slope coefficient	1,0000fibre end	0,00T internal ref (°C)	14,62T ext. ref 1 (°C)	-1,31T ext. ref 2 (°C)	-1,26length (m)	temperature (°C)	Stokes	anti-Stokes-744,400	347,386	0,081	-0,117
-743,385	-137,046	-0,381	0,032
-742,371	-12,291	0,171	0,082
-741,356	-128,730	-0,194	0,020
-740,342	-153,270	0,123	0,006
-739,327	-121,627	-0,299	-0,036
-738,312	-145,325	0,101	0,007
-737,298	-108,393	-0,370	-0,058
-736,283	-71,140	0,140	0,038
-735,269	-4,961	-0,224	0,113
-734,254	-108,011	0,110	0,017
-733,239	-62,299	-0,632	-0,192
-732,225	-120,343	0,218	0,027
-731,210	-200,000	0,035	0,140
-730,196	405,234	-0,050	-0,078
-729,181	181,618	-0,020	0,021
-728,167	-200,000	-0,019	-0,067
-727,152	800,000	-0,032	-0,088
-726,137	-200,000	0,017	-0,108
-725,123	-120,478	-0,098	-0,012
-724,108	23,167	-0,130	-0,078
-723,094	800,000	-0,033	-0,073
-722,079	234,877	-0,052	-0,063
-721,064	-183,668	0,028	-0,000
-720,050	-33,568	-0,078	-0,031
-719,035	600,155	-0,019	-0,035
-718,021	1,528	-0,047	-0,025
-717,006	-123,984	-0,027	-0,003
-715,991	800,000	-0,060	-0,177
-714,977	-200,000	0,011	-0,106
-713,962	561,162	-0,013	-0,023
-712,948	144,995	-0,009	-0,008
-711,933	-43,501	-0,070	0,026
-710,918	-79,317	-0,054	-0,013
-709,904	637,329	-0,032	-0,061
-708,889	108,694	-0,054	0,047
-707,875	59,591	-0,119	-0,086
-706,860	435,341	0,058	-0,093
-705,845	-113,536	0,163	-0,023
-704,831	545,387	-0,070	0,123
-703,816	192,704	-0,031	-0,035
-702,802	800,000	-0,014	0,035
-701,787	333,316	-0,010	-0,014
-700,772	-45,329	0,024	-0,009
-699,758	200,680	-0,011	0,012
-698,743	-125,529	0,118	0,013
-697,729	174,476	-0,007	-0,008
-696,714	294,536	0,028	0,038
-695,699	-163,664	-0,110	-0,004
-694,685	628,777	-0,048	0,090
-693,670	-200,000	-0,003	0,037
-692,656	800,000	0,035	0,078
-691,641	800,000	0,029	0,083
-690,627	-200,000	-0,020	0,070
-689,612	165,944	-0,107	0,111
-688,597	-57,833	-0,148	-0,047
-687,583	800,000	0,065	-0,151
-686,568	38,865	0,105	-0,069
-685,554	-200,000	0,007	0,104
-684,539	34,311	-0,064	0,041
-683,524	224,998	0,109	0,130
-682,510	-200,000	-0,015	0,183
-681,495	-200,000	-0,012	-0,048
-680,481	-132,800	-0,078	0,007
-679,466	-106,288	-0,059	0,010
-678,451	-200,000	-0,014	0,084
-677,437	150,443	0,010	0,010
-676,422	105,950	0,023	-0,020
-675,408	-200,000	-0,030	0,140
-674,393	-142,469	-0,046	-0,003
-673,378	800,000	-0,141	-0,305
-672,364	61,401	-0,175	-0,128
-671,349	-51,366	-0,096	-0,033
-670,335	-183,722	0,087	0,001
-669,320	148,940	-0,012	-0,012
-668,305	578,079	-0,024	0,043
-667,291	33,730	-0,060	0,038
-666,276	3,096	-0,021	0,011
-665,262	73,001	-0,072	0,055
-664,247	355,129	0,070	0,103
-663,232	-63,384	-0,154	0,046
-662,218	39,250	-0,078	-0,051
-661,203	-52,839	0,119	-0,040
-660,189	800,000	-0,026	-0,084
-659,174	-121,956	0,003	0,000
-658,159	-54,689	-0,118	0,039
-657,145	-35,372	0,029	0,012
-656,130	-62,691	-0,200	0,060
-655,116	272,367	0,084	0,109
-654,101	120,925	-0,096	0,087
-653,086	180,194	-0,047	-0,050
-652,072	91,724	-0,043	-0,036
-651,057	-200,000	0,007	0,139
-650,043	219,912	-0,052	0,061
-649,028	240,329	-0,122	0,149
-648,014	55,311	-0,038	0,027
-646,999	297,348	0,107	0,144
-645,984	-55,020	-0,072	0,024
-644,970	171,505	-0,071	-0,075
-643,955	-122,183	0,142	-0,017
-642,941	37,724	0,063	-0,041
-641,926	-157,851	-0,127	-0,005
-640,911	-45,338	0,126	-0,046
-639,897	-200,000	-0,009	0,033
-638,882	4,610	-0,066	0,035
-637,868	800,000	-0,046	0,119
-636,853	-200,000	-0,019	-0,122
-635,838	78,031	-0,111	0,087
-634,824	-97,714	0,041	-0,008
-633,809	127,902	-0,023	-0,021
-632,795	800,000	0,031	0,088
-631,780	-110,617	-0,057	0,009
-630,765	7,282	0,142	0,078
-629,751	800,000	-0,040	-0,084
-628,736	-200,000	0,010	-0,096
-627,722	638,243	-0,058	-0,109
-626,707	211,492	0,107	-0,123
-625,692	-200,000	-0,004	-0,013
-624,678	-155,180	-0,148	0,007
-623,663	106,043	0,030	0,026
-622,649	-169,745	-0,181	0,005
-621,634	-200,000	0,003	-0,066
-620,619	-84,411	-0,097	-0,022
-619,605	-200,000	-0,021	0,079
-618,590	-110,540	-0,088	-0,013
-617,576	686,962	-0,035	0,068
-616,561	-173,845	-0,034	-0,001
-615,546	6,514	0,100	-0,054
-614,532	-58,284	-0,216	-0,069
-613,517	800,000	-0,041	0,102
-612,503	-200,000	0,007	-0,069
-611,488	-200,000	-0,003	-0,074
-610,474	121,679	-0,031	-0,028
-609,459	608,240	0,103	-0,190
-608,444	-147,298	-0,084	0,005
-607,430	-52,330	0,066	0,022
-606,415	-47,996	-0,071	0,025
-605,401	800,000	0,017	-0,047
-604,386	384,247	-0,029	0,043
-603,371	16,012	0,042	-0,024
-602,357	67,017	0,045	0,034
-601,342	36,322	-0,084	0,054
-600,328	-200,000	0,018	-0,059
-599,313	-200,000	0,020	0,074
-598,298	63,070	-0,113	0,083
-597,284	77,918	0,044	-0,034
-596,269	154,816	-0,020	-0,020
-595,255	800,000	0,024	0,077
-594,240	-181,036	-0,041	0,001
-593,225	800,000	-0,061	0,149
-592,211	6,604	-0,107	0,058
-591,196	800,000	-0,003	-0,006
-590,182	173,872	-0,111	0,117
-589,167	-200,000	0,046	0,170
-588,152	-129,337	0,110	-0,011
-587,138	-200,000	0,015	-0,049
-586,123	-200,000	0,011	-0,040
-585,109	370,660	0,075	-0,112
-584,094	-83,544	-0,062	0,014
-583,079	-200,000	0,003	0,187
-582,065	-200,000	0,190	-0,000
-581,050	7,672	-0,070	0,038
-580,036	208,505	0,102	-0,117
-579,021	-200,000	-0,022	-0,133
-578,006	800,000	-0,031	0,065
-576,992	208,395	0,063	0,073
-575,977	800,000	-0,041	-0,103
-574,963	246,527	0,087	0,107
-573,948	-200,000	-0,004	0,064
-572,934	644,810	-0,079	0,148
-571,919	186,861	-0,080	0,087
-570,904	216,238	0,054	-0,063
-569,890	30,014	0,076	-0,047
-568,875	-140,206	-0,058	0,004
-567,861	113,710	-0,056	0,050
-566,846	-200,000	-0,003	-0,087
-565,831	127,475	-0,024	-0,022
-564,817	-200,000	0,025	-0,163
-563,802	-200,000	0,001	-0,157
-562,788	-200,000	-0,005	-0,068
-561,773	122,020	-0,070	-0,064
-560,758	262,994	0,075	-0,096
-559,744	-50,053	0,181	0,062
-558,729	-22,479	0,041	-0,018
-557,715	188,527	0,056	-0,061
-556,700	222,559	-0,006	0,007
-555,685	-16,896	0,017	-0,008
-554,671	-71,135	-0,037	-0,010
-553,656	18,057	-0,022	0,013
-552,642	17,746	0,055	0,032
-551,627	-101,578	0,057	0,010
-550,612	-200,000	-0,004	0,102
-549,598	-163,999	0,112	-0,004
-548,583	-188,074	-0,120	-0,001
-547,569	104,442	-0,050	0,043
-546,554	-200,000	-0,026	-0,097
-545,539	-43,454	0,133	0,049
-544,525	323,875	-0,058	-0,081
-543,510	800,000	0,030	0,062
-542,496	-25,104	0,080	-0,034
-541,481	-200,000	-0,027	-0,101
-540,466	-82,321	-0,019	0,005
-539,452	-200,000	0,007	-0,064
-538,437	-200,000	-0,004	0,075
-537,423	630,233	0,054	0,101
-536,408	-124,367	-0,008	0,001
-535,393	-14,661	-0,120	0,056
-534,379	226,364	0,113	-0,134
-533,364	-162,307	-0,083	0,003
-532,350	221,705	-0,071	0,083
-531,335	800,000	-0,067	0,162
-530,321	1,971	-0,079	-0,042
-529,306	800,000	0,011	0,026
-528,291	655,791	-0,064	-0,121
-527,277	14,801	0,062	0,036
-526,262	800,000	0,037	0,076
-525,248	-48,161	0,121	0,042
-524,233	-10,524	0,089	-0,043
-523,218	107,233	0,048	0,042
-522,204	270,076	0,062	0,080
-521,189	176,517	0,136	0,145
-520,175	800,000	-0,013	-0,029
-519,160	101,771	-0,081	-0,069
-518,145	-21,279	0,184	-0,082
-517,131	507,366	-0,023	-0,039
-516,116	171,101	0,043	-0,045
-515,102	98,724	-0,052	0,044
-514,087	121,507	0,046	0,042
-513,072	-200,000	0,042	-0,137
-512,058	-200,000	0,025	0,089
-511,043	-200,000	0,018	-0,111
-510,029	-200,000	-0,000	-0,026
-509,014	535,644	0,036	0,062
-507,999	-200,000	-0,006	0,028
-506,985	9,053	0,141	-0,078
-505,970	-66,482	-0,202	-0,058
-504,956	-200,000	0,008	-0,127
-503,941	-121,579	-0,034	0,004
-502,926	343,384	0,072	0,103
-501,912	-200,000	0,000	0,080
-500,897	-200,000	-0,003	-0,041
-499,883	800,000	-0,016	-0,044
-498,868	269,035	0,078	-0,100
-497,853	-142,965	-0,142	-0,010
-496,839	25,560	-0,024	-0,015
-495,824	-200,000	-0,001	-0,099
-494,810	-200,000	0,036	0,136
-493,795	-1,698	-0,066	0,034
-492,781	211,199	-0,040	0,046
-491,766	-64,505	0,093	0,027
-490,751	800,000	0,036	0,103
-489,737	536,940	0,103	-0,179
-488,722	49,792	-0,136	0,093
-487,708	128,290	0,114	-0,106
-486,693	141,620	-0,057	0,055
-485,678	-37,995	0,149	0,058
-484,664	-200,000	-0,026	-0,127
-483,649	434,188	-0,035	-0,056
-482,635	104,104	0,086	-0,074
-481,620	-143,423	0,161	-0,011
-480,605	-200,000	0,027	0,119
-479,591	-69,830	0,061	-0,017
-478,576	210,707	-0,036	-0,041
-477,562	-58,448	0,111	-0,035
-476,547	482,796	0,055	-0,092
-475,532	532,444	-0,043	-0,074
-474,518	98,358	0,102	0,086
-473,503	22,442	-0,104	0,062
-472,489	-6,657	0,032	-0,016
-471,474	800,000	0,014	0,037
-470,459	47,978	-0,152	-0,103
-469,445	-92,962	-0,041	0,008
-468,430	-200,000	-0,038	-0,221
-467,416	140,790	0,103	0,099
-466,401	-18,387	-0,085	0,038
-465,386	303,735	0,057	0,077
-464,372	800,000	-0,029	0,074
-463,357	-60,635	-0,216	-0,066
-462,343	-121,737	-0,189	0,023
-461,328	-200,000	-0,020	0,099
-460,313	347,919	0,098	0,141
-459,299	-64,879	0,146	-0,043
-458,284	384,646	-0,031	0,047
-457,270	-81,467	-0,154	0,037
-456,255	-200,000	-0,031	-0,112
-455,241	-147,231	-0,046	0,003
-454,226	-200,000	0,046	0,176
-453,211	-200,000	-0,031	0,144
-452,197	195,637	0,097	-0,108
-451,182	-6,168	-0,021	0,010
-450,168	-200,000	0,015	-0,115
-449,153	261,766	-0,054	-0,069
-448,138	107,443	-0,033	0,028
-447,124	-95,481	-0,128	-0,025
-446,109	-5,847	-0,033	-0,016
-445,095	104,015	-0,058	-0,049
-444,080	-200,000	0,015	0,112
-443,065	532,570	0,053	0,091
-442,051	409,248	-0,048	0,075
-441,036	150,117	-0,084	0,083
-440,022	304,524	0,016	0,021
-439,007	131,848	0,074	0,069
-437,992	-12,014	0,195	0,092
-436,978	31,819	-0,095	0,059
-435,963	108,287	-0,111	-0,096
-434,949	-200,000	-0,028	-0,115
-433,934	-200,000	-0,052	-0,173
-432,919	757,402	-0,014	-0,027
-431,905	800,000	0,059	-0,139
-430,890	-74,247	-0,045	-0,012
-429,876	-131,825	-0,034	0,003
-428,861	-200,000	-0,029	0,137
-427,846	-200,000	0,004	0,038
-426,832	-200,000	0,023	-0,078
-425,817	62,243	0,120	0,087
-424,803	151,929	-0,062	0,061
-423,788	-200,000	0,021	0,213
-422,773	62,350	-0,047	0,034
-421,759	-37,130	-0,045	-0,017
-420,744	146,643	0,093	0,091
-419,730	107,942	-0,102	0,089
-418,715	-156,315	-0,057	0,003
-417,701	-98,680	-0,049	-0,009
-416,686	-153,728	0,213	0,010
-415,671	37,367	0,141	0,091
-414,657	-69,670	0,052	-0,014
-413,642	640,940	-0,082	-0,153
-412,628	-200,000	-0,013	0,115
-411,613	-200,000	-0,004	0,015
-410,598	688,897	0,015	-0,029
-409,584	800,000	0,069	0,149
-408,569	3,077	0,133	0,070
-407,555	131,297	-0,058	0,055
-406,540	-52,482	0,110	-0,037
-405,525	-42,987	0,066	0,024
-404,511	142,346	-0,114	-0,110
-403,496	800,000	0,081	-0,191
-402,482	1,652	0,083	-0,043
-401,467	4,052	0,054	-0,028
-400,452	295,361	-0,020	0,026
-399,438	800,000	-0,023	0,054
-398,423	158,169	0,045	0,045
-397,409	-69,783	-0,115	0,032
-396,394	-60,988	0,070	0,021
-395,379	-90,047	0,101	-0,021
-394,365	742,400	-0,034	0,066
-393,350	-12,514	0,031	0,015
-392,336	-115,182	-0,055	0,008
-391,321	348,931	0,111	-0,159
-390,306	51,662	-0,066	0,045
-389,292	-200,000	-0,012	-0,068
-388,277	-200,000	0,001	-0,020
-387,263	-200,000	-0,014	0,089
-386,248	-200,000	0,023	0,142
-385,233	-191,010	-0,111	-0,001
-384,219	568,356	0,057	-0,101
-383,204	388,595	-0,043	0,065
-382,190	-55,049	0,137	-0,044
-381,175	-200,000	0,017	0,087
-380,160	-69,046	0,049	0,013
-379,146	800,000	-0,021	-0,047
-378,131	800,000	0,050	0,104
-377,117	-99,835	0,077	0,014
-376,102	-130,474	0,027	-0,003
-375,088	-10,791	-0,053	0,025
-374,073	191,744	-0,020	0,022
-373,058	-31,614	0,065	-0,026
-372,044	-200,000	-0,005	0,108
-371,029	518,738	-0,061	-0,103
-370,015	-82,248	-0,083	-0,019
-369,000	714,768	0,036	-0,070
-367,985	-200,000	0,001	0,018
-366,971	-200,000	0,014	0,076
-365,956	-0,592	0,062	-0,032
-364,942	-200,000	0,031	0,138
-363,927	-88,537	-0,027	0,006
-362,912	18,728	-0,018	-0,010
-361,898	598,501	-0,028	-0,051
-360,883	303,221	0,022	-0,030
-359,869	-90,457	-0,088	0,018
-358,854	118,689	0,043	-0,039
-357,839	-200,000	0,004	-0,065
-356,825	80,651	0,054	-0,042
-355,810	-34,334	-0,035	0,014
-354,796	127,612	0,010	0,009
-353,781	-200,000	-0,011	-0,089
-352,766	800,000	0,008	-0,018
-351,752	-200,000	0,058	-0,234
-350,737	286,440	0,016	-0,021
-349,723	41,303	0,179	0,117
-348,708	-5,242	-0,050	-0,025
-347,693	800,000	-0,035	0,082
-346,679	0,071	0,060	-0,031
-345,664	-56,834	0,039	0,012
-344,650	741,354	0,042	0,081
-343,635	800,000	0,054	0,113
-342,620	-200,000	-0,004	-0,122
-341,606	-92,977	0,097	0,019
-340,591	-200,000	-0,006	-0,087
-339,577	-76,898	-0,133	0,033
-338,562	-180,521	-0,033	0,000
-337,548	-132,146	0,176	0,016
-336,533	800,000	-0,044	-0,132
-335,518	-184,063	0,002	0,000
-334,504	-80,494	0,171	-0,041
-333,489	800,000	0,027	0,084
-332,475	-28,826	-0,038	0,016
-331,460	-145,091	0,064	-0,004
-330,445	-46,027	-0,053	0,019
-329,431	-129,998	0,100	0,010
-328,416	800,000	0,042	-0,089
-327,402	-60,359	-0,015	-0,004
-326,387	-24,884	-0,006	0,002
-325,372	800,000	-0,046	-0,137
-324,358	431,003	-0,043	-0,068
-323,343	-51,257	0,067	-0,023
-322,329	316,435	0,087	0,119
-321,314	800,000	0,034	-0,100
-320,299	705,233	-0,038	0,073
-319,285	-200,000	-0,004	0,142
-318,270	2,877	-0,065	-0,034
-317,256	-33,365	-0,062	-0,025
-316,241	248,165	0,058	-0,071
-315,226	-151,651	0,062	-0,003
-314,212	-115,027	0,038	0,005
-313,197	140,351	0,091	-0,087
-312,183	-200,000	-0,012	0,046
-311,168	75,570	-0,085	0,065
-310,153	800,000	0,017	0,041
-309,139	-69,108	0,065	-0,018
-308,124	78,408	-0,061	-0,047
-307,110	-200,000	0,003	0,108
-306,095	-9,363	-0,072	0,034
-305,080	800,000	-0,040	0,123
-304,066	-200,000	0,005	0,020
-303,051	409,464	-0,105	-0,161
-302,037	-11,996	-0,099	0,047
-301,022	800,000	0,023	-0,047
-300,008	796,773	0,038	0,075
-298,993	275,379	0,016	0,021
-297,978	195,391	0,057	0,062
-296,964	800,000	0,003	-0,008
-295,949	800,000	-0,015	-0,045
-294,935	800,000	-0,012	-0,027
-293,920	22,784	0,087	0,052
-292,905	-200,000	0,013	0,098
-291,891	92,468	-0,105	0,085
-290,876	800,000	-0,056	0,128
-289,862	-200,000	0,007	-0,034
-288,847	-115,929	-0,123	-0,016
-287,832	-200,000	-0,013	-0,112
-286,818	517,971	0,012	-0,021
-285,803	51,971	0,035	-0,024
-284,789	800,000	-0,027	0,059
-283,774	-169,545	0,152	0,004
-282,759	-37,043	0,084	-0,033
-281,745	-200,000	-0,011	-0,056
-280,730	-200,000	0,005	-0,035
-279,716	99,109	-0,111	0,092
-278,701	800,000	0,030	0,064
-277,686	178,020	0,119	-0,125
-276,672	-6,982	-0,006	-0,003
-275,657	-42,634	-0,013	0,005
-274,643	-140,772	0,085	-0,006
-273,628	-200,000	-0,038	-0,124
-272,613	482,805	0,110	-0,181
-271,599	203,279	-0,037	-0,042
-270,584	-124,885	-0,102	-0,011
-269,570	-24,236	-0,070	0,030
-268,555	800,000	-0,033	-0,069
-267,540	-166,307	-0,056	-0,002
-266,526	-28,629	-0,192	-0,079
-265,511	95,486	-0,131	-0,108
-264,497	194,684	-0,024	0,026
-263,482	-200,000	-0,009	0,035
-262,467	414,737	-0,037	0,058
-261,453	-6,878	-0,068	0,033
-260,438	800,000	0,043	-0,129
-259,424	230,169	0,074	-0,088
-258,409	84,289	-0,085	-0,067
-257,395	-54,384	-0,028	0,009
-256,380	-92,658	-0,183	0,037
-255,365	-116,246	-0,077	-0,010
-254,351	3,528	0,052	0,028
-253,336	-200,000	0,014	-0,160
-252,322	102,893	-0,070	-0,059
-251,307	-147,543	-0,050	-0,003
-250,292	147,139	0,022	0,021
-249,278	-200,000	0,002	-0,105
-248,263	-183,074	-0,033	0,000
-247,249	177,550	0,045	-0,047
-246,234	-45,980	0,076	0,027
-245,219	-200,000	-0,002	0,033
-244,205	-151,131	-0,062	0,003
-243,190	-3,934	-0,065	-0,033
-242,176	-154,830	0,035	-0,002
-241,161	-200,000	0,031	-0,188
-240,146	-167,801	0,034	0,001
-239,132	-45,105	0,002	-0,001
-238,117	168,716	-0,167	-0,172
-237,103	-200,000	-0,059	0,189
-236,088	800,000	0,075	-0,172
-235,073	-200,000	-0,011	-0,050
-234,059	-94,451	-0,062	0,012
-233,044	91,921	-0,131	0,106
-232,030	-109,049	0,080	-0,012
-231,015	159,747	-0,118	0,119
-230,000	467,726	0,078	0,126
-228,986	-115,406	0,042	0,006
-227,971	-152,988	-0,065	-0,003
-226,957	593,535	0,049	0,088
-225,942	130,077	0,059	0,054
-224,927	162,221	-0,046	0,046
-223,913	-200,000	-0,005	-0,138
-222,898	-40,106	0,107	0,040
-221,884	-200,000	0,014	-0,063
-220,869	-200,000	0,001	-0,033
-219,855	-200,000	-0,001	0,028
-218,840	383,794	0,041	0,061
-217,825	486,832	0,030	0,050
-216,811	108,620	-0,130	0,112
-215,796	45,662	-0,033	-0,022
-214,782	31,502	0,039	0,024
-213,767	146,025	-0,055	0,054
-212,752	-130,529	0,138	0,013
-211,738	-200,000	0,008	-0,042
-210,723	-104,593	0,038	0,006
-209,709	-200,000	0,022	0,097
-208,694	800,000	-0,045	-0,102
-207,679	-77,205	0,177	-0,044
-206,665	338,358	0,008	0,011
-205,650	-200,000	-0,006	-0,082
-204,636	329,654	0,059	0,081
-203,621	800,000	-0,037	0,091
-202,606	-30,708	-0,052	0,021
-201,592	47,790	-0,019	-0,012
-200,577	-122,138	0,095	0,011
-199,563	-105,896	-0,073	-0,012
-198,548	129,278	0,102	0,094
-197,533	11,742	-0,091	0,050
-196,519	732,330	0,056	0,108
-195,504	-117,755	-0,062	0,008
-194,490	-28,692	-0,046	-0,019
-193,475	-95,260	-0,113	-0,022
-192,460	-84,287	-0,033	0,007
-191,446	-130,085	0,079	0,008
-190,431	25,314	-0,071	-0,042
-189,417	-132,047	-0,098	0,009
-188,402	-200,000	0,013	-0,084
-187,387	76,525	-0,122	-0,093
-186,373	-200,000	0,025	-0,142
-185,358	348,378	0,038	0,055
-184,344	60,128	-0,094	-0,067
-183,329	-45,448	0,030	0,011
-182,315	-134,551	0,141	-0,012
-181,300	800,000	-0,028	-0,058
-180,285	192,572	-0,035	0,039
-179,271	-120,264	-0,140	-0,017
-178,256	1,168	0,130	-0,067
-177,242	-70,369	0,072	-0,019
-176,227	206,405	-0,032	0,036
-175,212	243,607	-0,049	-0,059
-174,198	37,965	0,043	-0,028
-173,183	155,558	0,019	-0,018
-172,169	-136,249	-0,071	-0,006
-171,154	-5,707	0,122	-0,060
-170,139	-175,001	0,113	-0,002
-169,125	-19,874	0,098	0,043
-168,110	800,000	-0,023	0,049
-167,096	-13,402	-0,086	0,040
-166,081	502,488	-0,082	0,138
-165,066	-105,427	-0,075	-0,012
-164,052	550,942	-0,062	-0,107
-163,037	-42,372	-0,054	-0,020
-162,023	117,271	0,052	-0,046
-161,008	-200,000	-0,002	-0,090
-159,993	-200,000	-0,036	0,117
-158,979	279,202	0,062	0,080
-157,964	-153,630	-0,103	-0,005
-156,950	-2,265	0,050	-0,025
-155,935	-93,539	0,120	0,024
-154,920	438,581	-0,067	0,106
-153,906	784,026	0,027	0,054
-152,891	-99,738	-0,036	-0,006
-151,877	-200,000	-0,004	0,031
-150,862	12,730	-0,149	-0,083
-149,847	-37,292	-0,068	-0,026
-148,833	77,347	-0,028	0,022
-147,818	-140,999	-0,122	0,009
-146,804	576,361	-0,065	0,114
-145,789	-200,000	0,011	0,099
-144,775	800,000	0,031	0,066
-143,760	-200,000	0,015	-0,272
-142,745	50,470	-0,073	0,049
-141,731	-25,539	0,176	0,074
-140,716	513,951	-0,041	0,069
-139,702	-156,927	0,076	-0,003
-138,687	78,483	-0,050	-0,038
-137,672	-59,991	0,062	-0,019
-136,658	800,000	0,029	-0,083
-135,643	-200,000	-0,028	-0,094
-134,629	-200,000	0,000	-0,062
-133,614	800,000	0,043	-0,101
-132,599	115,046	-0,104	-0,091
-131,585	-78,424	0,092	0,023
-130,570	-5,659	-0,048	-0,024
-129,556	-200,000	-0,016	-0,071
-128,541	-155,320	-0,115	0,005
-127,526	-55,925	0,070	0,022
-126,512	-92,201	-0,178	0,036
-125,497	107,482	0,094	-0,081
-124,483	800,000	-0,072	-0,192
-123,468	-113,309	0,113	-0,016
-122,453	10,042	-0,032	-0,017
-121,439	-121,864	0,116	0,014
-120,424	-200,000	-0,083	0,000
-119,410	-200,000	0,005	-0,069
-118,395	5,300	-0,062	0,033
-117,380	-200,000	-0,005	0,061
-116,366	-49,487	-0,123	-0,042
-115,351	171,680	0,029	0,030
-114,337	-123,138	-0,118	-0,013
-113,322	466,822	-0,070	-0,113
-112,307	-200,000	-0,011	0,051
-111,293	800,000	0,062	0,129
-110,278	-70,261	-0,093	-0,025
-109,264	673,326	-0,084	0,157
-108,249	-57,529	0,146	0,046
-107,234	-200,000	-0,015	-0,146
-106,220	-169,867	-0,145	0,004
-105,205	-69,577	-0,191	0,052
-104,191	792,416	-0,069	0,137
-103,176	18,010	0,036	0,021
-102,162	-48,274	0,164	0,056
-101,147	432,594	0,056	-0,088
-100,132	-107,091	-0,123	-0,019
-99,118	-98,031	-0,103	-0,019
-98,103	0,765	0,057	-0,029
-97,089	226,990	-0,067	-0,078
-96,074	800,000	-0,019	-0,055
-95,059	-116,602	-0,157	-0,020
-94,045	116,959	-0,042	0,037
-93,030	800,000	-0,054	-0,122
-92,016	-109,164	-0,150	-0,023
-91,001	488,308	0,022	-0,036
-89,986	312,156	-0,115	0,155
-88,972	649,600	0,076	0,141
-87,957	97,398	0,079	-0,065
-86,943	800,000	-0,030	0,079
-85,928	344,938	0,045	-0,064
-84,913	182,950	0,048	-0,051
-83,899	-97,847	-0,080	-0,015
-82,884	-34,893	0,116	-0,045
-81,870	-200,000	0,002	0,034
-80,855	-97,744	0,080	0,015
-79,840	-200,000	-0,016	0,067
-78,826	3,303	-0,063	-0,033
-77,811	-200,000	-0,004	-0,093
-76,797	-200,000	0,002	0,051
-75,782	-79,326	-0,103	0,025
-74,767	-200,000	-0,006	0,113
-73,753	242,191	-0,124	0,149
-72,738	137,416	-0,072	0,068
-71,724	107,920	-0,140	-0,120
-70,709	-200,000	0,009	-0,173
-69,694	-200,000	0,002	-0,219
-68,680	-40,775	0,039	-0,014
-67,665	-200,000	-0,010	-0,094
-66,651	-77,727	0,137	0,034
-65,636	316,081	0,013	-0,018
-64,622	-94,176	-0,096	0,019
-63,607	190,223	-0,111	-0,119
-62,592	800,000	0,023	0,054
-61,578	-93,709	-0,046	-0,009
-60,563	-200,000	-0,041	0,183
-59,549	-200,000	-0,002	0,157
-58,534	44,454	-2,140	-1,406
-57,519	-200,000	-0,111	-1,011
-56,505	-200,000	-1,291	-5,164
-55,490	71,668	0,795	0,592
-54,476	800,000	5,413	12,047
-53,461	-200,000	18,071	291,745
-52,446	800,000	729,030	2220,787
-51,432	529,354	1641,468	2787,552
-50,417	108,371	1631,162	1394,369
-49,403	73,271	1283,660	961,032
-48,388	30,983	1025,168	628,131
-47,373	19,879	987,217	568,381
-46,359	17,952	974,875	554,958
-45,344	14,976	970,922	542,983
-44,330	15,149	969,602	542,786
-43,315	14,662	967,532	540,022
-42,300	14,605	966,572	539,278
-41,286	14,727	965,370	538,983
-40,271	14,663	964,500	538,268
-39,257	14,716	963,528	537,876
-38,242	14,625	962,736	537,120
-37,227	14,710	961,908	536,909
-36,213	14,639	961,113	536,216
-35,198	14,612	960,131	535,561
-34,184	14,633	959,523	535,268
-33,169	14,595	958,431	534,515
-32,154	14,697	957,560	534,334
-31,140	14,672	956,671	533,739
-30,125	14,651	955,926	533,235
-29,111	14,627	955,282	532,777
-28,096	14,695	954,560	532,572
-27,082	14,733	953,738	532,212
-26,067	14,699	953,140	531,749
-25,052	14,574	952,448	530,942
-24,038	14,634	951,583	530,629
-23,023	14,631	950,951	530,247
-22,009	14,653	950,538	530,066
-20,994	14,676	949,791	529,701
-19,979	14,607	949,212	529,138
-18,965	14,687	948,457	528,951
-17,950	14,644	947,980	528,526
-16,936	14,577	947,219	527,868
-15,921	14,604	946,493	527,530
-14,906	14,511	945,841	526,850
-13,892	14,567	945,132	526,611
-12,877	14,496	944,595	526,064
-11,863	14,500	943,892	525,666
-10,848	14,558	943,443	525,577
-9,833	14,642	942,956	525,553
-8,819	14,591	942,302	525,004
-7,804	14,581	941,730	524,635
-6,790	14,595	941,119	524,316
-5,775	14,560	940,585	523,890
-4,760	14,567	939,972	523,549
-3,746	14,578	939,178	523,121
-2,731	14,466	938,522	522,381
-1,717	14,352	938,181	521,813
-0,702	14,371	937,248	521,333
0,313	14,258	936,459	521,326
1,327	17,655	934,527	530,866
2,342	26,749	787,972	471,487
3,356	23,309	443,250	260,125
4,371	-5,777	294,966	144,116
5,386	-9,637	276,780	131,571
6,400	-10,796	271,111	127,790
7,415	-11,020	269,132	126,641
8,429	-10,951	267,519	125,934
9,444	-10,917	266,567	125,505
10,459	-11,007	265,945	125,119
11,473	-11,148	265,311	124,682
12,488	-11,271	264,834	124,335
13,502	-11,313	264,332	124,050
14,517	-11,489	263,910	123,682
15,531	-11,408	263,574	123,587
16,546	-11,200	262,946	123,469
17,561	-11,226	262,509	123,229
18,575	-11,273	262,402	123,125
19,590	-11,426	262,035	122,806
20,604	-11,350	261,809	122,756
21,619	-11,399	261,345	122,484
22,634	-11,273	260,980	122,414
23,648	-11,545	260,705	122,032
24,663	-11,425	260,516	122,039
25,677	-11,508	260,283	121,847
26,692	-11,476	260,099	121,778
27,707	-11,402	259,753	121,670
28,721	-11,453	259,478	121,485
29,736	-11,487	259,244	121,335
30,750	-11,723	259,053	121,026
31,765	-11,662	258,588	120,853
32,780	-11,662	258,588	120,841
33,794	-11,663	258,354	120,720
34,809	-11,516	258,019	120,682
35,823	-11,645	257,703	120,411
36,838	-11,569	257,458	120,351
37,853	-11,472	257,140	120,277
38,867	-11,569	256,967	120,101
39,882	-11,573	256,781	120,000
40,896	-11,498	256,356	119,856
41,911	-11,679	256,259	119,642
42,926	-11,621	256,025	119,573
43,940	-11,543	255,694	119,475
44,955	-11,639	255,500	119,291
45,969	-11,751	255,464	119,165
46,984	-11,788	255,037	118,924
47,999	-12,093	254,895	118,582
49,013	-12,261	254,571	118,275
50,028	-12,262	254,212	118,097
51,042	-12,470	254,090	117,849
52,057	-12,366	253,785	117,788
53,071	-12,381	253,607	117,681
54,086	-12,373	253,525	117,640
55,101	-12,130	253,333	117,749
56,115	-11,849	253,211	117,924
57,130	-11,451	253,152	118,229
58,144	-11,353	252,801	118,139
59,159	-11,432	252,707	118,017
60,174	-11,318	252,523	118,018
61,188	-11,316	252,276	117,894
62,203	-11,311	251,916	117,720
63,217	-11,423	251,827	117,572
64,232	-11,433	251,453	117,378
65,247	-11,075	251,424	117,661
66,261	-11,443	251,152	117,208
67,276	-11,703	250,896	116,857
68,290	-12,002	250,697	116,499
69,305	-11,884	250,341	116,423
70,320	-11,995	250,152	116,230
71,334	-11,662	250,073	116,466
72,349	-11,296	249,903	116,688
73,363	-11,278	249,802	116,645
74,378	-11,216	249,516	116,555
75,393	-11,523	249,467	116,260
76,407	-11,424	249,085	116,156
77,422	-11,659	248,778	115,804
78,436	-11,361	248,561	115,944
79,451	-11,420	248,453	115,834
80,466	-11,520	248,083	115,566
81,480	-11,766	248,004	115,313
82,495	-11,812	247,839	115,186
83,509	-11,837	247,632	115,059
84,524	-11,820	247,408	114,959
85,539	-11,644	246,982	114,899
86,553	-11,932	246,865	114,593
87,568	-11,754	246,706	114,657
88,582	-12,010	246,568	114,368
89,597	-11,848	246,410	114,421
90,611	-11,574	246,238	114,559
91,626	-11,433	246,037	114,574
92,641	-11,525	245,990	114,465
93,655	-11,501	245,723	114,350
94,670	-11,549	245,451	114,173
95,684	-11,866	245,371	113,862
96,699	-11,536	244,979	113,944
97,714	-11,793	244,874	113,672
98,728	-12,026	244,785	113,427
99,743	-11,865	244,362	113,354
100,757	-11,933	244,330	113,273
101,772	-11,840	244,115	113,241
102,787	-11,685	243,871	113,245
103,801	-11,489	243,636	113,288
104,816	-11,628	243,537	113,117
105,830	-11,570	243,564	113,168
106,845	-11,396	243,282	113,170
107,860	-11,472	242,995	112,964
108,874	-11,327	242,831	112,997
109,889	-11,584	242,691	112,710
110,903	-11,647	242,541	112,579
111,918	-11,623	242,219	112,439
112,933	-11,531	242,123	112,459
113,947	-11,654	242,086	112,331
114,962	-11,559	241,913	112,319
115,976	-11,461	241,579	112,234
116,991	-11,592	241,454	112,059
118,006	-11,721	241,295	111,870
119,020	-11,652	241,267	111,903
120,035	-11,433	241,034	111,964
121,049	-11,452	240,877	111,866
122,064	-11,432	240,621	111,753
123,079	-11,488	240,422	111,605
124,093	-11,454	240,101	111,474
125,108	-11,844	239,952	111,078
126,122	-11,960	239,886	110,943
127,137	-12,148	239,674	110,683
128,151	-11,928	239,394	110,722
129,166	-11,778	239,166	110,728
130,181	-11,933	239,064	110,545
131,195	-11,789	238,711	110,488
132,210	-11,722	238,882	110,612
133,224	-11,666	238,551	110,495
134,239	-11,586	238,490	110,521
135,254	-11,330	238,254	110,607
136,268	-11,707	237,983	110,168
137,283	-12,001	237,759	109,819
138,297	-12,006	237,581	109,723
139,312	-12,042	237,244	109,528
140,327	-11,647	237,327	109,873
141,341	-11,196	237,224	110,178
142,356	-10,981	237,095	110,280
143,370	-11,379	236,893	109,858
144,385	-11,325	236,966	109,925
145,400	-11,059	236,568	109,943
146,414	-11,204	236,461	109,768
147,429	-11,166	236,231	109,682
148,443	-11,332	236,113	109,485
149,458	-11,278	235,781	109,364
150,473	-11,188	235,681	109,379
151,487	-11,285	235,571	109,242
152,502	-11,353	235,471	109,131
153,516	-11,092	235,237	109,221
154,531	-11,152	235,045	109,074
155,546	-11,287	235,040	108,955
156,560	-11,407	234,652	108,670
157,575	-11,163	234,344	108,711
158,589	-11,477	234,421	108,488
159,604	-11,119	234,241	108,678
160,619	-11,148	234,156	108,607
161,633	-11,159	233,920	108,479
162,648	-11,221	233,794	108,362
163,662	-11,093	233,615	108,370
164,677	-11,240	233,325	108,110
165,692	-11,290	233,288	108,044
166,706	-11,172	233,306	108,135
167,721	-11,022	233,058	108,128
168,735	-10,899	232,855	108,121
169,750	-10,968	232,809	108,036
170,764	-11,163	232,534	107,746
171,779	-11,093	232,395	107,727
172,794	-10,964	232,343	107,794
173,808	-11,049	231,978	107,549
174,823	-11,843	231,528	106,711
175,837	-11,950	231,460	106,587
176,852	-11,348	231,544	107,086
177,867	-11,119	231,348	107,164
178,881	-11,094	231,275	107,140
179,896	-10,896	231,099	107,203
180,910	-11,172	230,932	106,901
181,925	-10,977	230,779	106,973
182,940	-11,029	230,702	106,887
183,954	-11,158	230,421	106,647
184,969	-10,806	230,284	106,847
185,983	-10,953	230,135	106,654
186,998	-10,778	230,021	106,728
188,013	-10,870	229,835	106,561
189,027	-11,072	229,838	106,397
190,042	-10,931	229,506	106,342
191,056	-11,031	229,300	106,160
192,071	-10,978	229,352	106,215
193,086	-11,030	229,108	106,053
194,100	-10,958	229,028	106,062
195,115	-11,050	228,571	105,770
196,129	-11,164	228,553	105,665
197,144	-6,147	230,296	110,342
198,159	-0,697	231,890	115,329
199,173	2,493	232,728	118,216
200,188	2,623	232,784	118,334
201,202	2,757	232,513	118,290
202,217	3,118	232,448	118,526
203,232	3,352	232,477	118,712
204,246	3,499	232,247	118,697
205,261	3,481	232,130	118,614
206,275	3,745	231,989	118,735
207,290	3,481	231,959	118,505
208,304	3,463	231,761	118,379
209,319	3,542	231,541	118,317
210,334	3,621	231,270	118,229
211,348	3,425	230,918	117,888
212,363	3,086	230,721	117,516
213,377	2,685	230,652	117,163
214,392	2,569	230,518	116,995
215,407	2,927	230,287	117,142
216,421	2,896	230,235	117,081
217,436	2,888	230,062	116,977
218,450	2,509	229,757	116,521
219,465	2,525	229,623	116,455
220,480	2,611	229,579	116,488
221,494	2,668	229,406	116,433
222,509	2,964	229,450	116,672
223,523	3,100	229,227	116,652
224,538	3,006	228,935	116,421
225,553	2,764	228,894	116,205
226,567	2,896	228,667	116,180
227,582	3,090	228,691	116,330
228,596	3,235	228,571	116,369
229,611	2,995	228,282	116,028
230,626	2,641	227,979	115,596
231,640	2,769	228,041	115,714
232,655	3,179	227,800	115,892
233,669	3,290	227,872	116,003
234,684	3,409	227,656	115,972
235,699	3,091	227,587	115,686
236,713	3,205	227,232	115,582
237,728	2,914	227,131	115,300
238,742	2,946	226,883	115,188
239,757	2,935	226,747	115,101
240,772	3,059	226,526	115,072
241,786	2,816	226,482	114,856
242,801	3,134	226,452	115,070
243,815	3,370	226,357	115,189
244,830	3,232	226,216	115,002
245,844	2,952	225,874	114,609
246,859	2,888	225,658	114,441
247,874	3,210	225,660	114,673
248,888	3,129	225,568	114,556
249,903	3,264	225,371	114,547
250,917	2,988	225,194	114,239
251,932	2,989	225,041	114,152
252,947	2,883	224,871	113,977
253,961	2,727	224,699	113,764
254,976	2,746	224,600	113,717
255,990	3,031	224,558	113,898
257,005	2,958	224,438	113,773
258,020	2,858	224,257	113,596
259,034	2,999	224,245	113,685
260,049	3,045	223,907	113,538
261,063	2,993	223,827	113,448
262,078	3,162	223,753	113,526
263,093	3,305	223,548	113,518
264,107	3,292	223,331	113,389
265,122	3,081	223,309	113,211
266,136	3,228	223,267	113,288
267,151	3,518	222,915	113,314
268,166	2,953	222,748	112,802
269,180	2,718	222,565	112,526
270,195	2,542	222,384	112,294
271,209	2,869	222,288	112,477
272,224	2,625	222,172	112,228
273,239	2,925	222,066	112,385
274,253	2,781	221,793	112,132
275,268	2,678	221,655	111,976
276,282	2,857	221,387	111,962
277,297	2,467	221,245	111,594
278,312	2,782	221,121	111,752
279,326	2,920	221,103	111,835
280,341	2,832	221,031	111,724
281,355	3,050	220,739	111,726
282,370	2,967	220,682	111,627
283,384	2,511	220,561	111,222
284,399	2,454	220,357	111,067
285,414	2,633	220,252	111,135
286,428	2,687	220,255	111,166
287,443	3,040	220,091	111,331
288,457	3,137	219,856	111,272
289,472	2,816	219,647	110,923
290,487	2,450	219,432	110,539
291,501	2,537	219,254	110,503
292,516	2,622	219,237	110,546
293,530	2,610	219,180	110,499
294,545	2,671	219,023	110,454
295,560	2,798	218,913	110,481
296,574	2,918	218,838	110,520
297,589	2,933	218,514	110,357
298,603	2,810	218,448	110,225
299,618	2,933	218,325	110,242
300,633	3,057	218,176	110,247
301,647	3,195	218,212	110,354
302,662	3,229	218,063	110,294
303,676	3,280	217,828	110,202
304,691	3,120	217,751	110,037
305,706	2,969	217,644	109,865
306,720	3,165	217,380	109,863
307,735	2,872	217,196	109,550
308,749	2,806	217,113	109,451
309,764	2,869	217,047	109,453
310,779	2,991	216,817	109,415
311,793	3,157	216,688	109,459
312,808	3,096	216,489	109,305
313,822	2,995	216,344	109,150
314,837	2,966	216,139	109,015
315,852	2,771	216,082	108,838
316,866	2,875	216,077	108,900
317,881	2,979	215,969	108,910
318,895	2,976	215,803	108,815
319,910	2,968	215,459	108,625
320,925	2,672	215,305	108,328
321,939	2,389	215,214	108,072
322,954	2,824	215,048	108,287
323,968	2,989	215,054	108,398
324,983	3,061	214,840	108,332
325,997	3,304	214,787	108,467
327,012	3,229	214,612	108,316
328,027	2,809	214,464	107,935
329,041	3,084	214,591	108,183
330,056	3,372	214,159	108,159
331,070	2,864	213,947	107,684
332,085	2,297	213,845	107,223
333,100	2,464	213,794	107,306
334,114	3,081	213,617	107,642
335,129	3,065	213,459	107,542
336,143	2,879	213,373	107,358
337,158	2,862	213,308	107,304
338,173	3,034	213,087	107,304
339,187	2,840	212,940	107,084
340,202	2,933	212,714	107,026
341,216	3,132	212,443	107,019
342,231	2,753	212,410	106,728
343,246	2,842	212,409	106,780
344,260	2,846	212,231	106,684
345,275	3,003	212,049	106,692
346,289	2,908	212,028	106,607
347,304	3,001	211,824	106,559
348,319	2,831	211,662	106,350
349,333	2,714	211,687	106,271
350,348	2,899	211,545	106,319
351,362	3,120	211,489	106,436
352,377	3,292	211,258	106,429
353,392	2,998	211,203	106,187
354,406	2,963	210,974	106,039
355,421	197,616	1337,162	1419,171
356,435	157,944	1474,325	1419,140
