DTS Sentinel unit serial number:	SN410029Multiplexer serial number:	ORYXHardware model number:	OX2-SRSoftware version number:	ORYX F/W v4,00 Oryx Data Collector v3.7.2.0data status	okinstallation	B6 Nyhavnadifferential loss correction	single-endedforward channel	channel 2reverse channel	N/Adate	2023/12/08time	10:30:08forward acquisition time	300,00reverse acquisition time	0,00gamma	499,1914k internal	0,3163k external	0,3163temperature offset calibration	1,0000default loss term (dB/km)	0,3820temperature slope calibration	1,0000multiplexer offset coefficient	1,0000multiplexer slope coefficient	1,0000fibre end	0,00T internal ref (°C)	14,42T ext. ref 1 (°C)	-1,28T ext. ref 2 (°C)	-1,24length (m)	temperature (°C)	Stokes	anti-Stokes-744,400	234,433	0,146	0,178
-743,385	-132,503	-0,369	0,035
-742,371	763,220	0,075	0,151
-741,356	-60,845	-0,228	-0,071
-740,342	11,543	0,154	0,087
-739,327	-84,716	-0,394	-0,091
-738,312	9,228	0,059	0,032
-737,298	-88,290	-0,480	-0,105
-736,283	-121,150	0,101	0,012
-735,269	-79,951	-0,325	0,080
-734,254	-16,480	0,096	0,044
-733,239	-86,285	-0,423	-0,095
-732,225	625,717	0,091	0,170
-731,210	-200,000	0,015	0,055
-730,196	-193,213	0,147	-0,001
-729,181	-183,863	-0,209	-0,003
-728,167	-200,000	0,010	0,074
-727,152	-200,000	-0,018	0,100
-726,137	54,151	-0,055	0,039
-725,123	800,000	-0,024	-0,048
-724,108	800,000	-0,022	-0,047
-723,094	61,255	-0,146	-0,107
-722,079	-200,000	-0,064	0,000
-721,064	-200,000	0,014	-0,064
-720,050	33,400	-0,132	-0,084
-719,035	272,116	0,035	-0,046
-718,021	-173,514	-0,062	0,001
-717,006	18,223	-0,119	-0,069
-715,991	-36,632	-0,083	-0,032
-714,977	-44,134	0,087	-0,032
-713,962	43,451	-0,104	0,070
-712,948	-200,000	-0,007	-0,150
-711,933	800,000	0,039	0,110
-710,918	-63,504	-0,048	-0,014
-709,904	-91,036	-0,053	0,011
-708,889	-200,000	-0,016	-0,117
-707,875	-200,000	0,028	-0,094
-706,860	-67,829	-0,090	-0,026
-705,845	470,356	-0,065	-0,107
-704,831	-23,532	0,072	0,032
-703,816	-172,607	0,079	-0,002
-702,802	-21,058	-0,153	0,069
-701,787	800,000	0,017	0,046
-700,772	800,000	-0,009	0,027
-699,758	133,989	-0,071	-0,068
-698,743	800,000	0,060	0,168
-697,729	31,076	-0,053	-0,033
-696,714	800,000	0,052	0,116
-695,699	11,930	-0,092	-0,052
-694,685	426,967	-0,044	-0,069
-693,670	127,768	-0,078	-0,073
-692,656	-106,195	-0,035	-0,006
-691,641	-200,000	0,031	-0,102
-690,627	221,098	0,043	0,051
-689,612	238,208	-0,035	-0,043
-688,597	-24,853	0,085	0,037
-687,583	-10,984	-0,137	-0,066
-686,568	45,934	-0,083	-0,056
-685,554	-14,790	0,035	-0,016
-684,539	-200,000	0,009	0,060
-683,524	362,558	-0,082	0,121
-682,510	83,950	0,082	-0,066
-681,495	75,249	-0,098	-0,076
-680,481	-200,000	0,023	-0,097
-679,466	107,312	-0,091	-0,080
-678,451	278,547	0,021	-0,028
-677,437	-200,000	-0,037	0,165
-676,422	-200,000	0,025	-0,096
-675,408	-63,817	-0,064	0,019
-674,393	-200,000	0,022	0,086
-673,378	-70,721	-0,134	-0,037
-672,364	741,562	0,062	-0,122
-671,349	609,511	0,009	-0,017
-670,335	119,169	-0,070	-0,063
-669,320	81,846	0,068	-0,054
-668,305	-164,389	-0,080	-0,003
-667,291	-121,476	-0,091	0,011
-666,276	-200,000	0,025	-0,192
-665,262	70,724	-0,064	-0,049
-664,247	390,995	-0,048	0,073
-663,232	-200,000	-0,026	-0,113
-662,218	800,000	-0,039	-0,116
-661,203	800,000	0,017	-0,036
-660,189	-200,000	-0,001	0,048
-659,174	-134,645	-0,168	0,015
-658,159	193,587	-0,066	-0,073
-657,145	800,000	0,016	-0,045
-656,130	-140,871	0,014	0,001
-655,116	-49,980	-0,049	0,017
-654,101	96,765	-0,079	0,066
-653,086	-122,188	-0,055	0,007
-652,072	643,182	-0,057	0,107
-651,057	190,017	0,023	-0,026
-650,043	53,298	-0,094	0,066
-649,028	-200,000	0,009	-0,142
-648,014	502,073	-0,043	0,073
-646,999	445,201	0,079	-0,127
-645,984	-42,436	-0,042	0,016
-644,970	-83,884	0,076	0,018
-643,955	800,000	0,053	-0,141
-642,941	800,000	-0,042	0,089
-641,926	-200,000	-0,013	0,071
-640,911	800,000	-0,036	-0,114
-639,897	66,185	-0,091	0,067
-638,882	-25,443	0,021	0,009
-637,868	27,356	-0,020	-0,012
-636,853	-13,324	-0,128	-0,061
-635,838	-140,217	-0,121	-0,009
-634,824	251,715	-0,071	-0,089
-633,809	318,588	0,051	-0,070
-632,795	172,230	0,059	0,062
-631,780	-200,000	-0,008	0,096
-630,765	-200,000	0,015	0,109
-629,751	800,000	0,013	-0,030
-628,736	40,276	-0,143	-0,094
-627,722	800,000	0,041	-0,133
-626,707	-1,217	0,129	0,067
-625,692	156,692	-0,108	-0,109
-624,678	-59,516	-0,072	-0,023
-623,663	438,657	-0,102	0,163
-622,649	-200,000	-0,015	-0,109
-621,634	800,000	0,002	0,006
-620,619	800,000	-0,027	0,075
-619,605	-88,967	0,125	0,027
-618,590	528,006	-0,071	-0,123
-617,576	-97,491	0,052	-0,010
-616,561	-150,867	-0,100	0,005
-615,546	800,000	0,019	-0,060
-614,532	-200,000	0,002	-0,044
-613,517	-200,000	-0,014	-0,227
-612,503	-200,000	0,018	0,104
-611,488	-49,937	0,130	0,045
-610,474	-115,742	0,065	-0,009
-609,459	-49,832	-0,045	-0,016
-608,444	-200,000	0,011	-0,109
-607,430	290,253	0,091	-0,121
-606,415	-1,050	0,065	-0,034
-605,401	-200,000	0,007	-0,052
-604,386	346,859	0,091	0,131
-603,371	171,959	0,032	0,033
-602,357	383,507	-0,069	0,104
-601,342	121,361	0,122	-0,111
-600,328	52,921	-0,100	-0,070
-599,313	55,207	0,029	0,021
-598,298	-103,633	-0,082	0,014
-597,284	-35,443	0,108	-0,043
-596,269	-4,204	0,060	-0,031
-595,255	238,879	0,096	-0,117
-594,240	-200,000	0,006	0,101
-593,225	-90,473	-0,022	-0,005
-592,211	800,000	-0,031	0,100
-591,196	-164,329	0,090	0,003
-590,182	-200,000	-0,010	0,168
-589,167	100,633	-0,094	0,080
-588,152	-200,000	0,017	-0,140
-587,138	381,849	-0,025	0,038
-586,123	62,721	0,075	-0,054
-585,109	211,250	-0,055	0,063
-584,094	-5,996	-0,050	0,025
-583,079	-14,354	-0,033	0,016
-582,065	800,000	0,030	0,085
-581,050	406,710	-0,052	0,080
-580,036	142,862	-0,074	0,072
-579,021	231,638	-0,046	-0,055
-578,006	-53,374	-0,073	-0,024
-576,992	-102,800	0,045	0,008
-575,977	-200,000	0,004	-0,087
-574,963	75,030	0,068	-0,053
-573,948	392,708	-0,023	0,036
-572,934	-200,000	0,018	-0,170
-571,919	337,385	0,047	0,067
-570,904	61,287	0,052	-0,038
-569,890	0,274	-0,034	0,018
-568,875	-100,957	0,148	0,026
-567,861	-200,000	-0,025	0,088
-566,846	-200,000	0,019	0,095
-565,831	386,676	-0,005	-0,007
-564,817	-5,397	-0,023	-0,012
-563,802	800,000	0,033	-0,086
-562,788	-200,000	-0,025	-0,084
-561,773	45,105	0,103	0,069
-560,758	800,000	0,047	-0,107
-559,744	-200,000	0,006	-0,035
-558,729	-155,959	0,096	-0,004
-557,715	-26,732	-0,142	-0,060
-556,700	-200,000	0,043	-0,161
-555,685	-200,000	-0,020	-0,078
-554,671	-200,000	0,006	-0,188
-553,656	79,808	-0,014	-0,011
-552,642	-10,642	-0,088	0,042
-551,627	529,637	-0,011	0,019
-550,612	-157,984	-0,078	-0,003
-549,598	-70,613	-0,182	-0,050
-548,583	-200,000	0,009	-0,050
-547,569	-161,852	0,023	-0,001
-546,554	462,030	-0,043	0,071
-545,539	-0,723	0,049	-0,025
-544,525	-96,751	0,117	0,022
-543,510	-26,010	-0,074	0,031
-542,496	-58,224	0,039	-0,012
-541,481	600,423	-0,088	-0,160
-540,466	800,000	-0,050	-0,108
-539,452	-158,861	0,139	-0,006
-538,437	74,063	-0,046	-0,035
-537,423	249,170	0,043	0,054
-536,408	-20,122	-0,154	0,069
-535,393	443,491	0,030	0,049
-534,379	93,582	-0,125	-0,103
-533,364	-104,802	-0,094	0,016
-532,350	-200,000	-0,030	0,166
-531,335	-200,000	0,004	0,059
-530,321	165,717	0,106	0,109
-529,306	-200,000	-0,020	0,079
-528,291	37,909	-0,077	-0,050
-527,277	-109,398	-0,170	-0,026
-526,262	800,000	0,041	-0,131
-525,248	43,629	-0,041	0,027
-524,233	-122,035	-0,108	0,013
-523,218	-109,617	0,138	-0,021
-522,204	-200,000	0,018	0,112
-521,189	355,081	-0,101	-0,147
-520,175	-117,407	-0,084	-0,011
-519,160	4,316	0,078	-0,042
-518,145	800,000	0,022	-0,066
-517,131	636,011	0,045	-0,083
-516,116	800,000	0,039	0,093
-515,102	80,719	0,054	0,042
-514,087	-12,072	0,018	-0,009
-513,072	-200,000	0,002	0,034
-512,058	228,241	-0,093	-0,111
-511,043	462,929	-0,045	-0,074
-510,029	10,291	-0,091	-0,050
-509,014	-200,000	0,012	-0,054
-507,999	-13,716	0,139	0,065
-506,985	-179,406	-0,156	-0,002
-505,970	-8,260	0,108	0,053
-504,956	66,635	-0,089	0,066
-503,941	-82,827	-0,061	-0,014
-502,926	-200,000	-0,006	-0,046
-501,912	-70,309	0,069	-0,019
-500,897	51,327	-0,063	0,043
-499,883	-200,000	-0,014	0,057
-498,868	-54,183	-0,133	0,044
-497,853	637,788	0,094	0,175
-496,839	-131,132	0,010	-0,001
-495,824	3,822	0,040	-0,021
-494,810	-200,000	0,004	-0,041
-493,795	457,944	-0,025	-0,041
-492,781	379,688	-0,042	-0,062
-491,766	91,640	-0,118	-0,096
-490,751	-200,000	0,026	-0,097
-489,737	86,919	-0,021	0,017
-488,722	-200,000	-0,012	0,074
-487,708	307,846	-0,080	-0,109
-486,693	-95,083	0,105	0,021
-485,678	-92,487	0,128	0,026
-484,664	-200,000	0,001	-0,044
-483,649	-78,559	-0,129	0,032
-482,635	-200,000	-0,042	0,137
-481,620	239,234	0,011	0,013
-480,605	-139,724	0,097	0,007
-479,591	-70,678	-0,179	-0,049
-478,576	800,000	-0,012	0,033
-477,562	-200,000	0,004	-0,044
-476,547	238,021	-0,067	-0,081
-475,532	605,368	0,037	-0,068
-474,518	-165,830	-0,009	-0,000
-473,503	111,695	0,063	0,055
-472,489	-200,000	0,008	0,036
-471,474	74,814	-0,093	0,071
-470,459	800,000	-0,031	-0,099
-469,445	800,000	-0,008	0,025
-468,430	-181,827	-0,043	0,001
-467,416	-3,248	0,124	0,062
-466,401	-96,313	0,014	-0,003
-465,386	8,651	0,021	-0,011
-464,372	-119,780	-0,188	-0,023
-463,357	624,338	0,055	-0,101
-462,343	534,879	0,086	0,149
-461,328	14,440	-0,066	-0,037
-460,313	505,654	-0,031	0,053
-459,299	156,808	0,023	-0,024
-458,284	-200,000	-0,017	-0,070
-457,270	132,781	0,042	0,039
-456,255	-200,000	0,024	-0,116
-455,241	194,747	-0,082	-0,091
-454,226	-86,928	-0,065	-0,014
-453,211	1,641	-0,027	-0,014
-452,197	47,019	0,194	-0,131
-451,182	35,043	0,122	0,078
-450,168	-174,845	0,073	-0,001
-449,153	-200,000	0,003	-0,120
-448,138	132,037	-0,125	-0,117
-447,124	377,654	0,014	0,021
-446,109	172,793	-0,050	-0,052
-445,095	800,000	0,023	0,047
-444,080	-86,516	-0,026	0,006
-443,065	426,510	0,109	0,171
-442,051	482,576	-0,038	0,063
-441,036	-183,801	-0,229	0,003
-440,022	211,932	-0,084	-0,097
-439,007	-200,000	-0,012	-0,048
-437,992	153,131	0,007	0,007
-436,978	26,444	0,121	0,073
-435,963	13,171	0,092	-0,051
-434,949	166,930	-0,022	-0,023
-433,934	-200,000	-0,007	-0,074
-432,919	238,022	0,044	0,053
-431,905	122,524	0,102	-0,093
-430,890	18,072	-0,028	0,016
-429,876	-200,000	-0,003	0,036
-428,861	-15,414	0,074	0,034
-427,846	-4,401	0,068	0,034
-426,832	-94,241	-0,120	0,024
-425,817	-14,325	0,051	0,024
-424,803	-169,966	-0,108	0,003
-423,788	-200,000	-0,008	-0,106
-422,773	132,902	0,136	0,128
-421,759	-48,038	0,123	0,043
-420,744	-3,720	-0,090	0,045
-419,730	-125,280	-0,216	0,024
-418,715	800,000	0,031	0,073
-417,701	-4,256	0,096	0,048
-416,686	-33,371	0,139	-0,056
-415,671	-19,763	-0,023	0,010
-414,657	228,816	0,042	0,050
-413,642	-158,752	0,075	0,003
-412,628	-200,000	0,040	-0,163
-411,613	800,000	-0,066	0,154
-410,598	157,430	-0,118	0,118
-409,584	800,000	-0,039	0,122
-408,569	397,252	0,084	0,127
-407,555	800,000	0,032	0,094
-406,540	-90,947	-0,033	0,007
-405,525	683,737	0,049	-0,093
-404,511	-70,741	-0,191	-0,052
-403,496	800,000	-0,022	-0,048
-402,482	486,241	0,057	-0,094
-401,467	56,378	-0,009	0,006
-400,452	-59,896	0,071	0,022
-399,438	511,243	-0,027	0,047
-398,423	80,608	0,096	0,075
-397,409	20,419	-0,093	0,054
-396,394	446,681	-0,031	-0,050
-395,379	119,515	-0,060	0,054
-394,365	49,908	-0,006	0,004
-393,350	436,630	0,064	0,102
-392,336	484,302	0,101	-0,167
-391,321	-200,000	0,031	-0,115
-390,306	800,000	-0,074	0,199
-389,292	800,000	0,031	-0,094
-388,277	104,412	0,109	0,093
-387,263	-200,000	-0,014	0,048
-386,248	-200,000	-0,016	0,094
-385,233	312,794	-0,065	-0,089
-384,219	-200,000	-0,025	-0,204
-383,204	-31,442	-0,061	-0,025
-382,190	8,724	-0,121	0,066
-381,175	76,652	-0,105	-0,081
-380,160	116,694	0,079	0,071
-379,146	-200,000	-0,041	0,218
-378,131	-108,168	0,093	0,014
-377,117	800,000	0,033	-0,071
-376,102	-54,764	-0,097	-0,031
-375,088	800,000	0,051	-0,132
-374,073	-56,075	-0,070	-0,022
-373,058	176,826	0,101	0,107
-372,044	479,269	0,029	0,048
-371,029	-134,094	0,121	0,011
-370,015	137,282	0,037	-0,035
-369,000	-112,422	0,067	-0,010
-367,985	-200,000	-0,011	-0,157
-366,971	391,820	-0,101	-0,153
-365,956	423,453	0,061	0,095
-364,942	-200,000	0,004	-0,016
-363,927	3,550	-0,008	-0,004
-362,912	-200,000	-0,026	0,142
-361,898	-53,138	-0,071	-0,024
-360,883	46,711	-0,024	0,016
-359,869	337,693	-0,044	-0,063
-358,854	800,000	0,032	0,081
-357,839	-165,907	0,069	0,002
-356,825	95,023	-0,115	0,095
-355,810	-200,000	0,010	0,146
-354,796	74,271	0,055	0,042
-353,781	-200,000	0,030	-0,223
-352,766	47,108	0,053	0,036
-351,752	-200,000	-0,028	-0,105
-350,737	242,300	0,052	0,063
-349,723	800,000	0,031	0,070
-348,708	-200,000	0,011	0,065
-347,693	-72,033	0,090	-0,024
-346,679	238,075	-0,083	-0,100
-345,664	800,000	-0,019	0,039
-344,650	9,235	0,108	-0,059
-343,635	-200,000	-0,012	0,083
-342,620	-182,855	-0,090	-0,001
-341,606	71,163	0,037	-0,027
-340,591	-71,164	-0,135	-0,037
-339,577	-75,730	-0,110	-0,028
-338,562	439,350	-0,043	-0,068
-337,548	800,000	0,026	0,059
-336,533	3,470	0,086	-0,045
-335,518	427,444	-0,041	-0,065
-334,504	-200,000	0,014	-0,131
-333,489	62,732	-0,144	-0,104
-332,475	143,368	-0,160	-0,155
-331,460	-200,000	-0,003	0,099
-330,445	-127,288	-0,017	0,002
-329,431	-85,367	-0,030	-0,007
-328,416	-200,000	-0,021	0,213
-327,402	800,000	0,016	0,038
-326,387	310,801	-0,025	0,034
-325,372	-149,459	-0,081	-0,005
-324,358	26,814	-0,050	-0,030
-323,343	-126,510	-0,054	0,006
-322,329	-200,000	-0,029	0,124
-321,314	-67,562	0,067	0,019
-320,299	-86,552	0,083	-0,018
-319,285	-106,534	-0,106	0,017
-318,270	542,731	-0,022	0,037
-317,256	-4,935	-0,086	-0,043
-316,241	-200,000	-0,039	0,155
-315,226	34,456	0,079	0,050
-314,212	-200,000	-0,012	0,044
-313,197	459,398	0,103	0,166
-312,183	-6,892	0,048	0,024
-311,168	800,000	0,026	-0,074
-310,153	355,003	0,052	-0,075
-309,139	-200,000	0,014	0,171
-308,124	-113,808	-0,027	0,004
-307,110	-179,387	-0,122	0,002
-306,095	376,089	-0,047	0,070
-305,080	-200,000	-0,003	0,029
-304,066	-163,032	-0,143	-0,005
-303,051	800,000	-0,011	-0,022
-302,037	-200,000	-0,012	0,057
-301,022	74,504	0,090	-0,069
-300,008	-46,071	-0,052	-0,018
-298,993	203,991	0,101	0,113
-297,978	34,102	0,047	0,030
-296,964	-83,404	-0,121	0,028
-295,949	235,730	-0,075	-0,090
-294,935	-7,925	0,063	0,030
-293,920	800,000	0,016	0,039
-292,905	800,000	0,035	0,078
-291,891	77,216	0,009	-0,007
-290,876	-41,439	-0,103	0,038
-289,862	453,385	-0,025	-0,040
-288,847	-48,553	0,007	-0,002
-287,832	61,119	0,114	-0,082
-286,818	-200,000	0,005	-0,056
-285,803	120,124	-0,044	0,039
-284,789	-200,000	0,022	0,123
-283,774	-78,627	0,114	-0,028
-282,759	-200,000	-0,026	0,091
-281,745	234,533	-0,034	0,040
-280,730	-188,206	-0,055	0,000
-279,716	124,180	0,050	0,045
-278,701	800,000	-0,020	0,062
-277,686	-66,485	0,120	0,034
-276,672	324,273	0,063	-0,087
-275,657	61,764	-0,034	-0,024
-274,643	-200,000	-0,004	0,053
-273,628	-200,000	-0,005	0,049
-272,613	-42,063	-0,097	0,036
-271,599	14,286	0,086	0,048
-270,584	-200,000	-0,029	0,097
-269,570	-35,264	0,079	0,031
-268,555	0,956	0,076	-0,039
-267,540	800,000	-0,037	-0,092
-266,526	-200,000	-0,002	-0,020
-265,511	-200,000	-0,005	-0,061
-264,497	800,000	-0,009	-0,029
-263,482	375,351	0,060	-0,089
-262,467	-200,000	-0,002	-0,075
-261,453	-41,525	0,115	0,042
-260,438	308,750	-0,052	0,070
-259,424	-200,000	0,010	0,056
-258,409	-152,057	-0,041	-0,002
-257,395	184,657	-0,089	0,096
-256,380	-135,508	0,105	0,009
-255,365	125,306	-0,038	-0,035
-254,351	632,588	-0,053	-0,098
-253,336	-97,848	-0,026	0,005
-252,322	-200,000	-0,008	-0,112
-251,307	-200,000	0,024	-0,126
-250,292	-200,000	0,008	-0,031
-249,278	10,845	0,152	0,083
-248,263	191,696	-0,093	0,101
-247,249	-200,000	0,004	0,087
-246,234	-200,000	-0,015	-0,054
-245,219	758,879	-0,040	-0,078
-244,205	-112,735	-0,111	0,016
-243,190	800,000	0,020	0,055
-242,176	108,530	0,043	0,037
-241,161	800,000	0,030	-0,088
-240,146	250,809	-0,044	0,054
-239,132	-200,000	-0,005	0,094
-238,117	-200,000	-0,036	-0,147
-237,103	-200,000	-0,003	-0,087
-236,088	-58,812	0,113	-0,035
-235,073	-6,431	0,065	0,032
-234,059	-20,773	-0,117	0,052
-233,044	-127,605	0,069	-0,007
-232,030	53,578	0,036	0,025
-231,015	30,653	0,067	0,041
-230,000	154,952	-0,062	-0,062
-228,986	-124,690	0,022	-0,002
-227,971	150,738	-0,098	0,096
-226,957	-104,140	0,154	-0,026
-225,942	140,339	-0,073	0,069
-224,927	32,598	0,144	0,090
-223,913	110,188	0,067	-0,058
-222,898	-200,000	0,001	-0,176
-221,884	-82,702	0,110	-0,025
-220,869	-172,903	0,096	0,002
-219,855	-200,000	-0,002	-0,015
-218,840	800,000	0,051	0,144
-217,825	800,000	-0,044	-0,094
-216,811	800,000	0,074	-0,180
-215,796	-200,000	-0,022	-0,126
-214,782	1,815	0,153	0,079
-213,767	630,961	0,052	0,095
-212,752	562,843	0,028	0,050
-211,738	-135,893	-0,034	-0,003
-210,723	-200,000	0,005	0,145
-209,709	-3,844	-0,105	0,052
-208,694	-200,000	0,011	0,110
-207,679	318,696	0,140	0,191
-206,665	49,758	-0,079	-0,054
-205,650	-90,439	0,025	-0,005
-204,636	-200,000	-0,022	0,124
-203,621	106,771	-0,056	0,048
-202,606	-131,063	-0,104	0,010
-201,592	105,284	0,094	-0,080
-200,577	-200,000	0,012	-0,051
-199,563	259,389	0,112	0,139
-198,548	800,000	0,039	-0,110
-197,533	229,154	0,057	-0,068
-196,519	-200,000	-0,012	-0,148
-195,504	-103,389	0,088	-0,015
-194,490	185,147	-0,117	0,126
-193,475	800,000	-0,005	0,013
-192,460	-200,000	0,004	-0,065
-191,446	-200,000	0,000	0,013
-190,431	-70,769	0,102	0,027
-189,417	81,534	0,096	0,075
-188,402	76,576	-0,072	-0,055
-187,387	-39,411	-0,061	-0,023
-186,373	-200,000	0,018	-0,139
-185,358	-26,075	-0,077	0,032
-184,344	-117,917	0,109	0,014
-183,329	-200,000	0,008	-0,037
-182,315	800,000	-0,012	-0,026
-181,300	-32,646	-0,078	0,031
-180,285	9,299	-0,094	-0,051
-179,271	-0,033	0,063	-0,032
-178,256	-200,000	0,003	-0,023
-177,242	-52,082	-0,079	0,026
-176,227	560,810	0,113	0,197
-175,212	-200,000	-0,016	0,075
-174,198	26,369	0,099	0,060
-173,183	-200,000	-0,013	0,051
-172,169	800,000	0,059	-0,158
-171,154	-9,703	0,075	-0,036
-170,139	800,000	0,023	0,071
-169,125	194,559	0,063	0,069
-168,110	-101,550	-0,025	-0,004
-167,096	-59,515	0,054	-0,017
-166,081	-0,719	0,181	0,092
-165,066	783,238	-0,046	-0,090
-164,052	79,286	-0,054	-0,042
-163,037	-103,236	-0,048	0,008
-162,023	12,628	-0,116	0,064
-161,008	-121,258	0,104	-0,012
-159,993	-158,232	0,038	-0,002
-158,979	-200,000	-0,002	-0,019
-157,964	800,000	0,028	-0,056
-156,950	-55,693	-0,041	0,013
-155,935	800,000	0,039	0,092
-154,920	-25,711	0,069	-0,029
-153,906	-200,000	-0,016	0,090
-152,891	-200,000	-0,003	-0,113
-151,877	-47,692	-0,145	-0,050
-150,862	-89,774	-0,051	-0,011
-149,847	-14,849	-0,035	-0,016
-148,833	-200,000	0,019	0,066
-147,818	-163,333	0,130	-0,004
-146,804	-200,000	-0,014	0,081
-145,789	-200,000	-0,003	-0,021
-144,775	-200,000	-0,002	0,052
-143,760	-119,988	-0,097	0,012
-142,745	800,000	0,025	-0,061
-141,731	-200,000	0,001	-0,020
-140,716	800,000	0,051	0,157
-139,702	800,000	0,066	0,136
-138,687	-200,000	-0,025	-0,179
-137,672	250,412	0,089	-0,109
-136,658	-81,919	-0,039	-0,009
-135,643	-200,000	0,005	0,071
-134,629	-6,479	-0,036	-0,018
-133,614	-200,000	-0,028	0,147
-132,599	-116,708	0,125	0,016
-131,585	-129,974	-0,080	-0,008
-130,570	136,590	-0,095	0,089
-129,556	-90,051	-0,126	-0,026
-128,541	-12,039	-0,038	0,018
-127,526	-131,628	0,132	-0,012
-126,512	-100,893	0,109	-0,019
-125,497	-89,673	0,087	-0,018
-124,483	144,042	0,090	0,086
-123,468	191,054	0,088	-0,095
-122,453	191,541	0,036	-0,038
-121,439	349,602	-0,033	-0,047
-120,424	800,000	-0,014	-0,031
-119,410	800,000	-0,012	-0,033
-118,395	-44,622	0,141	0,050
-117,380	146,518	-0,052	0,050
-116,366	800,000	-0,005	0,012
-115,351	800,000	-0,050	0,114
-114,337	-130,950	-0,120	0,011
-113,322	800,000	-0,004	-0,007
-112,307	544,889	-0,077	0,133
-111,293	64,858	0,024	-0,017
-110,278	101,605	0,057	-0,047
-109,264	-38,094	-0,059	-0,023
-108,249	187,804	0,026	0,028
-107,234	-51,194	-0,137	0,046
-106,220	275,284	0,035	-0,045
-105,205	800,000	-0,027	0,079
-104,191	127,312	-0,050	-0,046
-103,176	184,191	-0,083	-0,089
-102,162	-200,000	0,016	-0,060
-101,147	-55,250	0,045	-0,014
-100,132	32,334	-0,057	0,035
-99,118	-24,705	0,042	0,018
-98,103	-200,000	-0,001	0,052
-97,089	528,583	-0,044	0,075
-96,074	758,198	0,056	-0,110
-95,059	441,429	0,068	-0,107
-94,045	-29,800	0,036	-0,015
-93,030	164,624	-0,180	-0,182
-92,016	52,540	0,156	-0,107
-91,001	144,582	0,029	-0,028
-89,986	-78,453	-0,075	-0,018
-88,972	-200,000	0,008	-0,047
-87,957	304,864	0,074	-0,098
-86,943	445,107	-0,088	0,139
-85,928	307,272	0,022	-0,029
-84,913	800,000	-0,021	-0,062
-83,899	-200,000	-0,037	-0,132
-82,884	-149,493	0,084	0,005
-81,870	62,586	0,082	0,058
-80,855	-200,000	-0,030	-0,128
-79,840	800,000	0,039	-0,079
-78,826	-154,768	-0,119	0,006
-77,811	-55,043	-0,051	-0,016
-76,797	567,942	0,052	-0,091
-75,782	239,709	-0,032	-0,039
-74,767	-1,031	-0,175	-0,089
-73,753	-200,000	-0,022	0,083
-72,738	-160,057	-0,134	0,005
-71,724	112,889	0,018	0,015
-70,709	-66,775	-0,038	0,011
-69,694	800,000	0,019	0,046
-68,680	-18,590	0,067	0,030
-67,665	153,575	0,041	-0,040
-66,651	-57,507	0,093	-0,029
-65,636	632,884	-0,062	0,113
-64,622	-137,886	0,055	0,004
-63,607	3,993	-0,128	0,067
-62,592	-31,231	0,029	-0,012
-61,578	-67,802	-0,100	0,028
-60,563	-12,400	0,081	-0,038
-59,549	-90,558	-0,089	0,018
-58,534	39,006	-2,065	-1,320
-57,519	-200,000	-0,091	-0,763
-56,505	-200,000	-1,342	-5,042
-55,490	14,533	0,939	0,524
-54,476	800,000	5,455	12,045
-53,461	-200,000	18,272	293,653
-52,446	800,000	729,794	2228,566
-51,432	530,645	1643,015	2792,245
-50,417	107,902	1632,074	1392,544
-49,403	72,543	1283,694	957,900
-48,388	30,694	1024,776	626,750
-47,373	19,760	986,607	567,488
-46,359	17,852	974,410	554,223
-45,344	14,747	970,535	541,878
-44,330	15,022	969,004	541,898
-43,315	14,428	967,160	538,913
-42,300	14,437	966,111	538,339
-41,286	14,407	965,349	537,794
-40,271	14,398	964,172	537,087
-39,257	14,449	963,372	536,785
-38,242	14,413	962,585	536,209
-37,227	14,443	961,516	535,688
-36,213	14,469	960,706	535,300
-35,198	14,391	959,824	534,537
-34,184	14,464	959,049	534,320
-33,169	14,420	958,177	533,669
-32,154	14,448	957,132	533,156
-31,140	14,457	956,355	532,732
-30,125	14,412	955,575	532,132
-29,111	14,489	954,732	531,889
-28,096	14,447	954,222	531,448
-27,082	14,388	953,630	530,910
-26,067	14,488	952,713	530,698
-25,052	14,465	951,841	530,118
-24,038	14,437	951,281	529,695
-23,023	14,486	950,613	529,459
-22,009	14,458	949,970	528,990
-20,994	14,505	949,257	528,720
-19,979	14,488	948,804	528,393
-18,965	14,504	948,040	527,998
-17,950	14,513	947,448	527,675
-16,936	14,442	946,776	527,056
-15,921	14,406	946,165	526,578
-14,906	14,339	945,331	525,883
-13,892	14,383	944,835	525,725
-12,877	14,374	944,253	525,353
-11,863	14,324	943,673	524,849
-10,848	14,321	943,250	524,583
-9,833	14,473	942,613	524,691
-8,819	14,351	941,956	523,917
-7,804	14,397	941,288	523,670
-6,790	14,368	940,713	523,238
-5,775	14,387	940,194	522,989
-4,760	14,438	939,428	522,702
-3,746	14,359	938,802	522,086
-2,731	14,176	938,370	521,247
-1,717	14,184	937,398	520,713
-0,702	14,125	936,904	520,231
0,313	14,043	936,210	520,374
1,327	17,586	934,206	530,328
2,342	27,053	787,302	471,759
3,356	23,782	442,939	260,572
4,371	-5,446	294,804	144,333
5,386	-9,312	276,724	131,817
6,400	-10,536	270,989	127,941
7,415	-10,705	268,804	126,743
8,429	-11,001	267,302	125,753
9,444	-10,947	266,450	125,389
10,459	-11,136	265,919	124,957
11,473	-11,074	265,191	124,660
12,488	-11,054	264,618	124,398
13,502	-11,310	263,979	123,856
14,517	-11,327	263,598	123,650
15,531	-11,517	263,314	123,335
16,546	-11,287	262,807	123,293
17,561	-11,344	262,485	123,080
18,575	-11,318	262,225	122,970
19,590	-11,429	261,757	122,641
20,604	-11,296	261,499	122,628
21,619	-11,371	261,054	122,341
22,634	-11,334	260,754	122,223
23,648	-11,516	260,421	121,894
24,663	-11,542	260,173	121,744
25,677	-11,421	259,989	121,754
26,692	-11,419	259,834	121,672
27,707	-11,271	259,293	121,539
28,721	-11,432	259,151	121,320
29,736	-11,604	258,924	121,051
30,750	-11,690	258,603	120,814
31,765	-11,595	258,413	120,798
32,780	-11,609	258,075	120,617
33,794	-11,318	257,806	120,737
34,809	-11,568	257,722	120,467
35,823	-11,600	257,498	120,323
36,838	-11,479	257,245	120,300
37,853	-11,744	257,049	119,965
38,867	-11,754	256,705	119,785
39,882	-11,680	256,442	119,717
40,896	-11,671	256,297	119,647
41,911	-11,552	255,978	119,591
42,926	-11,696	255,924	119,429
43,940	-11,662	255,402	119,205
44,955	-11,752	255,379	119,105
45,969	-11,973	255,194	118,816
46,984	-11,889	254,821	118,705
47,999	-12,330	254,505	118,164
49,013	-12,221	254,270	118,139
50,028	-12,421	254,119	117,886
51,042	-12,517	253,858	117,671
52,057	-12,592	253,597	117,474
53,071	-12,476	253,416	117,480
54,086	-12,227	253,191	117,580
55,101	-12,204	253,022	117,511
56,115	-11,992	252,811	117,585
57,130	-11,538	252,845	117,981
58,144	-11,149	252,702	118,238
59,159	-11,360	252,589	117,994
60,174	-11,203	252,232	117,950
61,188	-11,298	252,002	117,752
62,203	-11,454	251,824	117,525
63,217	-11,397	251,582	117,449
64,232	-11,489	251,360	117,257
65,247	-11,201	251,230	117,431
66,261	-11,351	250,885	117,132
67,276	-11,593	250,520	116,745
68,290	-12,012	250,433	116,337
69,305	-12,055	250,097	116,134
70,320	-11,932	249,890	116,133
71,334	-11,773	249,770	116,201
72,349	-11,323	249,598	116,493
73,363	-11,293	249,431	116,430
74,378	-11,384	249,331	116,296
75,393	-11,258	249,036	116,254
76,407	-11,436	248,903	116,031
77,422	-11,439	248,636	115,894
78,436	-11,433	248,407	115,782
79,451	-11,296	248,191	115,786
80,466	-11,717	248,044	115,353
81,480	-11,526	247,689	115,338
82,495	-11,810	247,398	114,954
83,509	-11,911	247,430	114,873
84,524	-11,738	247,200	114,901
85,539	-12,162	246,850	114,373
86,553	-11,895	246,562	114,454
87,568	-11,981	246,533	114,357
88,582	-11,778	246,340	114,428
89,597	-12,065	246,270	114,145
90,611	-11,567	245,920	114,388
91,626	-11,445	245,823	114,435
92,641	-11,588	245,685	114,241
93,655	-11,661	245,427	114,050
94,670	-11,612	245,150	113,952
95,684	-11,741	245,168	113,843
96,699	-11,655	244,685	113,680
97,714	-11,760	244,627	113,556
98,728	-11,806	244,336	113,372
99,743	-12,044	244,109	113,060
100,757	-12,052	243,990	112,988
101,772	-11,771	243,819	113,131
102,787	-11,774	243,628	113,030
103,801	-11,705	243,534	113,033
104,816	-11,691	243,268	112,911
105,830	-11,537	243,274	113,031
106,845	-11,490	243,197	113,024
107,860	-11,526	242,814	112,806
108,874	-11,621	242,544	112,593
109,889	-11,624	242,420	112,522
110,903	-11,701	242,204	112,348
111,918	-11,704	241,936	112,212
112,933	-11,711	241,901	112,180
113,947	-11,572	241,580	112,135
114,962	-11,478	241,480	112,155
115,976	-11,635	241,298	111,932
116,991	-11,602	241,078	111,847
118,006	-11,576	241,030	111,836
119,020	-11,570	240,945	111,791
120,035	-11,619	240,867	111,706
121,049	-11,331	240,652	111,831
122,064	-11,575	240,524	111,562
123,079	-11,480	240,183	111,471
124,093	-11,740	240,025	111,178
125,108	-11,814	239,749	110,979
126,122	-11,934	239,472	110,744
127,137	-12,106	239,252	110,493
128,151	-12,002	239,050	110,474
129,166	-11,976	238,835	110,386
130,181	-11,970	238,710	110,323
131,195	-11,872	238,587	110,335
132,210	-11,631	238,479	110,470
133,224	-11,727	238,371	110,333
134,239	-11,613	238,194	110,333
135,254	-11,597	238,048	110,269
136,268	-11,591	237,641	110,075
137,283	-11,927	237,531	109,744
138,297	-11,891	237,191	109,606
139,312	-12,160	237,135	109,355
140,327	-11,699	236,953	109,631
141,341	-11,119	237,045	110,127
142,356	-11,093	236,780	110,016
143,370	-11,088	236,648	109,949
144,385	-11,022	236,526	109,934
145,400	-11,109	236,320	109,760
146,414	-11,237	236,117	109,553
147,429	-11,175	236,003	109,540
148,443	-11,385	235,795	109,266
149,458	-11,126	235,607	109,376
150,473	-11,232	235,634	109,295
151,487	-11,262	235,344	109,127
152,502	-11,340	235,221	108,998
153,516	-11,187	235,008	109,011
154,531	-11,224	234,826	108,888
155,546	-11,203	234,602	108,791
156,560	-11,413	234,518	108,576
157,575	-11,331	234,143	108,457
158,589	-11,391	234,072	108,367
159,604	-11,094	233,950	108,535
160,619	-11,117	233,830	108,452
161,633	-11,096	233,599	108,352
162,648	-11,071	233,550	108,339
163,662	-11,248	233,330	108,088
164,677	-11,233	233,105	107,986
165,692	-11,328	233,182	107,937
166,706	-10,957	232,982	108,126
167,721	-11,017	232,742	107,958
168,735	-10,973	232,631	107,931
169,750	-11,092	232,426	107,734
170,764	-11,149	232,377	107,656
171,779	-11,127	232,120	107,545
172,794	-11,127	232,109	107,530
173,808	-11,198	231,885	107,362
174,823	-11,839	231,427	106,640
175,837	-11,979	231,148	106,393
176,852	-11,387	231,219	106,878
177,867	-11,124	231,289	107,105
178,881	-11,107	231,040	106,993
179,896	-11,061	230,822	106,919
180,910	-10,952	230,745	106,958
181,925	-11,021	230,450	106,758
182,940	-11,065	230,406	106,694
183,954	-10,845	230,331	106,821
184,969	-10,998	230,183	106,624
185,983	-11,019	229,990	106,509
186,998	-10,810	229,778	106,562
188,013	-10,990	229,765	106,408
189,027	-10,848	229,503	106,387
190,042	-10,728	229,154	106,308
191,056	-10,771	229,242	106,306
192,071	-10,830	229,031	106,154
193,086	-10,809	229,034	106,161
194,100	-10,572	228,877	106,262
195,115	-10,651	228,477	106,006
196,129	-10,483	228,611	106,188
197,144	-5,574	230,135	110,678
198,159	-0,712	231,722	115,204
199,173	2,373	232,527	117,990
200,188	2,783	232,400	118,233
201,202	3,114	232,226	118,390
202,217	3,269	232,113	118,441
203,232	3,525	232,155	118,651
204,246	3,552	232,018	118,592
205,261	3,603	231,996	118,609
206,275	3,888	231,872	118,755
207,290	3,627	231,840	118,526
208,304	3,802	231,476	118,465
209,319	3,814	231,230	118,338
210,334	3,862	231,065	118,279
211,348	3,382	230,951	117,842
212,363	3,273	230,496	117,515
213,377	2,867	230,393	117,141
214,392	2,831	230,352	117,081
215,407	2,909	230,227	117,068
216,421	3,075	230,059	117,099
217,436	3,118	229,670	116,923
218,450	2,736	229,563	116,566
219,465	2,760	229,414	116,499
220,480	2,782	229,311	116,452
221,494	2,785	229,060	116,317
222,509	2,983	229,089	116,473
223,523	3,090	228,961	116,478
224,538	2,809	228,718	116,130
225,553	2,894	228,620	116,135
226,567	2,943	228,492	116,097
227,582	3,329	228,347	116,306
228,596	3,390	228,462	116,401
229,611	3,042	228,162	115,973
230,626	2,865	227,812	115,651
231,640	2,741	227,678	115,479
232,655	3,289	227,655	115,872
233,669	3,529	227,571	116,000
234,684	3,707	227,498	116,087
235,699	3,514	227,261	115,810
236,713	3,109	226,949	115,335
237,728	2,841	226,745	115,020
238,742	2,855	226,630	114,961
239,757	3,075	226,535	115,068
240,772	2,909	226,426	114,878
241,786	2,718	226,314	114,667
242,801	3,049	226,251	114,874
243,815	3,310	226,132	114,999
244,830	3,352	226,140	115,025
245,844	2,992	225,630	114,485
246,859	3,253	225,435	114,572
247,874	3,016	225,532	114,433
248,888	3,414	225,270	114,588
249,903	3,089	225,192	114,295
250,917	3,025	224,875	114,076
251,932	2,973	224,729	113,953
252,947	2,600	224,762	113,681
253,961	2,736	224,544	113,662
254,976	2,878	224,289	113,628
255,990	2,862	224,372	113,649
257,005	3,108	224,116	113,692
258,020	3,176	223,953	113,649
259,034	3,279	223,935	113,706
260,049	3,080	223,733	113,447
261,063	3,165	223,554	113,408
262,078	3,330	223,484	113,485
263,093	3,379	223,372	113,454
264,107	3,272	223,063	113,208
265,122	3,430	223,130	113,349
266,136	3,343	222,990	113,203
267,151	3,573	222,710	113,221
268,166	3,088	222,493	112,742
269,180	2,743	222,352	112,407
270,195	2,821	222,152	112,353
271,209	2,806	221,985	112,248
272,224	2,879	221,988	112,293
273,239	2,907	221,835	112,226
274,253	3,021	221,608	112,185
275,268	2,929	221,461	112,033
276,282	2,657	221,233	111,708
277,297	2,615	221,093	111,598
278,312	2,807	221,129	111,745
279,326	2,862	220,985	111,703
280,341	3,031	220,822	111,735
281,355	3,069	220,595	111,638
282,370	3,024	220,555	111,574
283,384	2,565	220,262	111,082
284,399	2,618	220,165	111,062
285,414	2,614	219,920	110,925
286,428	2,926	220,028	111,197
287,443	3,111	219,922	111,268
288,457	3,088	219,712	111,135
289,472	2,895	219,517	110,886
290,487	2,562	219,276	110,514
291,501	2,222	219,177	110,207
292,516	2,650	219,043	110,439
293,530	2,704	218,942	110,418
294,545	2,669	218,781	110,301
295,560	3,049	218,581	110,466
296,574	2,927	218,429	110,291
297,589	2,942	218,351	110,253
298,603	3,088	218,324	110,334
299,618	3,127	218,155	110,267
300,633	3,118	218,045	110,196
301,647	2,951	218,028	110,057
302,662	3,387	217,845	110,269
303,676	3,190	217,607	109,996
304,691	3,189	217,523	109,944
305,706	3,258	217,430	109,936
306,720	3,257	217,262	109,841
307,735	3,022	216,998	109,529
308,749	2,814	216,826	109,283
309,764	3,223	216,608	109,457
310,779	3,367	216,669	109,581
311,793	3,055	216,595	109,311
312,808	3,041	216,315	109,149
313,822	3,039	216,183	109,071
314,837	3,098	215,909	108,965
315,852	2,853	215,846	108,749
316,866	2,980	215,771	108,793
317,881	3,154	215,790	108,916
318,895	3,302	215,383	108,806
319,910	3,002	215,303	108,543
320,925	2,759	215,139	108,278
321,939	2,548	214,869	107,983
322,954	2,625	214,932	108,060
323,968	3,039	214,981	108,368
324,983	3,216	214,727	108,356
325,997	3,135	214,616	108,233
327,012	3,124	214,439	108,127
328,027	3,026	214,361	108,008
329,041	3,204	214,288	108,087
330,056	3,243	214,295	108,109
331,070	2,828	213,786	107,550
332,085	2,575	213,616	107,277
333,100	2,722	213,506	107,315
334,114	2,928	213,442	107,419
335,129	3,222	213,328	107,558
336,143	3,110	213,094	107,352
337,158	2,966	213,161	107,275
338,173	3,226	212,810	107,271
339,187	2,989	212,720	107,050
340,202	2,819	212,530	106,826
341,216	2,786	212,375	106,715
342,231	2,955	212,266	106,769
343,246	3,054	212,094	106,743
344,260	2,815	212,170	106,604
345,275	3,044	212,068	106,703
346,289	3,266	211,940	106,784
347,304	3,190	211,622	106,561
348,319	2,959	211,513	106,336
349,333	3,162	211,207	106,314
350,348	3,287	211,162	106,369
351,362	3,150	211,256	106,311
352,377	3,238	211,045	106,257
353,392	2,963	210,991	106,029
354,406	3,057	210,875	106,027
355,421	196,766	1337,517	1416,460
356,435	157,222	1474,744	1416,421
