DTS Sentinel unit serial number:	SN410029Multiplexer serial number:	ORYXHardware model number:	OX2-SRSoftware version number:	ORYX F/W v4,00 Oryx Data Collector v3.7.2.0data status	okinstallation	B6 Nyhavnadifferential loss correction	single-endedforward channel	channel 2reverse channel	N/Adate	2023/12/09time	07:10:08forward acquisition time	300,00reverse acquisition time	0,00gamma	499,1914k internal	0,3139k external	0,3139temperature offset calibration	1,0000default loss term (dB/km)	0,3820temperature slope calibration	1,0000multiplexer offset coefficient	1,0000multiplexer slope coefficient	1,0000fibre end	0,00T internal ref (°C)	18,57T ext. ref 1 (°C)	2,06T ext. ref 2 (°C)	2,05length (m)	temperature (°C)	Stokes	anti-Stokes-744,400	315,122	-0,092	0,128
-743,385	-87,612	-0,294	0,065
-742,371	-48,509	0,132	0,047
-741,356	-15,493	-0,208	0,098
-740,342	39,037	-0,056	0,037
-739,327	-161,831	-0,243	0,009
-738,312	149,635	0,058	0,058
-737,298	-103,981	-0,280	0,048
-736,283	-85,310	0,103	-0,024
-735,269	-8,467	-0,234	0,116
-734,254	800,000	-0,019	-0,044
-733,239	-19,370	-0,453	-0,208
-732,225	-133,963	0,075	0,007
-731,210	-118,404	0,115	0,015
-730,196	253,594	-0,069	-0,087
-729,181	-1,205	-0,140	0,073
-728,167	147,118	-0,022	0,022
-727,152	-200,000	-0,015	-0,079
-726,137	800,000	-0,029	0,068
-725,123	-16,030	-0,030	0,014
-724,108	127,886	-0,077	-0,072
-723,094	492,606	-0,057	-0,097
-722,079	652,136	0,013	-0,024
-721,064	-98,145	-0,053	0,010
-720,050	-31,567	0,091	0,038
-719,035	281,260	-0,034	-0,045
-718,021	800,000	-0,017	0,037
-717,006	-3,913	-0,235	-0,120
-715,991	-200,000	-0,026	-0,120
-714,977	-60,885	-0,126	-0,039
-713,962	800,000	-0,024	0,076
-712,948	49,161	-0,055	0,038
-711,933	-70,015	-0,080	0,022
-710,918	-56,449	-0,102	-0,033
-709,904	-74,456	-0,136	0,036
-708,889	34,388	0,059	-0,038
-707,875	332,486	-0,084	-0,121
-706,860	105,388	0,122	-0,107
-705,845	-200,000	0,020	-0,075
-704,831	-200,000	0,010	-0,116
-703,816	268,166	0,032	0,042
-702,802	-140,070	0,084	-0,006
-701,787	-70,908	-0,074	0,021
-700,772	-86,156	-0,078	-0,018
-699,758	-50,732	0,150	-0,052
-698,743	-128,727	-0,116	0,012
-697,729	365,792	0,042	0,062
-696,714	467,697	-0,066	0,110
-695,699	780,891	-0,020	-0,040
-694,685	-200,000	-0,038	-0,136
-693,670	0,568	0,059	-0,031
-692,656	800,000	0,021	-0,056
-691,641	-186,706	0,034	0,000
-690,627	171,307	0,014	-0,015
-689,612	-56,202	0,024	-0,008
-688,597	420,934	0,014	0,022
-687,583	67,228	-0,050	-0,037
-686,568	208,550	0,033	-0,038
-685,554	380,862	-0,025	-0,038
-684,539	-50,419	0,045	0,016
-683,524	112,682	-0,027	-0,024
-682,510	-32,277	-0,070	-0,029
-681,495	-22,715	0,084	-0,038
-680,481	284,996	-0,116	-0,155
-679,466	-200,000	-0,019	0,118
-678,451	-50,419	0,038	0,013
-677,437	128,023	-0,095	-0,090
-676,422	-155,526	-0,120	0,006
-675,408	-125,804	-0,071	-0,008
-674,393	-106,749	-0,085	0,014
-673,378	-124,010	-0,181	-0,021
-672,364	-200,000	-0,014	-0,158
-671,349	-17,231	-0,089	-0,042
-670,335	248,581	-0,013	-0,017
-669,320	249,556	0,030	-0,038
-668,305	-200,000	0,012	0,143
-667,291	67,343	-0,053	-0,040
-666,276	188,089	-0,069	-0,076
-665,262	-200,000	0,009	-0,051
-664,247	800,000	0,046	-0,096
-663,232	2,470	-0,048	0,026
-662,218	51,024	-0,101	0,071
-661,203	-17,526	0,032	-0,015
-660,189	-75,860	-0,049	-0,013
-659,174	113,370	-0,084	-0,075
-658,159	53,415	-0,069	-0,049
-657,145	-200,000	-0,002	0,026
-656,130	-200,000	-0,033	0,117
-655,116	800,000	-0,036	-0,086
-654,101	75,293	0,076	0,059
-653,086	-200,000	0,016	-0,136
-652,072	-200,000	-0,002	-0,049
-651,057	-153,792	-0,112	-0,006
-650,043	-69,937	-0,189	0,053
-649,028	68,815	-0,004	-0,003
-648,014	-200,000	0,007	0,192
-646,999	-89,652	-0,187	0,040
-645,984	800,000	0,025	0,082
-644,970	570,150	-0,019	0,034
-643,955	-123,886	-0,121	-0,014
-642,941	800,000	0,005	-0,017
-641,926	-200,000	-0,021	-0,115
-640,911	-200,000	-0,035	-0,140
-639,897	762,644	-0,043	0,087
-638,882	-126,082	0,097	-0,011
-637,868	-93,478	-0,096	-0,020
-636,853	-200,000	-0,020	-0,082
-635,838	-200,000	-0,029	-0,116
-634,824	-200,000	0,042	-0,144
-633,809	169,383	0,097	-0,103
-632,795	-200,000	0,029	0,187
-631,780	486,965	-0,062	0,105
-630,765	-200,000	-0,009	-0,056
-629,751	800,000	-0,055	-0,113
-628,736	-200,000	0,012	-0,089
-627,722	-116,387	0,104	-0,014
-626,707	31,574	0,055	-0,035
-625,692	18,172	0,111	-0,065
-624,678	-200,000	0,005	0,182
-623,663	150,784	0,081	-0,081
-622,649	43,257	-0,029	-0,020
-621,634	106,794	-0,130	-0,114
-620,619	800,000	-0,034	-0,101
-619,605	137,083	-0,013	0,012
-618,590	-130,466	-0,081	-0,008
-617,576	-63,731	-0,025	0,007
-616,561	-200,000	0,011	-0,078
-615,546	-0,518	-0,100	0,052
-614,532	-151,534	0,101	0,005
-613,517	800,000	0,014	-0,035
-612,503	-78,623	0,152	-0,038
-611,488	87,166	-0,112	0,091
-610,474	23,497	0,091	0,055
-609,459	233,445	0,061	-0,074
-608,444	-200,000	0,000	-0,033
-607,430	24,689	-0,142	-0,086
-606,415	-200,000	0,013	-0,141
-605,401	-200,000	-0,006	-0,067
-604,386	121,453	-0,065	0,060
-603,371	300,530	-0,039	0,053
-602,357	-87,370	0,117	0,026
-601,342	147,203	0,041	0,041
-600,328	98,120	0,109	-0,093
-599,313	-128,485	-0,145	0,015
-598,298	-200,000	-0,003	0,102
-597,284	-8,929	0,115	0,056
-596,269	517,498	0,017	0,030
-595,255	416,514	0,059	-0,093
-594,240	-200,000	-0,006	-0,035
-593,225	-15,756	0,070	0,033
-592,211	-13,078	-0,101	-0,048
-591,196	-88,043	0,146	-0,032
-590,182	395,435	-0,028	-0,044
-589,167	800,000	0,026	0,068
-588,152	50,134	-0,095	0,066
-587,138	-34,414	-0,065	-0,026
-586,123	800,000	0,058	-0,131
-585,109	701,717	0,032	-0,063
-584,094	-200,000	0,017	-0,110
-583,079	-24,095	-0,114	0,050
-582,065	-54,941	-0,119	0,039
-581,050	-200,000	-0,003	-0,065
-580,036	789,826	0,013	-0,026
-579,021	53,522	-0,071	-0,050
-578,006	-197,485	-0,092	-0,000
-576,992	42,377	-0,086	-0,058
-575,977	-200,000	0,000	-0,143
-574,963	364,290	0,081	0,121
-573,948	-81,116	0,090	0,022
-572,934	-200,000	-0,003	-0,030
-571,919	-200,000	-0,017	-0,082
-570,904	-55,526	0,113	0,037
-569,890	153,631	0,086	0,087
-568,875	-66,886	-0,035	0,010
-567,861	-15,506	0,070	-0,033
-566,846	800,000	0,025	0,061
-565,831	-93,848	-0,213	-0,043
-564,817	212,772	0,018	-0,021
-563,802	-43,716	0,052	0,019
-562,788	206,756	0,041	-0,047
-561,773	630,389	0,067	-0,126
-560,758	-168,606	0,091	0,003
-559,744	-200,000	-0,014	0,097
-558,729	122,053	-0,132	-0,121
-557,715	800,000	0,078	-0,221
-556,700	42,200	-0,112	-0,074
-555,685	-37,557	-0,186	-0,073
-554,671	333,121	0,065	-0,092
-553,656	-200,000	-0,013	0,131
-552,642	800,000	-0,020	-0,049
-551,627	326,474	0,095	-0,134
-550,612	-200,000	0,002	-0,102
-549,598	-200,000	-0,008	-0,050
-548,583	-200,000	0,024	-0,081
-547,569	800,000	0,034	-0,105
-546,554	268,937	0,038	0,049
-545,539	-200,000	0,007	0,043
-544,525	114,667	-0,159	0,143
-543,510	259,659	-0,046	0,059
-542,496	8,406	0,113	-0,063
-541,481	-11,112	-0,125	-0,060
-540,466	-200,000	-0,035	0,171
-539,452	-164,827	0,041	0,001
-538,437	-86,005	0,172	-0,039
-537,423	-72,905	-0,048	0,013
-536,408	-200,000	-0,029	0,150
-535,393	800,000	-0,017	0,047
-534,379	-200,000	-0,129	0,000
-533,364	-71,306	-0,031	-0,009
-532,350	-200,000	-0,017	-0,065
-531,335	673,318	0,038	0,073
-530,321	638,166	0,027	0,050
-529,306	21,993	0,081	0,049
-528,291	-200,000	0,014	-0,107
-527,277	-200,000	-0,039	-0,189
-526,262	132,172	-0,013	-0,013
-525,248	-200,000	-0,011	-0,087
-524,233	60,298	0,107	0,078
-523,218	48,146	-0,020	-0,014
-522,204	-200,000	0,018	-0,092
-521,189	206,384	-0,121	0,138
-520,175	-33,487	0,062	-0,025
-519,160	-200,000	0,008	0,104
-518,145	-45,028	0,097	0,035
-517,131	-200,000	0,005	0,038
-516,116	796,472	0,069	0,141
-515,102	-200,000	-0,006	0,047
-514,087	-158,760	-0,146	-0,006
-513,072	253,165	0,027	0,034
-512,058	102,361	0,109	-0,093
-511,043	800,000	-0,008	0,022
-510,029	123,283	0,110	-0,101
-509,014	-200,000	-0,013	0,061
-507,999	31,063	0,114	0,072
-506,985	800,000	-0,022	0,052
-505,970	309,854	-0,039	-0,054
-504,956	301,234	0,058	-0,079
-503,941	-130,861	-0,061	-0,006
-502,926	789,553	0,021	0,043
-501,912	-85,589	0,027	-0,006
-500,897	800,000	-0,007	-0,014
-499,883	-12,021	0,045	-0,022
-498,868	-155,113	-0,100	-0,005
-497,853	800,000	-0,042	-0,108
-496,839	-149,128	0,054	0,003
-495,824	41,694	0,064	-0,042
-494,810	12,181	-0,084	0,047
-493,795	-96,597	-0,093	-0,018
-492,781	800,000	-0,066	-0,163
-491,766	202,403	-0,076	-0,086
-490,751	50,423	0,079	-0,055
-489,737	737,802	-0,017	0,033
-488,722	420,787	0,066	-0,105
-487,708	456,541	0,037	0,060
-486,693	-200,000	0,038	0,183
-485,678	83,168	0,049	-0,039
-484,664	178,123	0,065	-0,069
-483,649	379,287	-0,039	-0,059
-482,635	255,207	0,057	-0,071
-481,620	-61,283	-0,096	-0,030
-480,605	-200,000	0,002	-0,136
-479,591	800,000	-0,053	0,112
-478,576	-200,000	-0,032	0,187
-477,562	-200,000	-0,006	0,043
-476,547	-200,000	0,016	-0,063
-475,532	178,976	-0,107	-0,115
-474,518	22,247	-0,109	-0,065
-473,503	-164,362	0,085	-0,003
-472,489	-200,000	-0,010	0,085
-471,474	800,000	-0,039	-0,105
-470,459	800,000	-0,036	-0,084
-469,445	800,000	-0,044	0,121
-468,430	-200,000	-0,017	0,109
-467,416	800,000	-0,034	0,098
-466,401	140,126	-0,104	-0,101
-465,386	41,657	-0,044	0,029
-464,372	469,248	0,042	-0,070
-463,357	-59,933	-0,132	-0,041
-462,343	98,175	0,052	-0,044
-461,328	800,000	-0,005	-0,012
-460,313	800,000	-0,006	0,014
-459,299	-200,000	-0,020	0,077
-458,284	-200,000	-0,008	0,087
-457,270	-92,189	0,059	-0,012
-456,255	-200,000	-0,021	0,101
-455,241	223,866	0,072	-0,085
-454,226	-75,713	-0,149	0,039
-453,211	670,527	-0,012	-0,024
-452,197	47,466	-0,033	0,022
-451,182	-200,000	0,021	0,069
-450,168	-141,142	-0,044	-0,003
-449,153	-200,000	0,009	-0,139
-448,138	215,898	-0,079	-0,092
-447,124	-164,130	0,185	-0,006
-446,109	-13,761	-0,026	0,012
-445,095	2,041	0,173	0,091
-444,080	-166,867	0,030	0,001
-443,065	284,929	0,016	0,021
-442,051	-58,638	-0,088	0,028
-441,036	-200,000	0,024	-0,104
-440,022	-68,175	-0,210	0,059
-439,007	-1,564	-0,074	-0,038
-437,992	-103,144	0,048	-0,008
-436,978	-55,940	0,070	0,023
-435,963	99,346	0,019	-0,016
-434,949	18,261	-0,196	-0,115
-433,934	-200,000	0,007	0,029
-432,919	-168,280	-0,030	-0,001
-431,905	348,633	0,088	0,128
-430,890	-200,000	0,002	0,045
-429,876	489,684	0,066	0,111
-428,861	407,274	-0,059	0,091
-427,846	-99,419	0,048	0,009
-426,832	217,740	0,074	-0,086
-425,817	-38,526	-0,107	0,041
-424,803	-73,108	-0,091	-0,024
-423,788	-200,000	0,026	-0,095
-422,773	-91,403	0,137	-0,028
-421,759	29,446	-0,025	-0,016
-420,744	176,887	-0,109	0,116
-419,730	-79,767	0,032	-0,008
-418,715	400,000	0,063	-0,098
-417,701	-109,223	0,080	0,012
-416,686	217,929	-0,079	0,093
-415,671	-200,000	0,014	-0,130
-414,657	7,128	0,067	0,037
-413,642	628,785	-0,029	-0,053
-412,628	-200,000	-0,001	0,052
-411,613	89,915	-0,091	0,075
-410,598	800,000	0,016	-0,049
-409,584	-0,024	0,118	0,061
-408,569	-74,652	0,083	0,022
-407,555	-200,000	0,025	0,127
-406,540	-200,000	-0,012	0,062
-405,525	-200,000	0,002	-0,034
-404,511	-134,043	-0,162	-0,014
-403,496	232,881	-0,070	0,084
-402,482	-43,574	0,135	-0,050
-401,467	83,565	0,084	-0,067
-400,452	441,936	0,025	0,040
-399,438	-200,000	0,004	0,118
-398,423	143,970	-0,128	0,125
-397,409	-200,000	0,006	-0,047
-396,394	-51,311	0,039	0,013
-395,379	219,935	0,076	-0,089
-394,365	-8,968	-0,062	-0,030
-393,350	-200,000	0,004	0,184
-392,336	-106,123	-0,086	0,014
-391,321	-200,000	-0,002	-0,064
-390,306	202,759	-0,055	0,062
-389,292	-73,468	0,055	-0,015
-388,277	800,000	0,013	-0,033
-387,263	800,000	0,015	0,037
-386,248	-200,000	-0,031	-0,108
-385,233	-56,576	0,061	-0,020
-384,219	800,000	-0,011	-0,024
-383,204	-48,593	-0,049	0,017
-382,190	33,094	-0,098	0,062
-381,175	800,000	0,014	-0,042
-380,160	800,000	-0,028	-0,059
-379,146	154,133	0,141	0,142
-378,131	-200,000	-0,006	0,160
-377,117	202,214	-0,084	-0,095
-376,102	-200,000	0,002	-0,029
-375,088	-194,798	0,172	-0,001
-374,073	26,140	-0,132	-0,080
-373,058	125,400	-0,038	0,035
-372,044	-200,000	-0,009	-0,054
-371,029	274,713	-0,060	0,078
-370,015	272,864	-0,034	0,044
-369,000	-98,919	0,143	-0,026
-367,985	-147,367	-0,073	0,004
-366,971	-200,000	0,014	-0,176
-365,956	-134,037	0,108	0,010
-364,942	351,309	0,085	0,123
-363,927	321,618	-0,030	-0,042
-362,912	-145,797	-0,061	0,004
-361,898	-72,775	-0,072	0,019
-360,883	-200,000	0,000	-0,054
-359,869	-200,000	0,001	-0,118
-358,854	440,298	0,054	-0,087
-357,839	-57,104	0,103	0,033
-356,825	440,696	0,089	-0,143
-355,810	547,158	0,080	0,140
-354,796	31,036	-0,076	-0,047
-353,781	796,210	0,035	-0,071
-352,766	599,471	0,103	-0,187
-351,752	116,168	-0,049	0,044
-350,737	367,311	0,053	0,079
-349,723	-200,000	-0,005	0,036
-348,708	566,540	0,059	0,105
-347,693	11,149	0,052	-0,029
-346,679	-200,000	0,011	0,072
-345,664	145,450	-0,110	0,108
-344,650	-20,815	0,176	-0,079
-343,635	-32,811	-0,096	-0,039
-342,620	-200,000	0,000	-0,167
-341,606	-113,136	0,051	0,007
-340,591	-143,470	-0,088	-0,006
-339,577	46,290	-0,158	-0,107
-338,562	-56,664	-0,069	0,022
-337,548	25,119	0,146	-0,088
-336,533	105,461	-0,049	-0,043
-335,518	-156,860	0,115	-0,005
-334,504	145,225	-0,102	0,100
-333,489	355,306	-0,079	0,116
-332,475	-65,960	-0,099	-0,029
-331,460	-91,877	0,083	0,017
-330,445	172,935	-0,074	-0,078
-329,431	800,000	-0,008	-0,021
-328,416	56,302	-0,052	0,037
-327,402	-200,000	0,006	0,055
-326,387	-114,784	0,115	0,016
-325,372	116,190	0,105	0,094
-324,358	800,000	0,020	-0,051
-323,343	6,247	0,030	-0,016
-322,329	-200,000	0,011	0,054
-321,314	-124,834	-0,100	-0,011
-320,299	800,000	0,008	-0,021
-319,285	129,360	-0,055	-0,051
-318,270	140,136	0,076	-0,074
-317,256	267,140	0,043	-0,055
-316,241	505,006	-0,054	0,091
-315,226	264,523	0,086	0,109
-314,212	302,907	0,025	-0,033
-313,197	-144,184	-0,087	0,006
-312,183	562,951	0,075	0,133
-311,168	-42,550	-0,078	0,029
-310,153	252,373	-0,065	-0,081
-309,139	-36,464	0,047	-0,019
-308,124	-19,798	0,021	-0,009
-307,110	123,859	0,037	0,033
-306,095	518,693	0,056	0,097
-305,080	4,366	0,159	0,085
-304,066	425,939	-0,146	-0,231
-303,051	-70,832	0,064	-0,017
-302,037	191,380	-0,057	-0,062
-301,022	-120,020	0,115	-0,014
-300,008	23,841	0,130	0,078
-298,993	262,675	0,077	-0,097
-297,978	-30,843	0,056	0,023
-296,964	-200,000	0,003	-0,147
-295,949	-200,000	-0,001	0,045
-294,935	191,202	-0,062	-0,068
-293,920	-200,000	-0,010	-0,044
-292,905	-124,883	0,154	-0,017
-291,891	187,876	0,043	0,047
-290,876	-200,000	-0,007	-0,062
-289,862	572,186	-0,027	-0,048
-288,847	-200,000	-0,007	0,108
-287,832	665,778	-0,055	0,104
-286,818	127,624	-0,099	0,092
-285,803	-200,000	0,022	0,074
-284,789	-200,000	-0,010	0,082
-283,774	149,820	-0,059	0,058
-282,759	800,000	0,040	-0,100
-281,745	153,370	-0,071	0,071
-280,730	149,409	-0,094	-0,093
-279,716	800,000	0,018	0,039
-278,701	74,207	0,153	-0,117
-277,686	97,038	0,057	-0,047
-276,672	-200,000	0,005	-0,029
-275,657	-107,457	0,040	0,006
-274,643	-156,500	-0,145	-0,006
-273,628	45,306	0,126	-0,085
-272,613	-46,600	0,041	0,015
-271,599	190,181	0,069	0,076
-270,584	227,912	-0,022	0,027
-269,570	-200,000	0,016	-0,088
-268,555	-53,548	0,035	0,012
-267,540	-176,817	-0,133	0,002
-266,526	-200,000	0,003	0,169
-265,511	162,699	0,100	0,102
-264,497	53,981	-0,051	0,035
-263,482	-200,000	0,025	-0,089
-262,467	-148,420	0,122	0,007
-261,453	-200,000	0,008	0,151
-260,438	800,000	0,043	-0,095
-259,424	800,000	-0,027	-0,061
-258,409	800,000	-0,020	0,062
-257,395	-200,000	0,018	-0,117
-256,380	-200,000	0,038	0,136
-255,365	25,073	0,149	0,090
-254,351	800,000	0,062	0,148
-253,336	-200,000	0,011	-0,181
-252,322	168,327	0,047	-0,049
-251,307	79,168	-0,090	0,070
-250,292	-42,097	0,136	-0,050
-249,278	319,198	-0,032	-0,045
-248,263	-200,000	-0,010	0,054
-247,249	-200,000	0,002	0,112
-246,234	90,012	-0,073	0,059
-245,219	0,273	-0,154	0,080
-244,205	-200,000	-0,007	-0,082
-243,190	344,693	0,021	-0,030
-242,176	-115,478	0,147	-0,020
-241,161	-102,861	-0,067	-0,012
-240,146	276,526	-0,059	0,077
-239,132	113,610	0,029	-0,026
-238,117	800,000	-0,070	0,160
-237,103	-108,219	-0,095	0,015
-236,088	-159,271	0,044	0,002
-235,073	800,000	-0,025	0,080
-234,059	45,991	-0,035	-0,024
-233,044	-200,000	0,013	0,126
-232,030	-154,304	0,036	-0,002
-231,015	-117,279	-0,141	-0,018
-230,000	-10,202	0,138	-0,066
-228,986	31,773	-0,056	0,035
-227,971	210,406	0,061	0,070
-226,957	-200,000	-0,010	0,041
-225,942	800,000	0,024	0,062
-224,927	800,000	0,005	-0,012
-223,913	8,581	-0,056	0,030
-222,898	-68,951	-0,086	-0,024
-221,884	104,541	-0,071	-0,060
-220,869	-105,603	-0,072	0,012
-219,855	-200,000	-0,012	0,052
-218,840	102,516	0,131	0,111
-217,825	62,924	0,036	-0,026
-216,811	-0,892	-0,101	-0,052
-215,796	29,592	0,069	-0,043
-214,782	800,000	0,046	0,115
-213,767	-94,913	0,101	0,020
-212,752	391,336	0,014	0,021
-211,738	-48,641	-0,048	-0,017
-210,723	-37,185	0,152	0,059
-209,709	-34,080	-0,081	0,032
-208,694	97,311	-0,129	0,107
-207,679	-104,808	0,062	0,010
-206,665	317,422	0,031	0,043
-205,650	-73,068	0,145	0,038
-204,636	-62,779	0,008	0,002
-203,621	-183,763	0,124	-0,001
-202,606	161,956	-0,055	-0,056
-201,592	800,000	-0,085	-0,196
-200,577	133,555	-0,085	-0,080
-199,563	472,613	-0,078	-0,128
-198,548	-200,000	0,001	0,012
-197,533	81,872	0,009	0,007
-196,519	184,198	-0,053	-0,057
-195,504	-103,517	-0,122	-0,021
-194,490	777,442	-0,024	-0,047
-193,475	98,446	0,042	0,035
-192,460	-200,000	0,016	0,083
-191,446	-50,312	-0,061	0,021
-190,431	654,603	0,030	0,056
-189,417	-25,487	-0,140	0,060
-188,402	87,763	0,087	0,070
-187,387	53,417	0,024	0,017
-186,373	758,194	-0,043	0,085
-185,358	-200,000	-0,041	-0,157
-184,344	414,711	0,007	-0,011
-183,329	-200,000	-0,015	0,056
-182,315	-200,000	-0,002	0,023
-181,300	-79,557	-0,068	0,017
-180,285	-22,163	0,078	0,034
-179,271	-137,666	-0,150	-0,012
-178,256	428,988	0,079	0,124
-177,242	800,000	0,078	0,233
-176,227	226,969	-0,051	-0,060
-175,212	-141,159	-0,088	0,006
-174,198	102,352	-0,125	-0,106
-173,183	800,000	-0,044	-0,107
-172,169	-200,000	-0,018	0,090
-171,154	9,046	0,057	-0,031
-170,139	44,488	0,120	0,080
-169,125	800,000	0,051	0,117
-168,110	220,604	-0,068	0,080
-167,096	33,902	-0,036	-0,023
-166,081	-30,591	0,137	-0,056
-165,066	-200,000	0,012	0,106
-164,052	130,224	0,080	0,075
-163,037	-83,344	-0,100	0,023
-162,023	-200,000	-0,009	-0,031
-161,008	638,598	0,048	0,089
-159,993	-111,833	0,030	-0,004
-158,979	559,450	-0,041	0,071
-157,964	-146,842	-0,035	-0,002
-156,950	274,380	-0,072	-0,093
-155,935	-162,348	0,039	-0,001
-154,920	-200,000	-0,010	0,089
-153,906	-43,838	-0,079	0,029
-152,891	1,923	0,126	0,066
-151,877	-17,232	-0,113	0,051
-150,862	666,490	-0,088	-0,165
-149,847	636,248	-0,032	0,059
-148,833	-38,022	-0,074	-0,028
-147,818	261,313	-0,065	0,082
-146,804	-46,031	0,090	-0,032
-145,789	-18,396	-0,061	0,027
-144,775	-103,065	-0,031	-0,005
-143,760	800,000	-0,062	0,160
-142,745	342,345	-0,041	0,059
-141,731	-106,529	-0,045	-0,007
-140,716	79,498	0,020	-0,016
-139,702	-78,180	-0,081	-0,020
-138,687	-76,252	0,149	0,038
-137,672	-200,000	-0,005	-0,029
-136,658	-200,000	0,017	-0,123
-135,643	-200,000	-0,015	-0,101
-134,629	197,870	0,020	0,023
-133,614	-200,000	-0,042	0,194
-132,599	800,000	-0,090	-0,223
-131,585	-200,000	0,004	0,154
-130,570	501,605	-0,049	-0,083
-129,556	-93,967	0,057	-0,011
-128,541	-200,000	-0,033	-0,159
-127,526	-94,192	-0,133	-0,026
-126,512	-200,000	-0,011	0,077
-125,497	-127,981	0,090	0,009
-124,483	-176,587	-0,173	0,003
-123,468	96,561	0,031	0,026
-122,453	-39,537	-0,072	-0,027
-121,439	800,000	-0,036	-0,112
-120,424	-165,846	-0,049	-0,001
-119,410	168,634	-0,108	0,112
-118,395	303,608	0,051	-0,069
-117,380	96,405	-0,035	0,029
-116,366	-65,900	-0,178	-0,051
-115,351	80,858	-0,119	0,093
-114,337	-51,690	-0,109	-0,036
-113,322	800,000	0,040	0,114
-112,307	-200,000	-0,008	0,049
-111,293	800,000	-0,017	0,043
-110,278	271,034	0,072	0,092
-109,264	41,604	-0,099	0,065
-108,249	168,614	0,085	-0,087
-107,234	-200,000	-0,010	-0,150
-106,220	84,802	0,091	-0,072
-105,205	-200,000	-0,011	0,102
-104,191	-40,740	-0,045	0,017
-103,176	59,134	0,062	-0,044
-102,162	-200,000	0,002	0,024
-101,147	-26,196	-0,071	0,030
-100,132	121,572	-0,082	-0,074
-99,118	-200,000	0,005	-0,023
-98,103	24,931	-0,060	0,036
-97,089	-200,000	0,012	0,162
-96,074	800,000	0,035	0,098
-95,059	60,059	0,090	0,064
-94,045	-200,000	0,011	0,034
-93,030	-30,322	-0,087	0,036
-92,016	800,000	0,025	0,069
-91,001	27,254	0,040	0,024
-89,986	-44,482	0,043	0,016
-88,972	800,000	-0,003	-0,007
-87,957	-185,267	-0,157	-0,002
-86,943	-57,687	0,102	-0,032
-85,928	-178,230	-0,077	-0,001
-84,913	112,192	0,035	-0,030
-83,899	161,080	-0,065	-0,066
-82,884	-106,656	0,216	0,034
-81,870	800,000	-0,061	0,129
-80,855	527,586	-0,053	0,091
-79,840	498,338	-0,030	-0,050
-78,826	602,835	-0,019	0,035
-77,811	28,107	-0,021	0,013
-76,797	800,000	0,020	0,050
-75,782	21,934	0,148	0,087
-74,767	-67,895	-0,181	-0,051
-73,753	46,819	-0,090	-0,060
-72,738	726,887	0,033	0,064
-71,724	363,336	-0,057	0,083
-70,709	-140,510	-0,148	0,011
-69,694	700,018	-0,021	-0,040
-68,680	-135,019	0,035	0,003
-67,665	-135,819	0,122	-0,010
-66,651	97,668	0,013	0,011
-65,636	-200,000	0,004	-0,043
-64,622	61,955	-0,179	0,129
-63,607	294,051	0,056	-0,074
-62,592	-200,000	0,001	0,104
-61,578	-3,024	-0,055	-0,028
-60,563	-200,000	0,019	0,122
-59,549	800,000	0,061	0,180
-58,534	-51,127	-1,791	-0,603
-57,519	800,000	-0,565	-1,258
-56,505	-200,000	-1,039	-4,816
-55,490	-176,454	0,592	0,011
-54,476	800,000	5,236	12,110
-53,461	-200,000	15,833	277,343
-52,446	-200,000	702,702	2244,025
-51,432	561,722	1619,431	2838,671
-50,417	121,080	1623,814	1458,896
-49,403	81,209	1284,126	1000,469
-48,388	36,694	1028,139	654,237
-47,373	21,560	990,074	579,965
-46,359	20,554	978,557	569,880
-45,344	18,840	974,624	561,932
-44,330	18,944	973,109	561,379
-43,315	18,646	971,491	559,444
-42,300	18,649	970,348	558,776
-41,286	18,544	969,676	558,021
-40,271	18,606	968,430	557,485
-39,257	18,625	967,721	557,118
-38,242	18,610	967,046	556,659
-37,227	18,594	966,129	556,055
-36,213	18,575	965,468	555,591
-35,198	18,538	964,506	554,896
-34,184	18,667	963,627	554,786
-33,169	18,612	962,655	554,025
-32,154	18,636	961,927	553,663
-31,140	18,687	960,829	553,176
-30,125	18,673	960,270	552,786
-29,111	18,585	959,651	552,123
-28,096	18,543	959,045	551,617
-27,082	18,648	957,985	551,323
-26,067	18,575	957,322	550,683
-25,052	18,596	956,753	550,404
-24,038	18,600	955,853	549,875
-23,023	18,553	955,298	549,383
-22,009	18,612	954,620	549,162
-20,994	18,635	953,950	548,829
-19,979	18,528	953,435	548,167
-18,965	18,577	952,763	547,916
-17,950	18,616	952,138	547,660
-16,936	18,570	951,593	547,177
-15,921	18,526	950,953	546,647
-14,906	18,519	950,033	546,073
-13,892	18,498	949,418	545,630
-12,877	18,537	948,604	545,265
-11,863	18,473	948,061	544,727
-10,848	18,433	947,642	544,339
-9,833	18,544	947,152	544,390
-8,819	18,529	946,501	543,947
-7,804	18,500	945,803	543,430
-6,790	18,446	945,281	542,938
-5,775	18,520	944,668	542,800
-4,760	18,508	944,017	542,367
-3,746	18,518	943,204	541,909
-2,731	18,362	942,548	541,014
-1,717	18,300	941,816	540,376
-0,702	18,329	941,231	540,109
0,313	18,087	940,755	539,885
1,327	21,090	938,932	548,299
2,342	30,058	796,339	488,916
3,356	27,060	449,239	271,291
4,371	-2,514	294,952	148,510
5,386	-6,779	276,260	135,039
6,400	-7,853	270,472	131,199
7,415	-8,311	268,056	129,593
8,429	-8,055	266,842	129,230
9,444	-8,182	266,132	128,758
10,459	-8,056	265,299	128,458
11,473	-8,252	264,804	128,029
12,488	-8,158	264,279	127,848
13,502	-8,449	263,748	127,316
14,517	-8,319	263,234	127,175
15,531	-8,211	263,086	127,190
16,546	-8,139	262,660	127,038
17,561	-8,094	262,171	126,830
18,575	-8,217	261,979	126,615
19,590	-8,225	261,455	126,343
20,604	-8,205	261,179	126,217
21,619	-8,259	260,893	126,019
22,634	-8,222	260,561	125,880
23,648	-8,343	260,270	125,621
24,663	-8,126	259,965	125,656
25,677	-8,220	259,677	125,422
26,692	-8,004	259,399	125,468
27,707	-8,220	259,248	125,192
28,721	-8,272	259,048	125,038
29,736	-8,272	258,779	124,897
30,750	-8,340	258,457	124,670
31,765	-8,555	258,252	124,369
32,780	-8,387	257,976	124,374
33,794	-8,504	257,685	124,119
34,809	-8,434	257,553	124,107
35,823	-8,427	257,417	124,036
36,838	-8,399	256,905	123,803
37,853	-8,409	256,726	123,697
38,867	-8,536	256,634	123,530
39,882	-8,398	256,419	123,537
40,896	-8,410	256,127	123,375
41,911	-8,359	255,867	123,283
42,926	-8,288	255,596	123,204
43,940	-8,429	255,506	123,026
44,955	-8,531	255,299	122,826
45,969	-8,589	254,960	122,601
46,984	-8,794	254,658	122,266
47,999	-9,234	254,463	121,777
49,013	-9,106	254,178	121,741
50,028	-9,363	253,936	121,391
51,042	-9,260	253,614	121,316
52,057	-9,465	253,459	121,053
53,071	-9,378	253,362	121,071
54,086	-9,109	253,106	121,172
55,101	-9,129	252,985	121,086
56,115	-8,713	252,733	121,315
57,130	-8,462	252,695	121,503
58,144	-8,177	252,523	121,656
59,159	-8,233	252,286	121,482
60,174	-8,022	252,183	121,604
61,188	-8,472	252,112	121,170
62,203	-8,275	251,752	121,157
63,217	-8,187	251,492	121,097
64,232	-8,210	251,360	121,002
65,247	-8,287	251,032	120,767
66,261	-8,168	250,713	120,705
67,276	-8,625	250,643	120,268
68,290	-8,673	250,311	120,058
69,305	-8,806	249,993	119,781
70,320	-8,780	249,912	119,753
71,334	-8,382	249,720	119,990
72,349	-8,345	249,703	120,003
73,363	-8,179	249,419	119,997
74,378	-8,297	249,235	119,798
75,393	-8,242	249,113	119,775
76,407	-8,357	248,854	119,543
77,422	-8,361	248,643	119,427
78,436	-8,367	248,487	119,337
79,451	-8,152	248,096	119,320
80,466	-8,453	248,001	119,008
81,480	-8,538	247,665	118,765
82,495	-8,735	247,523	118,520
83,509	-8,599	247,365	118,548
84,524	-8,673	247,241	118,415
85,539	-8,885	246,989	118,106
86,553	-8,772	246,885	118,141
87,568	-8,700	246,593	118,051
88,582	-8,502	246,362	118,097
89,597	-8,570	246,200	117,951
90,611	-8,541	246,200	117,965
91,626	-8,427	246,033	117,970
92,641	-8,341	245,585	117,817
93,655	-8,328	245,535	117,794
94,670	-8,595	245,247	117,421
95,684	-8,647	245,178	117,334
96,699	-8,583	244,931	117,259
97,714	-8,787	244,647	116,943
98,728	-8,794	244,571	116,890
99,743	-8,927	244,384	116,679
100,757	-8,805	243,995	116,584
101,772	-9,003	243,961	116,393
102,787	-8,642	243,736	116,576
103,801	-8,628	243,628	116,525
104,816	-8,611	243,541	116,488
105,830	-8,591	243,276	116,367
106,845	-8,396	243,233	116,497
107,860	-8,443	242,905	116,291
108,874	-8,598	242,664	116,037
109,889	-8,687	242,530	115,889
110,903	-8,783	242,297	115,688
111,918	-8,642	242,093	115,696
112,933	-8,509	241,849	115,679
113,947	-8,544	241,878	115,655
114,962	-8,444	241,616	115,601
115,976	-8,539	241,602	115,506
116,991	-8,463	241,333	115,429
118,006	-8,453	241,161	115,345
119,020	-8,364	241,067	115,363
120,035	-8,345	240,798	115,239
121,049	-8,443	240,802	115,151
122,064	-8,340	240,601	115,128
123,079	-8,472	240,354	114,892
124,093	-8,285	240,072	114,900
125,108	-8,662	239,774	114,439
126,122	-8,852	239,685	114,231
127,137	-9,055	239,464	113,950
128,151	-8,876	239,407	114,059
129,166	-8,826	239,206	113,994
130,181	-8,829	238,908	113,839
131,195	-9,146	238,842	113,540
132,210	-8,548	238,513	113,859
133,224	-8,510	238,582	113,912
134,239	-8,309	238,326	113,943
135,254	-8,510	238,202	113,711
136,268	-8,631	237,943	113,479
137,283	-8,919	237,797	113,167
138,297	-8,979	237,541	112,986
139,312	-8,727	237,316	113,072
140,327	-8,507	237,250	113,208
141,341	-8,121	237,140	113,456
142,356	-8,123	237,043	113,399
143,370	-8,232	236,890	113,228
144,385	-8,131	236,732	113,224
145,400	-7,893	236,454	113,272
146,414	-7,928	236,441	113,227
147,429	-8,250	236,226	112,855
148,443	-8,321	236,071	112,714
149,458	-8,268	235,819	112,626
150,473	-8,175	235,632	112,602
151,487	-8,281	235,625	112,504
152,502	-8,022	235,321	112,555
153,516	-8,162	235,140	112,347
154,531	-8,354	235,046	112,139
155,546	-8,233	234,739	112,079
156,560	-8,133	234,624	112,093
157,575	-8,345	234,536	111,872
158,589	-8,346	234,329	111,763
159,604	-8,284	234,254	111,767
160,619	-7,932	234,089	111,957
161,633	-7,880	233,912	111,904
162,648	-7,978	233,806	111,766
163,662	-8,219	233,503	111,420
164,677	-8,147	233,306	111,373
165,692	-8,207	233,245	111,286
166,706	-7,929	233,225	111,487
167,721	-7,993	233,146	111,388
168,735	-7,937	232,950	111,330
169,750	-7,920	232,645	111,187
170,764	-8,051	232,428	110,970
171,779	-8,153	232,320	110,828
172,794	-8,021	232,150	110,841
173,808	-8,144	231,909	110,620
174,823	-8,561	231,690	110,178
175,837	-8,834	231,386	109,810
176,852	-8,449	231,388	110,102
177,867	-8,064	231,364	110,383
178,881	-8,302	231,297	110,155
179,896	-8,109	231,117	110,210
180,910	-8,057	230,911	110,143
181,925	-8,170	230,860	110,021
182,940	-8,023	230,555	109,980
183,954	-7,952	230,480	109,990
184,969	-7,933	230,283	109,901
185,983	-7,952	230,265	109,868
186,998	-7,717	230,121	109,972
188,013	-7,909	229,964	109,738
189,027	-7,898	229,652	109,588
190,042	-7,955	229,586	109,502
191,056	-7,883	229,341	109,432
192,071	-8,188	229,318	109,174
193,086	-7,902	229,132	109,298
194,100	-7,802	228,826	109,219
195,115	-8,276	228,493	108,684
196,129	-8,890	228,405	108,158
197,144	-4,624	229,800	112,124
198,159	0,462	231,270	116,798
199,173	3,300	231,873	119,306
200,188	3,462	231,776	119,371
201,202	3,961	231,692	119,706
202,217	3,843	231,581	119,546
203,232	3,994	231,519	119,620
204,246	3,892	231,490	119,516
205,261	4,037	231,187	119,461
206,275	4,404	231,008	119,642
207,290	4,370	231,041	119,623
208,304	4,490	230,837	119,600
209,319	4,235	230,614	119,276
210,334	3,976	230,416	118,963
211,348	3,987	230,260	118,880
212,363	3,662	229,931	118,449
213,377	3,293	229,692	118,031
214,392	3,272	229,693	118,004
215,407	3,392	229,668	118,074
216,421	3,678	229,405	118,148
217,436	3,405	229,127	117,785
218,450	3,224	228,959	117,549
219,465	3,161	228,834	117,426
220,480	3,271	228,690	117,425
221,494	3,152	228,465	117,208
222,509	3,411	228,558	117,444
223,523	3,380	228,410	117,334
224,538	3,364	228,117	117,161
225,553	3,486	227,954	117,159
226,567	3,412	227,862	117,045
227,582	3,742	227,782	117,246
228,596	3,859	227,681	117,273
229,611	3,380	227,455	116,781
230,626	3,173	227,128	116,444
231,640	3,210	227,035	116,415
232,655	3,572	227,012	116,668
233,669	4,119	226,878	117,004
234,684	4,354	226,734	117,098
235,699	3,871	226,619	116,662
236,713	3,440	226,485	116,255
237,728	3,378	226,230	116,067
238,742	3,304	225,995	115,881
239,757	3,440	225,781	115,863
240,772	3,460	225,504	115,726
241,786	3,032	225,694	115,489
242,801	3,256	225,624	115,613
243,815	3,722	225,561	115,922
244,830	3,781	225,321	115,833
245,844	3,758	224,935	115,606
246,859	3,623	224,886	115,470
247,874	3,678	224,864	115,490
248,888	3,539	224,670	115,275
249,903	3,721	224,454	115,290
250,917	3,592	224,200	115,053
251,932	3,546	224,174	114,995
252,947	3,269	224,045	114,711
253,961	3,416	223,800	114,685
254,976	3,483	223,648	114,647
255,990	3,524	223,597	114,641
257,005	3,658	223,525	114,695
258,020	3,678	223,473	114,672
259,034	3,907	223,269	114,728
260,049	3,802	222,992	114,498
261,063	3,441	222,946	114,195
262,078	3,846	222,829	114,426
263,093	3,678	222,811	114,282
264,107	3,614	222,619	114,126
265,122	3,486	222,389	113,903
266,136	3,781	222,297	114,064
267,151	3,874	222,151	114,048
268,166	3,571	221,841	113,654
269,180	3,294	221,530	113,280
270,195	3,477	221,554	113,418
271,209	3,327	221,295	113,164
272,224	3,333	221,490	113,257
273,239	3,488	221,208	113,218
274,253	3,231	221,056	112,940
275,268	3,069	220,847	112,704
276,282	3,275	220,659	112,750
277,297	3,258	220,426	112,608
278,312	3,124	220,538	112,557
279,326	3,528	220,192	112,667
280,341	3,487	220,141	112,601
281,355	3,704	219,927	112,641
282,370	3,424	219,907	112,415
283,384	3,121	219,778	112,117
284,399	3,048	219,480	111,902
285,414	3,044	219,470	111,883
286,428	3,224	219,457	111,998
287,443	3,573	219,294	112,161
288,457	3,602	219,043	112,043
289,472	3,432	218,866	111,818
290,487	3,089	218,677	111,462
291,501	3,181	218,402	111,379
292,516	2,921	218,338	111,147
293,530	3,108	218,317	111,263
294,545	3,042	218,082	111,085
295,560	3,137	218,108	111,157
296,574	3,306	217,966	111,198
297,589	3,456	217,625	111,123
298,603	3,574	217,666	111,219
299,618	3,481	217,564	111,090
300,633	3,489	217,375	110,989
301,647	3,522	217,505	111,070
302,662	3,874	217,209	111,163
303,676	3,663	217,026	110,907
304,691	3,643	216,933	110,835
305,706	3,616	216,812	110,744
306,720	3,778	216,585	110,734
307,735	3,377	216,409	110,347
308,749	3,276	216,251	110,183
309,764	3,549	216,257	110,373
310,779	3,605	216,057	110,301
311,793	3,494	215,924	110,144
312,808	3,289	215,797	109,922
313,822	3,326	215,603	109,840
314,837	3,144	215,324	109,558
315,852	3,163	215,269	109,533
316,866	3,937	215,096	109,989
317,881	3,685	215,119	109,811
318,895	3,617	215,111	109,748
319,910	3,427	214,736	109,412
320,925	3,338	214,422	109,178
321,939	3,255	214,361	109,079
322,954	2,961	214,282	108,819
323,968	3,488	214,298	109,193
324,983	3,546	214,218	109,184
325,997	3,634	214,132	109,193
327,012	3,423	213,842	108,885
328,027	3,332	213,755	108,767
329,041	3,650	213,793	109,002
330,056	3,810	213,560	108,987
331,070	3,326	213,262	108,483
332,085	2,990	212,975	108,089
333,100	3,227	213,076	108,299
334,114	3,487	212,886	108,376
335,129	3,270	212,706	108,122
336,143	3,220	212,491	107,967
337,158	3,387	212,451	108,055
338,173	3,438	212,293	108,001
339,187	3,145	212,032	107,653
340,202	3,095	211,840	107,510
341,216	3,239	211,807	107,585
342,231	3,045	211,727	107,399
343,246	3,185	211,585	107,415
344,260	3,258	211,548	107,438
345,275	3,461	211,357	107,474
346,289	3,565	211,224	107,469
347,304	3,435	211,066	107,289
348,319	3,529	210,908	107,265
349,333	3,585	210,793	107,235
350,348	3,400	210,511	106,954
351,362	3,744	210,482	107,169
352,377	3,387	210,406	106,872
353,392	3,649	210,199	106,940
354,406	3,448	210,239	106,810
355,421	194,908	1341,674	1426,007
356,435	155,622	1479,554	1426,028
