DTS Sentinel unit serial number:	SN410029Multiplexer serial number:	ORYXHardware model number:	OX2-SRSoftware version number:	ORYX F/W v4,00 Oryx Data Collector v3.7.2.0data status	okinstallation	B6 Nyhavnadifferential loss correction	single-endedforward channel	channel 2reverse channel	N/Adate	2023/12/11time	01:30:08forward acquisition time	300,00reverse acquisition time	0,00gamma	499,1914k internal	0,3122k external	0,3122temperature offset calibration	1,0000default loss term (dB/km)	0,3820temperature slope calibration	1,0000multiplexer offset coefficient	1,0000multiplexer slope coefficient	1,0000fibre end	0,00T internal ref (°C)	22,10T ext. ref 1 (°C)	5,36T ext. ref 2 (°C)	5,39length (m)	temperature (°C)	Stokes	anti-Stokes-744,400	233,951	0,075	-0,092
-743,385	119,935	-0,190	0,176
-742,371	-53,346	0,102	0,035
-741,356	-27,870	-0,031	-0,014
-740,342	-46,419	0,139	-0,051
-739,327	-148,200	-0,301	0,018
-738,312	-200,000	0,009	0,076
-737,298	-60,279	-0,233	0,074
-736,283	-200,000	0,062	0,000
-735,269	-159,814	-0,222	0,009
-734,254	-137,555	0,109	-0,009
-733,239	-71,668	-0,267	-0,074
-732,225	-78,593	0,060	-0,015
-731,210	-200,000	-0,005	-0,041
-730,196	197,831	0,001	0,002
-729,181	-30,412	-0,054	-0,023
-728,167	-200,000	0,017	-0,105
-727,152	800,000	0,021	-0,064
-726,137	-200,000	-0,031	-0,135
-725,123	-134,382	-0,096	-0,009
-724,108	495,117	-0,102	-0,174
-723,094	-158,798	-0,187	-0,008
-722,079	-200,000	0,003	0,031
-721,064	-200,000	-0,014	-0,062
-720,050	-82,468	-0,045	0,011
-719,035	83,587	-0,136	0,110
-718,021	-43,818	-0,053	0,020
-717,006	-191,566	-0,050	-0,000
-715,991	187,608	-0,113	0,126
-714,977	-200,000	-0,002	0,024
-713,962	-200,000	-0,004	0,019
-712,948	182,453	0,204	-0,224
-711,933	-34,058	0,157	0,064
-710,918	-99,116	-0,144	0,027
-709,904	49,338	-0,117	-0,082
-708,889	-136,899	-0,073	-0,006
-707,875	-11,689	0,059	-0,029
-706,860	60,767	0,103	-0,076
-705,845	72,652	-0,041	0,032
-704,831	-135,750	0,200	0,017
-703,816	-187,722	0,059	0,001
-702,802	-10,483	-0,070	0,035
-701,787	-106,929	-0,062	0,010
-700,772	-200,000	-0,009	0,034
-699,758	159,373	0,069	-0,071
-698,743	129,277	0,037	0,035
-697,729	223,216	0,051	0,061
-696,714	-69,773	-0,152	-0,043
-695,699	-136,290	0,044	0,004
-694,685	-27,566	-0,035	-0,015
-693,670	271,313	-0,086	-0,113
-692,656	-115,327	-0,143	0,020
-691,641	-200,000	0,016	-0,123
-690,627	148,703	-0,050	-0,051
-689,612	800,000	0,074	-0,178
-688,597	-200,000	-0,013	-0,064
-687,583	157,252	-0,066	-0,067
-686,568	232,957	-0,118	0,145
-685,554	-200,000	-0,001	0,137
-684,539	-111,683	0,075	-0,011
-683,524	121,592	-0,105	-0,098
-682,510	-89,064	-0,150	-0,033
-681,495	-200,000	-0,034	-0,143
-680,481	-62,156	0,101	-0,031
-679,466	-200,000	-0,010	0,104
-678,451	800,000	0,045	-0,139
-677,437	98,107	-0,084	0,072
-676,422	-69,494	0,027	0,008
-675,408	-21,073	0,029	0,013
-674,393	-200,000	0,015	0,079
-673,378	-129,148	-0,132	0,014
-672,364	15,392	0,087	0,051
-671,349	-131,880	0,008	0,001
-670,335	-19,075	-0,125	0,058
-669,320	-54,133	0,096	0,032
-668,305	-24,868	-0,193	0,085
-667,291	-200,000	-0,014	-0,087
-666,276	391,270	-0,018	-0,028
-665,262	24,176	-0,053	0,033
-664,247	302,286	-0,054	-0,074
-663,232	800,000	0,011	-0,033
-662,218	380,340	-0,099	0,151
-661,203	-55,667	-0,069	-0,023
-660,189	-19,031	-0,108	-0,050
-659,174	800,000	-0,076	-0,158
-658,159	-200,000	0,013	-0,110
-657,145	-200,000	-0,021	-0,091
-656,130	59,241	0,131	0,096
-655,116	-51,890	0,084	0,029
-654,101	558,160	0,046	-0,082
-653,086	-200,000	-0,022	-0,120
-652,072	-200,000	-0,021	-0,082
-651,057	-90,742	-0,083	-0,018
-650,043	122,663	0,121	0,112
-649,028	565,204	0,054	-0,098
-648,014	89,532	0,066	-0,055
-646,999	635,075	0,072	-0,136
-645,984	175,363	-0,078	0,084
-644,970	66,640	-0,166	-0,126
-643,955	-108,347	-0,043	-0,007
-642,941	-16,002	-0,050	-0,023
-641,926	54,412	-0,046	0,033
-640,911	116,346	-0,077	0,070
-639,897	501,749	0,026	-0,044
-638,882	-200,000	0,013	-0,091
-637,868	740,151	-0,047	-0,094
-636,853	-110,091	-0,049	0,008
-635,838	158,224	-0,046	-0,047
-634,824	-0,847	-0,040	0,021
-633,809	701,765	-0,047	-0,093
-632,795	-61,517	-0,119	-0,037
-631,780	32,258	0,023	0,015
-630,765	560,951	-0,068	0,122
-629,751	-86,313	0,159	-0,036
-628,736	-200,000	-0,002	-0,070
-627,722	-200,000	-0,031	0,165
-626,707	-200,000	-0,013	0,075
-625,692	-52,115	-0,033	0,011
-624,678	29,946	0,110	0,070
-623,663	-200,000	0,005	0,072
-622,649	800,000	-0,023	0,069
-621,634	-41,868	-0,141	0,054
-620,619	-6,729	0,069	-0,035
-619,605	360,676	0,041	-0,061
-618,590	800,000	-0,035	0,098
-617,576	245,005	-0,056	0,070
-616,561	-200,000	0,015	-0,048
-615,546	-53,674	-0,056	-0,019
-614,532	-35,621	-0,074	-0,030
-613,517	-200,000	0,001	0,033
-612,503	9,763	-0,016	-0,009
-611,488	508,058	0,036	0,063
-610,474	-155,563	-0,110	-0,005
-609,459	82,700	-0,082	0,066
-608,444	800,000	-0,012	0,031
-607,430	7,640	-0,064	-0,035
-606,415	-41,325	-0,105	-0,040
-605,401	800,000	0,014	0,034
-604,386	-44,216	0,109	0,040
-603,371	-200,000	-0,034	0,126
-602,357	548,275	-0,004	-0,006
-601,342	760,446	-0,064	0,128
-600,328	-23,311	-0,131	-0,058
-599,313	-200,000	0,002	-0,100
-598,298	411,285	-0,025	0,040
-597,284	311,095	-0,063	-0,088
-596,269	-200,000	0,006	0,131
-595,255	390,087	-0,088	-0,135
-594,240	288,200	-0,087	0,117
-593,225	800,000	0,088	-0,206
-592,211	-200,000	0,004	0,091
-591,196	201,757	0,037	-0,043
-590,182	129,678	0,080	-0,076
-589,167	186,974	0,046	-0,050
-588,152	157,294	-0,102	0,105
-587,138	-200,000	-0,031	-0,117
-586,123	-71,897	-0,073	-0,020
-585,109	124,235	-0,060	-0,056
-584,094	67,255	0,073	-0,055
-583,079	-200,000	-0,024	0,086
-582,065	-179,214	0,139	-0,002
-581,050	-200,000	0,032	0,118
-580,036	1,187	0,071	0,038
-579,021	800,000	-0,057	-0,166
-578,006	-200,000	0,018	-0,090
-576,992	-30,523	-0,022	-0,009
-575,977	-152,501	-0,054	0,003
-574,963	800,000	0,014	0,033
-573,948	18,003	-0,018	0,011
-572,934	-109,823	0,031	0,005
-571,919	800,000	-0,025	-0,051
-570,904	0,325	-0,024	0,012
-569,890	-96,397	0,087	-0,017
-568,875	54,857	0,086	0,061
-567,861	88,883	0,016	-0,013
-566,846	142,263	-0,155	-0,152
-565,831	-67,037	0,201	-0,058
-564,817	155,102	0,012	0,012
-563,802	-152,639	-0,156	0,008
-562,788	800,000	0,068	-0,142
-561,773	-200,000	-0,011	0,046
-560,758	800,000	-0,033	-0,096
-559,744	-126,458	0,109	0,012
-558,729	800,000	0,041	0,096
-557,715	-85,107	-0,097	-0,022
-556,700	800,000	-0,015	-0,039
-555,685	-115,084	-0,156	0,022
-554,671	-70,558	0,046	-0,013
-553,656	-120,405	0,087	0,011
-552,642	-200,000	0,011	0,098
-551,627	-200,000	0,014	-0,063
-550,612	93,624	-0,060	-0,050
-549,598	9,881	-0,036	0,020
-548,583	11,243	0,086	-0,049
-547,569	311,391	-0,056	0,078
-546,554	-150,679	-0,052	0,003
-545,539	606,028	0,082	-0,153
-544,525	-200,000	-0,009	0,056
-543,510	-74,823	-0,047	-0,012
-542,496	622,491	-0,031	-0,059
-541,481	800,000	0,036	-0,080
-540,466	-200,000	-0,005	-0,111
-539,452	-33,368	0,119	0,048
-538,437	-120,468	0,108	0,013
-537,423	121,228	0,050	0,046
-536,408	-200,000	0,008	0,078
-535,393	152,388	-0,075	-0,075
-534,379	32,779	0,032	-0,021
-533,364	-200,000	-0,001	0,099
-532,350	57,858	-0,059	0,043
-531,335	79,369	-0,056	0,045
-530,321	800,000	-0,033	0,101
-529,306	44,917	0,066	0,045
-528,291	263,827	-0,077	-0,099
-527,277	-200,000	-0,015	0,060
-526,262	-116,842	0,116	0,016
-525,248	-200,000	-0,009	0,035
-524,233	-134,230	0,050	-0,004
-523,218	-200,000	0,009	0,139
-522,204	-200,000	-0,022	-0,113
-521,189	79,734	0,061	-0,048
-520,175	-136,548	-0,026	0,002
-519,160	737,060	-0,083	0,166
-518,145	800,000	0,051	0,139
-517,131	-200,000	0,022	-0,092
-516,116	-200,000	-0,016	-0,060
-515,102	-45,392	0,091	0,033
-514,087	-200,000	0,014	-0,090
-513,072	-112,410	-0,117	0,017
-512,058	800,000	-0,023	0,055
-511,043	106,600	-0,113	-0,099
-510,029	155,422	0,083	-0,085
-509,014	800,000	0,021	-0,058
-507,999	-200,000	-0,024	0,103
-506,985	-44,421	-0,122	0,045
-505,970	800,000	0,051	-0,139
-504,956	184,254	0,067	-0,074
-503,941	-97,216	0,071	0,014
-502,926	-144,563	0,106	0,007
-501,912	145,207	-0,067	0,066
-500,897	5,093	0,126	-0,069
-499,883	-50,873	-0,096	-0,033
-498,868	126,944	-0,135	0,126
-497,853	65,893	0,084	0,063
-496,839	-34,859	0,019	0,008
-495,824	-31,717	0,140	-0,058
-494,810	-200,000	-0,045	-0,160
-493,795	800,000	0,057	-0,118
-492,781	-60,413	-0,054	0,017
-491,766	-45,638	-0,096	0,035
-490,751	449,868	-0,061	0,100
-489,737	585,499	0,042	0,076
-488,722	432,928	0,018	0,029
-487,708	800,000	0,083	0,200
-486,693	-200,000	0,009	0,066
-485,678	800,000	0,041	-0,109
-484,664	-108,957	0,025	0,004
-483,649	-104,106	-0,098	0,017
-482,635	-104,970	0,045	-0,008
-481,620	13,907	0,096	0,055
-480,605	-19,960	0,085	-0,039
-479,591	5,677	0,167	-0,091
-478,576	19,413	-0,053	-0,031
-477,562	800,000	-0,099	-0,270
-476,547	353,553	-0,012	0,018
-475,532	226,171	0,115	-0,138
-474,518	342,735	-0,107	-0,155
-473,503	800,000	-0,046	0,149
-472,489	166,289	0,023	0,024
-471,474	69,783	-0,058	-0,044
-470,459	800,000	0,042	-0,106
-469,445	345,538	-0,064	-0,092
-468,430	-65,411	-0,158	-0,047
-467,416	-161,041	0,058	-0,002
-466,401	-143,469	0,088	-0,006
-465,386	286,394	0,021	-0,028
-464,372	-200,000	0,005	0,022
-463,357	800,000	-0,050	-0,103
-462,343	-200,000	-0,039	-0,129
-461,328	143,492	-0,023	0,023
-460,313	-200,000	0,026	-0,144
-459,299	-175,211	0,107	0,002
-458,284	-55,137	-0,043	-0,014
-457,270	237,261	0,064	0,078
-456,255	443,750	0,054	-0,088
-455,241	-200,000	0,011	-0,162
-454,226	195,141	0,085	-0,095
-453,211	-33,232	-0,085	0,035
-452,197	159,808	0,060	-0,061
-451,182	157,281	0,209	0,214
-450,168	-200,000	0,008	0,109
-449,153	-200,000	0,004	-0,142
-448,138	-85,387	-0,023	-0,005
-447,124	-200,000	0,005	0,075
-446,109	-25,788	0,081	-0,035
-445,095	123,313	0,084	0,077
-444,080	37,578	-0,041	-0,027
-443,065	-48,117	0,133	-0,047
-442,051	-17,397	-0,120	0,055
-441,036	174,064	-0,089	-0,095
-440,022	10,400	-0,044	-0,024
-439,007	101,848	-0,040	0,034
-437,992	-200,000	-0,012	0,086
-436,978	800,000	0,015	0,044
-435,963	-37,936	-0,074	0,029
-434,949	-126,584	0,050	-0,005
-433,934	-200,000	0,007	-0,040
-432,919	-200,000	0,013	0,055
-431,905	56,562	0,078	-0,056
-430,890	-200,000	-0,018	-0,109
-429,876	-200,000	0,031	0,104
-428,861	-200,000	0,008	0,087
-427,846	205,144	-0,066	-0,076
-426,832	562,919	-0,046	0,083
-425,817	-200,000	0,018	-0,120
-424,803	-200,000	-0,012	-0,107
-423,788	-85,498	0,070	0,016
-422,773	-200,000	-0,017	0,092
-421,759	48,754	-0,066	0,045
-420,744	-38,641	-0,017	-0,006
-419,730	161,419	-0,069	0,071
-418,715	198,160	-0,066	-0,075
-417,701	-200,000	-0,002	-0,085
-416,686	-120,247	0,192	0,024
-415,671	-89,347	0,098	-0,021
-414,657	-0,785	-0,032	0,017
-413,642	497,475	0,062	-0,106
-412,628	36,852	-0,025	-0,016
-411,613	-200,000	0,020	-0,133
-410,598	-68,041	-0,256	0,073
-409,584	172,041	0,058	0,062
-408,569	600,395	0,039	-0,071
-407,555	-110,881	-0,042	0,006
-406,540	-75,962	0,170	0,044
-405,525	-200,000	-0,013	0,057
-404,511	-121,930	-0,124	-0,015
-403,496	-200,000	0,023	0,099
-402,482	6,548	0,140	0,077
-401,467	-200,000	-0,012	0,074
-400,452	-136,454	0,058	0,005
-399,438	88,206	0,069	0,056
-398,423	230,813	-0,050	0,060
-397,409	-200,000	0,019	-0,089
-396,394	331,792	-0,059	0,084
-395,379	-200,000	0,019	-0,143
-394,365	-200,000	-0,012	0,041
-393,350	-200,000	-0,004	0,069
-392,336	100,737	0,041	0,035
-391,321	800,000	0,032	-0,097
-390,306	-200,000	0,014	-0,064
-389,292	226,164	-0,010	-0,011
-388,277	-113,765	-0,038	0,005
-387,263	751,152	0,023	-0,047
-386,248	137,627	-0,058	0,056
-385,233	800,000	-0,038	0,118
-384,219	625,044	-0,045	0,084
-383,204	-75,064	-0,035	0,009
-382,190	-74,091	-0,064	0,017
-381,175	-200,000	0,003	0,027
-380,160	-52,228	0,184	0,062
-379,146	-155,795	0,060	-0,003
-378,131	135,806	0,082	-0,079
-377,117	-6,501	-0,066	-0,033
-376,102	-157,584	0,118	-0,005
-375,088	638,337	-0,046	0,087
-374,073	-56,067	-0,098	-0,032
-373,058	-200,000	0,003	0,062
-372,044	320,131	0,037	0,052
-371,029	40,100	0,129	0,085
-370,015	-10,124	0,170	-0,082
-369,000	800,000	-0,019	0,041
-367,985	-200,000	-0,043	-0,182
-366,971	-200,000	-0,012	0,077
-365,956	281,772	-0,030	-0,040
-364,942	-61,825	0,157	0,048
-363,927	251,335	0,077	0,096
-362,912	800,000	0,020	-0,055
-361,898	133,900	0,045	-0,043
-360,883	-89,400	-0,260	-0,056
-359,869	429,701	-0,042	0,067
-358,854	800,000	-0,036	-0,106
-357,839	800,000	0,026	0,081
-356,825	-200,000	0,059	0,195
-355,810	-200,000	0,003	0,110
-354,796	87,109	-0,079	0,064
-353,781	788,551	-0,060	-0,121
-352,766	51,974	-0,138	-0,096
-351,752	46,214	0,057	0,038
-350,737	800,000	-0,011	-0,023
-349,723	359,589	-0,038	0,056
-348,708	86,903	0,034	0,027
-347,693	-158,482	0,120	-0,005
-346,679	134,479	0,078	0,074
-345,664	245,026	0,032	-0,040
-344,650	-200,000	0,001	-0,067
-343,635	164,847	-0,018	0,019
-342,620	-200,000	-0,013	-0,106
-341,606	451,582	-0,044	0,072
-340,591	-46,937	0,108	0,039
-339,577	-131,481	0,125	-0,012
-338,562	-200,000	0,010	0,116
-337,548	800,000	-0,018	0,040
-336,533	-200,000	0,003	-0,022
-335,518	-127,091	-0,087	-0,009
-334,504	-91,968	0,045	0,009
-333,489	-124,862	0,120	0,013
-332,475	-200,000	0,010	0,065
-331,460	34,169	-0,044	0,028
-330,445	-200,000	0,007	0,120
-329,431	51,448	0,120	0,084
-328,416	-36,991	-0,008	-0,003
-327,402	-117,809	-0,088	-0,011
-326,387	-1,783	0,051	0,026
-325,372	-164,579	-0,062	0,002
-324,358	-69,126	-0,078	-0,022
-323,343	-200,000	-0,014	-0,054
-322,329	-8,945	-0,083	0,041
-321,314	668,576	0,075	0,144
-320,299	-200,000	-0,012	0,045
-319,285	-200,000	-0,018	0,085
-318,270	486,359	-0,019	0,032
-317,256	-100,961	-0,194	0,035
-316,241	168,900	0,027	0,028
-315,226	458,857	0,034	0,056
-314,212	800,000	-0,033	-0,092
-313,197	297,790	0,077	0,104
-312,183	800,000	-0,031	0,085
-311,168	-200,000	0,006	-0,089
-310,153	277,653	-0,104	-0,136
-309,139	-113,151	-0,012	-0,002
-308,124	64,069	0,079	-0,059
-307,110	93,622	-0,052	-0,043
-306,095	111,915	0,056	0,049
-305,080	-200,000	-0,019	0,070
-304,066	425,390	0,017	-0,028
-303,051	496,949	-0,063	-0,106
-302,037	-200,000	0,001	-0,064
-301,022	36,152	0,063	-0,041
-300,008	-125,827	0,150	0,016
-298,993	33,158	0,072	-0,046
-297,978	-115,513	0,159	0,022
-296,964	-159,394	0,147	0,006
-295,949	-21,718	0,089	-0,040
-294,935	-43,812	0,026	0,010
-293,920	-83,085	0,040	-0,009
-292,905	-200,000	-0,020	0,151
-291,891	800,000	0,054	0,158
-290,876	98,629	0,027	-0,023
-289,862	580,049	-0,084	-0,151
-288,847	-200,000	-0,010	-0,055
-287,832	-190,131	0,161	-0,001
-286,818	-121,708	0,112	-0,013
-285,803	208,435	-0,016	-0,018
-284,789	-200,000	-0,011	-0,109
-283,774	-148,579	0,130	-0,008
-282,759	-75,441	0,042	0,011
-281,745	-1,918	0,114	-0,058
-280,730	245,910	-0,113	-0,139
-279,716	800,000	-0,021	0,060
-278,701	-79,882	-0,009	-0,002
-277,686	-99,814	0,074	0,013
-276,672	-142,808	0,085	-0,006
-275,657	-148,803	0,007	-0,000
-274,643	-34,867	-0,037	0,015
-273,628	-102,223	0,105	-0,018
-272,613	6,187	-0,091	-0,049
-271,599	-200,000	-0,013	0,094
-270,584	407,977	0,080	0,124
-269,570	-23,786	-0,066	0,029
-268,555	-200,000	0,014	0,055
-267,540	622,886	-0,041	-0,076
-266,526	-63,682	-0,080	-0,024
-265,511	-200,000	0,032	0,139
-264,497	363,465	0,063	-0,093
-263,482	-103,679	-0,134	0,023
-262,467	800,000	-0,061	0,157
-261,453	-200,000	0,005	0,025
-260,438	-181,830	-0,153	-0,002
-259,424	109,939	-0,041	-0,036
-258,409	-39,453	-0,073	0,028
-257,395	18,024	0,103	0,060
-256,380	-200,000	0,002	-0,049
-255,365	127,375	0,105	0,098
-254,351	-60,964	0,144	-0,044
-253,336	-118,194	-0,149	-0,019
-252,322	-18,318	-0,139	-0,063
-251,307	538,105	-0,015	-0,027
-250,292	166,461	-0,107	0,111
-249,278	800,000	0,052	0,160
-248,263	40,459	0,133	0,087
-247,249	-200,000	0,021	-0,178
-246,234	-37,393	-0,032	-0,013
-245,219	-200,000	0,008	-0,178
-244,205	-79,359	-0,056	-0,014
-243,190	-128,433	0,047	-0,005
-242,176	-200,000	0,002	-0,054
-241,161	69,070	0,090	0,068
-240,146	-200,000	0,007	0,103
-239,132	-116,278	-0,099	0,013
-238,117	-27,374	-0,075	-0,032
-237,103	-13,608	-0,017	-0,008
-236,088	19,608	0,055	-0,032
-235,073	800,000	-0,036	0,096
-234,059	-200,000	-0,011	-0,056
-233,044	-200,000	-0,014	-0,146
-232,030	-200,000	-0,019	0,144
-231,015	143,983	-0,077	-0,075
-230,000	137,735	0,128	-0,122
-228,986	399,301	0,050	-0,076
-227,971	8,054	0,034	0,019
-226,957	800,000	0,008	0,020
-225,942	369,308	0,024	0,036
-224,927	-200,000	0,012	-0,096
-223,913	-10,793	-0,049	0,024
-222,898	-74,368	-0,131	-0,034
-221,884	-200,000	-0,028	0,115
-220,869	235,983	0,038	-0,046
-219,855	-200,000	-0,003	-0,035
-218,840	1,263	-0,126	0,066
-217,825	59,181	-0,049	0,035
-216,811	-200,000	-0,020	-0,082
-215,796	-200,000	-0,011	-0,055
-214,782	-200,000	0,022	0,091
-213,767	800,000	0,049	0,125
-212,752	52,781	0,061	-0,042
-211,738	158,103	-0,082	0,084
-210,723	-200,000	0,015	-0,059
-209,709	-52,825	-0,074	0,025
-208,694	-157,280	-0,058	0,003
-207,679	-139,806	-0,051	-0,004
-206,665	-90,387	0,110	0,023
-205,650	-200,000	-0,002	-0,007
-204,636	404,948	0,061	-0,095
-203,621	-179,069	-0,045	0,001
-202,606	800,000	-0,072	0,183
-201,592	-170,938	-0,117	-0,003
-200,577	48,927	-0,086	0,059
-199,563	595,661	-0,036	-0,065
-198,548	-200,000	-0,020	0,080
-197,533	13,054	0,028	-0,016
-196,519	3,124	0,008	-0,004
-195,504	-15,210	0,124	-0,058
-194,490	137,247	0,105	-0,100
-193,475	65,232	-0,149	0,110
-192,460	204,565	-0,059	-0,067
-191,446	545,927	-0,071	-0,124
-190,431	-81,870	-0,045	0,011
-189,417	279,249	0,027	0,036
-188,402	-200,000	-0,015	0,058
-187,387	-167,782	-0,148	0,004
-186,373	22,948	0,030	0,018
-185,358	800,000	0,017	0,039
-184,344	-8,302	-0,055	0,027
-183,329	-200,000	-0,001	0,005
-182,315	376,147	0,078	-0,117
-181,300	-18,328	0,049	-0,022
-180,285	85,428	-0,033	-0,027
-179,271	-36,396	-0,068	-0,026
-178,256	-200,000	0,011	-0,044
-177,242	800,000	0,028	-0,084
-176,227	-137,680	0,031	0,003
-175,212	319,602	-0,055	0,076
-174,198	-200,000	0,002	0,018
-173,183	800,000	0,053	-0,147
-172,169	800,000	0,020	-0,042
-171,154	18,665	0,015	0,009
-170,139	154,297	-0,020	-0,020
-169,125	-200,000	-0,002	-0,061
-168,110	87,765	-0,094	0,076
-167,096	-200,000	-0,022	0,074
-166,081	-64,165	-0,126	0,037
-165,066	-40,772	0,096	0,036
-164,052	-200,000	0,018	0,090
-163,037	-200,000	0,008	-0,078
-162,023	-200,000	0,006	0,051
-161,008	28,545	0,118	0,073
-159,993	800,000	-0,013	0,030
-158,979	184,551	-0,070	-0,076
-157,964	-200,000	0,013	-0,075
-156,950	245,837	-0,062	0,076
-155,935	178,422	0,087	0,093
-154,920	500,343	-0,053	0,090
-153,906	800,000	0,052	0,133
-152,891	-152,366	-0,080	-0,004
-151,877	359,340	-0,068	-0,100
-150,862	701,078	-0,024	-0,047
-149,847	800,000	-0,025	-0,057
-148,833	-200,000	-0,017	0,097
-147,818	181,621	0,017	0,019
-146,804	-28,774	0,069	-0,029
-145,789	52,840	0,155	-0,108
-144,775	509,969	0,025	0,042
-143,760	50,499	0,097	-0,067
-142,745	-120,008	-0,050	-0,006
-141,731	800,000	-0,032	0,094
-140,716	-200,000	0,004	0,224
-139,702	467,342	-0,040	0,065
-138,687	-200,000	-0,010	0,167
-137,672	-159,364	0,209	0,008
-136,658	800,000	-0,013	-0,027
-135,643	800,000	0,035	-0,082
-134,629	523,600	-0,061	0,104
-133,614	-67,414	0,034	-0,010
-132,599	800,000	0,014	0,033
-131,585	800,000	0,047	0,112
-130,570	-125,902	-0,018	-0,002
-129,556	250,776	-0,038	0,047
-128,541	2,893	0,050	-0,027
-127,526	301,640	-0,039	0,053
-126,512	161,858	0,075	0,077
-125,497	-178,199	0,066	0,001
-124,483	-200,000	-0,024	0,171
-123,468	262,080	0,186	0,236
-122,453	-70,077	0,056	-0,015
-121,439	68,916	-0,055	0,041
-120,424	174,557	0,078	-0,082
-119,410	800,000	0,013	0,029
-118,395	800,000	-0,067	0,166
-117,380	-110,438	0,174	0,026
-116,366	800,000	0,020	-0,046
-115,351	800,000	-0,018	0,044
-114,337	-200,000	0,028	-0,109
-113,322	-200,000	-0,023	0,080
-112,307	-85,934	-0,186	0,041
-111,293	184,733	0,078	0,084
-110,278	114,407	0,123	0,109
-109,264	273,743	-0,101	0,130
-108,249	-85,451	0,033	-0,007
-107,234	5,032	0,026	0,014
-106,220	-101,552	-0,099	0,017
-105,205	-200,000	0,002	0,020
-104,191	-59,418	0,092	0,028
-103,176	-131,913	0,096	0,009
-102,162	153,761	0,037	0,037
-101,147	-133,023	-0,157	-0,014
-100,132	8,400	0,062	0,034
-99,118	-200,000	-0,015	0,123
-98,103	307,373	0,051	-0,069
-97,089	324,919	-0,030	0,042
-96,074	-63,834	0,025	-0,007
-95,059	72,714	0,049	0,037
-94,045	-200,000	-0,009	-0,085
-93,030	357,106	0,042	-0,061
-92,016	487,252	0,053	-0,088
-91,001	-135,376	0,101	0,009
-89,986	2,460	-0,052	0,028
-88,972	800,000	0,007	-0,017
-87,957	649,006	0,031	-0,058
-86,943	-107,369	-0,110	-0,017
-85,928	16,246	0,008	-0,004
-84,913	-161,416	-0,147	0,005
-83,899	16,050	-0,048	0,027
-82,884	-113,536	0,068	0,010
-81,870	-114,063	-0,029	-0,004
-80,855	-200,000	-0,017	-0,078
-79,840	800,000	0,069	0,171
-78,826	-63,558	0,077	-0,023
-77,811	-200,000	-0,009	-0,132
-76,797	51,031	0,035	0,024
-75,782	330,972	-0,063	0,089
-74,767	65,291	-0,071	-0,052
-73,753	800,000	0,019	0,047
-72,738	667,796	-0,011	-0,020
-71,724	-200,000	0,003	-0,061
-70,709	-128,139	-0,033	0,003
-69,694	800,000	0,021	0,059
-68,680	230,701	0,028	-0,033
-67,665	-200,000	0,022	-0,085
-66,651	326,679	-0,041	0,057
-65,636	259,764	-0,100	0,126
-64,622	116,808	0,083	-0,074
-63,607	800,000	0,016	0,036
-62,592	-97,602	0,044	0,008
-61,578	61,735	0,099	0,071
-60,563	800,000	-0,047	0,141
-59,549	54,592	-0,153	0,107
-58,534	-146,819	-1,422	-0,088
-57,519	800,000	-0,719	-1,451
-56,505	-200,000	-0,925	-4,410
-55,490	18,257	0,566	-0,327
-54,476	800,000	5,090	11,980
-53,461	-200,000	13,971	253,986
-52,446	-200,000	692,264	2253,534
-51,432	584,956	1623,659	2908,141
-50,417	118,302	1634,211	1462,953
-49,403	73,032	1288,076	975,939
-48,388	37,725	1024,164	658,733
-47,373	24,158	981,867	586,885
-46,359	23,353	971,671	578,125
-45,344	22,344	967,374	572,247
-44,330	22,330	965,705	571,191
-43,315	22,217	964,220	569,921
-42,300	22,207	963,135	569,223
-41,286	22,203	962,237	568,659
-40,271	22,125	961,338	567,849
-39,257	22,081	960,566	567,230
-38,242	22,118	959,384	566,629
-37,227	22,136	958,583	566,193
-36,213	22,053	957,843	565,464
-35,198	22,060	956,859	564,883
-34,184	22,098	956,284	564,645
-33,169	22,061	955,430	563,998
-32,154	22,132	954,538	563,677
-31,140	22,163	953,498	563,141
-30,125	22,157	952,831	562,705
-29,111	22,160	952,053	562,233
-28,096	22,177	951,179	561,749
-27,082	22,154	950,638	561,335
-26,067	22,190	949,717	560,884
-25,052	22,135	949,160	560,354
-24,038	22,141	948,505	559,964
-23,023	22,103	948,038	559,546
-22,009	22,174	947,104	559,200
-20,994	22,157	946,557	558,800
-19,979	22,166	945,937	558,441
-18,965	22,156	945,360	558,046
-17,950	22,148	944,747	557,636
-16,936	22,101	944,020	557,035
-15,921	22,125	943,345	556,692
-14,906	22,039	942,606	555,960
-13,892	22,075	941,926	555,653
-12,877	22,064	941,314	555,233
-11,863	22,009	940,665	554,653
-10,848	21,979	940,346	554,349
-9,833	22,125	939,898	554,524
-8,819	22,100	939,195	554,009
-7,804	22,079	938,313	553,401
-6,790	22,009	937,979	552,960
-5,775	22,044	937,254	552,622
-4,760	22,017	936,667	552,167
-3,746	22,022	935,864	551,688
-2,731	21,891	935,356	550,954
-1,717	21,872	934,646	550,452
-0,702	21,844	933,889	549,897
0,313	21,637	933,250	549,698
1,327	24,795	931,234	558,395
2,342	34,382	795,749	502,693
3,356	32,088	451,765	281,905
4,371	1,028	294,182	152,513
5,386	-3,417	275,097	138,391
6,400	-4,885	269,249	134,072
7,415	-5,490	266,888	132,327
8,429	-5,117	265,633	132,035
9,444	-4,921	264,775	131,776
10,459	-5,162	264,240	131,278
11,473	-5,379	263,631	130,767
12,488	-5,442	263,112	130,441
13,502	-5,447	262,600	130,171
14,517	-5,394	262,178	129,998
15,531	-5,202	261,987	130,065
16,546	-5,136	261,397	129,820
17,561	-5,056	261,068	129,717
18,575	-4,963	260,806	129,659
19,590	-5,117	260,524	129,369
20,604	-4,987	260,183	129,304
21,619	-5,037	259,788	129,051
22,634	-5,059	259,560	128,907
23,648	-5,112	259,109	128,624
24,663	-5,126	258,878	128,486
25,677	-5,200	258,766	128,353
26,692	-5,054	258,343	128,262
27,707	-5,039	258,223	128,205
28,721	-5,146	257,961	127,968
29,736	-5,291	257,617	127,657
30,750	-5,117	257,418	127,701
31,765	-5,189	257,104	127,470
32,780	-5,246	257,046	127,380
33,794	-4,948	256,604	127,412
34,809	-5,229	256,461	127,082
35,823	-5,053	256,194	127,094
36,838	-5,056	255,981	126,974
37,853	-5,285	255,817	126,679
38,867	-5,214	255,622	126,635
39,882	-5,205	255,425	126,533
40,896	-5,209	254,936	126,276
41,911	-5,267	254,971	126,231
42,926	-5,167	254,647	126,147
43,940	-5,390	254,531	125,883
44,955	-5,231	254,204	125,850
45,969	-5,160	253,971	125,785
46,984	-5,502	253,775	125,378
47,999	-5,701	253,497	125,055
49,013	-5,851	253,229	124,781
50,028	-5,687	252,862	124,732
51,042	-6,043	252,735	124,348
52,057	-6,002	252,490	124,252
53,071	-5,778	252,264	124,325
54,086	-5,853	252,186	124,210
55,101	-5,587	251,969	124,323
56,115	-5,548	251,861	124,292
57,130	-5,150	251,781	124,587
58,144	-4,844	251,475	124,688
59,159	-4,782	251,326	124,657
60,174	-5,062	251,102	124,293
61,188	-4,894	250,855	124,305
62,203	-5,064	250,768	124,104
63,217	-5,155	250,508	123,886
64,232	-4,935	250,379	124,001
65,247	-5,066	250,220	123,798
66,261	-5,201	249,896	123,511
67,276	-5,281	249,711	123,339
68,290	-5,300	249,323	123,120
69,305	-5,730	249,137	122,650
70,320	-5,503	248,834	122,683
71,334	-5,279	248,739	122,818
72,349	-5,064	248,776	123,008
73,363	-5,083	248,533	122,862
74,378	-5,202	248,397	122,681
75,393	-5,125	248,175	122,627
76,407	-5,174	248,017	122,496
77,422	-5,196	247,724	122,321
78,436	-5,143	247,496	122,243
79,451	-5,129	247,356	122,175
80,466	-5,162	247,077	121,998
81,480	-5,319	246,835	121,735
82,495	-5,379	246,673	121,593
83,509	-5,276	246,467	121,567
84,524	-5,394	246,365	121,407
85,539	-5,347	246,020	121,266
86,553	-5,519	245,945	121,073
87,568	-5,500	245,667	120,941
88,582	-5,226	245,617	121,137
89,597	-5,446	245,313	120,791
90,611	-5,248	245,322	120,951
91,626	-5,085	245,015	120,925
92,641	-5,190	244,936	120,788
93,655	-5,157	244,583	120,631
94,670	-5,342	244,512	120,429
95,684	-5,413	244,325	120,267
96,699	-5,357	244,248	120,266
97,714	-5,357	243,965	120,116
98,728	-5,353	243,771	120,013
99,743	-5,448	243,518	119,799
100,757	-5,518	243,209	119,577
101,772	-5,361	243,061	119,625
102,787	-5,334	242,773	119,495
103,801	-5,241	242,825	119,587
104,816	-5,311	242,770	119,491
105,830	-4,892	242,441	119,666
106,845	-5,192	242,308	119,341
107,860	-5,043	242,171	119,386
108,874	-5,158	241,775	119,086
109,889	-5,472	241,716	118,786
110,903	-5,246	241,534	118,873
111,918	-5,295	241,299	118,706
112,933	-5,373	241,214	118,590
113,947	-5,255	240,986	118,564
114,962	-5,299	240,870	118,459
115,976	-5,212	240,705	118,440
116,991	-5,021	240,460	118,466
118,006	-5,249	240,463	118,269
119,020	-5,363	240,290	118,080
120,035	-5,215	240,232	118,163
121,049	-5,181	240,019	118,075
122,064	-5,045	239,733	118,035
123,079	-5,174	239,712	117,909
124,093	-5,331	239,342	117,588
125,108	-5,544	239,121	117,295
126,122	-5,412	238,771	117,220
127,137	-5,663	238,837	117,037
128,151	-5,308	238,445	117,124
129,166	-5,399	238,392	117,014
130,181	-5,602	238,197	116,742
131,195	-5,603	238,133	116,699
132,210	-5,484	237,923	116,683
133,224	-5,237	237,614	116,721
134,239	-5,273	237,606	116,677
135,254	-5,157	237,371	116,646
136,268	-5,528	237,211	116,256
137,283	-5,472	236,956	116,166
138,297	-5,583	236,789	115,985
139,312	-5,746	236,581	115,740
140,327	-5,474	236,504	115,912
141,341	-5,046	236,458	116,225
142,356	-4,824	236,279	116,306
143,370	-4,919	236,147	116,153
144,385	-4,968	236,051	116,056
145,400	-4,820	235,820	116,051
146,414	-4,976	235,658	115,837
147,429	-4,923	235,468	115,775
148,443	-5,027	235,380	115,638
149,458	-5,097	235,207	115,487
150,473	-4,834	235,001	115,586
151,487	-5,129	234,675	115,179
152,502	-4,881	234,527	115,295
153,516	-4,837	234,423	115,269
154,531	-4,986	234,343	115,100
155,546	-4,938	234,145	115,030
156,560	-5,086	233,863	114,763
157,575	-5,204	233,661	114,561
158,589	-5,164	233,564	114,534
159,604	-4,990	233,378	114,571
160,619	-4,991	233,363	114,553
161,633	-4,731	233,144	114,642
162,648	-4,760	233,027	114,551
163,662	-4,845	232,881	114,401
164,677	-4,973	232,595	114,150
165,692	-4,981	232,481	114,077
166,706	-4,965	232,572	114,125
167,721	-4,701	232,211	114,145
168,735	-4,733	232,117	114,064
169,750	-4,792	231,995	113,947
170,764	-4,873	231,718	113,737
171,779	-4,797	231,535	113,697
172,794	-4,900	231,598	113,637
173,808	-5,078	231,312	113,346
174,823	-5,386	230,909	112,896
175,837	-5,392	230,604	112,733
176,852	-5,007	230,740	113,091
177,867	-4,917	230,625	113,095
178,881	-4,889	230,423	113,008
179,896	-4,946	230,300	112,893
180,910	-5,115	230,385	112,792
181,925	-5,048	230,116	112,703
182,940	-4,702	229,782	112,800
183,954	-4,967	229,921	112,651
184,969	-4,794	229,707	112,671
185,983	-4,597	229,568	112,747
186,998	-4,489	229,339	112,708
188,013	-4,705	229,178	112,451
189,027	-4,703	228,970	112,340
190,042	-4,808	228,970	112,248
191,056	-4,523	228,764	112,359
192,071	-4,669	228,428	112,071
193,086	-4,862	228,297	111,847
194,100	-4,925	228,112	111,697
195,115	-5,259	227,714	111,234
196,129	-6,049	227,437	110,478
197,144	-2,767	228,622	113,592
198,159	1,806	229,878	117,767
199,173	4,032	230,459	119,788
200,188	4,329	230,277	119,913
201,202	4,211	230,153	119,747
202,217	4,521	230,065	119,931
203,232	4,662	229,973	119,982
204,246	4,857	229,797	120,031
205,261	4,787	229,696	119,912
206,275	5,085	229,490	120,025
207,290	5,094	229,432	119,991
208,304	4,891	229,244	119,725
209,319	5,016	229,106	119,739
210,334	4,639	228,951	119,356
211,348	4,743	228,666	119,277
212,363	4,437	228,464	118,925
213,377	4,043	228,197	118,473
214,392	3,937	228,124	118,342
215,407	4,118	227,859	118,333
216,421	4,062	227,820	118,260
217,436	4,129	227,587	118,180
218,450	3,822	227,450	117,863
219,465	3,552	227,299	117,566
220,480	3,674	227,185	117,591
221,494	3,953	227,051	117,724
222,509	4,074	226,794	117,673
223,523	3,960	226,666	117,509
224,538	3,735	226,611	117,298
225,553	4,081	226,535	117,512
226,567	4,203	226,389	117,520
227,582	4,330	226,337	117,579
228,596	4,494	226,147	117,595
229,611	4,140	225,874	117,173
230,626	3,950	225,805	116,982
231,640	3,793	225,534	116,712
232,655	4,297	225,513	117,074
233,669	4,534	225,481	117,226
234,684	4,591	225,354	117,193
235,699	4,251	225,101	116,793
236,713	4,500	224,760	116,794
237,728	4,283	224,519	116,495
238,742	3,980	224,493	116,242
239,757	4,000	224,423	116,211
240,772	4,127	224,221	116,191
241,786	3,802	224,110	115,879
242,801	4,236	223,929	116,101
243,815	4,401	223,985	116,244
244,830	4,453	223,772	116,163
245,844	4,128	223,608	115,823
246,859	4,100	223,500	115,735
247,874	4,099	223,412	115,679
248,888	4,324	223,201	115,728
249,903	4,277	222,917	115,536
250,917	3,989	222,867	115,284
251,932	3,975	222,694	115,173
252,947	3,971	222,462	115,040
253,961	3,806	222,435	114,892
254,976	4,030	222,187	114,921
255,990	4,170	222,065	114,952
257,005	4,409	221,863	115,016
258,020	4,384	221,906	115,009
259,034	4,423	221,797	114,971
260,049	4,347	221,664	114,836
261,063	4,318	221,475	114,706
262,078	4,327	221,366	114,646
263,093	4,515	221,237	114,709
264,107	4,403	220,988	114,486
265,122	4,228	220,928	114,315
266,136	4,538	220,781	114,459
267,151	4,653	220,619	114,450
268,166	4,335	220,371	114,076
269,180	3,878	220,148	113,612
270,195	3,849	220,129	113,571
271,209	4,140	219,818	113,614
272,224	4,149	219,840	113,623
273,239	4,251	219,730	113,631
274,253	3,944	219,434	113,242
275,268	3,850	219,367	113,128
276,282	3,732	219,210	112,950
277,297	3,909	218,977	112,950
278,312	3,971	218,883	112,937
279,326	4,159	218,733	112,988
280,341	4,071	218,631	112,860
281,355	4,177	218,438	112,828
282,370	4,088	218,438	112,753
283,384	3,978	218,197	112,538
284,399	3,846	217,917	112,287
285,414	3,722	217,850	112,152
286,428	4,073	217,769	112,356
287,443	4,175	217,783	112,428
288,457	4,244	217,461	112,302
289,472	4,112	217,477	112,204
290,487	3,694	217,100	111,695
291,501	3,551	217,053	111,558
292,516	3,843	216,897	111,679
293,530	3,826	216,740	111,576
294,545	3,768	216,654	111,480
295,560	3,691	216,761	111,469
296,574	3,815	216,433	111,381
297,589	3,995	216,323	111,444
298,603	4,137	216,054	111,399
299,618	4,055	216,004	111,304
300,633	4,118	215,890	111,281
301,647	4,054	216,064	111,314
302,662	4,313	215,778	111,343
303,676	4,363	215,605	111,280
304,691	4,035	215,413	110,936
305,706	4,363	215,312	111,109
306,720	4,238	215,196	110,950
307,735	3,835	215,078	110,589
308,749	3,964	214,849	110,554
309,764	4,212	214,750	110,671
310,779	4,322	214,656	110,692
311,793	4,111	214,477	110,438
312,808	4,175	214,252	110,359
313,822	4,141	213,985	110,187
314,837	4,043	213,915	110,071
315,852	3,957	213,843	109,963
316,866	3,967	213,662	109,867
317,881	4,308	213,698	110,119
318,895	4,040	213,491	109,811
319,910	4,113	213,229	109,719
320,925	3,855	212,942	109,378
321,939	3,593	212,868	109,144
322,954	3,547	212,751	109,042
323,968	4,297	212,683	109,530
324,983	4,115	212,778	109,439
325,997	4,288	212,562	109,441
327,012	4,186	212,395	109,273
328,027	4,100	212,164	109,084
329,041	4,314	212,133	109,209
330,056	4,538	212,197	109,392
331,070	4,207	211,850	108,969
332,085	3,976	211,697	108,717
333,100	3,925	211,601	108,622
334,114	3,994	211,419	108,568
335,129	4,200	211,208	108,595
336,143	3,749	211,081	108,202
337,158	3,709	211,046	108,146
338,173	3,876	210,876	108,167
339,187	3,930	210,681	108,096
340,202	3,811	210,454	107,886
341,216	3,753	210,321	107,768
342,231	3,892	210,228	107,807
343,246	3,975	210,043	107,761
344,260	3,921	209,987	107,685
345,275	4,017	209,852	107,674
346,289	4,159	209,890	107,783
347,304	4,145	209,821	107,728
348,319	4,151	209,418	107,515
349,333	4,192	209,405	107,528
350,348	4,299	209,362	107,571
351,362	4,306	209,106	107,435
352,377	4,190	209,108	107,345
353,392	4,173	208,910	107,222
354,406	4,273	208,735	107,192
355,421	193,365	1343,093	1430,164
356,435	154,281	1481,406	1430,282
