DTS Sentinel unit serial number:	SN410029Multiplexer serial number:	ORYXHardware model number:	OX2-SRSoftware version number:	ORYX F/W v4,00 Oryx Data Collector v3.7.2.0data status	okinstallation	B6 Nyhavnadifferential loss correction	single-endedforward channel	channel 2reverse channel	N/Adate	2023/12/11time	07:45:08forward acquisition time	300,00reverse acquisition time	0,00gamma	499,1914k internal	0,3127k external	0,3127temperature offset calibration	1,0000default loss term (dB/km)	0,3820temperature slope calibration	1,0000multiplexer offset coefficient	1,0000multiplexer slope coefficient	1,0000fibre end	0,00T internal ref (°C)	18,72T ext. ref 1 (°C)	1,07T ext. ref 2 (°C)	1,09length (m)	temperature (°C)	Stokes	anti-Stokes-744,400	213,067	-0,106	-0,125
-743,385	-152,361	-0,303	0,016
-742,371	-200,000	0,019	0,109
-741,356	-87,570	-0,178	0,040
-740,342	82,066	0,158	-0,127
-739,327	-117,859	-0,345	0,046
-738,312	-200,000	-0,005	-0,068
-737,298	-142,669	-0,306	0,022
-736,283	-200,000	0,023	-0,164
-735,269	-109,009	-0,296	0,046
-734,254	800,000	0,016	0,035
-733,239	-44,676	-0,443	-0,164
-732,225	-68,451	0,083	0,024
-731,210	397,441	-0,017	0,027
-730,196	-83,487	0,097	-0,023
-729,181	-18,067	-0,138	-0,064
-728,167	-200,000	0,013	-0,096
-727,152	-143,847	-0,097	-0,007
-726,137	435,082	-0,047	-0,076
-725,123	370,182	0,007	-0,011
-724,108	202,940	-0,136	-0,156
-723,094	-200,000	0,013	-0,057
-722,079	173,175	-0,079	-0,085
-721,064	800,000	-0,032	-0,072
-720,050	-200,000	0,003	-0,079
-719,035	-112,884	-0,158	0,023
-718,021	214,145	-0,085	0,100
-717,006	-85,453	-0,155	0,036
-715,991	326,834	0,023	-0,034
-714,977	256,034	0,036	0,046
-713,962	-96,005	-0,090	0,018
-712,948	167,984	-0,080	0,085
-711,933	318,750	-0,081	-0,115
-710,918	800,000	0,015	-0,039
-709,904	122,158	-0,144	-0,134
-708,889	-200,000	-0,044	-0,155
-707,875	-81,049	-0,145	-0,035
-706,860	3,085	-0,159	0,085
-705,845	167,356	-0,039	-0,041
-704,831	-200,000	-0,000	0,112
-703,816	153,091	-0,065	-0,066
-702,802	-78,062	-0,092	-0,023
-701,787	146,505	-0,132	-0,132
-700,772	41,160	-0,111	-0,075
-699,758	-25,597	0,059	0,026
-698,743	-43,764	-0,099	-0,037
-697,729	-200,000	0,034	-0,211
-696,714	28,582	-0,083	0,052
-695,699	568,183	-0,059	-0,107
-694,685	123,305	0,074	0,069
-693,670	-75,527	-0,129	0,034
-692,656	800,000	-0,067	0,174
-691,641	800,000	0,035	0,094
-690,627	22,241	0,124	0,075
-689,612	-200,000	0,021	-0,092
-688,597	115,375	-0,079	-0,072
-687,583	-200,000	0,006	0,023
-686,568	-144,335	0,051	-0,003
-685,554	-200,000	0,014	-0,101
-684,539	254,269	-0,057	-0,073
-683,524	699,637	-0,062	-0,122
-682,510	-64,876	0,075	-0,022
-681,495	-120,853	0,117	0,014
-680,481	116,892	0,051	-0,047
-679,466	-153,709	-0,123	-0,006
-678,451	-30,928	-0,115	0,048
-677,437	-91,395	-0,064	-0,014
-676,422	-200,000	-0,006	-0,085
-675,408	-112,112	-0,067	0,010
-674,393	-200,000	-0,003	-0,097
-673,378	-113,791	-0,189	0,027
-672,364	45,620	-0,125	0,085
-671,349	14,044	-0,066	-0,038
-670,335	-200,000	-0,000	-0,040
-669,320	-62,164	-0,108	-0,033
-668,305	800,000	0,013	-0,042
-667,291	-200,000	0,007	-0,159
-666,276	-106,255	-0,026	-0,004
-665,262	-200,000	0,021	-0,154
-664,247	800,000	-0,038	-0,099
-663,232	-79,709	0,121	0,030
-662,218	-4,844	0,041	-0,021
-661,203	-200,000	0,000	0,070
-660,189	-73,872	0,095	-0,025
-659,174	-17,609	-0,057	0,026
-658,159	-119,601	-0,095	-0,012
-657,145	-200,000	-0,013	-0,082
-656,130	110,213	0,082	0,073
-655,116	142,947	-0,083	0,082
-654,101	800,000	-0,057	0,136
-653,086	-113,618	-0,204	0,029
-652,072	800,000	-0,057	-0,142
-651,057	-200,000	-0,062	-0,204
-650,043	-200,000	0,002	-0,042
-649,028	181,370	0,063	0,069
-648,014	-174,314	0,056	0,001
-646,999	800,000	0,029	0,090
-645,984	-200,000	0,025	0,110
-644,970	6,508	-0,043	-0,024
-643,955	-150,423	-0,165	0,009
-642,941	324,111	0,049	-0,070
-641,926	-52,058	-0,110	-0,037
-640,911	356,546	-0,071	0,105
-639,897	231,785	0,018	-0,022
-638,882	-200,000	0,006	-0,069
-637,868	346,834	-0,121	0,177
-636,853	-151,086	-0,091	-0,005
-635,838	407,509	0,067	-0,105
-634,824	172,860	-0,083	0,089
-633,809	800,000	-0,032	0,092
-632,795	-42,575	0,073	-0,027
-631,780	441,176	-0,010	0,016
-630,765	800,000	0,017	-0,045
-629,751	355,118	-0,079	-0,118
-628,736	128,574	-0,074	0,070
-627,722	391,603	-0,025	0,039
-626,707	-200,000	0,002	-0,089
-625,692	116,766	-0,033	-0,030
-624,678	398,275	0,046	0,071
-623,663	-200,000	-0,015	0,071
-622,649	261,225	-0,106	0,136
-621,634	6,638	0,095	-0,052
-620,619	800,000	-0,012	-0,039
-619,605	303,935	0,052	-0,071
-618,590	800,000	-0,027	0,067
-617,576	-200,000	0,007	0,030
-616,561	-200,000	0,001	0,099
-615,546	-174,640	0,080	-0,002
-614,532	-20,036	-0,049	0,022
-613,517	-150,032	0,051	0,003
-612,503	16,938	-0,088	-0,052
-611,488	88,345	0,042	0,034
-610,474	-200,000	0,033	-0,118
-609,459	-74,183	-0,138	-0,037
-608,444	437,662	-0,072	-0,116
-607,430	-35,465	-0,059	-0,024
-606,415	-200,000	0,039	-0,129
-605,401	-74,648	-0,083	0,022
-604,386	-58,039	0,083	-0,027
-603,371	118,018	0,030	0,027
-602,357	800,000	0,022	0,056
-601,342	-200,000	0,002	-0,054
-600,328	-143,409	0,137	0,010
-599,313	-12,832	0,051	-0,024
-598,298	20,799	-0,091	0,054
-597,284	-200,000	-0,013	-0,055
-596,269	-200,000	0,020	-0,068
-595,255	-157,825	0,097	0,004
-594,240	-194,610	-0,158	-0,001
-593,225	-20,727	-0,053	-0,024
-592,211	288,773	-0,043	0,058
-591,196	-200,000	0,005	0,021
-590,182	-163,099	0,047	-0,002
-589,167	-52,564	0,047	0,016
-588,152	700,747	-0,050	0,097
-587,138	449,392	0,021	-0,034
-586,123	-200,000	0,011	-0,039
-585,109	78,514	0,045	-0,035
-584,094	-74,128	-0,094	-0,025
-583,079	-107,192	-0,085	0,014
-582,065	120,722	0,051	-0,047
-581,050	-95,392	0,064	-0,013
-580,036	26,596	0,072	-0,045
-579,021	-200,000	0,009	-0,062
-578,006	-66,122	-0,151	-0,044
-576,992	648,419	0,070	-0,132
-575,977	16,069	0,106	0,062
-574,963	6,233	0,150	0,082
-573,948	-169,285	-0,159	-0,004
-572,934	800,000	-0,023	0,063
-571,919	119,239	-0,048	0,044
-570,904	-200,000	-0,008	0,040
-569,890	-200,000	-0,017	0,130
-568,875	-65,681	0,096	0,028
-567,861	-31,933	0,063	0,026
-566,846	325,191	-0,027	-0,038
-565,831	-200,000	-0,017	-0,083
-564,817	-200,000	-0,011	-0,093
-563,802	513,085	-0,048	0,083
-562,788	-159,406	-0,135	0,005
-561,773	-200,000	0,011	0,119
-560,758	67,032	-0,155	0,116
-559,744	538,551	0,045	-0,080
-558,729	-4,075	0,066	0,034
-557,715	330,276	-0,051	-0,072
-556,700	104,917	-0,033	0,029
-555,685	-183,762	-0,138	0,002
-554,671	-84,515	-0,100	-0,023
-553,656	-86,436	0,097	-0,022
-552,642	-89,990	-0,067	-0,014
-551,627	-136,771	0,064	0,005
-550,612	22,852	-0,083	-0,050
-549,598	235,401	0,122	-0,150
-548,583	-200,000	-0,036	-0,189
-547,569	-200,000	0,017	-0,060
-546,554	118,664	-0,100	0,091
-545,539	-125,728	-0,057	0,006
-544,525	44,065	-0,090	-0,061
-543,510	-200,000	-0,020	-0,069
-542,496	549,691	-0,088	-0,157
-541,481	-123,291	0,015	0,002
-540,466	-200,000	0,010	0,044
-539,452	-57,831	-0,064	-0,020
-538,437	800,000	0,058	0,125
-537,423	-51,376	-0,080	0,028
-536,408	-42,261	-0,018	0,007
-535,393	120,468	-0,097	-0,089
-534,379	800,000	-0,038	0,093
-533,364	30,328	-0,007	-0,005
-532,350	259,790	0,059	-0,075
-531,335	150,058	0,059	-0,059
-530,321	1,677	0,017	0,009
-529,306	180,936	0,009	-0,010
-528,291	-71,344	-0,024	-0,006
-527,277	800,000	-0,063	-0,134
-526,262	-94,933	0,150	-0,030
-525,248	800,000	0,016	-0,048
-524,233	186,002	0,066	0,072
-523,218	-18,297	0,115	0,053
-522,204	800,000	-0,031	0,095
-521,189	800,000	-0,018	-0,042
-520,175	116,316	0,031	-0,028
-519,160	-142,075	-0,026	0,002
-518,145	26,391	0,158	-0,097
-517,131	165,211	-0,012	0,013
-516,116	105,092	-0,086	0,075
-515,102	74,193	0,014	-0,011
-514,087	-153,714	-0,099	0,005
-513,072	-200,000	-0,001	-0,041
-512,058	367,862	0,055	0,082
-511,043	-101,996	0,053	0,009
-510,029	660,503	0,052	-0,100
-509,014	-200,000	0,013	-0,053
-507,999	-127,034	0,030	0,003
-506,985	100,761	0,069	-0,059
-505,970	-173,367	-0,169	-0,004
-504,956	262,097	-0,063	0,080
-503,941	-200,000	-0,034	0,143
-502,926	235,369	0,074	0,090
-501,912	116,702	0,028	-0,025
-500,897	-200,000	-0,008	0,048
-499,883	-200,000	0,009	-0,105
-498,868	-200,000	-0,008	-0,056
-497,853	83,383	-0,069	-0,056
-496,839	-200,000	0,002	0,012
-495,824	52,981	-0,060	-0,042
-494,810	595,430	-0,042	0,077
-493,795	-110,743	0,039	-0,006
-492,781	-59,570	-0,121	-0,038
-491,766	4,272	-0,122	-0,065
-490,751	-200,000	0,001	-0,014
-489,737	-200,000	-0,007	-0,058
-488,722	-200,000	-0,005	-0,115
-487,708	76,034	0,123	0,096
-486,693	-47,633	-0,103	0,037
-485,678	28,109	0,015	0,009
-484,664	-72,033	-0,046	0,012
-483,649	-94,178	0,051	-0,010
-482,635	-135,051	-0,039	0,003
-481,620	325,680	0,044	0,063
-480,605	-104,279	0,137	-0,023
-479,591	326,983	0,005	-0,007
-478,576	800,000	0,017	0,043
-477,562	-79,491	-0,067	-0,017
-476,547	-43,125	0,029	0,011
-475,532	117,431	-0,068	-0,061
-474,518	-103,858	-0,124	-0,021
-473,503	-200,000	0,011	0,110
-472,489	-200,000	-0,021	0,081
-471,474	51,825	-0,041	0,029
-470,459	-200,000	-0,021	-0,137
-469,445	-200,000	0,027	-0,121
-468,430	0,138	0,089	-0,046
-467,416	437,604	0,091	0,147
-466,401	16,810	-0,075	-0,044
-465,386	27,858	0,014	0,009
-464,372	45,840	-0,113	0,077
-463,357	100,419	-0,053	-0,045
-462,343	232,863	-0,035	-0,042
-461,328	-151,117	-0,076	-0,004
-460,313	-29,604	0,123	0,052
-459,299	142,873	0,081	-0,080
-458,284	72,149	0,090	0,069
-457,270	117,571	-0,099	0,090
-456,255	-134,084	-0,077	0,007
-455,241	-24,479	-0,129	-0,056
-454,226	800,000	-0,025	0,056
-453,211	127,036	0,026	0,024
-452,197	-200,000	0,053	0,197
-451,182	407,386	0,051	0,079
-450,168	-127,671	-0,094	-0,010
-449,153	235,926	-0,019	0,023
-448,138	-200,000	-0,027	-0,184
-447,124	340,480	-0,079	-0,113
-446,109	-2,130	0,022	0,012
-445,095	136,766	0,151	0,145
-444,080	-200,000	0,005	0,063
-443,065	-139,594	0,114	0,009
-442,051	-200,000	0,016	-0,083
-441,036	373,056	-0,031	-0,046
-440,022	3,682	-0,027	0,014
-439,007	-150,232	0,177	0,010
-437,992	-182,469	-0,055	0,001
-436,978	-200,000	0,026	-0,106
-435,963	253,706	0,056	0,071
-434,949	-81,196	-0,119	-0,029
-433,934	34,049	-0,095	-0,061
-432,919	91,047	-0,140	-0,116
-431,905	138,310	0,122	0,118
-430,890	-200,000	-0,027	0,187
-429,876	-200,000	-0,027	-0,138
-428,861	8,387	0,102	0,056
-427,846	689,397	-0,067	0,130
-426,832	-121,935	0,066	-0,008
-425,817	-200,000	0,003	0,040
-424,803	45,370	-0,087	-0,059
-423,788	-97,662	-0,166	-0,031
-422,773	-35,395	0,027	-0,011
-421,759	17,597	0,100	0,058
-420,744	-108,463	0,104	0,016
-419,730	165,526	-0,056	0,058
-418,715	-200,000	-0,001	-0,035
-417,701	339,290	0,053	-0,075
-416,686	229,017	0,089	0,107
-415,671	-200,000	0,001	-0,054
-414,657	28,453	0,100	-0,062
-413,642	-46,307	0,012	-0,004
-412,628	197,991	-0,075	0,085
-411,613	722,823	-0,045	-0,088
-410,598	-200,000	-0,013	-0,060
-409,584	-36,583	0,102	0,040
-408,569	148,828	0,030	-0,030
-407,555	800,000	0,070	0,163
-406,540	252,038	-0,034	0,043
-405,525	272,279	0,050	0,065
-404,511	262,842	-0,057	-0,073
-403,496	-1,031	-0,056	0,029
-402,482	-111,457	-0,058	-0,009
-401,467	-8,247	0,041	-0,020
-400,452	425,985	-0,010	0,016
-399,438	116,835	-0,044	0,040
-398,423	-51,439	-0,120	0,041
-397,409	107,100	-0,017	0,015
-396,394	-200,000	0,009	-0,092
-395,379	800,000	-0,013	-0,027
-394,365	-131,995	-0,174	-0,016
-393,350	-200,000	0,042	0,154
-392,336	125,631	-0,080	0,075
-391,321	-50,850	-0,026	-0,009
-390,306	800,000	0,031	0,099
-389,292	348,842	-0,094	-0,136
-388,277	184,042	-0,088	0,096
-387,263	-11,064	-0,038	0,019
-386,248	-95,065	-0,038	-0,007
-385,233	186,120	0,039	0,043
-384,219	-115,086	-0,074	0,010
-383,204	-54,232	-0,072	-0,024
-382,190	-200,000	0,001	0,009
-381,175	73,104	0,018	-0,013
-380,160	570,745	-0,036	-0,065
-379,146	121,589	0,049	0,045
-378,131	800,000	0,030	-0,070
-377,117	105,210	-0,114	0,099
-376,102	625,762	0,038	-0,071
-375,088	-22,309	-0,056	-0,025
-374,073	69,266	0,075	-0,056
-373,058	-167,446	0,119	0,003
-372,044	-166,684	0,173	0,005
-371,029	-28,149	0,135	-0,057
-370,015	-58,912	-0,130	-0,041
-369,000	53,630	0,088	0,062
-367,985	-60,955	-0,039	-0,012
-366,971	130,238	-0,025	0,024
-365,956	334,304	-0,067	-0,096
-364,942	-200,000	-0,004	-0,033
-363,927	328,853	0,022	0,032
-362,912	128,175	-0,054	-0,051
-361,898	-158,291	-0,056	0,002
-360,883	-200,000	0,018	0,119
-359,869	614,684	0,065	-0,119
-358,854	800,000	-0,029	-0,073
-357,839	-75,135	0,019	0,005
-356,825	232,798	0,131	-0,158
-355,810	-113,594	0,159	-0,022
-354,796	-44,971	-0,127	0,046
-353,781	-200,000	-0,024	0,096
-352,766	671,046	-0,034	0,065
-351,752	-3,076	0,069	-0,035
-350,737	-200,000	0,000	0,023
-349,723	800,000	0,041	-0,086
-348,708	-200,000	0,039	0,135
-347,693	204,888	-0,042	-0,048
-346,679	-200,000	0,008	-0,106
-345,664	393,024	-0,024	0,037
-344,650	178,390	-0,020	0,021
-343,635	-130,877	-0,044	0,004
-342,620	-16,913	0,073	0,034
-341,606	-200,000	-0,005	-0,033
-340,591	-66,651	-0,042	-0,012
-339,577	-200,000	-0,003	-0,079
-338,562	347,715	0,052	-0,075
-337,548	-200,000	-0,007	-0,101
-336,533	-200,000	0,010	0,077
-335,518	-138,013	0,035	0,003
-334,504	-200,000	0,012	-0,160
-333,489	-200,000	-0,002	0,018
-332,475	297,280	0,117	-0,158
-331,460	-50,756	-0,120	0,041
-330,445	-200,000	0,010	0,087
-329,431	224,911	0,063	-0,074
-328,416	-200,000	0,024	0,139
-327,402	-200,000	-0,000	0,022
-326,387	-25,161	0,075	-0,032
-325,372	218,692	-0,036	0,042
-324,358	-74,335	-0,171	-0,045
-323,343	-46,808	-0,045	-0,016
-322,329	-200,000	0,018	0,065
-321,314	-36,279	0,186	0,073
-320,299	800,000	0,027	-0,073
-319,285	419,849	0,056	0,088
-318,270	25,190	0,082	-0,050
-317,256	-200,000	0,003	-0,040
-316,241	61,156	-0,182	-0,132
-315,226	129,555	0,014	0,013
-314,212	-101,393	-0,100	-0,018
-313,197	-144,154	0,074	-0,005
-312,183	-169,738	0,089	-0,002
-311,168	-31,686	-0,041	-0,017
-310,153	-135,125	-0,107	0,009
-309,139	31,547	0,093	-0,058
-308,124	262,653	0,020	0,025
-307,110	16,068	0,132	-0,076
-306,095	7,073	0,076	0,041
-305,080	800,000	-0,050	0,128
-304,066	800,000	-0,084	0,190
-303,051	-83,775	0,154	0,036
-302,037	-98,894	-0,083	-0,015
-301,022	-200,000	0,010	0,109
-300,008	232,405	0,085	0,103
-298,993	71,654	0,078	-0,059
-297,978	-200,000	0,000	0,093
-296,964	-200,000	-0,002	0,025
-295,949	-95,389	-0,088	-0,017
-294,935	-200,000	-0,024	-0,089
-293,920	-200,000	0,013	-0,126
-292,905	587,252	0,035	-0,064
-291,891	-200,000	-0,042	0,178
-290,876	65,951	0,015	-0,011
-289,862	94,613	0,023	-0,019
-288,847	168,508	0,045	0,047
-287,832	-90,458	0,093	0,020
-286,818	634,626	0,097	-0,181
-285,803	800,000	0,040	0,085
-284,789	-40,643	-0,095	0,036
-283,774	628,303	0,042	0,079
-282,759	106,927	-0,043	0,037
-281,745	83,038	0,034	-0,027
-280,730	-200,000	0,002	-0,164
-279,716	149,485	0,017	0,017
-278,701	-70,172	0,084	0,023
-277,686	55,078	-0,068	-0,048
-276,672	-200,000	0,004	0,095
-275,657	325,046	0,053	0,075
-274,643	404,570	-0,048	-0,074
-273,628	-200,000	0,039	-0,186
-272,613	-200,000	-0,004	-0,061
-271,599	703,366	0,038	-0,074
-270,584	160,278	0,130	0,132
-269,570	-129,822	0,135	-0,013
-268,555	-123,734	-0,175	0,020
-267,540	640,478	0,049	-0,092
-266,526	79,013	0,092	-0,072
-265,511	87,631	-0,116	-0,094
-264,497	-107,434	0,067	-0,011
-263,482	-136,822	0,074	0,006
-262,467	1,220	-0,126	0,066
-261,453	-200,000	-0,012	0,089
-260,438	-200,000	0,015	0,119
-259,424	-200,000	0,046	-0,195
-258,409	88,835	0,049	0,040
-257,395	123,250	-0,072	-0,066
-256,380	-89,900	0,125	-0,026
-255,365	-44,520	0,084	0,031
-254,351	800,000	0,088	0,181
-253,336	46,131	0,019	-0,013
-252,322	800,000	-0,015	0,037
-251,307	60,333	0,089	-0,064
-250,292	-200,000	0,018	-0,061
-249,278	26,578	-0,083	0,051
-248,263	-127,296	-0,058	-0,006
-247,249	-200,000	-0,043	0,149
-246,234	117,359	-0,043	-0,039
-245,219	-7,653	-0,113	-0,055
-244,205	800,000	-0,020	-0,056
-243,190	-200,000	-0,015	-0,083
-242,176	300,781	0,046	0,062
-241,161	556,644	0,030	-0,054
-240,146	98,784	0,018	-0,015
-239,132	55,453	-0,050	-0,036
-238,117	173,572	-0,022	-0,023
-237,103	-73,269	0,059	-0,016
-236,088	-200,000	-0,007	-0,104
-235,073	-200,000	0,009	0,147
-234,059	-91,668	0,038	0,008
-233,044	325,250	-0,047	0,066
-232,030	-55,836	-0,079	-0,026
-231,015	326,320	-0,063	0,089
-230,000	505,856	-0,072	0,122
-228,986	278,258	0,030	-0,040
-227,971	-200,000	0,034	0,139
-226,957	-103,137	0,083	-0,014
-225,942	66,032	-0,057	-0,042
-224,927	-149,606	0,062	0,004
-223,913	707,765	-0,041	0,080
-222,898	29,111	0,048	-0,030
-221,884	-178,865	0,099	0,002
-220,869	800,000	-0,015	-0,046
-219,855	-25,660	0,059	-0,025
-218,840	-45,691	0,046	-0,017
-217,825	-200,000	-0,012	0,117
-216,811	-200,000	0,003	-0,094
-215,796	66,048	-0,060	-0,045
-214,782	-76,984	0,155	0,039
-213,767	-113,223	-0,049	-0,007
-212,752	254,683	0,027	-0,034
-211,738	138,272	0,060	0,058
-210,723	586,331	-0,028	0,050
-209,709	800,000	0,013	-0,037
-208,694	269,337	0,045	-0,058
-207,679	-90,536	0,017	0,004
-206,665	800,000	0,008	0,025
-205,650	-200,000	0,003	0,051
-204,636	-200,000	0,009	-0,109
-203,621	307,312	-0,086	0,117
-202,606	-200,000	-0,000	-0,124
-201,592	562,827	-0,025	-0,043
-200,577	-200,000	0,014	0,056
-199,563	800,000	0,038	-0,122
-198,548	-46,988	0,133	0,047
-197,533	-118,653	0,092	-0,012
-196,519	311,286	0,032	0,044
-195,504	213,845	-0,090	-0,104
-194,490	149,478	0,033	-0,033
-193,475	70,425	-0,040	-0,030
-192,460	800,000	0,042	0,098
-191,446	-168,540	-0,112	-0,003
-190,431	15,488	0,151	0,086
-189,417	800,000	0,020	0,055
-188,402	-43,325	0,021	0,008
-187,387	-200,000	0,010	-0,089
-186,373	-46,387	-0,106	-0,038
-185,358	-200,000	-0,019	-0,078
-184,344	800,000	0,033	0,079
-183,329	-61,286	0,063	-0,019
-182,315	-177,279	-0,069	-0,001
-181,300	109,525	-0,015	0,013
-180,285	800,000	-0,090	-0,237
-179,271	252,592	-0,059	0,074
-178,256	-200,000	-0,009	0,119
-177,242	-99,491	0,048	0,009
-176,227	21,266	0,109	-0,064
-175,212	-12,190	0,141	0,067
-174,198	-107,148	-0,078	0,012
-173,183	-30,452	-0,108	0,044
-172,169	-200,000	0,013	-0,114
-171,154	430,081	-0,059	-0,094
-170,139	-144,049	0,114	-0,008
-169,125	460,003	0,045	0,073
-168,110	800,000	-0,060	0,182
-167,096	-71,207	-0,056	0,015
-166,081	709,781	-0,049	-0,096
-165,066	12,470	-0,091	0,051
-164,052	116,158	0,028	0,025
-163,037	800,000	-0,039	-0,104
-162,023	46,214	0,043	-0,029
-161,008	800,000	0,036	0,100
-159,993	42,902	0,035	-0,023
-158,979	311,710	-0,019	0,026
-157,964	800,000	0,043	0,123
-156,950	-21,912	0,121	0,053
-155,935	265,903	-0,074	0,095
-154,920	-200,000	-0,007	0,105
-153,906	-37,066	0,033	0,013
-152,891	-37,246	0,208	0,080
-151,877	-89,747	0,074	0,016
-150,862	37,126	-0,049	-0,031
-149,847	549,296	-0,070	-0,123
-148,833	800,000	-0,053	0,116
-147,818	800,000	-0,028	0,057
-146,804	30,308	0,029	-0,018
-145,789	-200,000	0,005	0,042
-144,775	-22,587	0,113	-0,050
-143,760	800,000	-0,022	0,044
-142,745	-200,000	-0,023	-0,081
-141,731	800,000	-0,020	0,046
-140,716	-78,254	0,077	-0,019
-139,702	-200,000	-0,033	-0,108
-138,687	261,840	-0,095	-0,120
-137,672	140,064	0,089	-0,086
-136,658	-200,000	0,012	0,059
-135,643	89,232	0,043	-0,035
-134,629	800,000	0,042	-0,106
-133,614	-200,000	0,000	-0,125
-132,599	800,000	0,008	0,024
-131,585	800,000	-0,031	0,101
-130,570	120,090	-0,071	-0,064
-129,556	300,583	-0,072	0,097
-128,541	39,817	-0,096	-0,062
-127,526	-192,206	0,091	0,001
-126,512	-53,697	0,099	-0,033
-125,497	800,000	0,014	-0,039
-124,483	396,196	0,009	-0,014
-123,468	-131,213	0,098	-0,009
-122,453	-200,000	-0,024	-0,118
-121,439	-64,080	-0,079	-0,023
-120,424	160,001	-0,039	0,039
-119,410	84,770	0,081	0,065
-118,395	-200,000	0,006	-0,055
-117,380	-200,000	0,024	-0,115
-116,366	-200,000	-0,034	0,149
-115,351	88,529	0,019	0,015
-114,337	800,000	-0,028	-0,073
-113,322	800,000	0,007	0,014
-112,307	105,429	-0,122	0,105
-111,293	-200,000	0,019	-0,070
-110,278	-200,000	-0,000	-0,020
-109,264	153,558	-0,057	-0,057
-108,249	-25,576	-0,091	-0,039
-107,234	192,721	-0,124	-0,136
-106,220	-145,615	-0,096	0,006
-105,205	-200,000	0,005	0,055
-104,191	181,832	0,018	0,020
-103,176	800,000	0,051	0,134
-102,162	41,635	0,050	0,033
-101,147	214,198	-0,053	0,061
-100,132	453,676	-0,014	-0,022
-99,118	-200,000	-0,017	-0,078
-98,103	-200,000	-0,015	0,116
-97,089	39,238	-0,089	0,058
-96,074	-200,000	-0,020	0,066
-95,059	-134,603	0,122	-0,011
-94,045	-37,047	0,057	0,022
-93,030	-200,000	-0,003	-0,126
-92,016	800,000	0,048	-0,105
-91,001	58,024	0,150	0,107
-89,986	800,000	0,027	-0,075
-88,972	103,295	-0,078	-0,066
-87,957	800,000	-0,086	0,209
-86,943	79,392	-0,034	-0,027
-85,928	60,161	-0,035	-0,025
-84,913	148,901	-0,147	0,144
-83,899	-200,000	0,065	-0,000
-82,884	215,736	0,040	0,047
-81,870	490,385	0,077	0,128
-80,855	-29,212	0,014	0,006
-79,840	800,000	0,028	0,063
-78,826	-200,000	0,008	0,092
-77,811	28,373	-0,029	-0,018
-76,797	-32,998	0,078	0,031
-75,782	800,000	-0,036	-0,075
-74,767	-200,000	0,034	0,218
-73,753	25,495	0,064	0,039
-72,738	522,558	-0,006	-0,010
-71,724	-3,461	-0,029	0,015
-70,709	-200,000	0,005	0,071
-69,694	32,166	0,030	0,019
-68,680	-142,084	-0,073	0,005
-67,665	-200,000	0,030	0,157
-66,651	22,486	-0,030	0,018
-65,636	72,910	-0,029	0,022
-64,622	28,948	0,108	0,066
-63,607	-170,135	-0,069	-0,002
-62,592	-200,000	0,006	-0,030
-61,578	33,086	-0,021	0,013
-60,563	-200,000	0,012	-0,139
-59,549	9,930	0,063	0,035
-58,534	-43,697	-1,809	-0,657
-57,519	800,000	-0,467	-1,194
-56,505	-200,000	-1,122	-4,638
-55,490	-156,523	0,621	0,028
-54,476	800,000	5,172	11,931
-53,461	-200,000	15,838	280,850
-52,446	-200,000	700,451	2276,897
-51,432	590,968	1615,835	2900,815
-50,417	125,194	1621,101	1481,013
-49,403	88,032	1281,759	1029,298
-48,388	38,058	1025,970	659,882
-47,373	21,894	987,927	581,932
-46,359	20,669	976,628	571,213
-45,344	18,956	972,418	563,088
-44,330	19,108	971,011	562,752
-43,315	18,752	969,591	560,736
-42,300	18,799	968,333	560,140
-41,286	18,767	967,377	559,461
-40,271	18,769	966,510	558,945
-39,257	18,840	965,531	558,587
-38,242	18,764	965,003	558,011
-37,227	18,749	964,095	557,415
-36,213	18,719	963,172	556,762
-35,198	18,698	962,349	556,195
-34,184	18,769	961,647	556,000
-33,169	18,751	960,576	555,301
-32,154	18,778	959,801	554,918
-31,140	18,789	958,906	554,412
-30,125	18,776	958,267	553,978
-29,111	18,847	957,294	553,627
-28,096	18,785	956,885	553,166
-27,082	18,685	956,300	552,481
-26,067	18,759	955,388	552,174
-25,052	18,738	954,592	551,623
-24,038	18,731	953,850	551,151
-23,023	18,796	952,997	550,844
-22,009	18,819	952,417	550,561
-20,994	18,719	951,841	549,886
-19,979	18,832	951,087	549,791
-18,965	18,730	950,495	549,099
-17,950	18,714	950,001	548,740
-16,936	18,700	949,330	548,286
-15,921	18,674	948,678	547,803
-14,906	18,651	947,784	547,191
-13,892	18,620	947,279	546,778
-12,877	18,582	946,581	546,235
-11,863	18,523	946,127	545,761
-10,848	18,666	945,403	545,778
-9,833	18,745	944,937	545,740
-8,819	18,691	944,295	545,176
-7,804	18,613	943,553	544,475
-6,790	18,572	943,323	544,192
-5,775	18,659	942,527	543,989
-4,760	18,591	942,019	543,455
-3,746	18,638	941,292	543,164
-2,731	18,439	940,633	542,128
-1,717	18,453	939,955	541,762
-0,702	18,463	939,342	541,420
0,313	18,274	938,422	541,106
1,327	21,418	936,719	550,040
2,342	30,554	794,567	490,927
3,356	27,155	447,925	271,627
4,371	-3,746	293,839	147,243
5,386	-7,909	275,256	133,965
6,400	-9,385	269,336	129,699
7,415	-10,022	267,130	128,037
8,429	-9,257	266,017	128,195
9,444	-9,195	265,242	127,868
10,459	-9,003	264,696	127,768
11,473	-9,087	264,188	127,435
12,488	-8,836	263,590	127,363
13,502	-9,128	263,044	126,824
14,517	-8,994	262,921	126,874
15,531	-8,454	262,447	127,124
16,546	-8,117	262,175	127,285
17,561	-8,277	261,906	126,999
18,575	-8,033	261,653	127,086
19,590	-8,262	261,148	126,622
20,604	-8,380	261,002	126,434
21,619	-8,229	260,446	126,289
22,634	-8,308	260,253	126,113
23,648	-8,475	260,009	125,834
24,663	-8,241	259,726	125,895
25,677	-8,320	259,544	125,725
26,692	-8,110	259,159	125,715
27,707	-8,272	258,904	125,435
28,721	-8,437	258,735	125,196
29,736	-8,456	258,441	125,026
30,750	-8,316	258,059	124,953
31,765	-8,357	257,843	124,802
32,780	-8,540	257,744	124,580
33,794	-8,248	257,393	124,658
34,809	-8,439	257,150	124,360
35,823	-8,461	257,013	124,263
36,838	-8,348	256,823	124,260
37,853	-8,409	256,485	124,032
38,867	-8,274	256,211	124,007
39,882	-8,407	256,036	123,795
40,896	-8,396	255,759	123,659
41,911	-8,292	255,553	123,640
42,926	-8,588	255,459	123,323
43,940	-8,372	255,147	123,352
44,955	-8,524	254,863	123,070
45,969	-8,591	254,717	122,930
46,984	-8,607	254,507	122,803
47,999	-8,690	254,213	122,577
49,013	-8,894	254,072	122,320
50,028	-8,830	253,708	122,190
51,042	-8,925	253,545	122,018
52,057	-8,798	253,183	121,943
53,071	-8,912	253,151	121,818
54,086	-9,030	252,926	121,596
55,101	-8,809	252,744	121,690
56,115	-8,682	252,509	121,676
57,130	-8,597	252,471	121,721
58,144	-8,237	252,210	121,896
59,159	-8,386	251,947	121,629
60,174	-8,515	251,821	121,445
61,188	-8,463	251,523	121,336
62,203	-8,336	251,323	121,338
63,217	-8,469	251,207	121,157
64,232	-8,297	250,897	121,145
65,247	-8,434	250,557	120,852
66,261	-8,579	250,390	120,635
67,276	-8,546	250,297	120,609
68,290	-8,674	249,959	120,326
69,305	-8,961	249,753	119,969
70,320	-8,849	249,641	120,000
71,334	-8,469	249,515	120,255
72,349	-8,481	249,142	120,054
73,363	-8,541	249,080	119,962
74,378	-8,465	248,891	119,926
75,393	-8,515	248,624	119,743
76,407	-8,400	248,372	119,710
77,422	-8,335	248,236	119,689
78,436	-8,312	247,947	119,558
79,451	-8,491	247,884	119,365
80,466	-8,389	247,620	119,314
81,480	-8,508	247,323	119,059
82,495	-8,576	247,220	118,941
83,509	-8,512	246,981	118,870
84,524	-8,621	246,851	118,704
85,539	-8,583	246,601	118,606
86,553	-8,606	246,411	118,485
87,568	-8,685	246,390	118,397
88,582	-8,549	246,028	118,327
89,597	-8,633	245,800	118,136
90,611	-8,386	245,606	118,240
91,626	-8,444	245,675	118,214
92,641	-8,501	245,346	117,998
93,655	-8,690	245,177	117,746
94,670	-8,554	244,967	117,750
95,684	-8,743	244,745	117,474
96,699	-8,543	244,533	117,530
97,714	-8,650	244,436	117,383
98,728	-8,638	244,219	117,278
99,743	-8,777	244,009	117,051
100,757	-8,709	243,759	116,977
101,772	-8,601	243,433	116,900
102,787	-8,635	243,401	116,846
103,801	-8,722	243,227	116,679
104,816	-8,639	243,006	116,632
105,830	-8,585	242,974	116,652
106,845	-8,613	242,781	116,525
107,860	-8,604	242,547	116,410
108,874	-8,420	242,166	116,369
109,889	-8,952	242,021	115,849
110,903	-8,871	241,874	115,834
111,918	-8,877	241,584	115,680
112,933	-9,005	241,453	115,502
113,947	-8,746	241,318	115,640
114,962	-8,503	241,149	115,750
115,976	-8,645	241,205	115,650
116,991	-8,732	240,979	115,459
118,006	-8,553	240,742	115,482
119,020	-8,745	240,749	115,317
120,035	-8,737	240,504	115,197
121,049	-8,561	240,308	115,237
122,064	-8,686	240,072	115,011
123,079	-8,719	239,983	114,931
124,093	-8,783	239,742	114,753
125,108	-8,827	239,540	114,609
126,122	-8,859	239,474	114,542
127,137	-8,573	239,107	114,590
128,151	-8,808	238,928	114,302
129,166	-8,745	238,792	114,277
130,181	-8,648	238,583	114,247
131,195	-8,815	238,451	114,037
132,210	-8,748	238,235	113,979
133,224	-8,765	238,101	113,890
134,239	-8,740	237,779	113,746
135,254	-8,862	237,626	113,564
136,268	-8,894	237,464	113,451
137,283	-8,723	237,191	113,449
138,297	-8,797	237,033	113,302
139,312	-9,022	236,792	112,996
140,327	-8,805	236,693	113,114
141,341	-8,240	236,678	113,553
142,356	-8,593	236,552	113,197
143,370	-8,397	236,234	113,193
144,385	-8,484	236,225	113,109
145,400	-8,224	236,034	113,216
146,414	-8,224	235,895	113,139
147,429	-8,317	235,597	112,912
148,443	-8,474	235,570	112,763
149,458	-8,536	235,281	112,564
150,473	-8,375	235,020	112,558
151,487	-8,593	234,843	112,289
152,502	-8,498	234,799	112,334
153,516	-8,429	234,679	112,322
154,531	-8,497	234,552	112,197
155,546	-8,363	234,252	112,151
156,560	-8,750	234,195	111,804
157,575	-8,748	234,027	111,716
158,589	-8,764	233,597	111,488
159,604	-8,552	233,598	111,647
160,619	-8,064	233,524	111,990
161,633	-8,215	233,471	111,834
162,648	-8,334	233,353	111,673
163,662	-8,453	233,085	111,441
164,677	-8,577	232,894	111,241
165,692	-8,463	232,800	111,277
166,706	-8,202	232,640	111,397
167,721	-8,231	232,485	111,289
168,735	-8,268	232,390	111,205
169,750	-8,506	232,246	110,938
170,764	-8,333	231,882	110,891
171,779	-8,662	231,893	110,627
172,794	-8,303	231,611	110,765
173,808	-8,483	231,378	110,502
174,823	-8,683	231,284	110,290
175,837	-8,776	230,921	110,034
176,852	-8,985	230,976	109,886
177,867	-8,619	230,667	110,017
178,881	-8,528	230,692	110,090
179,896	-8,427	230,533	110,084
180,910	-8,331	230,362	110,067
181,925	-8,518	230,181	109,825
182,940	-8,541	229,986	109,704
183,954	-8,516	230,060	109,748
184,969	-8,085	229,850	109,976
185,983	-8,298	229,792	109,771
186,998	-8,103	229,314	109,685
188,013	-8,063	229,370	109,734
189,027	-8,266	229,217	109,493
190,042	-8,306	229,062	109,378
191,056	-8,100	228,675	109,343
192,071	-8,354	228,557	109,080
193,086	-8,412	228,483	108,990
194,100	-9,060	227,835	108,169
195,115	-10,596	227,154	106,650
196,129	-10,780	227,285	106,560
197,144	-6,215	228,650	110,736
198,159	-0,747	230,234	115,758
199,173	2,385	231,163	118,661
200,188	3,305	231,257	119,416
201,202	3,484	231,333	119,584
202,217	3,912	230,918	119,693
203,232	4,286	230,998	120,015
204,246	4,077	230,844	119,761
205,261	4,079	230,795	119,727
206,275	4,128	230,515	119,608
207,290	3,983	230,352	119,401
208,304	4,051	230,195	119,362
209,319	3,932	230,078	119,198
210,334	4,013	229,798	119,105
211,348	3,785	229,463	118,744
212,363	3,129	229,424	118,207
213,377	2,983	229,040	117,886
214,392	2,699	228,888	117,578
215,407	2,788	228,650	117,514
216,421	2,645	228,601	117,368
217,436	2,450	228,331	117,069
218,450	2,429	228,067	116,907
219,465	2,631	228,132	117,085
220,480	2,553	227,901	116,896
221,494	2,495	227,879	116,830
222,509	2,913	227,642	117,018
223,523	2,947	227,547	116,986
224,538	2,839	227,300	116,765
225,553	2,817	227,326	116,751
226,567	2,553	227,068	116,407
227,582	2,651	226,948	116,410
228,596	2,831	226,739	116,429
229,611	2,777	226,655	116,334
230,626	2,768	226,429	116,202
231,640	2,754	226,351	116,140
232,655	2,437	226,294	115,860
233,669	2,750	225,899	115,884
234,684	2,777	225,893	115,891
235,699	2,682	225,757	115,740
236,713	2,590	225,733	115,647
237,728	3,033	225,417	115,811
238,742	2,936	225,331	115,683
239,757	3,117	225,072	115,676
240,772	2,999	225,086	115,584
241,786	3,015	225,011	115,547
242,801	3,134	224,947	115,594
243,815	3,357	224,682	115,616
244,830	3,419	224,455	115,536
245,844	3,156	224,343	115,269
246,859	3,160	224,256	115,217
247,874	3,235	224,091	115,179
248,888	2,936	224,003	114,899
249,903	2,917	223,750	114,744
250,917	2,856	223,612	114,617
251,932	2,693	223,624	114,491
252,947	3,338	223,252	114,774
253,961	2,960	223,196	114,451
254,976	2,818	222,998	114,233
255,990	2,795	222,968	114,191
257,005	3,176	222,712	114,334
258,020	3,083	222,732	114,264
259,034	3,261	222,579	114,309
260,049	3,136	222,424	114,126
261,063	3,200	222,138	114,016
262,078	3,033	222,123	113,874
263,093	3,148	221,851	113,810
264,107	2,968	221,840	113,661
265,122	3,162	221,636	113,690
266,136	3,192	221,475	113,619
267,151	3,154	221,417	113,552
268,166	3,140	221,181	113,410
269,180	2,944	220,961	113,142
270,195	3,122	220,773	113,167
271,209	2,954	220,695	112,993
272,224	2,926	220,620	112,924
273,239	2,935	220,471	112,844
274,253	2,720	220,366	112,622
275,268	2,662	220,059	112,412
276,282	2,797	219,816	112,377
277,297	2,557	219,840	112,202
278,312	2,821	219,686	112,308
279,326	2,974	219,541	112,336
280,341	2,629	219,519	112,061
281,355	2,874	219,320	112,130
282,370	2,746	219,206	111,968
283,384	2,635	218,864	111,701
284,399	2,633	218,721	111,617
285,414	2,996	218,845	111,937
286,428	2,927	218,646	111,774
287,443	2,998	218,705	111,846
288,457	2,757	218,467	111,539
289,472	3,104	218,223	111,657
290,487	2,934	217,920	111,368
291,501	2,784	217,696	111,134
292,516	2,780	217,759	111,154
293,530	3,042	217,691	111,300
294,545	3,039	217,510	111,196
295,560	3,018	217,337	111,082
296,574	3,035	217,349	111,090
297,589	3,195	217,129	111,084
298,603	3,377	216,962	111,122
299,618	3,008	216,933	110,829
300,633	2,874	216,786	110,646
301,647	3,614	216,510	111,032
302,662	3,376	216,484	110,836
303,676	2,933	216,461	110,493
304,691	2,867	216,177	110,291
305,706	3,394	215,868	110,504
306,720	3,137	215,858	110,303
307,735	3,014	215,797	110,174
308,749	3,143	215,425	110,067
309,764	3,054	215,438	109,999
310,779	3,251	215,349	110,086
311,793	3,166	215,240	109,959
312,808	3,040	215,042	109,758
313,822	3,208	214,840	109,766
314,837	2,928	214,749	109,508
315,852	2,890	214,682	109,438
316,866	3,100	214,478	109,475
317,881	3,167	214,379	109,462
318,895	2,989	214,166	109,216
319,910	2,952	214,003	109,096
320,925	2,804	213,834	108,895
321,939	2,713	213,723	108,764
322,954	2,856	213,532	108,759
323,968	3,084	213,416	108,853
324,983	3,070	213,330	108,789
325,997	2,962	213,206	108,640
327,012	2,947	213,111	108,571
328,027	2,924	212,850	108,412
329,041	2,905	212,754	108,339
330,056	3,059	212,685	108,404
331,070	3,064	212,533	108,320
332,085	3,035	212,166	108,103
333,100	3,079	212,137	108,110
334,114	3,036	212,055	108,028
335,129	3,146	211,918	108,026
336,143	3,007	211,772	107,844
337,158	2,865	211,716	107,706
338,173	2,913	211,493	107,617
339,187	2,819	211,404	107,495
340,202	2,815	211,277	107,418
341,216	2,681	211,017	107,183
342,231	2,945	210,937	107,318
343,246	2,957	210,933	107,315
344,260	2,925	210,819	107,225
345,275	2,899	210,701	107,137
346,289	3,044	210,616	107,186
347,304	3,153	210,333	107,109
348,319	2,980	210,254	106,938
349,333	3,056	210,034	106,870
350,348	2,720	210,042	106,629
351,362	3,041	209,838	106,740
352,377	2,914	209,660	106,551
353,392	3,007	209,603	106,578
354,406	2,935	209,473	106,452
355,421	193,519	1340,661	1425,599
356,435	154,444	1478,513	1425,644
