DTS Sentinel unit serial number:	SN410029Multiplexer serial number:	ORYXHardware model number:	OX2-SRSoftware version number:	ORYX F/W v4,00 Oryx Data Collector v3.7.2.0data status	okinstallation	B6 Nyhavnadifferential loss correction	single-endedforward channel	channel 2reverse channel	N/Adate	2023/12/09time	14:30:08forward acquisition time	300,00reverse acquisition time	0,00gamma	499,1914k internal	0,3133k external	0,3133temperature offset calibration	1,0000default loss term (dB/km)	0,3820temperature slope calibration	1,0000multiplexer offset coefficient	1,0000multiplexer slope coefficient	1,0000fibre end	0,00T internal ref (°C)	20,53T ext. ref 1 (°C)	4,30T ext. ref 2 (°C)	4,32length (m)	temperature (°C)	Stokes	anti-Stokes-744,400	-39,894	0,084	-0,032
-743,385	100,520	-0,280	0,242
-742,371	18,465	0,038	-0,023
-741,356	-43,223	-0,161	0,060
-740,342	30,319	0,056	-0,036
-739,327	-97,015	-0,305	0,059
-738,312	-71,657	-0,136	0,037
-737,298	-16,890	-0,167	0,078
-736,283	-10,322	0,123	0,061
-735,269	-18,091	-0,169	0,078
-734,254	-165,902	0,082	0,003
-733,239	-97,923	-0,469	-0,089
-732,225	13,847	0,146	-0,084
-731,210	-139,930	0,054	0,004
-730,196	-200,000	0,021	-0,146
-729,181	-200,000	0,008	-0,127
-728,167	505,103	0,066	-0,114
-727,152	-20,347	0,029	0,013
-726,137	71,404	-0,100	-0,077
-725,123	243,191	0,066	-0,082
-724,108	197,183	-0,035	-0,040
-723,094	-200,000	-0,017	-0,080
-722,079	-100,506	0,042	-0,008
-721,064	-30,062	0,006	-0,003
-720,050	-65,810	-0,113	-0,033
-719,035	-200,000	0,009	-0,029
-718,021	-91,270	0,038	-0,008
-717,006	121,687	-0,081	0,075
-715,991	-47,694	-0,152	-0,054
-714,977	-5,889	-0,140	-0,071
-713,962	149,028	0,101	-0,101
-712,948	-14,018	0,059	-0,028
-711,933	-200,000	0,003	0,084
-710,918	-130,462	-0,114	0,011
-709,904	43,432	-0,109	-0,074
-708,889	-121,953	0,109	-0,013
-707,875	80,350	-0,032	-0,026
-706,860	-87,181	-0,071	-0,016
-705,845	323,152	0,043	0,061
-704,831	96,731	-0,048	0,041
-703,816	800,000	-0,012	0,025
-702,802	-200,000	-0,029	0,110
-701,787	-200,000	0,004	0,088
-700,772	800,000	0,024	0,056
-699,758	301,124	-0,016	0,022
-698,743	-200,000	0,011	0,078
-697,729	-200,000	0,006	0,171
-696,714	59,684	-0,086	0,063
-695,699	800,000	-0,020	-0,053
-694,685	364,361	-0,052	0,077
-693,670	-132,511	-0,035	0,003
-692,656	-106,651	-0,187	-0,030
-691,641	-151,447	-0,043	-0,002
-690,627	-69,914	0,071	0,020
-689,612	-20,539	-0,122	-0,055
-688,597	800,000	0,017	-0,053
-687,583	27,507	-0,124	-0,077
-686,568	800,000	-0,022	-0,058
-685,554	367,135	0,014	-0,021
-684,539	-63,856	-0,072	-0,022
-683,524	82,602	-0,118	0,095
-682,510	81,624	-0,079	0,064
-681,495	30,309	0,056	0,035
-680,481	587,529	-0,060	0,110
-679,466	-151,089	-0,094	0,005
-678,451	-60,736	-0,094	-0,029
-677,437	67,732	0,108	0,081
-676,422	68,958	-0,074	0,057
-675,408	-200,000	0,001	-0,008
-674,393	124,123	-0,108	0,101
-673,378	59,074	0,063	-0,046
-672,364	-107,065	-0,187	-0,030
-671,349	-102,158	-0,166	-0,029
-670,335	-69,857	0,120	-0,034
-669,320	800,000	0,040	-0,116
-668,305	-66,796	0,149	-0,043
-667,291	-200,000	-0,008	-0,115
-666,276	330,355	0,080	-0,115
-665,262	-106,395	-0,168	-0,027
-664,247	-180,093	0,066	-0,001
-663,232	399,623	0,050	0,078
-662,218	800,000	0,069	0,178
-661,203	800,000	0,029	0,080
-660,189	-200,000	0,040	0,154
-659,174	-200,000	-0,013	-0,138
-658,159	-148,530	-0,108	0,006
-657,145	-21,989	-0,048	0,022
-656,130	-2,287	-0,076	-0,039
-655,116	73,168	-0,056	0,044
-654,101	-200,000	-0,033	0,139
-653,086	59,597	-0,092	-0,067
-652,072	743,094	-0,050	-0,099
-651,057	-115,136	-0,181	-0,025
-650,043	43,673	-0,115	-0,078
-649,028	292,244	-0,007	-0,009
-648,014	-200,000	0,006	0,031
-646,999	-122,562	-0,083	0,010
-645,984	800,000	0,014	0,046
-644,970	455,530	-0,012	-0,019
-643,955	-200,000	-0,013	-0,064
-642,941	29,294	-0,030	0,019
-641,926	-200,000	0,018	-0,154
-640,911	-28,320	0,057	-0,024
-639,897	46,931	-0,048	0,033
-638,882	435,859	-0,019	-0,030
-637,868	-200,000	0,014	0,130
-636,853	371,894	-0,030	0,045
-635,838	-27,123	0,096	0,041
-634,824	46,246	-0,053	0,036
-633,809	65,163	-0,155	-0,116
-632,795	-116,703	0,101	0,014
-631,780	-200,000	-0,004	-0,064
-630,765	82,371	-0,039	0,031
-629,751	-9,694	0,053	-0,026
-628,736	-200,000	0,019	-0,065
-627,722	800,000	-0,040	-0,109
-626,707	-200,000	0,010	-0,037
-625,692	299,192	0,030	0,041
-624,678	800,000	0,019	-0,044
-623,663	74,948	-0,077	0,060
-622,649	800,000	0,005	-0,011
-621,634	-200,000	0,003	-0,027
-620,619	800,000	0,064	-0,183
-619,605	-67,644	0,055	0,016
-618,590	800,000	-0,054	0,118
-617,576	197,013	0,046	0,052
-616,561	-200,000	-0,001	-0,050
-615,546	122,641	0,126	-0,117
-614,532	117,510	0,028	-0,026
-613,517	-200,000	-0,035	-0,124
-612,503	11,297	0,019	0,011
-611,488	-115,585	0,032	-0,004
-610,474	800,000	0,022	0,059
-609,459	80,325	-0,030	-0,024
-608,444	-131,680	0,114	-0,011
-607,430	742,474	-0,042	0,083
-606,415	-200,000	0,009	-0,081
-605,401	-7,615	-0,052	-0,026
-604,386	-200,000	-0,010	0,058
-603,371	688,097	0,039	-0,077
-602,357	282,438	-0,100	-0,133
-601,342	418,448	-0,025	0,040
-600,328	300,518	-0,070	-0,096
-599,313	800,000	0,050	-0,144
-598,298	800,000	0,031	-0,068
-597,284	129,769	-0,029	0,028
-596,269	323,879	-0,106	0,150
-595,255	29,031	-0,047	0,029
-594,240	2,604	0,047	-0,025
-593,225	-65,522	-0,166	-0,049
-592,211	800,000	-0,019	0,054
-591,196	442,177	-0,060	0,097
-590,182	112,067	0,054	-0,048
-589,167	203,520	-0,078	0,089
-588,152	-103,693	0,171	0,029
-587,138	-200,000	-0,011	-0,149
-586,123	-200,000	-0,013	0,062
-585,109	-200,000	-0,010	-0,064
-584,094	-200,000	-0,010	-0,049
-583,079	800,000	0,065	-0,156
-582,065	84,774	-0,042	0,034
-581,050	-200,000	0,002	-0,010
-580,036	-178,283	-0,062	0,001
-579,021	-200,000	0,009	-0,048
-578,006	-82,051	-0,071	-0,017
-576,992	266,105	-0,081	-0,105
-575,977	-200,000	0,048	-0,238
-574,963	66,935	0,126	0,095
-573,948	-176,060	0,043	0,001
-572,934	201,882	0,028	-0,032
-571,919	-200,000	-0,004	-0,116
-570,904	-45,754	-0,019	0,007
-569,890	800,000	0,018	0,048
-568,875	634,660	-0,054	-0,101
-567,861	102,143	-0,121	-0,105
-566,846	-123,869	0,021	0,002
-565,831	-200,000	0,000	0,066
-564,817	-93,445	-0,169	-0,034
-563,802	-200,000	-0,035	-0,141
-562,788	42,344	0,119	0,080
-561,773	188,690	0,093	0,103
-560,758	800,000	-0,019	-0,039
-559,744	-200,000	0,008	-0,029
-558,729	517,643	-0,017	-0,029
-557,715	-200,000	0,022	0,105
-556,700	800,000	-0,049	0,126
-555,685	-83,387	0,026	-0,006
-554,671	-200,000	-0,049	-0,181
-553,656	139,170	0,065	-0,063
-552,642	800,000	-0,087	0,216
-551,627	407,686	-0,057	0,089
-550,612	-99,719	0,046	0,008
-549,598	-200,000	-0,004	-0,020
-548,583	-200,000	-0,020	-0,113
-547,569	-151,234	0,125	0,007
-546,554	307,021	0,054	0,074
-545,539	-200,000	0,001	0,188
-544,525	-9,078	0,018	-0,009
-543,510	-5,082	-0,024	0,012
-542,496	210,795	-0,102	0,118
-541,481	110,378	-0,029	0,026
-540,466	800,000	-0,041	-0,105
-539,452	-193,826	0,060	-0,000
-538,437	358,225	0,019	-0,029
-537,423	800,000	0,019	-0,054
-536,408	184,161	0,062	-0,068
-535,393	314,424	-0,022	0,031
-534,379	-200,000	-0,006	0,022
-533,364	-164,565	0,055	0,002
-532,350	7,965	0,096	-0,053
-531,335	164,709	-0,071	-0,073
-530,321	800,000	0,078	0,163
-529,306	-132,448	-0,045	0,004
-528,291	174,929	0,065	-0,070
-527,277	133,478	0,110	-0,105
-526,262	800,000	-0,021	-0,048
-525,248	-200,000	-0,007	0,082
-524,233	751,165	0,113	0,226
-523,218	-117,991	0,041	0,005
-522,204	-200,000	-0,004	0,051
-521,189	-200,000	0,003	-0,033
-520,175	-200,000	0,037	-0,182
-519,160	147,871	-0,105	0,104
-518,145	-38,247	0,014	0,005
-517,131	108,694	0,092	0,081
-516,116	-18,723	0,133	0,061
-515,102	-70,571	-0,028	-0,008
-514,087	8,088	0,018	0,010
-513,072	800,000	-0,028	0,083
-512,058	800,000	-0,047	-0,098
-511,043	-106,948	0,121	0,020
-510,029	628,154	-0,021	0,039
-509,014	-200,000	0,011	0,102
-507,999	173,175	0,103	0,109
-506,985	-162,427	-0,278	-0,010
-505,970	800,000	-0,006	0,018
-504,956	-116,040	0,035	-0,005
-503,941	-200,000	0,003	0,069
-502,926	700,449	-0,045	-0,088
-501,912	181,944	0,085	0,093
-500,897	-200,000	-0,008	-0,098
-499,883	800,000	-0,001	-0,004
-498,868	123,321	0,053	-0,049
-497,853	39,305	-0,064	0,042
-496,839	800,000	-0,050	-0,153
-495,824	197,379	0,047	-0,053
-494,810	-59,071	0,093	0,029
-493,795	-171,733	-0,072	0,002
-492,781	-200,000	0,042	0,229
-491,766	800,000	-0,033	-0,085
-490,751	800,000	-0,055	-0,123
-489,737	-200,000	0,019	-0,075
-488,722	-23,218	0,061	-0,027
-487,708	201,962	-0,059	0,067
-486,693	800,000	-0,031	-0,090
-485,678	800,000	-0,014	0,038
-484,664	50,921	-0,036	0,025
-483,649	-200,000	-0,009	-0,038
-482,635	383,075	0,065	-0,099
-481,620	-200,000	0,023	-0,087
-480,605	-200,000	0,018	0,073
-479,591	62,287	-0,035	-0,025
-478,576	716,248	-0,053	-0,104
-477,562	800,000	-0,074	0,170
-476,547	800,000	-0,016	-0,037
-475,532	107,014	-0,082	0,071
-474,518	800,000	-0,041	0,099
-473,503	26,536	0,145	0,089
-472,489	321,094	-0,037	0,052
-471,474	342,113	0,090	0,130
-470,459	-18,131	-0,081	-0,037
-469,445	422,414	0,038	-0,060
-468,430	401,451	0,065	-0,100
-467,416	-200,000	0,011	0,039
-466,401	121,981	-0,028	-0,026
-465,386	-70,814	-0,071	-0,020
-464,372	194,408	-0,056	0,062
-463,357	408,113	-0,046	0,072
-462,343	139,784	0,061	-0,059
-461,328	-58,290	0,070	0,022
-460,313	-200,000	0,061	0,000
-459,299	-200,000	0,006	-0,048
-458,284	-200,000	0,025	0,135
-457,270	37,888	-0,117	-0,076
-456,255	196,713	-0,016	0,018
-455,241	-119,468	-0,067	0,008
-454,226	127,749	0,044	-0,041
-453,211	183,767	0,031	-0,033
-452,197	-200,000	0,003	-0,017
-451,182	-144,684	-0,012	-0,001
-450,168	127,664	-0,054	-0,051
-449,153	800,000	-0,043	0,092
-448,138	-200,000	-0,006	0,034
-447,124	749,562	0,028	-0,057
-446,109	123,838	-0,043	0,040
-445,095	-147,217	-0,119	0,007
-444,080	-8,508	-0,021	-0,010
-443,065	183,727	0,023	-0,025
-442,051	5,183	-0,097	-0,052
-441,036	502,520	-0,068	-0,117
-440,022	55,385	-0,037	0,026
-439,007	-117,669	0,084	-0,011
-437,992	145,172	-0,022	-0,022
-436,978	-39,020	0,117	0,045
-435,963	800,000	0,023	0,051
-434,949	-185,057	0,263	-0,003
-433,934	-77,854	-0,131	-0,033
-432,919	154,810	0,083	0,084
-431,905	-31,641	-0,042	-0,017
-430,890	-104,700	0,010	-0,002
-429,876	731,530	0,029	0,057
-428,861	-10,592	0,054	-0,026
-427,846	-24,911	0,059	-0,026
-426,832	57,315	-0,071	-0,051
-425,817	-97,059	-0,120	-0,023
-424,803	-200,000	-0,014	-0,070
-423,788	-200,000	0,020	-0,074
-422,773	-200,000	0,000	-0,035
-421,759	-53,047	-0,038	-0,013
-420,744	-98,399	0,058	-0,011
-419,730	-200,000	-0,028	-0,091
-418,715	800,000	-0,013	-0,033
-417,701	83,533	-0,078	0,062
-416,686	-77,744	0,099	0,025
-415,671	-39,332	0,151	-0,058
-414,657	-86,821	-0,151	-0,034
-413,642	442,112	0,085	-0,137
-412,628	222,837	-0,019	-0,022
-411,613	-85,727	-0,141	-0,032
-410,598	25,464	-0,083	-0,050
-409,584	605,245	-0,061	0,112
-408,569	-13,259	0,118	0,056
-407,555	-62,914	-0,121	0,037
-406,540	80,652	0,137	0,108
-405,525	352,038	0,049	0,071
-404,511	274,285	-0,049	-0,064
-403,496	195,590	0,075	-0,083
-402,482	192,127	-0,026	0,029
-401,467	-152,151	-0,042	-0,002
-400,452	800,000	0,023	0,052
-399,438	800,000	0,077	0,218
-398,423	47,573	0,016	-0,011
-397,409	-20,085	-0,135	-0,061
-396,394	-200,000	-0,012	-0,073
-395,379	-96,540	-0,042	-0,008
-394,365	11,225	-0,116	-0,065
-393,350	115,000	-0,078	0,070
-392,336	-200,000	0,034	0,312
-391,321	800,000	0,052	0,122
-390,306	-81,485	0,119	0,029
-389,292	-200,000	-0,009	0,073
-388,277	-171,632	0,097	-0,002
-387,263	-200,000	0,029	-0,095
-386,248	-200,000	0,038	0,139
-385,233	-48,160	-0,100	0,035
-384,219	-121,587	0,019	0,002
-383,204	-34,450	-0,055	-0,022
-382,190	86,627	-0,090	0,073
-381,175	-159,280	-0,030	-0,001
-380,160	-200,000	-0,010	0,044
-379,146	-200,000	0,013	0,047
-378,131	-200,000	0,014	0,051
-377,117	119,861	-0,070	0,063
-376,102	365,300	-0,030	-0,044
-375,088	-200,000	0,015	-0,193
-374,073	203,700	0,118	-0,134
-373,058	-200,000	0,005	-0,025
-372,044	-83,134	0,092	0,022
-371,029	26,349	0,080	-0,049
-370,015	-69,660	-0,047	0,013
-369,000	800,000	-0,034	-0,082
-367,985	72,130	-0,062	-0,047
-366,971	79,996	-0,097	-0,076
-365,956	-28,378	-0,084	-0,035
-364,942	146,696	0,024	0,024
-363,927	800,000	0,027	0,076
-362,912	-200,000	-0,005	0,108
-361,898	169,950	-0,074	-0,078
-360,883	-49,514	-0,083	0,029
-359,869	-117,247	-0,018	-0,002
-358,854	-120,750	0,054	-0,007
-357,839	-11,688	0,182	0,087
-356,825	11,011	-0,155	0,086
-355,810	15,018	0,058	-0,033
-354,796	800,000	-0,060	-0,125
-353,781	535,198	0,017	-0,029
-352,766	800,000	0,020	0,053
-351,752	172,328	0,101	0,107
-350,737	38,371	-0,080	0,052
-349,723	70,085	-0,051	-0,038
-348,708	338,657	-0,012	0,018
-347,693	-80,754	-0,060	-0,014
-346,679	-166,848	-0,093	-0,003
-345,664	-200,000	0,013	0,164
-344,650	-200,000	0,051	0,169
-343,635	-55,012	0,033	0,011
-342,620	711,604	0,041	0,079
-341,606	509,126	0,034	0,058
-340,591	174,439	-0,034	-0,036
-339,577	379,623	0,059	-0,088
-338,562	349,258	-0,067	0,097
-337,548	800,000	-0,049	-0,108
-336,533	-200,000	0,021	-0,122
-335,518	800,000	-0,035	-0,089
-334,504	-115,766	0,137	0,019
-333,489	-200,000	0,032	0,172
-332,475	84,053	-0,138	0,110
-331,460	43,935	-0,100	-0,067
-330,445	-103,427	-0,134	-0,023
-329,431	70,187	-0,026	0,020
-328,416	37,530	-0,059	-0,038
-327,402	-69,568	-0,086	0,024
-326,387	-144,846	-0,049	0,003
-325,372	-156,757	-0,101	-0,004
-324,358	-200,000	0,028	0,099
-323,343	-200,000	0,001	0,027
-322,329	619,350	0,078	0,143
-321,314	-200,000	-0,008	0,048
-320,299	182,557	0,123	-0,133
-319,285	800,000	0,023	-0,048
-318,270	-200,000	0,016	-0,070
-317,256	-167,214	-0,096	0,003
-316,241	-200,000	-0,024	-0,079
-315,226	-200,000	-0,003	0,094
-314,212	-200,000	-0,024	0,146
-313,197	-61,551	0,095	0,029
-312,183	70,260	0,137	-0,103
-311,168	-26,279	-0,096	-0,041
-310,153	800,000	0,047	0,119
-309,139	-10,222	-0,112	-0,054
-308,124	-98,092	0,138	-0,026
-307,110	-200,000	-0,022	0,099
-306,095	800,000	0,032	0,071
-305,080	292,235	-0,048	-0,064
-304,066	-200,000	0,015	-0,065
-303,051	2,864	0,106	-0,056
-302,037	-116,686	-0,133	-0,018
-301,022	-27,632	0,077	-0,032
-300,008	-200,000	-0,014	0,079
-298,993	105,984	0,091	0,079
-297,978	-200,000	0,000	-0,100
-296,964	800,000	-0,035	0,086
-295,949	-200,000	0,021	0,194
-294,935	-200,000	-0,012	0,073
-293,920	-173,279	-0,108	0,002
-292,905	-41,690	0,151	-0,056
-291,891	-67,433	0,046	-0,013
-290,876	349,969	0,033	0,048
-289,862	627,158	-0,064	0,118
-288,847	800,000	0,014	0,031
-287,832	168,871	-0,087	0,091
-286,818	173,774	-0,004	0,004
-285,803	-200,000	0,002	0,085
-284,789	-17,470	0,043	-0,020
-283,774	213,559	0,091	0,105
-282,759	731,723	-0,024	-0,048
-281,745	252,212	0,065	0,081
-280,730	800,000	-0,049	-0,102
-279,716	800,000	0,055	-0,113
-278,701	248,938	0,101	-0,125
-277,686	-200,000	0,021	0,184
-276,672	-200,000	-0,010	0,033
-275,657	318,812	0,064	0,089
-274,643	800,000	0,061	-0,151
-273,628	500,714	-0,035	-0,060
-272,613	-200,000	0,002	-0,154
-271,599	2,808	-0,115	-0,061
-270,584	-200,000	0,024	0,095
-269,570	114,010	0,079	0,070
-268,555	-5,138	-0,010	-0,005
-267,540	-200,000	0,015	-0,066
-266,526	-115,480	0,031	-0,004
-265,511	41,500	0,099	0,065
-264,497	280,108	0,046	0,060
-263,482	-34,056	0,156	-0,062
-262,467	800,000	0,015	0,047
-261,453	530,926	-0,063	-0,109
-260,438	477,937	-0,065	0,107
-259,424	-72,509	0,070	-0,019
-258,409	133,916	0,023	0,021
-257,395	800,000	0,011	-0,025
-256,380	0,975	-0,113	-0,059
-255,365	-86,199	0,089	0,020
-254,351	-200,000	-0,002	0,032
-253,336	-200,000	0,028	-0,159
-252,322	6,834	-0,099	0,054
-251,307	-24,596	0,111	-0,048
-250,292	-67,709	0,032	0,009
-249,278	-200,000	0,043	-0,148
-248,263	33,673	0,032	0,020
-247,249	283,426	-0,101	-0,133
-246,234	800,000	-0,023	-0,073
-245,219	-200,000	0,017	-0,162
-244,205	800,000	-0,060	-0,172
-243,190	-113,185	-0,061	-0,009
-242,176	5,478	-0,079	0,042
-241,161	-200,000	-0,014	-0,050
-240,146	66,461	-0,041	-0,030
-239,132	279,136	-0,012	-0,016
-238,117	182,631	-0,044	0,048
-237,103	-200,000	0,020	-0,079
-236,088	31,880	0,069	-0,043
-235,073	-200,000	0,021	0,127
-234,059	-200,000	0,006	0,190
-233,044	-200,000	-0,021	0,117
-232,030	505,094	0,030	0,051
-231,015	22,892	-0,084	0,050
-230,000	800,000	0,004	-0,012
-228,986	542,537	0,026	0,046
-227,971	262,165	-0,032	-0,041
-226,957	-200,000	-0,032	0,171
-225,942	-200,000	0,017	0,166
-224,927	-54,039	0,111	-0,037
-223,913	-23,120	-0,105	-0,046
-222,898	128,070	-0,144	-0,134
-221,884	-200,000	0,003	0,027
-220,869	-107,391	0,062	0,010
-219,855	-200,000	0,000	0,001
-218,840	52,857	0,114	-0,079
-217,825	-200,000	-0,003	-0,099
-216,811	55,268	0,057	-0,040
-215,796	11,439	-0,053	-0,029
-214,782	129,796	-0,090	-0,084
-213,767	-17,825	0,073	-0,033
-212,752	349,003	0,059	-0,084
-211,738	-200,000	0,015	-0,058
-210,723	-79,056	0,109	0,027
-209,709	156,191	0,045	-0,046
-208,694	-200,000	-0,001	0,022
-207,679	-81,441	-0,153	0,036
-206,665	-50,939	0,016	-0,005
-205,650	12,196	0,206	0,115
-204,636	800,000	0,035	0,077
-203,621	-50,174	0,066	0,023
-202,606	194,104	0,082	-0,090
-201,592	-166,969	-0,143	0,004
-200,577	800,000	-0,033	-0,092
-199,563	800,000	0,042	0,094
-198,548	130,037	-0,104	0,097
-197,533	-143,739	-0,055	0,004
-196,519	800,000	0,076	0,159
-195,504	337,419	0,050	-0,070
-194,490	139,307	0,045	-0,043
-193,475	-138,967	-0,050	-0,004
-192,460	800,000	-0,028	0,077
-191,446	-200,000	0,002	0,103
-190,431	241,407	0,075	0,091
-189,417	-48,513	-0,072	-0,025
-188,402	-200,000	-0,010	-0,057
-187,387	4,172	-0,138	-0,073
-186,373	95,459	0,140	-0,116
-185,358	391,245	-0,101	0,154
-184,344	80,454	0,072	0,056
-183,329	-85,980	0,196	0,044
-182,315	-51,370	-0,117	-0,040
-181,300	-69,910	-0,061	-0,017
-180,285	-3,542	-0,007	0,003
-179,271	57,517	-0,066	-0,047
-178,256	7,074	0,098	0,053
-177,242	166,180	0,061	-0,062
-176,227	800,000	-0,064	0,148
-175,212	-105,174	0,066	-0,011
-174,198	-90,472	-0,118	0,025
-173,183	-123,696	-0,106	0,012
-172,169	47,449	0,109	0,074
-171,154	-200,000	0,035	-0,136
-170,139	-121,819	0,111	-0,013
-169,125	-200,000	0,044	0,142
-168,110	-59,833	-0,068	0,021
-167,096	-200,000	-0,003	-0,075
-166,081	-200,000	-0,008	-0,089
-165,066	174,011	-0,085	-0,090
-164,052	-200,000	-0,023	-0,111
-163,037	-109,666	-0,064	-0,010
-162,023	-69,857	0,118	0,033
-161,008	-200,000	-0,023	0,141
-159,993	-200,000	0,009	-0,087
-158,979	-11,783	0,073	-0,034
-157,964	292,652	0,025	-0,034
-156,950	800,000	-0,036	-0,110
-155,935	800,000	-0,091	0,206
-154,920	-200,000	-0,004	0,021
-153,906	-184,168	0,077	-0,001
-152,891	194,093	-0,082	-0,090
-151,877	792,675	-0,073	-0,147
-150,862	75,652	0,075	-0,057
-149,847	-151,468	-0,086	-0,005
-148,833	-200,000	0,010	0,083
-147,818	800,000	0,011	-0,031
-146,804	-35,503	-0,044	0,017
-145,789	-39,566	-0,077	-0,029
-144,775	58,969	0,088	-0,063
-143,760	-83,129	-0,065	0,015
-142,745	494,521	-0,032	0,054
-141,731	154,773	-0,081	-0,081
-140,716	234,761	0,077	-0,093
-139,702	-188,631	-0,091	-0,001
-138,687	115,043	0,189	-0,167
-137,672	87,825	-0,023	0,018
-136,658	-147,958	-0,088	0,005
-135,643	64,690	0,107	-0,078
-134,629	-174,217	0,117	-0,002
-133,614	373,762	0,109	-0,161
-132,599	-200,000	-0,007	0,067
-131,585	-200,000	0,010	0,175
-130,570	170,576	0,032	-0,033
-129,556	-49,585	-0,061	0,021
-128,541	-200,000	-0,027	-0,115
-127,526	32,320	0,035	0,022
-126,512	20,363	0,012	-0,007
-125,497	145,456	0,097	0,095
-124,483	216,729	-0,076	0,088
-123,468	800,000	-0,043	-0,116
-122,453	-63,748	-0,035	0,010
-121,439	133,576	0,113	-0,106
-120,424	661,781	-0,035	-0,066
-119,410	563,099	-0,079	-0,139
-118,395	-83,483	0,114	-0,026
-117,380	-75,059	0,061	-0,016
-116,366	-45,205	-0,019	0,007
-115,351	-110,844	-0,149	-0,022
-114,337	104,466	0,105	-0,089
-113,322	-83,500	0,060	-0,014
-112,307	-86,204	0,067	0,015
-111,293	800,000	-0,039	0,088
-110,278	-65,391	-0,136	0,039
-109,264	-38,705	0,030	-0,011
-108,249	647,610	-0,092	0,171
-107,234	-128,036	-0,159	-0,016
-106,220	165,380	0,060	-0,061
-105,205	67,435	0,077	0,057
-104,191	135,995	0,040	0,038
-103,176	192,181	-0,025	0,027
-102,162	70,604	-0,037	-0,028
-101,147	-2,104	-0,013	-0,007
-100,132	800,000	-0,049	-0,120
-99,118	-200,000	0,046	-0,154
-98,103	-12,607	-0,074	-0,035
-97,089	-123,125	0,029	0,003
-96,074	165,046	0,019	0,020
-95,059	-200,000	0,004	0,055
-94,045	-74,602	-0,095	0,025
-93,030	800,000	-0,010	0,021
-92,016	22,783	-0,082	-0,048
-91,001	-200,000	0,010	-0,048
-89,986	800,000	0,062	-0,174
-88,972	-31,074	-0,121	0,049
-87,957	-105,894	0,098	0,016
-86,943	800,000	0,030	-0,061
-85,928	110,422	-0,066	-0,057
-84,913	705,082	-0,034	-0,065
-83,899	800,000	-0,020	0,057
-82,884	71,996	-0,101	0,076
-81,870	154,066	-0,022	-0,022
-80,855	78,853	-0,109	0,084
-79,840	246,545	-0,066	0,081
-78,826	42,601	-0,100	-0,066
-77,811	-192,029	-0,068	-0,000
-76,797	-113,611	-0,127	-0,018
-75,782	-200,000	-0,007	0,069
-74,767	-1,495	0,081	0,041
-73,753	286,555	0,105	0,138
-72,738	371,525	-0,061	0,090
-71,724	-200,000	0,004	0,077
-70,709	800,000	-0,050	-0,141
-69,694	-190,848	0,025	0,000
-68,680	-13,400	0,133	0,062
-67,665	0,464	0,053	-0,027
-66,651	187,687	-0,050	0,054
-65,636	-200,000	-0,020	-0,143
-64,622	-200,000	0,004	-0,059
-63,607	-200,000	-0,003	-0,065
-62,592	165,211	-0,054	-0,055
-61,578	-200,000	-0,009	-0,036
-60,563	-200,000	0,012	-0,055
-59,549	-200,000	0,011	0,077
-58,534	-48,606	-1,567	-0,542
-57,519	450,280	-0,757	-1,212
-56,505	-200,000	-1,010	-4,485
-55,490	-135,723	0,655	-0,055
-54,476	800,000	4,916	11,924
-53,461	-200,000	14,781	262,947
-52,446	-200,000	697,757	2238,221
-51,432	565,321	1621,801	2855,222
-50,417	119,012	1628,830	1456,260
-49,403	76,519	1282,892	982,553
-48,388	37,459	1022,143	654,174
-47,373	22,866	981,772	580,450
-46,359	22,056	971,107	571,473
-45,344	20,786	966,931	564,852
-44,330	20,784	965,511	563,990
-43,315	20,588	963,975	562,436
-42,300	20,576	963,057	561,837
-41,286	20,620	962,011	561,347
-40,271	20,556	960,986	560,521
-39,257	20,557	960,200	560,042
-38,242	20,622	959,166	559,628
-37,227	20,547	958,448	558,943
-36,213	20,510	957,461	558,227
-35,198	20,524	956,527	557,705
-34,184	20,537	955,794	557,299
-33,169	20,541	954,880	556,757
-32,154	20,523	954,087	556,214
-31,140	20,536	953,170	555,697
-30,125	20,580	952,364	555,347
-29,111	20,592	951,441	554,826
-28,096	20,555	950,888	554,362
-27,082	20,601	950,115	554,037
-26,067	20,602	949,289	553,537
-25,052	20,529	948,660	552,916
-24,038	20,609	947,856	552,680
-23,023	20,512	947,508	552,146
-22,009	20,630	946,610	551,976
-20,994	20,614	946,027	551,565
-19,979	20,584	945,510	551,145
-18,965	20,578	944,936	550,768
-17,950	20,562	944,356	550,358
-16,936	20,527	943,701	549,843
-15,921	20,570	942,674	549,361
-14,906	20,430	942,346	548,702
-13,892	20,493	941,488	548,381
-12,877	20,469	940,856	547,915
-11,863	20,378	940,275	547,267
-10,848	20,427	939,971	547,222
-9,833	20,544	939,477	547,283
-8,819	20,471	938,798	546,635
-7,804	20,425	938,349	546,207
-6,790	20,426	937,746	545,837
-5,775	20,511	937,045	545,677
-4,760	20,456	936,456	545,139
-3,746	20,478	935,565	544,669
-2,731	20,348	935,199	544,022
-1,717	20,266	934,361	543,256
-0,702	20,294	933,828	543,013
0,313	20,047	933,282	542,737
1,327	23,133	931,194	551,164
2,342	32,167	793,121	493,390
3,356	29,355	451,035	276,325
4,371	-0,378	296,125	151,540
5,386	-4,547	277,277	137,909
6,400	-5,921	271,560	133,769
7,415	-6,336	269,149	132,185
8,429	-6,058	267,968	131,850
9,444	-6,305	267,061	131,165
10,459	-6,100	266,366	131,000
11,473	-6,240	265,987	130,673
12,488	-6,251	265,392	130,360
13,502	-6,623	264,839	129,737
14,517	-6,586	264,475	129,581
15,531	-6,358	263,886	129,488
16,546	-6,168	263,404	129,412
17,561	-6,412	263,094	129,027
18,575	-6,112	262,912	129,198
19,590	-6,189	262,412	128,871
20,604	-6,380	262,340	128,652
21,619	-6,344	261,810	128,414
22,634	-6,306	261,564	128,315
23,648	-6,529	261,330	127,988
24,663	-6,384	261,036	127,963
25,677	-6,449	260,867	127,811
26,692	-6,465	260,629	127,669
27,707	-6,553	260,365	127,449
28,721	-6,502	260,055	127,332
29,736	-6,406	259,710	127,237
30,750	-6,520	259,581	127,060
31,765	-6,560	259,396	126,923
32,780	-6,349	258,953	126,883
33,794	-6,417	258,833	126,752
34,809	-6,620	258,512	126,403
35,823	-6,343	258,238	126,503
36,838	-6,320	257,867	126,331
37,853	-6,485	257,831	126,156
38,867	-6,727	257,703	125,868
39,882	-6,487	257,315	125,879
40,896	-6,411	257,102	125,831
41,911	-6,617	256,904	125,541
42,926	-6,507	256,633	125,495
43,940	-6,615	256,508	125,327
44,955	-6,864	256,222	124,957
45,969	-6,667	255,848	124,937
46,984	-6,809	255,690	124,724
47,999	-7,048	255,324	124,325
49,013	-7,297	255,172	124,022
50,028	-7,299	254,954	123,903
51,042	-7,443	254,576	123,583
52,057	-7,386	254,366	123,519
53,071	-7,425	254,080	123,335
54,086	-7,301	254,000	123,394
55,101	-7,111	253,845	123,472
56,115	-7,020	253,834	123,535
57,130	-6,482	253,684	123,919
58,144	-6,330	253,498	123,949
59,159	-6,327	253,356	123,871
60,174	-6,513	253,261	123,653
61,188	-6,349	252,886	123,601
62,203	-6,358	252,678	123,480
63,217	-6,515	252,542	123,266
64,232	-6,209	252,075	123,292
65,247	-6,410	252,013	123,077
66,261	-6,484	251,844	122,920
67,276	-6,616	251,554	122,654
68,290	-6,749	251,136	122,325
69,305	-6,890	251,012	122,132
70,320	-6,913	250,930	122,061
71,334	-6,530	250,708	122,271
72,349	-6,360	250,713	122,409
73,363	-6,203	250,391	122,375
74,378	-6,216	250,053	122,188
75,393	-6,342	250,105	122,095
76,407	-6,474	249,899	121,870
77,422	-6,542	249,694	121,702
78,436	-6,359	249,373	121,690
79,451	-6,278	249,072	121,602
80,466	-6,453	248,809	121,314
81,480	-6,468	248,704	121,239
82,495	-6,822	248,603	120,878
83,509	-6,719	248,329	120,821
84,524	-6,670	248,114	120,747
85,539	-6,750	247,859	120,544
86,553	-6,972	247,698	120,267
87,568	-6,792	247,470	120,299
88,582	-6,786	247,504	120,309
89,597	-6,922	247,154	120,013
90,611	-6,736	247,114	120,141
91,626	-6,361	246,855	120,320
92,641	-6,519	246,747	120,123
93,655	-6,794	246,477	119,749
94,670	-6,617	246,312	119,808
95,684	-6,554	246,132	119,763
96,699	-6,616	245,975	119,623
97,714	-6,747	245,551	119,297
98,728	-6,895	245,469	119,121
99,743	-6,988	245,268	118,936
100,757	-7,008	245,142	118,847
101,772	-6,853	244,807	118,804
102,787	-6,647	244,701	118,915
103,801	-6,551	244,507	118,890
104,816	-6,573	244,370	118,794
105,830	-6,533	244,271	118,768
106,845	-6,552	244,209	118,712
107,860	-6,424	243,949	118,682
108,874	-6,608	243,702	118,398
109,889	-6,858	243,459	118,062
110,903	-6,768	243,213	118,007
111,918	-6,856	243,255	117,944
112,933	-6,495	242,943	118,081
113,947	-6,527	242,904	118,025
114,962	-6,341	242,528	117,985
115,976	-6,442	242,400	117,829
116,991	-6,726	242,509	117,637
118,006	-6,633	242,126	117,517
119,020	-6,525	242,020	117,544
120,035	-6,412	241,860	117,550
121,049	-6,545	241,893	117,445
122,064	-6,308	241,482	117,430
123,079	-6,619	241,376	117,112
124,093	-6,659	241,077	116,923
125,108	-6,821	241,018	116,752
126,122	-7,010	240,532	116,351
127,137	-6,998	240,459	116,315
128,151	-7,121	240,327	116,140
129,166	-6,870	240,041	116,197
130,181	-6,872	239,838	116,086
131,195	-6,938	239,696	115,954
132,210	-6,700	239,723	116,151
133,224	-6,610	239,572	116,141
134,239	-6,641	239,283	115,965
135,254	-6,493	239,110	115,991
136,268	-6,590	238,867	115,784
137,283	-6,978	238,702	115,379
138,297	-7,031	238,423	115,190
139,312	-6,995	238,195	115,099
140,327	-6,703	238,324	115,389
141,341	-6,134	238,158	115,759
142,356	-6,195	237,900	115,574
143,370	-5,992	237,785	115,671
144,385	-6,005	237,765	115,641
145,400	-6,067	237,586	115,494
146,414	-6,417	237,527	115,172
147,429	-6,193	237,209	115,188
148,443	-6,208	237,069	115,098
149,458	-6,239	236,828	114,946
150,473	-6,200	236,698	114,903
151,487	-6,214	236,406	114,740
152,502	-6,233	236,296	114,661
153,516	-6,120	236,257	114,723
154,531	-6,141	235,899	114,522
155,546	-6,394	235,802	114,262
156,560	-6,355	235,615	114,192
157,575	-6,492	235,396	113,967
158,589	-6,346	235,218	113,987
159,604	-6,131	235,068	114,076
160,619	-6,003	234,883	114,078
161,633	-5,947	234,886	114,114
162,648	-6,303	234,709	113,734
163,662	-6,008	234,407	113,812
164,677	-6,306	234,165	113,448
165,692	-6,410	234,311	113,426
166,706	-5,900	234,013	113,677
167,721	-6,043	233,880	113,488
168,735	-6,106	233,838	113,407
169,750	-6,057	233,686	113,363
170,764	-6,243	233,426	113,079
171,779	-6,084	233,430	113,197
172,794	-6,143	233,110	112,985
173,808	-6,302	233,055	112,823
174,823	-6,959	232,715	112,128
175,837	-6,646	232,301	112,166
176,852	-6,241	232,365	112,507
177,867	-6,284	232,341	112,450
178,881	-6,122	232,181	112,491
179,896	-6,059	232,095	112,489
180,910	-6,013	231,838	112,390
181,925	-6,045	231,716	112,297
182,940	-6,144	231,638	112,171
183,954	-6,154	231,483	112,078
184,969	-6,092	231,282	112,019
185,983	-6,076	231,212	111,987
186,998	-5,873	230,987	112,028
188,013	-6,042	230,913	111,850
189,027	-5,965	230,740	111,816
190,042	-5,707	230,440	111,862
191,056	-6,019	230,362	111,570
192,071	-5,986	230,189	111,503
193,086	-6,009	230,066	111,415
194,100	-5,950	229,875	111,358
195,115	-6,209	229,487	110,960
196,129	-6,924	229,270	110,289
197,144	-3,853	230,551	113,293
198,159	1,039	231,701	117,675
199,173	3,393	232,384	119,855
200,188	3,628	232,306	119,988
201,202	3,943	232,093	120,113
202,217	3,996	231,825	120,005
203,232	4,323	231,820	120,247
204,246	4,307	231,783	120,205
205,261	4,437	231,572	120,186
206,275	4,460	231,557	120,185
207,290	4,489	231,404	120,117
208,304	4,225	231,285	119,839
209,319	4,466	231,023	119,880
210,334	4,587	230,722	119,807
211,348	4,174	230,474	119,348
212,363	3,706	230,359	118,916
213,377	3,483	230,171	118,635
214,392	3,317	230,061	118,439
215,407	3,636	229,829	118,556
216,421	3,720	229,632	118,508
217,436	3,503	229,435	118,229
218,450	3,524	229,222	118,125
219,465	3,359	229,072	117,910
220,480	3,620	228,997	118,062
221,494	3,392	228,920	117,836
222,509	3,507	228,865	117,886
223,523	3,390	228,703	117,702
224,538	3,197	228,517	117,447
225,553	3,636	228,276	117,650
226,567	3,612	228,243	117,604
227,582	3,695	228,254	117,663
228,596	3,753	228,164	117,651
229,611	3,749	227,863	117,481
230,626	3,385	227,577	117,045
231,640	3,375	227,368	116,920
232,655	3,549	227,381	117,049
233,669	4,063	227,396	117,438
234,684	4,213	227,141	117,411
235,699	3,879	227,010	117,078
236,713	3,784	226,810	116,892
237,728	3,611	226,555	116,618
238,742	3,431	226,362	116,372
239,757	3,465	226,337	116,375
240,772	3,451	226,155	116,260
241,786	3,385	225,992	116,116
242,801	3,727	225,850	116,292
243,815	3,953	225,750	116,401
244,830	3,818	225,802	116,316
245,844	3,837	225,278	116,050
246,859	3,900	225,261	116,078
247,874	3,778	225,111	115,898
248,888	3,859	224,996	115,890
249,903	3,481	224,911	115,550
250,917	3,598	224,585	115,461
251,932	3,593	224,533	115,420
252,947	3,425	224,348	115,188
253,961	3,585	224,070	115,155
254,976	3,527	224,140	115,138
255,990	3,753	224,057	115,254
257,005	3,623	223,959	115,096
258,020	3,572	223,812	114,972
259,034	4,051	223,550	115,186
260,049	3,996	223,426	115,070
261,063	3,775	223,224	114,791
262,078	3,821	223,259	114,833
263,093	3,982	223,057	114,839
264,107	3,881	222,794	114,618
265,122	3,842	222,827	114,596
266,136	3,961	222,703	114,610
267,151	3,928	222,591	114,518
268,166	3,722	222,150	114,128
269,180	3,428	221,994	113,820
270,195	3,397	221,894	113,735
271,209	3,342	221,820	113,646
272,224	3,681	221,589	113,769
273,239	3,736	221,533	113,771
274,253	3,646	221,330	113,590
275,268	3,495	221,127	113,364
276,282	3,508	220,926	113,261
277,297	3,380	220,890	113,138
278,312	3,405	220,672	113,034
279,326	3,586	220,596	113,118
280,341	3,666	220,476	113,106
281,355	3,683	220,334	113,035
282,370	3,738	220,146	112,969
283,384	3,388	219,889	112,571
284,399	3,334	219,797	112,473
285,414	3,308	219,828	112,460
286,428	3,432	219,757	112,505
287,443	3,661	219,588	112,576
288,457	3,504	219,416	112,362
289,472	3,325	219,286	112,155
290,487	3,033	218,947	111,758
291,501	2,932	218,817	111,608
292,516	3,050	218,719	111,635
293,530	3,278	218,666	111,763
294,545	3,218	218,457	111,603
295,560	3,356	218,383	111,656
296,574	3,627	218,278	111,790
297,589	3,384	218,208	111,567
298,603	3,760	217,889	111,668
299,618	3,570	217,921	111,536
300,633	3,524	217,748	111,404
301,647	3,718	217,661	111,490
302,662	3,671	217,530	111,379
303,676	3,896	217,264	111,396
304,691	3,876	217,222	111,350
305,706	3,841	216,941	111,171
306,720	3,416	216,823	110,793
307,735	3,770	216,625	110,937
308,749	3,594	216,601	110,788
309,764	3,860	216,466	110,901
310,779	3,904	216,400	110,889
311,793	3,784	216,189	110,685
312,808	3,696	216,073	110,553
313,822	3,896	215,790	110,542
314,837	3,625	215,803	110,343
315,852	3,451	215,573	110,092
316,866	3,505	215,463	110,064
317,881	3,765	215,340	110,178
318,895	3,689	215,262	110,073
319,910	3,637	214,995	109,889
320,925	3,408	214,815	109,624
321,939	3,256	214,621	109,406
322,954	3,280	214,538	109,372
323,968	3,607	214,558	109,606
324,983	3,440	214,516	109,456
325,997	3,944	214,310	109,700
327,012	3,687	214,007	109,352
328,027	3,564	213,958	109,230
329,041	4,005	213,882	109,495
330,056	4,179	213,726	109,529
331,070	3,795	213,630	109,197
332,085	3,489	213,390	108,848
333,100	3,575	213,219	108,812
334,114	3,622	213,105	108,777
335,129	3,651	213,024	108,747
336,143	3,498	212,810	108,519
337,158	3,460	212,770	108,463
338,173	3,646	212,646	108,521
339,187	3,456	212,398	108,251
340,202	3,317	212,400	108,144
341,216	3,256	212,174	107,976
342,231	3,418	212,060	108,023
343,246	3,132	211,915	107,738
344,260	3,297	211,626	107,697
345,275	3,300	211,806	107,781
346,289	3,585	211,619	107,877
347,304	3,775	211,463	107,921
348,319	3,539	211,264	107,645
349,333	3,868	211,116	107,790
350,348	3,882	210,977	107,720
351,362	3,883	210,785	107,613
352,377	3,823	210,788	107,563
353,392	3,722	210,646	107,410
354,406	3,672	210,512	107,297
355,421	195,147	1343,031	1430,778
356,435	155,827	1481,093	1430,857
