DTS Sentinel unit serial number:	SN410029Multiplexer serial number:	ORYXHardware model number:	OX2-SRSoftware version number:	ORYX F/W v4,00 Oryx Data Collector v3.7.2.0data status	okinstallation	B6 Nyhavnadifferential loss correction	single-endedforward channel	channel 2reverse channel	N/Adate	2023/12/10time	21:35:08forward acquisition time	300,00reverse acquisition time	0,00gamma	499,1914k internal	0,3123k external	0,3123temperature offset calibration	1,0000default loss term (dB/km)	0,3820temperature slope calibration	1,0000multiplexer offset coefficient	1,0000multiplexer slope coefficient	1,0000fibre end	0,00T internal ref (°C)	22,29T ext. ref 1 (°C)	6,06T ext. ref 2 (°C)	6,07length (m)	temperature (°C)	Stokes	anti-Stokes-744,400	-200,000	0,020	-0,108
-743,385	-63,821	-0,167	0,051
-742,371	-141,063	0,089	0,007
-741,356	-21,705	-0,261	0,118
-740,342	201,805	0,108	-0,124
-739,327	204,140	-0,047	0,055
-738,312	502,859	0,082	-0,142
-737,298	-54,898	-0,186	0,062
-736,283	56,710	0,104	-0,075
-735,269	94,422	-0,199	0,168
-734,254	39,605	0,070	-0,047
-733,239	-92,029	-0,482	-0,101
-732,225	-48,204	-0,018	0,006
-731,210	68,294	0,009	-0,007
-730,196	104,801	-0,140	-0,123
-729,181	453,928	-0,018	0,029
-728,167	-200,000	-0,007	0,063
-727,152	-200,000	0,017	-0,166
-726,137	69,590	-0,083	-0,064
-725,123	257,035	-0,034	-0,044
-724,108	25,970	-0,171	-0,106
-723,094	800,000	-0,081	-0,192
-722,079	288,473	0,030	-0,041
-721,064	18,042	0,029	-0,017
-720,050	132,894	0,063	-0,061
-719,035	10,093	-0,050	-0,028
-718,021	76,687	-0,032	0,025
-717,006	800,000	0,039	-0,087
-715,991	800,000	0,031	-0,073
-714,977	-89,356	-0,057	-0,012
-713,962	-200,000	-0,011	-0,152
-712,948	800,000	0,017	-0,056
-711,933	800,000	0,008	-0,021
-710,918	317,046	-0,076	-0,107
-709,904	-200,000	0,001	0,014
-708,889	-200,000	0,003	-0,020
-707,875	800,000	-0,022	-0,070
-706,860	94,932	0,059	0,050
-705,845	194,279	0,004	-0,004
-704,831	-200,000	0,000	-0,011
-703,816	5,048	0,100	0,055
-702,802	-181,730	-0,042	0,001
-701,787	80,792	-0,055	0,044
-700,772	133,505	-0,082	-0,079
-699,758	205,841	0,065	-0,075
-698,743	237,313	0,019	-0,023
-697,729	-64,841	0,067	0,020
-696,714	-200,000	-0,011	0,097
-695,699	16,307	-0,054	-0,032
-694,685	800,000	-0,044	-0,091
-693,670	-85,113	-0,129	0,030
-692,656	-12,300	0,126	-0,061
-691,641	10,769	0,045	0,026
-690,627	463,858	-0,049	0,082
-689,612	-200,000	0,007	-0,134
-688,597	-200,000	0,005	0,115
-687,583	114,041	-0,089	-0,081
-686,568	-200,000	0,016	-0,108
-685,554	333,357	0,117	-0,169
-684,539	-26,450	0,021	0,009
-683,524	129,060	-0,080	0,076
-682,510	-200,000	0,014	-0,141
-681,495	-200,000	0,001	-0,008
-680,481	-200,000	-0,002	-0,048
-679,466	11,380	0,041	-0,023
-678,451	163,680	-0,070	0,073
-677,437	800,000	0,040	-0,082
-676,422	-2,746	0,008	0,004
-675,408	-42,804	0,102	0,038
-674,393	-50,351	0,074	-0,026
-673,378	752,221	-0,079	-0,159
-672,364	-59,329	-0,055	0,018
-671,349	401,884	0,024	-0,038
-670,335	-39,137	0,145	-0,056
-669,320	255,695	0,077	-0,099
-668,305	-113,369	-0,064	0,009
-667,291	571,632	-0,061	-0,110
-666,276	-200,000	-0,006	-0,138
-665,262	398,516	-0,052	-0,081
-664,247	365,348	-0,051	-0,076
-663,232	-141,766	0,043	-0,003
-662,218	121,653	-0,095	0,088
-661,203	-200,000	-0,001	0,177
-660,189	-200,000	0,003	-0,013
-659,174	4,133	-0,067	-0,036
-658,159	-112,627	-0,071	-0,010
-657,145	-200,000	-0,027	0,131
-656,130	193,039	0,024	0,027
-655,116	512,163	0,038	-0,066
-654,101	-200,000	0,007	-0,070
-653,086	-39,992	0,110	-0,042
-652,072	-200,000	-0,006	0,026
-651,057	-200,000	-0,015	0,063
-650,043	-200,000	-0,009	-0,049
-649,028	-200,000	-0,016	-0,058
-648,014	286,544	0,074	0,099
-646,999	42,639	0,089	-0,060
-645,984	622,830	0,086	0,161
-644,970	-200,000	0,005	-0,135
-643,955	166,364	-0,089	-0,094
-642,941	611,455	-0,072	-0,134
-641,926	462,474	-0,020	-0,034
-640,911	42,563	0,052	0,035
-639,897	314,948	-0,012	0,017
-638,882	-64,792	0,052	-0,016
-637,868	29,751	-0,184	0,116
-636,853	122,052	0,076	-0,070
-635,838	345,533	-0,092	-0,135
-634,824	169,829	-0,107	-0,113
-633,809	271,755	0,022	-0,029
-632,795	-152,721	0,085	-0,004
-631,780	-200,000	-0,021	0,079
-630,765	353,960	0,042	-0,062
-629,751	-77,979	-0,010	-0,002
-628,736	705,286	-0,077	-0,152
-627,722	521,095	0,049	-0,086
-626,707	123,938	-0,114	0,106
-625,692	-200,000	-0,008	0,079
-624,678	203,433	0,112	-0,128
-623,663	800,000	-0,038	-0,118
-622,649	422,179	-0,076	-0,121
-621,634	-140,219	-0,101	0,008
-620,619	-20,021	-0,068	0,031
-619,605	274,017	0,083	0,109
-618,590	107,760	0,088	0,078
-617,576	-74,737	-0,036	0,010
-616,561	-44,982	-0,098	0,036
-615,546	-144,599	-0,017	-0,001
-614,532	91,485	-0,033	0,027
-613,517	-75,202	-0,102	-0,027
-612,503	211,932	0,056	-0,066
-611,488	55,209	-0,058	-0,041
-610,474	-200,000	-0,014	0,000
-609,459	-200,000	0,013	0,072
-608,444	355,513	-0,032	-0,048
-607,430	235,146	-0,079	0,097
-606,415	800,000	0,050	0,115
-605,401	-41,843	-0,182	-0,069
-604,386	-45,165	0,095	-0,035
-603,371	-129,264	-0,080	0,008
-602,357	305,884	-0,034	0,047
-601,342	-7,957	-0,097	0,049
-600,328	800,000	-0,041	-0,103
-599,313	-184,864	-0,062	-0,001
-598,298	-81,210	-0,093	-0,023
-597,284	95,946	0,170	-0,144
-596,269	-69,324	0,103	-0,029
-595,255	-200,000	0,027	0,191
-594,240	-200,000	-0,033	0,000
-593,225	800,000	-0,040	0,110
-592,211	-130,709	-0,180	-0,018
-591,196	-28,835	-0,099	-0,042
-590,182	-18,990	0,066	0,030
-589,167	-88,285	-0,025	0,006
-588,152	-14,315	-0,081	0,039
-587,138	-3,882	-0,092	-0,047
-586,123	-41,337	-0,138	0,052
-585,109	-200,000	-0,012	-0,187
-584,094	800,000	0,042	-0,094
-583,079	-200,000	0,020	0,095
-582,065	-44,247	-0,038	-0,014
-581,050	-60,816	0,066	0,021
-580,036	-37,684	0,152	-0,060
-579,021	-103,116	-0,253	0,044
-578,006	-12,088	-0,028	-0,013
-576,992	454,685	0,040	-0,065
-575,977	-200,000	0,022	0,108
-574,963	639,964	-0,064	0,121
-573,948	280,333	0,091	0,121
-572,934	578,847	0,024	0,044
-571,919	651,749	0,070	0,133
-570,904	291,718	-0,028	-0,038
-569,890	141,056	0,060	-0,059
-568,875	-77,938	0,104	-0,026
-567,861	-200,000	-0,001	0,157
-566,846	89,388	-0,069	-0,057
-565,831	622,606	0,032	-0,059
-564,817	-200,000	0,016	0,096
-563,802	-200,000	-0,004	0,029
-562,788	800,000	0,010	0,022
-561,773	585,995	0,056	0,103
-560,758	308,365	0,073	-0,102
-559,744	800,000	-0,066	0,178
-558,729	-200,000	0,001	-0,018
-557,715	-132,525	0,051	0,005
-556,700	749,474	0,045	0,090
-555,685	800,000	-0,023	0,070
-554,671	-200,000	-0,013	-0,054
-553,656	121,493	0,098	0,090
-552,642	77,215	0,040	0,032
-551,627	800,000	-0,035	0,106
-550,612	273,341	-0,102	-0,134
-549,598	35,705	-0,122	-0,079
-548,583	-120,111	-0,036	0,004
-547,569	800,000	0,048	0,153
-546,554	-200,000	0,008	0,123
-545,539	77,543	0,103	0,081
-544,525	74,125	-0,083	0,064
-543,510	106,937	-0,071	0,062
-542,496	-18,062	-0,074	-0,034
-541,481	19,929	0,057	0,034
-540,466	-200,000	-0,013	-0,100
-539,452	122,356	-0,038	-0,035
-538,437	-200,000	-0,006	-0,022
-537,423	45,251	-0,068	-0,046
-536,408	58,026	-0,065	0,047
-535,393	-200,000	-0,008	-0,128
-534,379	127,621	-0,099	-0,093
-533,364	193,874	0,076	0,085
-532,350	-0,643	-0,074	-0,039
-531,335	690,367	-0,024	-0,047
-530,321	343,029	0,035	0,051
-529,306	744,543	0,048	-0,096
-528,291	337,747	-0,081	-0,117
-527,277	252,694	0,015	-0,020
-526,262	-200,000	0,008	-0,178
-525,248	62,967	0,020	0,015
-524,233	110,117	0,091	0,080
-523,218	-9,206	0,087	-0,043
-522,204	528,546	0,045	0,079
-521,189	208,159	-0,082	-0,094
-520,175	68,291	0,048	-0,036
-519,160	-113,510	0,103	0,015
-518,145	536,972	0,022	-0,040
-517,131	800,000	-0,025	0,072
-516,116	82,339	0,052	-0,042
-515,102	641,189	0,030	0,057
-514,087	-200,000	-0,043	0,160
-513,072	-102,714	-0,180	0,031
-512,058	174,159	-0,070	0,075
-511,043	-104,232	0,096	-0,016
-510,029	-200,000	0,019	0,068
-509,014	800,000	0,005	0,015
-507,999	353,037	-0,021	-0,030
-506,985	318,860	0,044	-0,062
-505,970	-200,000	-0,024	0,096
-504,956	-200,000	0,021	-0,228
-503,941	20,658	-0,057	-0,034
-502,926	-66,903	0,167	-0,048
-501,912	140,183	-0,074	0,072
-500,897	366,612	-0,038	0,057
-499,883	-86,870	0,103	0,023
-498,868	-88,715	-0,102	0,022
-497,853	1,900	-0,062	-0,033
-496,839	-200,000	-0,009	0,120
-495,824	54,849	-0,021	0,015
-494,810	18,602	0,029	-0,017
-493,795	445,655	0,023	0,038
-492,781	800,000	0,044	-0,132
-491,766	-127,195	-0,086	0,009
-490,751	-200,000	-0,004	-0,022
-489,737	-75,569	-0,012	0,003
-488,722	800,000	-0,051	0,123
-487,708	-74,352	0,125	-0,033
-486,693	321,019	0,016	-0,023
-485,678	-151,229	-0,055	0,003
-484,664	-200,000	-0,026	-0,139
-483,649	507,651	0,067	-0,115
-482,635	48,235	0,064	0,044
-481,620	-200,000	-0,004	-0,083
-480,605	-189,583	0,053	-0,000
-479,591	487,239	-0,056	-0,095
-478,576	-93,676	-0,062	0,012
-477,562	-200,000	-0,041	-0,161
-476,547	800,000	-0,037	-0,093
-475,532	800,000	0,017	0,048
-474,518	382,838	0,077	0,117
-473,503	800,000	-0,015	0,038
-472,489	800,000	0,022	-0,057
-471,474	213,176	0,005	0,006
-470,459	167,024	0,083	0,087
-469,445	236,860	-0,025	-0,031
-468,430	800,000	-0,055	-0,144
-467,416	-32,753	0,049	-0,020
-466,401	-200,000	0,044	0,000
-465,386	800,000	-0,037	-0,087
-464,372	-200,000	-0,014	-0,133
-463,357	-3,563	-0,084	-0,043
-462,343	800,000	-0,022	-0,068
-461,328	59,856	0,142	0,103
-460,313	-98,436	0,091	-0,017
-459,299	-24,216	0,037	-0,016
-458,284	-170,051	0,080	0,002
-457,270	303,179	-0,034	-0,047
-456,255	-21,068	-0,115	0,051
-455,241	800,000	0,010	0,031
-454,226	-102,186	0,044	-0,008
-453,211	11,631	0,117	0,066
-452,197	486,707	0,020	0,034
-451,182	307,718	0,083	0,115
-450,168	-27,823	0,053	0,023
-449,153	800,000	-0,032	-0,072
-448,138	58,312	-0,126	-0,091
-447,124	116,389	-0,079	0,071
-446,109	-34,336	0,090	-0,036
-445,095	-200,000	0,036	0,119
-444,080	205,702	0,049	0,056
-443,065	800,000	0,037	0,083
-442,051	-157,215	-0,076	0,003
-441,036	439,366	-0,063	-0,101
-440,022	800,000	-0,032	0,073
-439,007	304,381	0,059	-0,080
-437,992	-111,047	0,126	-0,019
-436,978	475,297	0,061	-0,101
-435,963	800,000	-0,055	-0,162
-434,949	180,548	0,056	-0,060
-433,934	-200,000	-0,007	0,081
-432,919	1,413	-0,132	0,069
-431,905	800,000	-0,040	0,127
-430,890	-174,767	0,205	-0,004
-429,876	-28,866	0,155	0,065
-428,861	188,890	-0,087	-0,096
-427,846	-101,926	-0,088	-0,016
-426,832	-45,614	-0,011	-0,004
-425,817	-200,000	0,002	0,057
-424,803	-200,000	-0,021	0,072
-423,788	689,322	-0,039	0,075
-422,773	225,539	-0,019	-0,022
-421,759	90,850	-0,020	0,017
-420,744	800,000	0,080	0,255
-419,730	-97,343	0,107	0,020
-418,715	800,000	-0,038	-0,102
-417,701	-200,000	-0,032	-0,113
-416,686	-73,709	0,102	0,027
-415,671	-200,000	-0,012	0,095
-414,657	74,377	0,130	0,101
-413,642	474,044	-0,069	0,114
-412,628	293,589	-0,068	-0,091
-411,613	148,092	-0,093	0,092
-410,598	17,935	0,235	-0,138
-409,584	-200,000	-0,012	-0,080
-408,569	168,004	0,066	0,069
-407,555	35,575	-0,028	-0,018
-406,540	-200,000	-0,001	0,060
-405,525	198,531	-0,087	0,098
-404,511	442,450	-0,061	-0,098
-403,496	-33,283	-0,105	-0,042
-402,482	89,386	0,152	0,124
-401,467	-200,000	0,024	-0,124
-400,452	800,000	-0,021	-0,048
-399,438	-35,756	0,060	-0,024
-398,423	800,000	-0,070	-0,146
-397,409	101,771	-0,113	-0,097
-396,394	-200,000	-0,017	-0,234
-395,379	-145,881	-0,034	-0,002
-394,365	61,131	0,067	0,049
-393,350	306,988	0,083	0,115
-392,336	-93,853	0,105	-0,021
-391,321	-131,109	-0,026	0,002
-390,306	151,930	-0,090	-0,090
-389,292	218,416	-0,040	-0,047
-388,277	-200,000	-0,008	-0,087
-387,263	11,982	-0,038	0,021
-386,248	-200,000	-0,022	0,080
-385,233	279,264	-0,083	0,109
-384,219	39,693	-0,173	-0,114
-383,204	124,376	-0,054	-0,050
-382,190	-65,151	0,074	-0,022
-381,175	800,000	0,028	-0,066
-380,160	13,233	-0,106	0,060
-379,146	421,016	0,035	0,055
-378,131	324,809	0,034	0,047
-377,117	137,809	-0,107	0,103
-376,102	-94,283	0,053	-0,011
-375,088	219,781	-0,022	-0,026
-374,073	783,630	0,035	-0,071
-373,058	311,825	-0,046	-0,064
-372,044	-200,000	-0,006	0,050
-371,029	-200,000	-0,015	0,050
-370,015	-95,261	-0,043	0,008
-369,000	800,000	-0,015	-0,042
-367,985	111,498	0,062	-0,055
-366,971	212,204	0,050	0,058
-365,956	-200,000	-0,001	-0,019
-364,942	-8,105	0,089	-0,044
-363,927	-131,030	0,134	0,013
-362,912	-200,000	-0,033	0,127
-361,898	-200,000	0,023	0,108
-360,883	800,000	0,022	0,061
-359,869	13,209	0,083	-0,047
-358,854	-22,548	-0,103	0,045
-357,839	-200,000	0,004	0,137
-356,825	24,109	0,097	0,059
-355,810	-156,621	-0,037	0,002
-354,796	-167,822	-0,080	0,002
-353,781	94,624	0,023	0,019
-352,766	800,000	-0,014	0,038
-351,752	240,956	0,048	-0,059
-350,737	-78,570	-0,027	0,007
-349,723	77,983	0,127	0,099
-348,708	-200,000	0,029	-0,119
-347,693	214,064	-0,059	0,069
-346,679	18,705	0,070	-0,041
-345,664	-200,000	0,001	-0,024
-344,650	346,613	0,049	-0,071
-343,635	-200,000	0,039	0,168
-342,620	-21,573	-0,041	-0,018
-341,606	99,692	0,152	-0,129
-340,591	-200,000	-0,014	-0,073
-339,577	-143,278	-0,102	0,007
-338,562	-104,571	-0,115	-0,019
-337,548	-138,590	-0,072	-0,006
-336,533	275,121	0,052	-0,068
-335,518	-137,601	0,161	-0,013
-334,504	49,159	0,110	0,076
-333,489	800,000	0,050	-0,161
-332,475	-200,000	-0,006	0,049
-331,460	-200,000	0,008	-0,036
-330,445	800,000	0,040	-0,084
-329,431	-200,000	-0,023	0,082
-328,416	95,497	-0,126	0,106
-327,402	661,563	-0,030	0,057
-326,387	-151,433	-0,081	0,004
-325,372	-37,486	-0,087	-0,034
-324,358	-92,547	-0,055	-0,011
-323,343	-191,474	-0,021	0,000
-322,329	228,274	0,043	0,051
-321,314	87,945	0,089	-0,072
-320,299	-125,974	0,097	0,011
-319,285	351,168	-0,049	-0,071
-318,270	632,294	0,023	-0,043
-317,256	-200,000	0,020	0,088
-316,241	800,000	0,027	0,077
-315,226	-68,534	0,111	-0,031
-314,212	85,092	-0,039	0,031
-313,197	-35,751	0,027	0,011
-312,183	-200,000	0,001	0,229
-311,168	-34,462	-0,078	-0,031
-310,153	351,717	-0,045	-0,066
-309,139	9,133	-0,034	0,019
-308,124	-23,803	0,136	0,059
-307,110	166,198	-0,071	0,074
-306,095	-119,025	0,166	-0,021
-305,080	50,368	0,090	0,062
-304,066	-200,000	-0,004	0,112
-303,051	800,000	0,040	-0,116
-302,037	322,234	-0,029	-0,041
-301,022	-200,000	-0,011	0,102
-300,008	-200,000	-0,021	-0,090
-298,993	-200,000	-0,006	-0,024
-297,978	38,419	0,044	-0,029
-296,964	-110,018	-0,077	0,012
-295,949	-135,322	-0,140	-0,012
-294,935	-200,000	0,009	0,219
-293,920	-99,442	0,155	-0,028
-292,905	-200,000	-0,002	-0,107
-291,891	800,000	0,034	-0,106
-290,876	728,957	0,079	0,156
-289,862	27,337	-0,043	0,026
-288,847	-200,000	0,018	-0,165
-287,832	-76,919	-0,122	0,031
-286,818	320,232	0,111	-0,155
-285,803	83,313	0,010	0,008
-284,789	69,107	-0,064	-0,048
-283,774	48,133	-0,116	0,079
-282,759	2,493	0,027	-0,014
-281,745	-200,000	0,024	-0,161
-280,730	-200,000	0,001	0,108
-279,716	800,000	0,049	-0,118
-278,701	800,000	-0,058	0,128
-277,686	98,467	-0,034	0,029
-276,672	-133,196	-0,063	-0,006
-275,657	-200,000	0,008	-0,046
-274,643	123,080	0,072	-0,066
-273,628	469,906	-0,088	-0,146
-272,613	800,000	-0,013	0,026
-271,599	-4,776	0,121	-0,061
-270,584	-200,000	0,026	-0,171
-269,570	-200,000	0,028	0,125
-268,555	800,000	0,033	0,090
-267,540	-200,000	-0,021	-0,079
-266,526	-200,000	-0,026	0,154
-265,511	30,297	0,146	-0,091
-264,497	800,000	-0,030	-0,062
-263,482	-200,000	0,000	0,053
-262,467	-200,000	0,008	0,174
-261,453	64,042	-0,085	0,062
-260,438	-200,000	-0,017	0,138
-259,424	-200,000	-0,009	-0,080
-258,409	-200,000	-0,014	0,118
-257,395	155,049	0,011	0,011
-256,380	367,768	-0,053	-0,079
-255,365	20,964	-0,038	-0,022
-254,351	202,684	-0,108	0,122
-253,336	373,648	-0,022	0,033
-252,322	151,458	-0,072	-0,072
-251,307	136,606	-0,030	0,029
-250,292	188,006	0,072	-0,079
-249,278	-100,204	0,080	-0,014
-248,263	800,000	0,052	-0,105
-247,249	-77,872	-0,123	0,031
-246,234	-27,619	-0,166	-0,070
-245,219	64,303	-0,108	-0,080
-244,205	800,000	0,016	0,047
-243,190	-23,567	0,203	-0,089
-242,176	194,803	0,026	0,029
-241,161	800,000	0,030	0,064
-240,146	-200,000	-0,000	0,031
-239,132	41,545	0,117	0,077
-238,117	800,000	0,037	-0,104
-237,103	800,000	-0,049	0,103
-236,088	-50,949	0,024	0,008
-235,073	-200,000	0,025	0,128
-234,059	18,896	0,035	0,021
-233,044	-200,000	0,011	0,073
-232,030	-200,000	-0,032	0,110
-231,015	800,000	-0,025	-0,069
-230,000	255,962	0,029	0,037
-228,986	40,198	0,069	0,045
-227,971	291,877	-0,034	-0,045
-226,957	100,011	0,044	0,037
-225,942	-161,491	-0,074	0,003
-224,927	-55,310	-0,024	0,008
-223,913	-200,000	-0,001	0,037
-222,898	-17,855	-0,095	-0,043
-221,884	337,848	-0,064	0,092
-220,869	289,432	-0,057	-0,075
-219,855	-53,309	-0,017	-0,006
-218,840	-200,000	0,012	0,053
-217,825	-40,147	0,087	-0,033
-216,811	800,000	0,039	-0,121
-215,796	-36,994	0,045	-0,018
-214,782	95,500	0,027	-0,023
-213,767	601,421	0,071	0,129
-212,752	80,789	0,043	-0,034
-211,738	-200,000	-0,000	0,115
-210,723	-9,911	0,085	0,041
-209,709	800,000	0,039	0,089
-208,694	191,088	0,048	0,053
-207,679	800,000	0,069	-0,197
-206,665	-18,037	-0,094	-0,043
-205,650	-72,737	0,139	-0,037
-204,636	57,415	-0,087	0,062
-203,621	413,148	-0,032	-0,049
-202,606	-200,000	-0,011	0,123
-201,592	-80,530	-0,101	0,024
-200,577	-200,000	-0,004	0,066
-199,563	461,189	0,104	-0,169
-198,548	333,384	0,093	-0,132
-197,533	800,000	0,056	-0,119
-196,519	-152,175	0,133	-0,007
-195,504	200,656	-0,083	0,093
-194,490	800,000	-0,040	-0,103
-193,475	144,026	0,076	0,074
-192,460	-200,000	-0,020	0,125
-191,446	3,120	0,046	0,025
-190,431	-76,914	0,014	0,003
-189,417	-200,000	0,011	-0,088
-188,402	800,000	0,016	0,034
-187,387	-200,000	0,032	-0,139
-186,373	-137,973	-0,213	-0,017
-185,358	-113,819	-0,098	-0,014
-184,344	-36,776	0,136	0,053
-183,329	-200,000	-0,015	0,082
-182,315	-200,000	-0,026	-0,114
-181,300	-200,000	0,012	-0,133
-180,285	-200,000	-0,004	-0,090
-179,271	800,000	0,033	-0,099
-178,256	154,131	-0,041	-0,041
-177,242	14,480	0,098	-0,055
-176,227	164,224	-0,078	-0,080
-175,212	-117,066	0,076	0,010
-174,198	84,049	-0,045	0,036
-173,183	-200,000	-0,001	0,070
-172,169	147,991	-0,078	-0,076
-171,154	-59,368	0,056	0,017
-170,139	-15,464	0,042	-0,020
-169,125	-24,085	0,122	0,053
-168,110	468,631	0,074	0,121
-167,096	800,000	0,043	0,100
-166,081	595,237	0,032	-0,058
-165,066	-200,000	-0,007	-0,157
-164,052	-136,942	-0,031	-0,003
-163,037	-200,000	-0,019	0,070
-162,023	279,832	0,056	0,072
-161,008	-46,115	-0,059	-0,021
-159,993	323,417	-0,098	0,136
-158,979	121,052	-0,106	-0,096
-157,964	800,000	-0,033	-0,069
-156,950	281,863	-0,041	0,054
-155,935	79,495	-0,112	0,088
-154,920	-129,756	-0,050	0,005
-153,906	7,686	0,037	0,020
-152,891	800,000	0,037	0,077
-151,877	-13,131	-0,095	0,045
-150,862	314,207	-0,031	-0,043
-149,847	145,972	0,020	-0,020
-148,833	800,000	-0,056	-0,117
-147,818	-200,000	0,004	-0,016
-146,804	-200,000	-0,023	-0,155
-145,789	-200,000	-0,019	0,073
-144,775	800,000	-0,059	0,122
-143,760	113,745	-0,086	-0,076
-142,745	-15,158	-0,006	-0,003
-141,731	-200,000	-0,028	0,129
-140,716	-139,363	-0,044	-0,003
-139,702	356,061	0,072	0,104
-138,687	150,090	0,098	0,097
-137,672	-64,726	0,108	0,032
-136,658	-0,349	0,024	-0,013
-135,643	632,970	0,031	-0,058
-134,629	-13,214	0,084	-0,039
-133,614	71,851	0,057	-0,043
-132,599	59,283	0,073	-0,052
-131,585	39,174	0,122	0,079
-130,570	-200,000	0,014	0,081
-129,556	-200,000	-0,009	-0,047
-128,541	-25,816	-0,067	0,028
-127,526	-200,000	0,012	-0,083
-126,512	-170,375	0,093	-0,002
-125,497	-78,886	0,111	0,027
-124,483	-11,716	-0,101	0,048
-123,468	40,515	0,056	-0,037
-122,453	1,283	-0,052	-0,027
-121,439	800,000	-0,057	-0,166
-120,424	-200,000	-0,016	-0,119
-119,410	-200,000	0,020	-0,229
-118,395	800,000	0,014	0,032
-117,380	62,271	-0,055	-0,040
-116,366	-130,242	-0,028	-0,003
-115,351	-81,859	-0,038	-0,009
-114,337	-31,983	0,200	0,081
-113,322	-200,000	0,005	-0,022
-112,307	-200,000	0,027	-0,170
-111,293	241,972	-0,004	-0,004
-110,278	71,528	-0,071	0,054
-109,264	-200,000	-0,000	-0,081
-108,249	142,357	0,061	-0,059
-107,234	-200,000	-0,020	-0,143
-106,220	-150,593	0,070	0,004
-105,205	800,000	-0,055	-0,157
-104,191	-116,649	0,080	-0,011
-103,176	334,979	-0,040	0,056
-102,162	507,647	-0,071	0,121
-101,147	30,713	-0,091	0,056
-100,132	-96,099	-0,068	-0,013
-99,118	493,066	-0,010	-0,016
-98,103	-89,622	-0,002	-0,000
-97,089	800,000	0,031	0,071
-96,074	700,519	0,052	0,100
-95,059	-17,924	0,015	0,007
-94,045	92,375	-0,120	0,098
-93,030	84,672	-0,074	-0,059
-92,016	547,672	-0,090	-0,157
-91,001	47,910	-0,031	0,021
-89,986	28,700	-0,049	0,030
-88,972	-196,382	0,248	-0,001
-87,957	189,911	-0,057	-0,063
-86,943	800,000	0,048	-0,129
-85,928	800,000	-0,047	-0,094
-84,913	751,878	-0,091	-0,179
-83,899	193,375	0,021	0,023
-82,884	-200,000	-0,003	0,074
-81,870	-17,750	0,161	0,073
-80,855	800,000	0,048	-0,099
-79,840	800,000	-0,026	-0,081
-78,826	337,837	-0,070	0,099
-77,811	503,167	-0,039	0,065
-76,797	-128,431	-0,085	-0,009
-75,782	-167,480	-0,100	0,003
-74,767	607,000	0,066	0,121
-73,753	-17,251	-0,066	-0,030
-72,738	-135,318	-0,037	-0,003
-71,724	-200,000	0,031	0,114
-70,709	526,871	-0,073	0,125
-69,694	800,000	0,035	0,091
-68,680	-16,837	0,215	0,098
-67,665	-114,200	-0,103	0,014
-66,651	330,740	0,060	-0,085
-65,636	-200,000	0,000	0,076
-64,622	4,208	0,019	0,010
-63,607	-56,503	-0,144	-0,046
-62,592	204,827	-0,041	0,046
-61,578	-200,000	-0,024	-0,124
-60,563	-82,100	0,017	0,004
-59,549	249,277	-0,017	0,021
-58,534	-115,885	-1,389	-0,186
-57,519	714,265	-0,765	-1,478
-56,505	-200,000	-0,902	-4,444
-55,490	75,302	0,630	-0,482
-54,476	800,000	4,917	11,922
-53,461	-200,000	13,595	253,354
-52,446	-200,000	690,231	2257,300
-51,432	589,860	1622,566	2914,930
-50,417	118,907	1635,253	1466,329
-49,403	73,075	1288,957	976,489
-48,388	37,944	1024,259	659,340
-47,373	24,280	981,905	587,135
-46,359	23,516	971,492	578,378
-45,344	22,525	967,418	572,694
-44,330	22,424	965,909	571,447
-43,315	22,333	964,510	570,299
-42,300	22,317	963,402	569,571
-41,286	22,334	962,338	568,975
-40,271	22,276	961,422	568,222
-39,257	22,313	960,672	567,876
-38,242	22,262	959,700	567,112
-37,227	22,319	958,781	566,733
-36,213	22,343	957,705	566,149
-35,198	22,246	956,996	565,396
-34,184	22,321	956,402	565,264
-33,169	22,210	955,668	564,451
-32,154	22,348	954,518	564,193
-31,140	22,362	953,636	563,696
-30,125	22,360	952,900	563,232
-29,111	22,302	952,204	562,609
-28,096	22,334	951,506	562,278
-27,082	22,321	950,678	561,726
-26,067	22,279	949,848	561,078
-25,052	22,288	949,340	560,783
-24,038	22,356	948,555	560,518
-23,023	22,359	947,916	560,125
-22,009	22,346	947,226	559,654
-20,994	22,378	946,666	559,404
-19,979	22,357	946,115	558,990
-18,965	22,340	945,553	558,581
-17,950	22,368	944,759	558,178
-16,936	22,254	944,138	557,427
-15,921	22,253	943,499	557,025
-14,906	22,236	942,757	556,509
-13,892	22,237	942,124	556,117
-12,877	22,225	941,574	555,731
-11,863	22,210	940,693	555,142
-10,848	22,197	940,346	554,872
-9,833	22,308	939,856	554,915
-8,819	22,271	939,250	554,418
-7,804	22,191	938,535	553,720
-6,790	22,153	938,074	553,306
-5,775	22,286	937,255	553,222
-4,760	22,270	936,535	552,723
-3,746	22,222	936,172	552,337
-2,731	22,081	935,480	551,462
-1,717	22,039	934,926	550,980
-0,702	21,985	934,105	550,304
0,313	21,842	933,461	550,305
1,327	25,043	931,195	558,982
2,342	34,831	796,059	503,929
3,356	32,924	452,060	283,267
4,371	1,846	294,151	153,279
5,386	-2,662	275,123	139,079
6,400	-4,276	269,170	134,559
7,415	-4,624	266,623	132,953
8,429	-4,450	265,532	132,557
9,444	-4,333	264,740	132,256
10,459	-4,365	264,166	131,929
11,473	-4,628	263,501	131,346
12,488	-4,446	262,928	131,214
13,502	-4,804	262,485	130,657
14,517	-4,652	262,025	130,554
15,531	-4,885	261,626	130,133
16,546	-4,889	261,363	129,987
17,561	-4,724	260,916	129,901
18,575	-4,592	260,625	129,863
19,590	-4,789	260,240	129,484
20,604	-4,660	259,887	129,412
21,619	-4,660	259,492	129,203
22,634	-4,717	259,251	129,021
23,648	-4,711	259,014	128,897
24,663	-4,676	258,534	128,678
25,677	-4,770	258,670	128,650
26,692	-4,717	258,339	128,521
27,707	-4,749	257,882	128,254
28,721	-4,815	257,600	128,044
29,736	-4,765	257,311	127,934
30,750	-4,872	257,176	127,759
31,765	-4,879	257,064	127,686
32,780	-4,814	256,562	127,484
33,794	-4,842	256,434	127,384
34,809	-4,898	256,316	127,264
35,823	-4,847	255,925	127,104
36,838	-4,985	255,825	126,920
37,853	-4,845	255,454	126,849
38,867	-4,973	255,383	126,689
39,882	-4,785	255,098	126,703
40,896	-5,033	254,921	126,385
41,911	-4,892	254,654	126,365
42,926	-4,764	254,369	126,324
43,940	-4,839	254,183	126,155
44,955	-4,884	253,966	125,997
45,969	-4,972	253,813	125,833
46,984	-5,132	253,499	125,527
47,999	-5,187	253,088	125,264
49,013	-5,465	252,915	124,925
50,028	-5,567	252,723	124,730
51,042	-5,825	252,490	124,380
52,057	-5,617	252,228	124,421
53,071	-5,482	251,897	124,363
54,086	-5,617	251,871	124,223
55,101	-5,430	251,657	124,268
56,115	-5,024	251,567	124,563
57,130	-4,932	251,618	124,657
58,144	-4,407	251,283	124,934
59,159	-4,655	251,128	124,632
60,174	-4,608	250,944	124,569
61,188	-4,373	250,556	124,567
62,203	-4,744	250,534	124,226
63,217	-4,837	250,391	124,065
64,232	-4,658	250,180	124,103
65,247	-4,579	249,850	123,996
66,261	-4,567	249,454	123,799
67,276	-4,787	249,165	123,456
68,290	-5,143	249,122	123,119
69,305	-5,142	248,759	122,930
70,320	-5,073	248,817	123,006
71,334	-4,930	248,653	123,036
72,349	-4,725	248,623	123,185
73,363	-4,576	248,239	123,111
74,378	-4,601	248,077	122,998
75,393	-4,776	247,934	122,768
76,407	-4,721	247,648	122,662
77,422	-4,610	247,502	122,673
78,436	-4,790	247,354	122,436
79,451	-4,624	247,121	122,450
80,466	-4,624	246,668	122,215
81,480	-5,131	246,653	121,768
82,495	-5,193	246,477	121,617
83,509	-5,020	246,384	121,707
84,524	-4,963	245,918	121,514
85,539	-5,072	245,656	121,282
86,553	-4,999	245,565	121,288
87,568	-4,894	245,373	121,270
88,582	-4,738	245,100	121,255
89,597	-5,255	245,232	120,876
90,611	-4,858	245,016	121,091
91,626	-4,858	244,778	120,964
92,641	-4,958	244,693	120,826
93,655	-4,745	244,496	120,897
94,670	-4,885	244,178	120,611
95,684	-4,841	243,974	120,537
96,699	-4,959	243,803	120,343
97,714	-5,032	243,560	120,151
98,728	-5,073	243,474	120,065
99,743	-5,197	243,088	119,760
100,757	-5,152	243,013	119,750
101,772	-5,046	242,800	119,723
102,787	-5,118	242,717	119,611
103,801	-4,862	242,504	119,708
104,816	-4,768	242,393	119,720
105,830	-4,771	242,326	119,674
106,845	-4,636	242,205	119,715
107,860	-4,643	241,866	119,531
108,874	-4,946	241,552	119,116
109,889	-4,898	241,400	119,069
110,903	-4,892	241,183	118,956
111,918	-5,110	241,116	118,733
112,933	-4,777	240,976	118,928
113,947	-5,043	240,737	118,580
114,962	-4,739	240,704	118,803
115,976	-4,788	240,465	118,635
116,991	-4,909	240,262	118,425
118,006	-4,727	240,131	118,499
119,020	-4,796	240,034	118,384
120,035	-4,822	239,757	118,216
121,049	-4,511	239,658	118,411
122,064	-4,784	239,516	118,107
123,079	-4,932	239,407	117,921
124,093	-4,900	238,945	117,709
125,108	-4,979	238,817	117,572
126,122	-5,114	238,608	117,348
127,137	-5,493	238,510	116,980
128,151	-5,119	238,246	117,145
129,166	-5,016	238,074	117,134
130,181	-5,265	237,869	116,820
131,195	-4,982	237,564	116,890
132,210	-4,965	237,580	116,901
133,224	-4,886	237,411	116,871
134,239	-4,828	237,221	116,814
135,254	-4,782	237,203	116,832
136,268	-5,000	236,825	116,460
137,283	-5,349	236,678	116,094
138,297	-5,345	236,453	115,977
139,312	-5,416	236,384	115,876
140,327	-4,996	236,130	116,079
141,341	-4,564	236,193	116,448
142,356	-4,616	236,088	116,344
143,370	-4,505	235,946	116,353
144,385	-4,521	235,788	116,252
145,400	-4,475	235,487	116,130
146,414	-4,454	235,465	116,126
147,429	-4,622	235,234	115,866
148,443	-4,815	235,017	115,595
149,458	-4,443	234,804	115,777
150,473	-4,589	234,573	115,537
151,487	-4,643	234,523	115,459
152,502	-4,594	234,268	115,361
153,516	-4,326	234,192	115,528
154,531	-4,530	234,175	115,346
155,546	-4,606	233,798	115,091
156,560	-4,776	233,577	114,836
157,575	-4,806	233,437	114,733
158,589	-4,632	233,363	114,825
159,604	-4,432	233,227	114,906
160,619	-4,442	233,010	114,781
161,633	-4,515	232,937	114,677
162,648	-4,406	232,720	114,646
163,662	-4,422	232,529	114,530
164,677	-4,650	232,417	114,284
165,692	-4,662	232,289	114,201
166,706	-4,461	232,099	114,256
167,721	-4,327	232,196	114,400
168,735	-4,415	231,923	114,185
169,750	-4,359	231,695	114,107
170,764	-4,531	231,648	113,938
171,779	-4,451	231,504	113,920
172,794	-4,288	231,329	113,952
173,808	-4,604	230,946	113,505
174,823	-4,957	230,652	113,074
175,837	-4,992	230,522	112,972
176,852	-4,877	230,506	113,045
177,867	-4,542	230,588	113,337
178,881	-4,255	230,172	113,348
179,896	-4,273	230,107	113,292
180,910	-4,159	229,972	113,303
181,925	-4,172	229,806	113,202
182,940	-4,216	229,736	113,123
183,954	-4,410	229,506	112,848
184,969	-4,201	229,305	112,902
185,983	-4,344	229,331	112,793
186,998	-4,189	229,125	112,803
188,013	-4,143	228,861	112,698
189,027	-4,309	228,766	112,513
190,042	-4,108	228,593	112,573
191,056	-4,173	228,373	112,405
192,071	-4,241	228,397	112,354
193,086	-4,207	228,040	112,194
194,100	-4,206	227,886	112,110
195,115	-4,630	227,593	111,628
196,129	-5,259	227,320	110,999
197,144	-2,134	228,504	113,989
198,159	2,211	229,530	117,867
199,173	4,368	229,983	119,765
200,188	4,343	229,906	119,695
201,202	4,440	229,729	119,668
202,217	4,466	229,758	119,692
203,232	4,799	229,631	119,873
204,246	4,980	229,344	119,853
205,261	4,937	229,380	119,828
206,275	4,983	229,207	119,762
207,290	4,944	229,160	119,697
208,304	4,935	228,847	119,516
209,319	4,886	228,717	119,400
210,334	4,931	228,537	119,329
211,348	4,529	228,370	118,922
212,363	4,113	228,009	118,403
213,377	4,110	227,850	118,308
214,392	4,066	227,713	118,193
215,407	4,195	227,590	118,217
216,421	4,269	227,503	118,219
217,436	4,371	227,205	118,131
218,450	3,861	227,050	117,650
219,465	3,885	226,879	117,569
220,480	4,032	226,712	117,585
221,494	3,825	226,758	117,439
222,509	4,122	226,544	117,545
223,523	4,110	226,383	117,442
224,538	4,059	226,185	117,290
225,553	3,933	226,172	117,176
226,567	4,139	226,047	117,258
227,582	4,442	225,842	117,372
228,596	4,478	225,834	117,385
229,611	4,344	225,588	117,144
230,626	3,952	225,370	116,723
231,640	4,005	225,169	116,649
232,655	4,285	225,146	116,839
233,669	4,798	225,034	117,158
234,684	4,675	225,054	117,066
235,699	4,376	224,770	116,681
236,713	4,448	224,492	116,581
237,728	4,117	224,144	116,140
238,742	4,100	224,081	116,085
239,757	4,236	223,861	116,063
240,772	4,125	223,751	115,911
241,786	4,132	223,745	115,903
242,801	4,255	223,682	115,953
243,815	4,184	223,820	115,961
244,830	4,699	223,389	116,114
245,844	4,371	223,085	115,700
246,859	4,066	223,066	115,450
247,874	4,464	222,938	115,673
248,888	4,282	222,920	115,516
249,903	4,264	222,623	115,338
250,917	4,286	222,412	115,236
251,932	4,183	222,203	115,040
252,947	4,021	222,102	114,857
253,961	3,838	221,978	114,646
254,976	4,023	221,800	114,681
255,990	4,348	221,680	114,851
257,005	4,091	221,654	114,636
258,020	4,320	221,529	114,732
259,034	4,563	221,490	114,882
260,049	4,315	221,338	114,609
261,063	4,260	221,053	114,410
262,078	4,470	220,979	114,517
263,093	4,671	220,825	114,577
264,107	4,346	220,684	114,252
265,122	4,345	220,475	114,133
266,136	4,443	220,543	114,231
267,151	4,717	220,182	114,236
268,166	4,257	220,002	113,793
269,180	3,926	219,812	113,441
270,195	3,897	219,583	113,290
271,209	3,947	219,472	113,260
272,224	4,026	219,418	113,280
273,239	4,400	219,282	113,475
274,253	4,087	219,060	113,120
275,268	3,788	218,892	112,803
276,282	3,807	218,728	112,723
277,297	3,692	218,639	112,583
278,312	3,834	218,575	112,644
279,326	3,933	218,606	112,722
280,341	4,160	218,308	112,725
281,355	4,286	218,150	112,725
282,370	4,044	218,095	112,510
283,384	3,968	217,803	112,294
284,399	3,960	217,737	112,244
285,414	3,886	217,644	112,132
286,428	4,276	217,393	112,277
287,443	4,219	217,386	112,221
288,457	4,352	217,220	112,222
289,472	4,190	216,949	111,955
290,487	3,826	216,748	111,576
291,501	3,520	216,747	111,344
292,516	3,675	216,568	111,354
293,530	3,934	216,346	111,418
294,545	3,955	216,214	111,356
295,560	3,856	216,294	111,315
296,574	4,119	216,143	111,418
297,589	4,109	215,833	111,240
298,603	4,209	215,877	111,326
299,618	4,223	215,570	111,168
300,633	4,377	215,472	111,218
301,647	4,485	215,471	111,285
302,662	4,788	215,206	111,357
303,676	4,405	215,175	111,055
304,691	4,384	215,087	110,985
305,706	4,292	214,993	110,861
306,720	4,376	214,687	110,753
307,735	3,883	214,705	110,398
308,749	3,893	214,495	110,288
309,764	4,239	214,342	110,447
310,779	4,259	214,359	110,461
311,793	4,274	214,037	110,295
312,808	4,308	213,996	110,289
313,822	4,223	213,688	110,060
314,837	4,071	213,567	109,879
315,852	3,859	213,412	109,639
316,866	4,217	213,398	109,877
317,881	4,356	213,130	109,828
318,895	4,377	213,022	109,777
319,910	4,215	212,954	109,617
320,925	4,040	212,700	109,352
321,939	3,932	212,367	109,095
322,954	3,705	212,472	108,978
323,968	4,168	212,366	109,242
324,983	4,137	212,274	109,163
325,997	4,379	212,181	109,277
327,012	4,092	212,025	108,984
328,027	4,233	211,857	108,987
329,041	4,522	211,743	109,123
330,056	4,748	211,636	109,218
331,070	4,040	211,519	108,648
332,085	3,834	211,199	108,329
333,100	3,890	211,156	108,337
334,114	4,333	211,004	108,561
335,129	3,921	210,886	108,201
336,143	3,921	210,599	108,043
337,158	3,889	210,512	107,967
338,173	3,880	210,570	107,981
339,187	4,047	210,203	107,900
340,202	3,910	210,035	107,708
341,216	3,660	209,979	107,495
342,231	3,774	209,849	107,498
343,246	3,820	209,794	107,493
344,260	3,868	209,770	107,504
345,275	3,842	209,708	107,445
346,289	4,235	209,474	107,590
347,304	4,244	209,342	107,519
348,319	4,176	209,159	107,368
349,333	4,126	208,974	107,228
350,348	4,136	208,891	107,183
351,362	4,164	208,807	107,150
352,377	4,245	208,622	107,102
353,392	4,026	208,512	106,883
354,406	4,277	208,424	107,003
355,421	194,361	1344,335	1434,323
356,435	155,103	1482,837	1434,447
