DTS Sentinel unit serial number:	SN410029Multiplexer serial number:	ORYXHardware model number:	OX2-SRSoftware version number:	ORYX F/W v4,00 Oryx Data Collector v3.7.2.0data status	okinstallation	B6 Nyhavnadifferential loss correction	single-endedforward channel	channel 2reverse channel	N/Adate	2023/12/08time	04:25:08forward acquisition time	300,00reverse acquisition time	0,00gamma	499,1914k internal	0,3165k external	0,3165temperature offset calibration	1,0000default loss term (dB/km)	0,3820temperature slope calibration	1,0000multiplexer offset coefficient	1,0000multiplexer slope coefficient	1,0000fibre end	0,00T internal ref (°C)	13,05T ext. ref 1 (°C)	-3,79T ext. ref 2 (°C)	-3,78length (m)	temperature (°C)	Stokes	anti-Stokes-744,400	800,000	0,038	0,089
-743,385	-149,544	-0,317	0,018
-742,371	-34,453	0,131	0,053
-741,356	-132,650	-0,221	0,021
-740,342	10,015	0,117	0,065
-739,327	-157,537	-0,394	-0,017
-738,312	800,000	0,013	-0,032
-737,298	-137,827	-0,236	0,019
-736,283	-133,777	0,121	-0,011
-735,269	-129,908	-0,308	-0,031
-734,254	1,676	0,176	0,093
-733,239	-17,711	-0,463	-0,213
-732,225	0,631	0,265	0,139
-731,210	-200,000	0,009	0,115
-730,196	-136,230	-0,042	-0,004
-729,181	-15,117	-0,035	0,016
-728,167	-200,000	-0,006	-0,122
-727,152	-11,902	0,126	-0,060
-726,137	85,346	-0,096	-0,078
-725,123	287,526	0,045	-0,060
-724,108	-200,000	-0,204	0,001
-723,094	273,136	-0,056	-0,073
-722,079	-0,161	-0,090	0,047
-721,064	-200,000	0,014	-0,045
-720,050	800,000	-0,008	0,019
-719,035	221,450	-0,097	-0,114
-718,021	150,430	-0,052	0,052
-717,006	-200,000	0,015	-0,204
-715,991	99,078	-0,071	-0,060
-714,977	800,000	-0,021	0,064
-713,962	22,074	-0,045	0,027
-712,948	24,366	0,108	0,065
-711,933	-77,977	-0,202	-0,051
-710,918	-130,746	-0,147	0,014
-709,904	191,376	0,062	-0,069
-708,889	-78,158	0,133	-0,033
-707,875	752,563	0,056	-0,112
-706,860	112,759	-0,026	0,023
-705,845	-53,552	-0,021	0,007
-704,831	305,517	0,116	0,159
-703,816	556,002	0,016	-0,029
-702,802	18,907	0,048	0,028
-701,787	-200,000	0,037	-0,221
-700,772	520,467	-0,068	-0,117
-699,758	-200,000	0,006	-0,058
-698,743	7,174	0,063	0,034
-697,729	161,819	0,022	-0,022
-696,714	-200,000	0,020	-0,096
-695,699	-200,000	-0,062	-0,207
-694,685	267,726	-0,085	0,110
-693,670	100,486	0,102	-0,087
-692,656	800,000	-0,033	0,084
-691,641	338,631	0,026	-0,037
-690,627	-200,000	0,011	0,087
-689,612	224,480	-0,038	-0,045
-688,597	-62,247	-0,101	0,031
-687,583	-200,000	-0,043	-0,190
-686,568	800,000	0,042	-0,117
-685,554	-32,768	-0,217	-0,088
-684,539	12,029	0,124	0,070
-683,524	-102,832	-0,122	-0,021
-682,510	-63,821	0,040	0,012
-681,495	-130,290	-0,096	0,009
-680,481	800,000	0,030	-0,080
-679,466	800,000	-0,058	-0,120
-678,451	529,259	0,085	0,148
-677,437	185,862	-0,006	-0,007
-676,422	-62,269	-0,163	0,050
-675,408	-95,188	0,074	0,015
-674,393	454,283	0,025	-0,041
-673,378	-64,458	-0,006	-0,002
-672,364	-142,938	-0,165	-0,012
-671,349	800,000	-0,050	-0,114
-670,335	-90,930	0,041	0,009
-669,320	129,084	-0,064	-0,060
-668,305	11,670	-0,018	0,010
-667,291	87,478	-0,089	0,072
-666,276	-104,835	-0,045	-0,007
-665,262	-97,020	-0,133	-0,025
-664,247	-200,000	0,018	0,078
-663,232	704,711	-0,017	-0,032
-662,218	-200,000	0,001	-0,007
-661,203	-200,000	-0,006	-0,028
-660,189	-26,434	-0,066	-0,028
-659,174	43,666	0,054	-0,036
-658,159	-200,000	0,000	0,043
-657,145	187,171	-0,116	0,127
-656,130	64,855	-0,116	-0,086
-655,116	249,771	-0,068	-0,084
-654,101	-45,878	-0,112	0,040
-653,086	102,668	-0,108	0,093
-652,072	-60,085	-0,141	-0,044
-651,057	-123,144	-0,055	0,006
-650,043	-27,209	-0,037	0,016
-649,028	-91,268	-0,081	-0,017
-648,014	197,869	0,054	0,061
-646,999	-82,011	0,055	-0,013
-645,984	800,000	-0,034	-0,083
-644,970	316,880	-0,050	-0,069
-643,955	-117,395	-0,079	0,010
-642,941	-200,000	-0,012	-0,059
-641,926	800,000	0,032	0,073
-640,911	122,003	0,047	0,043
-639,897	-200,000	0,025	0,098
-638,882	800,000	-0,067	0,156
-637,868	630,558	0,034	-0,063
-636,853	-200,000	-0,022	0,131
-635,838	-9,505	-0,103	0,050
-634,824	800,000	-0,011	0,034
-633,809	300,644	-0,040	-0,055
-632,795	-155,582	-0,037	0,002
-631,780	-200,000	-0,021	-0,224
-630,765	-91,411	-0,026	-0,005
-629,751	54,098	0,060	0,042
-628,736	140,950	-0,140	-0,136
-627,722	305,717	-0,063	-0,086
-626,707	-200,000	-0,005	0,079
-625,692	-72,159	0,100	0,027
-624,678	-59,495	-0,104	-0,032
-623,663	117,505	0,153	-0,138
-622,649	-74,349	-0,148	-0,039
-621,634	800,000	-0,015	0,031
-620,619	-16,806	-0,098	-0,045
-619,605	-200,000	-0,009	0,055
-618,590	690,210	0,012	-0,023
-617,576	-89,361	-0,039	0,008
-616,561	0,770	0,113	-0,059
-615,546	-43,402	0,018	0,007
-614,532	48,445	-0,015	-0,010
-613,517	483,239	0,021	-0,035
-612,503	800,000	-0,046	-0,098
-611,488	-200,000	0,007	-0,039
-610,474	-200,000	0,026	-0,113
-609,459	800,000	0,009	0,025
-608,444	317,275	-0,047	-0,065
-607,430	800,000	-0,055	-0,118
-606,415	-39,588	-0,087	-0,033
-605,401	800,000	-0,026	-0,076
-604,386	129,403	-0,057	0,054
-603,371	-200,000	-0,000	-0,065
-602,357	-200,000	-0,003	0,076
-601,342	-69,391	-0,053	0,015
-600,328	280,162	-0,086	-0,113
-599,313	56,324	-0,089	-0,063
-598,298	-200,000	0,003	0,051
-597,284	-95,710	0,092	0,018
-596,269	-48,475	0,099	0,035
-595,255	140,053	0,041	0,040
-594,240	109,459	-0,064	0,056
-593,225	-16,745	0,141	-0,065
-592,211	-42,723	-0,120	0,045
-591,196	-73,122	-0,086	0,023
-590,182	227,423	0,093	-0,111
-589,167	-46,445	0,163	0,058
-588,152	319,315	0,046	-0,065
-587,138	-61,627	0,024	-0,007
-586,123	-200,000	-0,008	0,048
-585,109	111,078	0,093	-0,082
-584,094	426,735	-0,051	0,080
-583,079	-200,000	-0,015	0,060
-582,065	117,641	-0,049	0,044
-581,050	46,262	0,023	-0,015
-580,036	-200,000	0,009	0,082
-579,021	-91,223	-0,090	-0,019
-578,006	-200,000	-0,034	-0,155
-576,992	576,400	-0,067	-0,120
-575,977	-13,406	0,134	0,063
-574,963	165,158	0,021	0,022
-573,948	800,000	-0,029	0,075
-572,934	62,010	0,095	0,069
-571,919	800,000	-0,016	0,035
-570,904	562,401	-0,042	-0,075
-569,890	119,677	-0,105	-0,095
-568,875	646,582	-0,055	0,104
-567,861	13,816	0,102	0,058
-566,846	800,000	0,089	0,208
-565,831	800,000	0,039	-0,102
-564,817	29,398	0,070	-0,043
-563,802	-200,000	-0,028	0,123
-562,788	-200,000	0,033	0,110
-561,773	545,468	0,088	0,154
-560,758	35,394	0,091	0,058
-559,744	65,435	0,046	0,034
-558,729	409,828	-0,108	-0,167
-557,715	184,932	0,133	-0,144
-556,700	-5,437	-0,214	-0,107
-555,685	-94,461	-0,017	-0,003
-554,671	-52,309	-0,053	0,018
-553,656	368,134	0,075	-0,111
-552,642	-54,398	0,129	-0,042
-551,627	35,799	-0,076	-0,048
-550,612	-200,000	-0,034	-0,116
-549,598	-172,273	-0,123	0,003
-548,583	800,000	-0,032	-0,085
-547,569	-161,775	-0,092	-0,003
-546,554	-84,415	-0,126	0,029
-545,539	72,679	-0,104	0,079
-544,525	-2,629	-0,031	-0,016
-543,510	800,000	-0,055	-0,161
-542,496	-200,000	0,023	-0,149
-541,481	-200,000	-0,010	-0,078
-540,466	90,453	-0,023	-0,019
-539,452	-200,000	0,004	0,037
-538,437	586,806	0,074	0,134
-537,423	467,192	-0,033	0,054
-536,408	-200,000	-0,017	0,115
-535,393	-39,145	0,066	0,025
-534,379	-200,000	0,001	0,020
-533,364	800,000	0,041	0,098
-532,350	-36,099	-0,018	0,007
-531,335	-58,213	-0,065	0,020
-530,321	-200,000	0,012	0,130
-529,306	-200,000	-0,005	0,038
-528,291	91,396	-0,036	0,030
-527,277	-115,251	0,093	-0,013
-526,262	73,834	-0,128	-0,098
-525,248	800,000	-0,020	-0,050
-524,233	97,823	0,018	0,015
-523,218	-200,000	-0,039	-0,140
-522,204	-35,977	-0,056	-0,022
-521,189	95,877	-0,068	0,057
-520,175	-200,000	-0,007	0,033
-519,160	-34,346	-0,069	0,028
-518,145	800,000	-0,051	-0,107
-517,131	-44,025	0,122	0,044
-516,116	199,098	-0,061	-0,069
-515,102	555,443	-0,056	-0,098
-514,087	-26,226	0,050	0,021
-513,072	524,739	0,058	-0,099
-512,058	-80,193	0,037	0,009
-511,043	-200,000	-0,002	-0,008
-510,029	-200,000	0,040	0,138
-509,014	-200,000	-0,001	0,112
-507,999	-71,371	0,064	0,017
-506,985	800,000	0,039	0,108
-505,970	76,664	-0,064	0,049
-504,956	800,000	0,014	-0,036
-503,941	136,920	-0,125	0,119
-502,926	417,123	0,075	0,117
-501,912	800,000	-0,049	0,103
-500,897	800,000	0,019	0,059
-499,883	-200,000	0,004	-0,020
-498,868	-150,831	-0,028	0,002
-497,853	488,333	-0,034	0,057
-496,839	1,579	-0,033	-0,017
-495,824	282,512	-0,013	0,017
-494,810	-180,339	0,059	0,001
-493,795	-84,007	0,022	-0,005
-492,781	358,651	-0,117	0,171
-491,766	199,636	0,057	0,064
-490,751	26,017	0,035	-0,021
-489,737	192,484	-0,090	0,099
-488,722	-190,504	0,170	0,001
-487,708	-200,000	0,034	0,110
-486,693	62,212	-0,098	0,071
-485,678	-108,093	0,041	-0,006
-484,664	-61,519	-0,135	0,041
-483,649	94,276	0,124	-0,102
-482,635	-200,000	0,055	-0,191
-481,620	800,000	0,009	0,020
-480,605	62,263	0,093	-0,067
-479,591	73,266	-0,108	-0,082
-478,576	115,783	-0,066	0,059
-477,562	-126,247	0,154	-0,016
-476,547	800,000	-0,021	0,053
-475,532	120,531	-0,018	0,016
-474,518	-200,000	0,026	-0,147
-473,503	-142,073	0,097	-0,007
-472,489	800,000	-0,016	-0,034
-471,474	-9,801	-0,040	0,019
-470,459	-200,000	0,001	-0,050
-469,445	-200,000	-0,021	-0,148
-468,430	800,000	0,018	-0,048
-467,416	-164,652	0,098	0,003
-466,401	23,706	0,139	0,083
-465,386	734,322	-0,009	0,017
-464,372	28,765	0,099	0,061
-463,357	-152,006	0,151	-0,008
-462,343	-200,000	-0,009	-0,086
-461,328	-200,000	-0,022	-0,075
-460,313	-200,000	-0,031	-0,109
-459,299	800,000	-0,031	0,092
-458,284	74,215	0,123	0,094
-457,270	-200,000	-0,016	0,077
-456,255	-22,685	0,087	0,038
-455,241	31,366	-0,121	0,076
-454,226	-9,911	0,045	0,022
-453,211	237,640	-0,033	-0,040
-452,197	653,744	-0,042	0,078
-451,182	-63,927	0,042	0,012
-450,168	-44,323	0,102	0,037
-449,153	-146,513	-0,069	-0,004
-448,138	269,709	-0,034	0,044
-447,124	-102,539	-0,066	0,011
-446,109	114,705	-0,117	0,104
-445,095	800,000	-0,033	-0,071
-444,080	800,000	0,046	0,134
-443,065	-119,210	-0,017	0,002
-442,051	-200,000	-0,012	-0,042
-441,036	-74,244	-0,128	-0,033
-440,022	-88,285	-0,033	-0,007
-439,007	-200,000	0,007	-0,040
-437,992	107,107	0,116	0,100
-436,978	338,861	0,082	0,116
-435,963	-200,000	0,008	0,080
-434,949	-200,000	0,017	0,131
-433,934	-79,748	-0,057	-0,014
-432,919	-75,173	-0,162	0,042
-431,905	-78,740	0,065	-0,016
-430,890	800,000	0,099	0,229
-429,876	57,581	0,052	0,037
-428,861	-200,000	0,025	0,094
-427,846	-200,000	0,018	-0,082
-426,832	355,446	0,064	-0,093
-425,817	-74,182	-0,085	0,022
-424,803	23,776	-0,089	-0,053
-423,788	-28,278	0,125	-0,052
-422,773	-8,214	-0,046	0,023
-421,759	-200,000	0,011	-0,069
-420,744	800,000	0,033	-0,083
-419,730	73,451	-0,153	-0,116
-418,715	-78,031	0,072	-0,018
-417,701	20,313	0,142	-0,083
-416,686	-168,104	0,081	-0,002
-415,671	112,472	0,042	0,037
-414,657	800,000	-0,030	0,093
-413,642	95,812	0,029	0,024
-412,628	257,744	-0,021	-0,026
-411,613	-17,525	0,145	0,066
-410,598	186,072	0,046	0,050
-409,584	704,928	0,033	0,064
-408,569	800,000	-0,005	0,013
-407,555	-47,930	0,142	0,049
-406,540	203,435	0,007	0,008
-405,525	226,015	0,031	-0,037
-404,511	-200,000	-0,031	-0,139
-403,496	16,586	0,055	0,032
-402,482	87,681	-0,018	0,014
-401,467	-121,960	0,144	-0,017
-400,452	-73,295	0,167	-0,044
-399,438	-157,998	-0,111	0,005
-398,423	-200,000	0,021	0,087
-397,409	800,000	0,018	-0,044
-396,394	-92,128	0,096	0,019
-395,379	-87,412	-0,136	0,030
-394,365	-96,836	0,162	-0,031
-393,350	68,010	0,057	-0,042
-392,336	314,527	0,052	0,071
-391,321	444,774	-0,089	-0,142
-390,306	158,838	-0,011	0,011
-389,292	184,051	-0,064	0,069
-388,277	-200,000	-0,012	-0,055
-387,263	800,000	0,003	0,010
-386,248	561,314	0,053	0,094
-385,233	169,553	-0,071	0,073
-384,219	-200,000	0,034	-0,126
-383,204	-116,491	0,080	0,011
-382,190	158,101	-0,111	-0,112
-381,175	164,286	0,079	-0,081
-380,160	-68,121	-0,090	0,025
-379,146	-14,559	-0,096	-0,044
-378,131	-68,650	-0,051	-0,014
-377,117	-200,000	0,005	0,024
-376,102	8,819	0,093	0,051
-375,088	-92,898	-0,229	0,046
-374,073	212,503	-0,006	-0,006
-373,058	51,080	0,085	0,058
-372,044	-185,045	-0,100	0,001
-371,029	-89,314	0,014	-0,003
-370,015	-29,957	0,045	0,018
-369,000	195,902	-0,054	-0,060
-367,985	-107,622	-0,123	0,019
-366,971	-200,000	0,006	0,043
-365,956	163,571	0,075	-0,077
-364,942	-84,014	0,115	-0,026
-363,927	-169,723	-0,083	-0,002
-362,912	800,000	-0,026	-0,081
-361,898	-200,000	0,015	-0,151
-360,883	87,620	0,022	-0,018
-359,869	168,270	-0,076	0,078
-358,854	800,000	0,034	0,074
-357,839	144,510	0,032	0,031
-356,825	-35,297	0,128	0,050
-355,810	51,178	0,097	-0,067
-354,796	-200,000	0,069	-0,225
-353,781	-147,284	0,111	0,007
-352,766	800,000	-0,042	-0,092
-351,752	5,022	-0,094	0,050
-350,737	159,118	0,096	0,096
-349,723	-152,604	0,098	0,005
-348,708	-148,833	0,073	-0,004
-347,693	-81,701	0,050	-0,012
-346,679	17,108	-0,076	0,044
-345,664	37,973	-0,034	0,022
-344,650	249,296	0,076	0,093
-343,635	680,504	-0,041	0,078
-342,620	800,000	-0,019	-0,047
-341,606	-97,698	0,098	0,018
-340,591	800,000	-0,016	-0,042
-339,577	-36,260	-0,096	0,037
-338,562	-181,284	0,054	-0,001
-337,548	-119,874	-0,061	0,007
-336,533	144,868	0,069	0,066
-335,518	157,165	-0,051	0,051
-334,504	89,408	0,092	-0,074
-333,489	30,032	-0,131	-0,081
-332,475	84,675	-0,029	0,023
-331,460	-200,000	-0,053	0,171
-330,445	281,154	0,034	0,044
-329,431	-46,863	-0,157	-0,055
-328,416	-200,000	0,009	0,129
-327,402	-200,000	0,012	-0,055
-326,387	36,464	0,065	0,041
-325,372	800,000	0,039	-0,116
-324,358	699,194	-0,050	0,095
-323,343	339,823	-0,057	0,081
-322,329	230,638	-0,033	0,039
-321,314	-148,117	0,156	0,009
-320,299	-200,000	-0,014	0,062
-319,285	117,132	-0,106	0,094
-318,270	356,365	0,044	-0,064
-317,256	-13,347	-0,098	-0,046
-316,241	-200,000	0,024	-0,150
-315,226	91,341	0,013	0,011
-314,212	-200,000	0,030	0,113
-313,197	28,228	0,131	0,080
-312,183	-106,664	-0,202	0,032
-311,168	-200,000	0,007	-0,085
-310,153	184,665	-0,031	-0,033
-309,139	13,520	-0,103	-0,058
-308,124	425,950	0,043	-0,067
-307,110	10,701	0,044	-0,024
-306,095	232,483	0,092	0,110
-305,080	-200,000	0,005	-0,055
-304,066	800,000	0,031	0,063
-303,051	-159,581	0,131	-0,005
-302,037	-200,000	0,005	-0,030
-301,022	90,208	0,163	-0,132
-300,008	-150,891	0,144	-0,008
-298,993	-69,358	0,012	0,003
-297,978	-200,000	-0,017	-0,070
-296,964	-200,000	-0,014	-0,091
-295,949	800,000	-0,033	-0,095
-294,935	-95,964	-0,087	-0,017
-293,920	-200,000	-0,028	-0,097
-292,905	-12,709	0,102	-0,048
-291,891	-155,213	0,123	-0,006
-290,876	-167,966	0,087	0,002
-289,862	142,265	0,059	-0,057
-288,847	-62,978	0,055	0,016
-287,832	192,592	-0,061	-0,067
-286,818	106,242	-0,062	0,053
-285,803	-200,000	0,003	-0,117
-284,789	-104,799	0,129	-0,021
-283,774	800,000	-0,045	-0,123
-282,759	800,000	-0,029	-0,079
-281,745	-188,544	-0,073	-0,001
-280,730	-89,516	-0,068	0,014
-279,716	-68,482	-0,062	-0,017
-278,701	800,000	0,016	0,040
-277,686	-149,014	0,140	-0,008
-276,672	800,000	0,025	-0,061
-275,657	257,339	-0,071	0,088
-274,643	-200,000	0,004	-0,125
-273,628	-200,000	-0,018	-0,098
-272,613	421,814	0,066	0,102
-271,599	-120,017	0,108	-0,013
-270,584	48,864	0,078	0,053
-269,570	-0,919	-0,023	-0,012
-268,555	-200,000	-0,002	0,049
-267,540	484,828	-0,059	-0,097
-266,526	498,708	-0,035	-0,058
-265,511	422,971	0,024	-0,038
-264,497	80,348	-0,049	-0,038
-263,482	-200,000	0,020	-0,119
-262,467	124,523	-0,095	-0,086
-261,453	800,000	-0,017	-0,053
-260,438	-200,000	-0,029	-0,126
-259,424	20,108	-0,036	0,021
-258,409	-42,763	0,092	-0,033
-257,395	800,000	-0,020	0,045
-256,380	800,000	0,046	0,129
-255,365	103,012	-0,056	-0,047
-254,351	716,512	0,032	-0,062
-253,336	255,762	0,041	0,051
-252,322	438,909	-0,045	-0,071
-251,307	-59,087	0,107	0,033
-250,292	207,012	-0,033	-0,037
-249,278	-90,332	0,139	0,029
-248,263	145,282	0,158	0,152
-247,249	656,652	-0,055	-0,102
-246,234	-200,000	0,026	-0,132
-245,219	59,028	0,098	0,069
-244,205	539,701	-0,032	0,055
-243,190	178,044	-0,055	0,058
-242,176	-200,000	0,023	0,097
-241,161	230,144	0,027	-0,032
-240,146	-150,359	0,186	0,010
-239,132	145,990	0,084	-0,082
-238,117	191,153	-0,059	-0,064
-237,103	-141,654	-0,122	0,009
-236,088	-162,389	0,110	-0,004
-235,073	800,000	0,031	0,084
-234,059	-200,000	-0,011	0,072
-233,044	-33,537	0,018	0,007
-232,030	-200,000	-0,015	-0,072
-231,015	-65,553	-0,168	0,048
-230,000	-114,371	-0,041	-0,006
-228,986	-93,257	-0,100	-0,020
-227,971	172,151	0,077	0,080
-226,957	-53,338	0,025	-0,008
-225,942	-82,671	0,108	0,025
-224,927	395,735	0,083	0,125
-223,913	198,405	0,074	0,082
-222,898	800,000	-0,085	-0,206
-221,884	650,136	-0,052	-0,097
-220,869	-200,000	0,001	0,028
-219,855	-200,000	0,005	0,023
-218,840	-188,556	-0,012	-0,000
-217,825	-30,582	-0,080	0,033
-216,811	-69,801	-0,205	-0,056
-215,796	-38,061	-0,117	-0,045
-214,782	-151,593	-0,101	0,005
-213,767	-107,963	0,175	-0,027
-212,752	-200,000	-0,006	0,034
-211,738	-200,000	0,012	0,064
-210,723	136,172	-0,069	-0,065
-209,709	86,355	0,019	-0,015
-208,694	-84,181	0,044	-0,010
-207,679	28,342	0,074	-0,045
-206,665	-41,420	0,135	0,050
-205,650	-200,000	0,020	0,262
-204,636	25,984	-0,100	0,060
-203,621	28,511	0,042	-0,025
-202,606	191,701	-0,103	0,112
-201,592	-171,767	-0,106	-0,002
-200,577	24,207	-0,182	-0,108
-199,563	-55,263	0,124	-0,040
-198,548	-200,000	0,014	-0,064
-197,533	135,530	-0,120	0,113
-196,519	2,352	-0,068	-0,035
-195,504	239,654	-0,081	0,097
-194,490	-200,000	0,002	-0,041
-193,475	331,180	-0,069	0,096
-192,460	-142,515	0,061	0,004
-191,446	543,891	-0,018	0,031
-190,431	614,315	-0,100	0,180
-189,417	22,431	-0,104	-0,061
-188,402	223,884	0,053	0,062
-187,387	170,514	0,096	-0,099
-186,373	242,340	-0,032	-0,039
-185,358	347,703	0,073	-0,104
-184,344	545,499	-0,044	-0,076
-183,329	-200,000	-0,021	-0,108
-182,315	-15,699	-0,050	0,023
-181,300	320,598	-0,031	-0,043
-180,285	-94,383	0,050	-0,010
-179,271	-82,720	-0,178	0,041
-178,256	544,448	-0,027	-0,047
-177,242	800,000	-0,033	0,072
-176,227	437,692	-0,082	0,130
-175,212	-102,915	0,054	0,009
-174,198	-200,000	0,005	0,105
-173,183	-122,693	-0,154	-0,018
-172,169	382,857	0,066	-0,097
-171,154	-200,000	0,009	-0,132
-170,139	-91,268	-0,071	0,014
-169,125	295,978	-0,074	0,098
-168,110	752,937	0,093	0,182
-167,096	800,000	-0,043	0,095
-166,081	-200,000	-0,018	0,061
-165,066	-88,854	-0,084	0,018
-164,052	800,000	-0,035	0,078
-163,037	297,939	-0,036	0,047
-162,023	316,515	0,047	0,063
-161,008	108,589	0,016	-0,014
-159,993	306,771	0,094	-0,126
-158,979	-36,177	-0,126	-0,049
-157,964	327,115	0,033	-0,045
-156,950	245,244	-0,117	0,141
-155,935	-133,000	-0,018	-0,002
-154,920	413,559	0,039	-0,060
-153,906	540,565	0,054	0,092
-152,891	-200,000	0,021	-0,110
-151,877	152,380	-0,100	-0,098
-150,862	-41,150	-0,152	-0,056
-149,847	-200,000	-0,017	-0,068
-148,833	800,000	0,029	-0,078
-147,818	-200,000	0,012	-0,163
-146,804	-90,244	0,129	0,027
-145,789	-200,000	0,014	0,076
-144,775	-99,795	-0,097	0,017
-143,760	473,360	-0,066	-0,107
-142,745	-200,000	0,022	-0,117
-141,731	-18,497	0,084	-0,038
-140,716	112,841	0,103	0,089
-139,702	-52,450	-0,177	0,059
-138,687	-35,201	0,081	0,031
-137,672	-200,000	-0,011	0,130
-136,658	800,000	-0,026	-0,057
-135,643	-86,701	-0,057	-0,013
-134,629	391,329	0,020	-0,030
-133,614	249,383	-0,037	0,046
-132,599	110,626	0,091	0,078
-131,585	-117,351	-0,024	-0,003
-130,570	211,909	-0,039	0,044
-129,556	-41,616	-0,191	0,070
-128,541	-200,000	-0,036	-0,124
-127,526	43,979	0,023	0,015
-126,512	-93,696	0,080	0,016
-125,497	-37,537	-0,133	-0,051
-124,483	37,211	0,075	0,048
-123,468	622,588	-0,026	-0,046
-122,453	800,000	0,041	-0,115
-121,439	181,873	-0,108	-0,114
-120,424	-79,705	0,073	0,017
-119,410	-82,443	0,052	0,012
-118,395	9,413	-0,131	-0,071
-117,380	278,015	0,054	-0,069
-116,366	203,645	-0,090	0,100
-115,351	5,222	-0,059	-0,031
-114,337	651,703	0,020	-0,037
-113,322	5,947	-0,085	-0,045
-112,307	-200,000	-0,026	0,119
-111,293	-200,000	0,020	0,100
-110,278	-200,000	0,030	0,160
-109,264	219,818	-0,033	-0,038
-108,249	33,714	-0,020	-0,012
-107,234	-200,000	0,039	0,199
-106,220	800,000	0,010	0,021
-105,205	800,000	-0,017	0,035
-104,191	126,541	0,061	-0,056
-103,176	633,430	-0,054	0,099
-102,162	-200,000	0,024	0,144
-101,147	9,008	-0,073	-0,040
-100,132	19,564	-0,132	-0,076
-99,118	102,667	-0,036	0,030
-98,103	-33,089	0,089	0,035
-97,089	55,404	0,055	-0,038
-96,074	800,000	0,040	-0,090
-95,059	800,000	0,041	-0,108
-94,045	2,701	-0,163	-0,084
-93,030	-54,790	-0,074	0,024
-92,016	453,903	-0,038	-0,060
-91,001	148,744	-0,117	0,113
-89,986	-88,807	0,122	0,026
-88,972	409,827	0,044	0,067
-87,957	141,050	0,074	0,070
-86,943	409,881	0,079	-0,121
-85,928	-129,739	-0,122	0,012
-84,913	-61,975	0,005	-0,002
-83,899	-200,000	-0,017	-0,084
-82,884	-81,903	0,149	0,035
-81,870	134,808	0,048	0,044
-80,855	438,546	-0,024	-0,037
-79,840	61,821	-0,119	0,085
-78,826	-200,000	0,012	-0,047
-77,811	-97,875	-0,119	-0,022
-76,797	-10,818	-0,117	-0,055
-75,782	-200,000	0,003	0,045
-74,767	278,144	-0,071	-0,091
-73,753	-79,040	0,109	-0,026
-72,738	-200,000	0,005	0,146
-71,724	415,709	-0,090	0,138
-70,709	193,117	0,083	0,090
-69,694	-200,000	-0,013	0,047
-68,680	488,129	0,017	0,028
-67,665	-166,584	0,036	-0,001
-66,651	-102,931	0,117	-0,020
-65,636	-200,000	-0,032	-0,108
-64,622	-200,000	0,004	-0,043
-63,607	-200,000	0,010	-0,085
-62,592	363,251	0,048	-0,070
-61,578	152,477	-0,079	-0,077
-60,563	-200,000	0,001	0,060
-59,549	191,651	-0,034	0,036
-58,534	52,766	-2,284	-1,561
-57,519	-200,000	-0,049	-0,616
-56,505	-200,000	-1,359	-5,256
-55,490	82,308	0,885	0,687
-54,476	800,000	5,306	12,041
-53,461	-200,000	19,030	321,614
-52,446	800,000	742,205	2325,958
-51,432	548,003	1655,104	2848,473
-50,417	109,644	1637,605	1404,886
-49,403	73,213	1287,967	963,274
-48,388	29,347	1029,644	624,808
-47,373	19,589	992,704	570,129
-46,359	16,905	980,273	554,156
-45,344	13,482	976,432	540,731
-44,330	13,768	974,993	540,852
-43,315	13,047	973,159	537,452
-42,300	13,037	972,048	536,784
-41,286	13,099	971,040	536,408
-40,271	13,063	970,239	535,828
-39,257	13,127	969,091	535,381
-38,242	13,094	968,427	534,887
-37,227	13,090	967,629	534,411
-36,213	13,004	966,723	533,609
-35,198	13,038	965,717	533,142
-34,184	13,120	965,032	533,012
-33,169	13,009	964,330	532,242
-32,154	13,067	963,353	531,868
-31,140	13,076	962,368	531,332
-30,125	13,077	961,635	530,913
-29,111	13,119	960,636	530,474
-28,096	13,109	959,994	530,066
-27,082	13,075	959,459	529,639
-26,067	13,079	958,704	529,216
-25,052	13,056	957,852	528,651
-24,038	13,046	957,255	528,269
-23,023	13,112	956,506	528,046
-22,009	13,109	955,976	527,721
-20,994	13,158	955,205	527,433
-19,979	13,144	954,768	527,126
-18,965	13,074	954,102	526,512
-17,950	13,091	953,597	526,269
-16,936	13,028	952,942	525,682
-15,921	12,982	952,319	525,172
-14,906	12,992	951,564	524,766
-13,892	13,003	950,899	524,413
-12,877	12,959	950,289	523,917
-11,863	12,955	949,525	523,461
-10,848	13,031	948,878	523,326
-9,833	13,094	948,579	523,342
-8,819	13,011	947,938	522,704
-7,804	13,057	947,058	522,342
-6,790	12,957	946,609	521,757
-5,775	13,008	945,901	521,508
-4,760	12,993	945,404	521,165
-3,746	13,013	944,897	520,927
-2,731	12,878	944,008	519,991
-1,717	12,805	943,479	519,447
-0,702	12,807	942,894	519,111
0,313	12,576	942,118	518,733
1,327	16,080	940,156	528,679
2,342	25,343	790,301	468,821
3,356	21,311	445,304	258,160
4,371	-7,821	298,757	143,772
5,386	-11,649	280,763	131,431
6,400	-13,234	275,212	127,329
7,415	-13,123	272,727	126,273
8,429	-13,168	271,265	125,542
9,444	-13,187	270,220	125,030
10,459	-13,245	269,628	124,691
11,473	-13,224	268,940	124,381
12,488	-13,570	268,540	123,868
13,502	-13,483	267,797	123,593
14,517	-13,631	267,465	123,294
15,531	-13,339	267,117	123,389
16,546	-13,487	266,783	123,089
17,561	-13,367	266,246	122,940
18,575	-13,200	265,975	122,955
19,590	-13,494	265,739	122,569
20,604	-13,250	265,318	122,584
21,619	-13,527	265,010	122,180
22,634	-13,311	264,632	122,190
23,648	-13,437	264,281	121,903
24,663	-13,474	264,174	121,810
25,677	-13,381	263,727	121,677
26,692	-13,335	263,613	121,655
27,707	-13,454	263,414	121,445
28,721	-13,529	262,951	121,153
29,736	-13,601	262,801	121,009
30,750	-13,618	262,590	120,886
31,765	-13,555	262,251	120,776
32,780	-13,367	261,867	120,756
33,794	-13,233	261,705	120,790
34,809	-13,479	261,479	120,456
35,823	-13,644	261,352	120,239
36,838	-13,680	261,006	120,037
37,853	-13,387	260,603	120,102
38,867	-13,584	260,531	119,883
39,882	-13,461	260,134	119,799
40,896	-13,418	260,022	119,774
41,911	-13,625	259,911	119,529
42,926	-13,576	259,475	119,362
43,940	-13,800	259,401	119,118
44,955	-13,909	259,118	118,882
45,969	-13,748	258,791	118,863
46,984	-13,833	258,495	118,641
47,999	-14,219	258,338	118,219
49,013	-14,211	257,951	118,038
50,028	-14,219	257,689	117,901
51,042	-14,317	257,430	117,686
52,057	-14,434	257,277	117,503
53,071	-14,332	256,963	117,438
54,086	-14,230	256,886	117,482
55,101	-14,296	256,840	117,393
56,115	-13,920	256,588	117,596
57,130	-13,495	256,586	117,956
58,144	-13,139	256,146	118,053
59,159	-13,251	256,230	117,984
60,174	-13,370	255,974	117,751
61,188	-13,187	255,608	117,731
62,203	-13,431	255,375	117,402
63,217	-13,384	255,254	117,377
64,232	-13,442	254,862	117,136
65,247	-13,352	254,690	117,124
66,261	-13,482	254,452	116,892
67,276	-13,518	254,132	116,703
68,290	-13,702	253,925	116,439
69,305	-14,044	253,686	116,024
70,320	-14,080	253,611	115,948
71,334	-13,462	253,354	116,352
72,349	-13,354	253,367	116,442
73,363	-13,257	253,085	116,385
74,378	-13,394	252,896	116,169
75,393	-13,457	252,742	116,035
76,407	-13,586	252,527	115,815
77,422	-13,596	252,327	115,704
78,436	-13,367	252,098	115,785
79,451	-13,296	251,790	115,694
80,466	-13,521	251,449	115,335
81,480	-13,706	251,300	115,098
82,495	-13,742	251,080	114,957
83,509	-13,771	251,014	114,891
84,524	-13,727	250,486	114,676
85,539	-13,859	250,445	114,535
86,553	-13,963	250,375	114,405
87,568	-13,867	250,148	114,373
88,582	-13,742	250,031	114,415
89,597	-13,672	249,705	114,315
90,611	-13,585	249,575	114,318
91,626	-13,326	249,536	114,510
92,641	-13,517	249,327	114,242
93,655	-13,697	248,979	113,920
94,670	-13,622	248,718	113,855
95,684	-13,447	248,683	113,976
96,699	-13,677	248,353	113,620
97,714	-13,650	248,138	113,535
98,728	-13,976	248,003	113,189
99,743	-13,801	247,661	113,170
100,757	-13,933	247,560	113,003
101,772	-13,875	247,221	112,886
102,787	-13,841	247,186	112,889
103,801	-13,592	247,031	113,017
104,816	-13,636	246,861	112,892
105,830	-13,566	246,700	112,866
106,845	-13,283	246,573	113,035
107,860	-13,407	246,365	112,826
108,874	-13,636	246,084	112,497
109,889	-13,779	246,098	112,374
110,903	-13,687	245,656	112,238
111,918	-13,677	245,520	112,175
112,933	-13,656	245,397	112,126
113,947	-13,502	245,197	112,152
114,962	-13,532	245,038	112,045
115,976	-13,633	244,859	111,869
116,991	-13,632	244,804	111,834
118,006	-13,669	244,601	111,701
119,020	-13,607	244,359	111,632
120,035	-13,499	244,191	111,635
121,049	-13,467	244,032	111,578
122,064	-13,383	243,793	111,529
123,079	-13,381	243,540	111,405
124,093	-13,542	243,423	111,209
125,108	-13,807	243,132	110,847
126,122	-14,142	242,900	110,456
127,137	-14,064	242,697	110,419
128,151	-13,809	242,690	110,615
129,166	-13,817	242,413	110,472
130,181	-13,943	242,202	110,263
131,195	-13,685	241,900	110,327
132,210	-13,741	241,919	110,280
133,224	-13,524	241,698	110,346
134,239	-13,430	241,652	110,392
135,254	-13,458	241,243	110,173
136,268	-13,581	241,176	110,033
137,283	-14,021	240,791	109,488
138,297	-14,024	240,634	109,405
139,312	-14,245	240,444	109,129
140,327	-13,622	240,405	109,608
141,341	-13,195	240,250	109,874
142,356	-13,205	240,175	109,822
143,370	-13,239	240,049	109,727
144,385	-13,193	239,720	109,604
145,400	-13,025	239,652	109,699
146,414	-13,028	239,481	109,609
147,429	-13,307	239,286	109,284
148,443	-13,179	239,027	109,260
149,458	-13,399	238,870	109,001
150,473	-13,265	238,663	109,004
151,487	-13,157	238,585	109,046
152,502	-13,288	238,544	108,912
153,516	-13,129	238,215	108,880
154,531	-13,104	238,129	108,851
155,546	-13,232	237,808	108,592
156,560	-13,376	237,624	108,383
157,575	-13,521	237,540	108,219
158,589	-13,206	237,331	108,366
159,604	-13,095	237,281	108,422
160,619	-13,030	237,102	108,382
161,633	-13,128	236,825	108,168
162,648	-13,242	236,808	108,059
163,662	-13,297	236,654	107,935
164,677	-13,156	236,329	107,890
165,692	-13,262	236,303	107,784
166,706	-13,103	236,129	107,822
167,721	-13,130	235,983	107,725
168,735	-13,223	235,864	107,586
169,750	-13,143	235,548	107,496
170,764	-13,130	235,499	107,474
171,779	-12,971	235,323	107,511
172,794	-13,146	235,179	107,297
173,808	-13,346	234,925	107,013
174,823	-13,846	234,745	106,526
175,837	-13,852	234,471	106,387
176,852	-13,449	234,428	106,677
177,867	-13,184	234,390	106,859
178,881	-13,219	234,351	106,804
179,896	-13,035	234,002	106,780
180,910	-13,059	233,966	106,736
181,925	-12,981	233,687	106,660
182,940	-13,017	233,629	106,596
183,954	-13,167	233,453	106,388
184,969	-12,943	233,149	106,416
185,983	-13,017	233,204	106,373
186,998	-13,066	232,914	106,193
188,013	-12,919	232,793	106,244
189,027	-13,029	232,701	106,106
190,042	-13,119	232,525	105,946
191,056	-12,709	232,198	106,108
192,071	-13,091	232,249	105,823
193,086	-12,854	231,917	105,848
194,100	-13,067	231,920	105,673
195,115	-13,451	231,399	105,128
196,129	-13,563	231,508	105,081
197,144	-7,870	233,394	110,390
198,159	-1,984	235,170	115,858
199,173	2,084	236,333	119,631
200,188	3,111	236,453	120,491
201,202	3,257	236,122	120,426
202,217	2,999	236,161	120,232
203,232	3,091	235,896	120,159
204,246	3,281	235,862	120,280
205,261	3,090	235,614	119,993
206,275	3,493	235,611	120,297
207,290	3,551	235,608	120,330
208,304	3,436	235,387	120,116
209,319	3,263	235,224	119,887
210,334	3,460	234,796	119,812
211,348	3,206	234,492	119,448
212,363	2,915	234,278	119,102
213,377	2,688	234,176	118,863
214,392	2,644	234,011	118,734
215,407	2,706	233,875	118,702
216,421	2,952	233,682	118,785
217,436	2,636	233,568	118,471
218,450	2,436	233,251	118,144
219,465	2,509	233,120	118,124
220,480	2,515	233,064	118,090
221,494	2,559	232,883	118,021
222,509	2,942	232,869	118,301
223,523	3,031	232,636	118,241
224,538	2,673	232,589	117,929
225,553	2,701	232,391	117,840
226,567	2,646	232,241	117,711
227,582	2,895	232,224	117,884
228,596	3,047	232,211	117,984
229,611	2,727	231,826	117,532
230,626	2,499	231,476	117,168
231,640	2,683	231,379	117,250
232,655	2,776	231,238	117,240
233,669	3,072	231,282	117,479
234,684	3,258	231,069	117,503
235,699	2,973	230,863	117,170
236,713	2,830	230,831	117,033
237,728	2,680	230,514	116,747
238,742	2,563	230,414	116,596
239,757	2,668	230,288	116,603
240,772	2,544	230,113	116,409
241,786	2,480	229,995	116,290
242,801	2,791	229,845	116,441
243,815	3,056	229,913	116,667
244,830	2,990	229,661	116,479
245,844	2,812	229,428	116,215
246,859	2,800	229,258	116,109
247,874	3,213	229,181	116,374
248,888	3,041	229,026	116,154
249,903	2,978	228,788	115,975
250,917	2,658	228,744	115,699
251,932	2,710	228,463	115,586
252,947	2,353	228,228	115,187
253,961	2,521	228,032	115,205
254,976	2,657	228,041	115,302
255,990	2,768	228,067	115,389
257,005	3,040	227,859	115,479
258,020	2,970	227,665	115,317
259,034	3,013	227,589	115,301
260,049	2,642	227,371	114,900
261,063	2,475	227,271	114,714
262,078	2,878	227,154	114,948
263,093	3,205	226,930	115,071
264,107	3,000	226,840	114,860
265,122	2,967	226,706	114,758
266,136	3,188	226,567	114,843
267,151	3,015	226,501	114,670
268,166	2,902	226,157	114,400
269,180	2,374	225,926	113,878
270,195	2,720	225,869	114,098
271,209	2,754	225,684	114,020
272,224	2,536	225,617	113,813
273,239	2,628	225,460	113,793
274,253	2,663	225,303	113,729
275,268	2,699	224,992	113,589
276,282	2,436	225,027	113,400
277,297	2,415	224,783	113,252
278,312	2,489	224,659	113,234
279,326	2,646	224,612	113,317
280,341	2,865	224,452	113,389
281,355	2,676	224,440	113,232
282,370	2,616	224,094	113,003
283,384	2,778	223,821	112,975
284,399	2,396	223,756	112,649
285,414	2,630	223,543	112,706
286,428	2,645	223,566	112,718
287,443	2,839	223,530	112,833
288,457	2,882	223,367	112,773
289,472	2,700	223,219	112,554
290,487	2,237	222,843	112,013
291,501	2,265	222,609	111,906
292,516	2,163	222,685	111,859
293,530	2,403	222,600	111,982
294,545	2,381	222,454	111,883
295,560	2,444	222,122	111,753
296,574	2,572	222,208	111,880
297,589	2,833	221,945	111,929
298,603	2,803	221,868	111,858
299,618	2,806	221,704	111,768
300,633	2,521	221,631	111,512
301,647	2,783	221,581	111,669
302,662	3,057	221,456	111,796
303,676	2,812	221,232	111,494
304,691	2,884	221,248	111,545
305,706	3,045	220,834	111,444
306,720	3,121	220,817	111,481
307,735	2,624	220,596	110,997
308,749	2,448	220,519	110,820
309,764	2,712	220,209	110,847
310,779	3,014	220,246	111,075
311,793	2,832	220,037	110,828
312,808	3,082	219,763	110,861
313,822	2,628	219,830	110,555
314,837	2,946	219,481	110,600
315,852	2,725	219,259	110,319
316,866	2,719	219,277	110,314
317,881	3,113	219,132	110,516
318,895	3,053	218,986	110,389
319,910	2,668	218,904	110,060
320,925	2,511	218,614	109,791
321,939	2,127	218,434	109,414
322,954	2,026	218,464	109,347
323,968	2,615	218,409	109,733
324,983	2,853	218,232	109,806
325,997	2,896	218,233	109,828
327,012	2,934	218,078	109,767
328,027	2,759	217,971	109,578
329,041	3,333	217,684	109,835
330,056	3,177	217,532	109,637
331,070	2,980	217,246	109,342
332,085	2,717	217,206	109,124
333,100	2,772	216,944	109,022
334,114	2,661	216,952	108,937
335,129	2,528	216,728	108,719
336,143	2,210	216,565	108,402
337,158	2,363	216,540	108,488
338,173	2,789	216,324	108,674
339,187	2,832	216,264	108,665
340,202	2,677	215,928	108,377
341,216	2,469	216,001	108,255
342,231	2,947	215,773	108,471
343,246	2,731	215,671	108,257
344,260	2,681	215,545	108,148
345,275	3,146	215,371	108,381
346,289	3,025	215,297	108,249
347,304	2,895	215,237	108,116
348,319	2,647	215,052	107,838
349,333	2,903	214,660	107,813
350,348	3,080	214,655	107,926
351,362	2,947	214,622	107,806
352,377	3,038	214,505	107,801
353,392	2,936	214,453	107,694
354,406	2,750	214,297	107,474
355,421	196,880	1313,625	1390,792
356,435	157,539	1447,508	1390,725
