DTS Sentinel unit serial number:	SN410029Multiplexer serial number:	ORYXHardware model number:	OX2-SRSoftware version number:	ORYX F/W v4,00 Oryx Data Collector v3.7.2.0data status	okinstallation	B6 Nyhavnadifferential loss correction	single-endedforward channel	channel 2reverse channel	N/Adate	2023/12/08time	15:25:08forward acquisition time	300,00reverse acquisition time	0,00gamma	499,1914k internal	0,3158k external	0,3158temperature offset calibration	1,0000default loss term (dB/km)	0,3820temperature slope calibration	1,0000multiplexer offset coefficient	1,0000multiplexer slope coefficient	1,0000fibre end	0,00T internal ref (°C)	15,06T ext. ref 1 (°C)	-1,46T ext. ref 2 (°C)	-1,47length (m)	temperature (°C)	Stokes	anti-Stokes-744,400	239,628	0,036	0,044
-743,385	-12,843	-0,290	-0,139
-742,371	-103,109	0,096	0,017
-741,356	-125,795	-0,223	0,024
-740,342	30,108	0,109	0,068
-739,327	-139,990	-0,272	-0,021
-738,312	-200,000	0,002	0,021
-737,298	-112,593	-0,297	-0,043
-736,283	-139,552	0,145	0,011
-735,269	-80,782	-0,244	-0,059
-734,254	-14,260	0,125	0,059
-733,239	-81,671	-0,452	-0,109
-732,225	174,630	0,128	0,137
-731,210	-200,000	0,001	-0,100
-730,196	93,432	-0,009	-0,007
-729,181	-200,000	-0,021	0,130
-728,167	160,197	0,056	-0,057
-727,152	-115,611	-0,043	0,006
-726,137	26,670	-0,091	-0,056
-725,123	-190,759	-0,083	0,001
-724,108	-6,533	-0,169	-0,085
-723,094	-59,671	-0,100	0,031
-722,079	-200,000	-0,020	-0,086
-721,064	-200,000	-0,039	0,153
-720,050	193,576	-0,041	0,045
-719,035	-40,467	-0,113	0,043
-718,021	-200,000	-0,011	-0,110
-717,006	-200,000	-0,006	-0,042
-715,991	126,345	-0,095	-0,088
-714,977	800,000	-0,072	-0,162
-713,962	-200,000	0,049	-0,215
-712,948	-107,262	0,118	0,019
-711,933	-75,427	-0,163	-0,042
-710,918	-190,200	-0,093	0,001
-709,904	169,276	-0,126	-0,132
-708,889	800,000	-0,042	-0,135
-707,875	-200,000	-0,011	-0,090
-706,860	753,048	0,033	0,065
-705,845	-125,435	0,124	0,014
-704,831	74,113	0,084	-0,065
-703,816	67,873	-0,076	-0,057
-702,802	49,201	0,091	-0,063
-701,787	-200,000	-0,039	-0,194
-700,772	340,611	-0,101	-0,146
-699,758	209,758	0,073	0,084
-698,743	39,740	0,112	0,074
-697,729	-148,874	0,054	0,003
-696,714	800,000	-0,043	0,112
-695,699	141,411	-0,028	-0,027
-694,685	-116,246	-0,050	0,007
-693,670	-3,563	-0,036	0,018
-692,656	-200,000	-0,010	0,115
-691,641	800,000	0,055	0,134
-690,627	202,266	0,101	0,115
-689,612	-2,298	-0,122	-0,063
-688,597	-200,000	0,023	-0,176
-687,583	197,446	-0,023	-0,026
-686,568	641,879	-0,038	-0,072
-685,554	-200,000	-0,013	0,066
-684,539	-200,000	0,033	-0,165
-683,524	-115,110	-0,067	0,009
-682,510	649,626	0,049	-0,094
-681,495	79,882	-0,076	0,060
-680,481	97,165	-0,066	-0,056
-679,466	-107,332	0,070	0,011
-678,451	-200,000	-0,031	0,131
-677,437	-18,473	0,059	0,027
-676,422	-147,206	-0,173	0,011
-675,408	-6,458	0,056	-0,028
-674,393	38,290	-0,091	0,059
-673,378	-161,475	-0,064	0,002
-672,364	180,217	0,036	0,039
-671,349	2,413	0,017	0,009
-670,335	-155,862	0,169	0,008
-669,320	-200,000	-0,019	-0,108
-668,305	83,628	-0,065	0,052
-667,291	-70,082	-0,102	0,028
-666,276	-200,000	0,016	0,089
-665,262	-200,000	-0,007	-0,070
-664,247	800,000	-0,007	-0,019
-663,232	800,000	-0,047	-0,115
-662,218	-1,165	0,096	0,050
-661,203	800,000	-0,044	0,126
-660,189	800,000	0,018	-0,049
-659,174	210,074	-0,105	-0,121
-658,159	-200,000	0,029	-0,149
-657,145	53,913	-0,092	-0,065
-656,130	-94,654	-0,062	-0,012
-655,116	-6,447	-0,036	-0,018
-654,101	792,134	0,064	-0,130
-653,086	-200,000	-0,015	-0,075
-652,072	-153,469	-0,119	-0,006
-651,057	156,847	0,031	-0,031
-650,043	-30,262	-0,081	-0,033
-649,028	431,615	0,081	-0,130
-648,014	-200,000	-0,006	0,091
-646,999	309,393	0,088	0,121
-645,984	728,962	-0,047	0,092
-644,970	-200,000	-0,003	0,045
-643,955	-139,652	-0,017	-0,001
-642,941	-200,000	0,016	-0,082
-641,926	-84,035	-0,070	-0,016
-640,911	-24,886	-0,084	0,036
-639,897	-26,184	-0,109	0,047
-638,882	372,423	0,008	-0,011
-637,868	-38,868	-0,100	0,038
-636,853	800,000	-0,019	-0,050
-635,838	-35,180	0,071	0,028
-634,824	138,984	0,032	0,031
-633,809	-200,000	0,038	0,174
-632,795	109,699	0,118	0,104
-631,780	800,000	0,033	0,073
-630,765	-80,506	-0,144	0,035
-629,751	22,489	0,068	-0,041
-628,736	-200,000	0,006	-0,037
-627,722	-125,089	-0,057	0,006
-626,707	-2,369	-0,078	-0,040
-625,692	-14,300	-0,166	-0,078
-624,678	220,343	0,053	0,063
-623,663	195,081	0,086	0,096
-622,649	800,000	-0,027	-0,056
-621,634	800,000	-0,057	-0,138
-620,619	303,408	-0,028	-0,038
-619,605	-200,000	-0,004	-0,154
-618,590	-97,513	-0,054	-0,010
-617,576	460,458	0,018	0,030
-616,561	306,600	0,029	-0,040
-615,546	425,886	-0,039	-0,062
-614,532	675,624	-0,030	0,057
-613,517	335,573	0,039	0,055
-612,503	168,975	0,024	-0,025
-611,488	189,249	-0,028	0,031
-610,474	192,708	0,085	0,094
-609,459	800,000	-0,004	-0,008
-608,444	76,068	0,032	-0,025
-607,430	178,690	-0,062	-0,066
-606,415	142,135	-0,006	0,006
-605,401	70,927	0,117	-0,089
-604,386	121,655	0,080	0,073
-603,371	195,855	0,067	-0,074
-602,357	-126,076	-0,142	-0,015
-601,342	-71,238	0,015	0,004
-600,328	171,379	-0,082	-0,087
-599,313	-30,700	0,099	-0,041
-598,298	444,215	-0,132	-0,213
-597,284	1,895	-0,079	-0,042
-596,269	-60,577	-0,041	-0,013
-595,255	-200,000	0,006	0,097
-594,240	185,692	0,034	-0,037
-593,225	-136,622	0,146	0,012
-592,211	800,000	-0,019	-0,051
-591,196	-71,217	0,042	0,012
-590,182	-200,000	0,022	0,136
-589,167	-200,000	0,005	0,062
-588,152	243,374	-0,032	-0,039
-587,138	-200,000	-0,001	0,101
-586,123	161,360	-0,044	-0,045
-585,109	-4,544	0,126	-0,064
-584,094	711,326	-0,067	-0,130
-583,079	-152,119	0,128	0,007
-582,065	405,207	0,034	0,053
-581,050	-64,234	-0,053	0,016
-580,036	-52,469	0,035	-0,012
-579,021	-0,519	0,063	-0,032
-578,006	792,758	0,058	0,116
-576,992	265,048	-0,024	-0,030
-575,977	-200,000	-0,024	-0,101
-574,963	591,735	-0,017	-0,031
-573,948	-30,901	0,151	-0,062
-572,934	-47,538	-0,010	0,004
-571,919	-90,886	-0,131	0,027
-570,904	-200,000	0,021	-0,074
-569,890	800,000	0,038	-0,112
-568,875	-96,372	0,013	0,003
-567,861	800,000	-0,016	-0,041
-566,846	-19,140	-0,030	0,014
-565,831	-200,000	-0,081	0,000
-564,817	-200,000	-0,034	0,152
-563,802	638,005	0,051	-0,095
-562,788	-109,618	-0,117	-0,018
-561,773	-46,776	0,175	-0,062
-560,758	-93,346	0,099	-0,020
-559,744	-29,452	0,130	0,054
-558,729	-65,775	-0,165	0,048
-557,715	281,272	0,018	-0,024
-556,700	-111,340	-0,121	-0,018
-555,685	-200,000	0,002	-0,020
-554,671	32,120	0,105	0,066
-553,656	397,565	-0,061	-0,093
-552,642	-200,000	-0,013	0,045
-551,627	-113,153	0,064	-0,009
-550,612	293,928	-0,042	-0,056
-549,598	454,740	-0,018	0,029
-548,583	-200,000	-0,063	-0,206
-547,569	-41,688	-0,139	-0,052
-546,554	-90,428	0,130	-0,027
-545,539	-52,443	0,155	-0,052
-544,525	-200,000	0,003	-0,051
-543,510	43,740	-0,039	-0,026
-542,496	241,214	-0,065	-0,079
-541,481	350,146	0,096	-0,139
-540,466	80,607	0,174	-0,137
-539,452	-23,547	0,245	-0,107
-538,437	4,106	-0,097	0,051
-537,423	-169,449	-0,120	0,003
-536,408	-74,791	0,052	-0,014
-535,393	-31,972	0,077	-0,032
-534,379	-200,000	-0,009	0,045
-533,364	-200,000	-0,005	-0,037
-532,350	193,962	-0,034	0,037
-531,335	-33,516	0,035	0,014
-530,321	-200,000	0,007	0,173
-529,306	-103,343	0,122	-0,021
-528,291	-200,000	-0,028	-0,126
-527,277	-38,220	-0,071	-0,027
-526,262	84,344	-0,089	0,071
-525,248	-134,191	0,038	0,003
-524,233	800,000	-0,030	0,090
-523,218	-200,000	0,019	0,253
-522,204	315,319	0,113	0,155
-521,189	426,123	-0,071	0,112
-520,175	-95,480	-0,095	-0,018
-519,160	4,289	-0,039	-0,021
-518,145	800,000	0,036	0,092
-517,131	66,895	-0,051	-0,038
-516,116	-200,000	0,039	0,152
-515,102	-9,633	-0,134	-0,065
-514,087	-200,000	-0,018	-0,140
-513,072	-102,042	0,058	0,010
-512,058	-200,000	0,018	0,083
-511,043	278,908	-0,040	0,053
-510,029	81,357	0,139	0,110
-509,014	785,305	0,043	-0,087
-507,999	-200,000	-0,027	-0,096
-506,985	466,622	0,034	0,056
-505,970	338,392	-0,054	0,076
-504,956	-71,773	0,050	-0,013
-503,941	800,000	0,065	-0,158
-502,926	36,456	-0,055	0,035
-501,912	-200,000	0,013	0,072
-500,897	-79,363	0,116	0,029
-499,883	-128,883	-0,130	-0,013
-498,868	-37,403	-0,181	-0,070
-497,853	800,000	0,038	0,105
-496,839	593,809	-0,050	-0,091
-495,824	800,000	-0,018	0,057
-494,810	-200,000	-0,005	0,078
-493,795	-200,000	0,005	-0,029
-492,781	-200,000	-0,002	0,057
-491,766	-200,000	0,024	-0,084
-490,751	26,658	0,057	0,035
-489,737	106,485	-0,053	-0,046
-488,722	-38,755	0,085	0,033
-487,708	-170,130	0,106	0,003
-486,693	-159,050	-0,091	0,004
-485,678	-200,000	0,013	-0,093
-484,664	-200,000	-0,016	-0,066
-483,649	-200,000	0,011	-0,038
-482,635	-200,000	0,015	-0,142
-481,620	43,862	-0,065	-0,043
-480,605	-9,423	0,126	0,061
-479,591	800,000	-0,029	-0,087
-478,576	-200,000	-0,052	-0,172
-477,562	2,184	-0,169	0,089
-476,547	61,756	-0,038	-0,028
-475,532	446,184	-0,064	-0,103
-474,518	180,297	-0,016	-0,017
-473,503	-200,000	-0,029	-0,158
-472,489	-200,000	0,033	0,191
-471,474	614,404	0,011	0,020
-470,459	-57,091	-0,043	0,014
-469,445	-200,000	-0,014	0,084
-468,430	137,336	0,037	-0,035
-467,416	205,078	-0,028	0,032
-466,401	-183,594	-0,061	-0,001
-465,386	341,384	0,075	0,107
-464,372	-200,000	-0,004	0,059
-463,357	59,310	-0,123	0,088
-462,343	44,571	0,029	-0,020
-461,328	91,777	-0,041	-0,034
-460,313	-200,000	0,019	-0,099
-459,299	-200,000	-0,016	0,063
-458,284	-119,967	0,051	-0,006
-457,270	175,735	0,055	-0,059
-456,255	-200,000	-0,036	-0,139
-455,241	268,054	-0,061	0,079
-454,226	48,588	-0,085	0,058
-453,211	401,409	-0,020	-0,030
-452,197	651,588	0,050	-0,094
-451,182	457,305	-0,062	-0,101
-450,168	-200,000	-0,009	-0,104
-449,153	-77,687	-0,188	-0,047
-448,138	-95,887	-0,150	-0,029
-447,124	67,467	-0,116	-0,086
-446,109	-200,000	0,041	-0,133
-445,095	461,616	0,035	-0,056
-444,080	305,097	0,075	-0,102
-443,065	-110,978	-0,109	-0,016
-442,051	169,629	0,131	0,136
-441,036	-17,716	-0,178	-0,081
-440,022	-200,000	0,013	0,072
-439,007	429,743	-0,017	0,028
-437,992	638,171	0,018	0,034
-436,978	731,631	0,106	0,208
-435,963	266,752	0,009	0,012
-434,949	-69,860	-0,150	-0,041
-433,934	-131,395	-0,133	-0,013
-432,919	431,779	-0,075	-0,118
-431,905	-185,405	-0,099	-0,001
-430,890	-200,000	0,024	0,086
-429,876	165,884	0,061	0,062
-428,861	-147,066	0,144	0,009
-427,846	-200,000	0,000	-0,103
-426,832	186,035	-0,005	0,006
-425,817	-50,833	0,136	0,046
-424,803	-200,000	-0,008	-0,043
-423,788	92,340	0,054	0,044
-422,773	800,000	-0,023	-0,063
-421,759	86,340	0,094	0,075
-420,744	-200,000	0,050	0,196
-419,730	-61,724	-0,096	-0,029
-418,715	-200,000	-0,006	-0,092
-417,701	-86,316	-0,085	0,019
-416,686	-200,000	0,000	-0,020
-415,671	-200,000	-0,006	0,058
-414,657	-200,000	0,011	0,115
-413,642	800,000	0,015	-0,033
-412,628	172,766	-0,054	-0,056
-411,613	-115,125	-0,140	0,019
-410,598	800,000	-0,014	-0,038
-409,584	336,263	-0,077	0,109
-408,569	59,563	-0,046	0,033
-407,555	-200,000	-0,005	0,064
-406,540	-116,686	-0,033	-0,004
-405,525	-200,000	-0,013	0,065
-404,511	82,986	-0,071	-0,056
-403,496	-200,000	0,010	0,049
-402,482	800,000	0,034	-0,096
-401,467	800,000	0,026	0,059
-400,452	-82,022	0,066	0,016
-399,438	800,000	-0,049	0,124
-398,423	-48,248	-0,089	0,031
-397,409	196,436	-0,071	0,079
-396,394	45,925	-0,042	-0,028
-395,379	-56,372	0,113	-0,036
-394,365	800,000	0,049	-0,152
-393,350	-73,841	0,003	-0,001
-392,336	-20,599	0,062	-0,028
-391,321	-60,402	-0,047	0,015
-390,306	599,205	-0,020	-0,036
-389,292	-200,000	-0,009	-0,044
-388,277	178,108	0,016	-0,017
-387,263	-141,026	0,101	-0,007
-386,248	81,666	0,083	0,065
-385,233	-200,000	-0,034	0,178
-384,219	-200,000	0,002	-0,052
-383,204	344,153	-0,007	-0,009
-382,190	169,578	-0,081	-0,084
-381,175	-120,595	-0,025	0,003
-380,160	-135,816	0,146	0,012
-379,146	-200,000	-0,002	-0,080
-378,131	261,746	0,114	0,144
-377,117	421,091	-0,078	0,122
-376,102	800,000	0,026	0,057
-375,088	800,000	-0,027	0,068
-374,073	63,373	0,092	-0,067
-373,058	800,000	0,017	0,045
-372,044	-59,816	0,063	0,020
-371,029	-200,000	-0,012	-0,042
-370,015	63,343	0,093	-0,068
-369,000	98,029	-0,027	0,023
-367,985	82,378	-0,059	-0,046
-366,971	-200,000	0,038	-0,181
-365,956	-41,636	0,113	-0,042
-364,942	-200,000	0,010	0,108
-363,927	25,698	0,041	0,025
-362,912	7,520	-0,148	0,080
-361,898	612,614	-0,011	0,020
-360,883	398,869	-0,054	-0,082
-359,869	101,237	-0,118	-0,100
-358,854	270,869	0,012	-0,015
-357,839	299,280	0,065	0,087
-356,825	-200,000	0,015	-0,050
-355,810	-200,000	0,019	0,147
-354,796	85,406	0,031	0,024
-353,781	-75,188	-0,089	-0,023
-352,766	800,000	-0,024	0,072
-351,752	-44,413	0,080	0,029
-350,737	-62,589	-0,018	0,006
-349,723	800,000	-0,053	-0,116
-348,708	-113,527	-0,079	0,011
-347,693	-40,366	0,161	-0,060
-346,679	-15,874	-0,159	-0,073
-345,664	212,986	0,018	-0,021
-344,650	403,464	-0,036	0,055
-343,635	800,000	0,065	-0,168
-342,620	298,335	-0,033	0,045
-341,606	11,445	0,100	-0,056
-340,591	114,329	-0,048	-0,042
-339,577	101,089	-0,131	-0,110
-338,562	177,244	-0,021	-0,023
-337,548	14,397	-0,017	0,009
-336,533	800,000	0,032	-0,089
-335,518	800,000	-0,013	-0,036
-334,504	-200,000	0,025	0,122
-333,489	71,732	0,075	-0,056
-332,475	-34,880	-0,123	-0,049
-331,460	-56,104	0,158	-0,051
-330,445	153,659	0,047	0,047
-329,431	-189,742	0,212	0,002
-328,416	-91,651	-0,071	-0,014
-327,402	-200,000	-0,027	0,137
-326,387	33,923	-0,060	-0,038
-325,372	18,282	-0,135	-0,078
-324,358	338,540	-0,042	0,059
-323,343	-53,691	-0,047	0,015
-322,329	7,426	0,175	0,094
-321,314	-116,695	0,080	-0,011
-320,299	800,000	0,078	0,186
-319,285	636,874	0,015	0,029
-318,270	504,170	-0,048	0,081
-317,256	-200,000	-0,017	-0,090
-316,241	-200,000	0,019	-0,088
-315,226	-200,000	-0,010	-0,033
-314,212	-200,000	-0,004	-0,062
-313,197	65,953	-0,131	0,096
-312,183	-24,056	0,136	0,059
-311,168	-200,000	-0,019	-0,132
-310,153	800,000	-0,056	-0,114
-309,139	-34,624	0,031	-0,012
-308,124	35,512	0,114	-0,072
-307,110	33,012	0,086	-0,054
-306,095	800,000	0,063	0,138
-305,080	298,730	0,031	0,041
-304,066	-200,000	0,012	-0,059
-303,051	-0,751	-0,048	-0,024
-302,037	-16,462	-0,101	0,046
-301,022	-200,000	0,024	-0,076
-300,008	-200,000	0,000	0,084
-298,993	-200,000	-0,010	0,123
-297,978	41,424	0,056	-0,036
-296,964	40,213	0,107	-0,070
-295,949	800,000	0,024	-0,066
-294,935	247,919	-0,031	-0,038
-293,920	528,308	-0,052	0,089
-292,905	-138,024	0,175	0,014
-291,891	-69,592	0,091	-0,025
-290,876	-200,000	-0,009	0,059
-289,862	18,145	-0,014	0,008
-288,847	-133,620	-0,204	0,018
-287,832	325,528	-0,099	-0,137
-286,818	800,000	-0,041	-0,103
-285,803	332,000	-0,073	-0,102
-284,789	776,465	0,046	0,091
-283,774	-200,000	0,017	-0,074
-282,759	-39,361	0,117	0,044
-281,745	-200,000	0,002	-0,113
-280,730	-88,632	-0,052	-0,011
-279,716	-63,507	0,031	-0,009
-278,701	-200,000	-0,029	0,149
-277,686	-76,708	0,103	0,026
-276,672	213,985	0,076	0,087
-275,657	-179,763	0,107	0,002
-274,643	-142,261	0,066	-0,005
-273,628	387,212	0,064	0,096
-272,613	-200,000	0,004	-0,160
-271,599	-15,791	0,074	-0,034
-270,584	-200,000	0,038	-0,129
-269,570	-66,313	0,024	0,007
-268,555	-200,000	-0,003	0,046
-267,540	-61,274	-0,144	-0,044
-266,526	-37,290	-0,041	-0,016
-265,511	-53,285	-0,098	0,032
-264,497	-200,000	-0,015	0,086
-263,482	230,969	0,051	0,061
-262,467	326,377	-0,035	0,049
-261,453	40,010	0,056	-0,037
-260,438	-200,000	0,018	-0,120
-259,424	58,857	-0,075	0,053
-258,409	-200,000	-0,016	0,076
-257,395	72,804	0,017	0,013
-256,380	-165,219	0,128	-0,004
-255,365	163,566	-0,122	0,124
-254,351	800,000	-0,045	0,143
-253,336	-94,174	0,045	-0,009
-252,322	-13,718	-0,059	0,028
-251,307	-200,000	-0,001	0,072
-250,292	800,000	-0,065	0,137
-249,278	197,266	0,073	-0,080
-248,263	-200,000	-0,034	0,138
-247,249	371,548	-0,089	0,131
-246,234	139,649	-0,027	-0,025
-245,219	-200,000	0,017	-0,118
-244,205	-200,000	-0,002	-0,036
-243,190	345,059	0,068	0,097
-242,176	-108,758	0,044	0,007
-241,161	196,336	0,047	0,052
-240,146	32,103	0,134	0,084
-239,132	108,605	0,051	-0,044
-238,117	-77,688	-0,047	-0,012
-237,103	-19,749	-0,111	0,050
-236,088	-200,000	0,006	0,095
-235,073	99,171	0,046	0,038
-234,059	9,763	-0,027	-0,015
-233,044	-78,977	-0,140	0,034
-232,030	800,000	0,022	-0,064
-231,015	-22,441	0,088	0,038
-230,000	-200,000	0,039	-0,160
-228,986	-200,000	-0,008	-0,086
-227,971	-160,802	0,130	-0,005
-226,957	16,964	0,160	0,091
-225,942	115,818	0,081	-0,072
-224,927	-95,656	-0,029	0,006
-223,913	476,180	-0,051	-0,084
-222,898	-200,000	-0,026	-0,206
-221,884	-168,245	0,016	-0,000
-220,869	361,790	0,052	0,075
-219,855	-138,768	0,094	0,007
-218,840	197,381	-0,120	0,133
-217,825	800,000	0,027	-0,066
-216,811	49,618	-0,005	-0,004
-215,796	160,756	-0,107	0,108
-214,782	12,542	-0,051	0,028
-213,767	-200,000	0,006	-0,082
-212,752	-70,480	-0,074	0,020
-211,738	-40,660	0,151	-0,056
-210,723	0,903	-0,067	-0,034
-209,709	-200,000	0,013	0,105
-208,694	-91,613	-0,103	-0,021
-207,679	565,467	-0,027	0,048
-206,665	71,115	0,064	-0,048
-205,650	800,000	0,054	0,164
-204,636	707,532	-0,046	0,088
-203,621	-52,360	-0,142	-0,047
-202,606	-200,000	-0,007	0,057
-201,592	-200,000	0,008	0,119
-200,577	800,000	0,032	-0,075
-199,563	800,000	0,027	-0,074
-198,548	-200,000	0,012	-0,064
-197,533	-200,000	0,029	0,160
-196,519	376,170	0,057	0,084
-195,504	60,509	-0,076	0,054
-194,490	800,000	-0,009	0,023
-193,475	464,680	-0,035	-0,056
-192,460	-48,283	0,044	-0,015
-191,446	800,000	-0,015	0,038
-190,431	-73,995	0,034	-0,009
-189,417	-200,000	-0,014	0,060
-188,402	276,602	0,128	-0,165
-187,387	-200,000	-0,029	-0,125
-186,373	-93,887	0,050	-0,010
-185,358	418,605	-0,010	0,016
-184,344	-22,152	0,098	0,043
-183,329	27,932	0,064	0,039
-182,315	40,207	-0,112	-0,073
-181,300	-200,000	-0,019	0,105
-180,285	-11,954	-0,146	0,069
-179,271	-138,330	-0,196	-0,015
-178,256	39,862	0,050	0,033
-177,242	800,000	-0,055	0,144
-176,227	-200,000	-0,002	-0,007
-175,212	-29,621	0,118	0,048
-174,198	13,697	0,060	-0,034
-173,183	70,111	-0,107	-0,079
-172,169	180,145	-0,133	0,140
-171,154	247,730	0,058	0,070
-170,139	-16,550	0,033	0,015
-169,125	-200,000	-0,003	-0,022
-168,110	-78,974	0,038	0,009
-167,096	35,164	0,115	-0,072
-166,081	-200,000	-0,016	0,112
-165,066	7,109	-0,073	0,039
-164,052	-106,605	0,075	-0,012
-163,037	-134,834	-0,058	-0,005
-162,023	328,428	0,062	-0,086
-161,008	391,476	0,050	0,075
-159,993	12,075	0,090	0,050
-158,979	-75,155	0,077	0,020
-157,964	-69,065	0,051	-0,014
-156,950	-25,826	-0,156	0,066
-155,935	800,000	0,019	0,038
-154,920	-200,000	0,005	-0,049
-153,906	528,785	-0,036	-0,062
-152,891	800,000	-0,055	-0,113
-151,877	-200,000	0,015	0,049
-150,862	-200,000	-0,009	0,069
-149,847	20,154	0,082	-0,048
-148,833	33,601	0,170	-0,106
-147,818	800,000	0,046	-0,106
-146,804	-161,521	0,145	0,005
-145,789	553,083	-0,031	-0,053
-144,775	138,975	-0,063	0,060
-143,760	-200,000	-0,006	0,074
-142,745	259,737	0,081	-0,101
-141,731	-101,693	-0,078	-0,013
-140,716	233,329	0,031	-0,036
-139,702	800,000	0,106	0,217
-138,687	186,884	-0,060	-0,065
-137,672	411,016	-0,016	0,024
-136,658	141,574	0,140	-0,134
-135,643	296,972	0,067	-0,089
-134,629	800,000	0,043	-0,125
-133,614	-54,675	0,079	-0,026
-132,599	91,423	-0,062	-0,050
-131,585	-200,000	-0,005	0,032
-130,570	62,520	0,066	0,048
-129,556	-86,209	-0,067	-0,015
-128,541	-177,281	-0,131	-0,002
-127,526	-71,709	-0,080	-0,021
-126,512	-169,346	-0,028	0,001
-125,497	352,323	0,104	0,149
-124,483	800,000	-0,056	-0,127
-123,468	-175,712	0,012	0,000
-122,453	79,919	0,053	-0,041
-121,439	-200,000	-0,021	-0,073
-120,424	325,626	0,102	0,140
-119,410	8,987	0,079	-0,043
-118,395	286,407	0,111	-0,145
-117,380	15,783	0,089	0,050
-116,366	800,000	0,019	0,050
-115,351	-200,000	-0,022	-0,085
-114,337	-0,235	0,052	0,026
-113,322	-200,000	0,007	0,092
-112,307	-31,439	0,081	0,033
-111,293	169,034	0,022	0,023
-110,278	-0,607	0,039	-0,020
-109,264	-200,000	0,007	0,045
-108,249	166,221	0,140	-0,142
-107,234	-144,722	-0,131	-0,009
-106,220	-200,000	-0,021	-0,070
-105,205	800,000	-0,039	0,113
-104,191	-55,102	0,061	0,020
-103,176	18,989	-0,051	0,029
-102,162	-127,481	0,112	-0,012
-101,147	47,066	-0,097	-0,065
-100,132	164,398	0,076	-0,077
-99,118	-106,802	-0,176	-0,028
-98,103	383,980	-0,020	0,030
-97,089	72,043	0,154	0,115
-96,074	-200,000	0,010	0,190
-95,059	-200,000	0,031	0,115
-94,045	-107,092	-0,132	-0,021
-93,030	38,653	-0,021	0,014
-92,016	6,742	0,106	0,057
-91,001	266,866	0,042	0,053
-89,986	-107,186	0,027	0,004
-88,972	-200,000	0,012	-0,046
-87,957	-200,000	-0,043	-0,138
-86,943	800,000	0,015	0,033
-85,928	-200,000	0,020	-0,166
-84,913	-200,000	-0,038	-0,140
-83,899	555,690	-0,054	-0,093
-82,884	-200,000	-0,010	0,060
-81,870	202,626	0,045	0,049
-80,855	118,065	0,127	0,112
-79,840	477,030	-0,050	-0,082
-78,826	-32,174	-0,087	0,035
-77,811	-175,201	-0,032	0,001
-76,797	34,596	0,056	-0,035
-75,782	252,047	-0,067	0,082
-74,767	800,000	0,046	-0,138
-73,753	-103,924	-0,074	-0,012
-72,738	511,654	-0,042	0,070
-71,724	800,000	-0,022	-0,059
-70,709	276,185	0,015	-0,019
-69,694	389,947	0,074	-0,110
-68,680	800,000	0,008	-0,025
-67,665	-200,000	0,058	-0,257
-66,651	49,510	-0,062	-0,042
-65,636	196,396	-0,101	0,111
-64,622	-172,961	-0,035	0,001
-63,607	100,585	0,014	0,012
-62,592	-117,045	-0,121	-0,016
-61,578	-200,000	-0,027	0,088
-60,563	528,005	0,082	0,139
-59,549	-200,000	-0,032	0,134
-58,534	31,539	-1,982	-1,220
-57,519	-200,000	-0,182	-0,739
-56,505	-200,000	-1,284	-4,860
-55,490	103,635	0,981	0,827
-54,476	800,000	4,936	11,652
-53,461	-200,000	17,913	289,928
-52,446	800,000	728,027	2224,321
-51,432	532,435	1640,357	2796,383
-50,417	108,700	1629,385	1396,462
-49,403	72,552	1282,971	959,044
-48,388	31,152	1025,840	630,038
-47,373	19,857	987,777	569,463
-46,359	18,180	975,534	556,893
-45,344	15,393	971,860	545,666
-44,330	15,542	970,589	545,419
-43,315	15,096	968,609	542,830
-42,300	15,032	967,543	542,004
-41,286	15,075	966,546	541,561
-40,271	15,034	965,570	540,860
-39,257	15,073	964,569	540,407
-38,242	15,117	963,850	540,124
-37,227	15,115	962,964	539,598
-36,213	15,067	962,277	539,037
-35,198	15,106	961,078	538,470
-34,184	15,081	960,416	537,997
-33,169	15,065	959,560	537,446
-32,154	15,134	958,530	537,071
-31,140	15,126	957,619	536,511
-30,125	15,092	957,072	536,074
-29,111	15,084	956,150	535,513
-28,096	15,152	955,614	535,407
-27,082	15,127	954,839	534,873
-26,067	15,150	954,061	534,490
-25,052	15,020	953,463	533,714
-24,038	15,056	952,827	533,453
-23,023	15,042	952,051	532,954
-22,009	15,136	951,340	532,836
-20,994	15,139	950,704	532,469
-19,979	15,120	950,178	532,090
-18,965	15,089	949,455	531,565
-17,950	15,159	948,868	531,440
-16,936	15,030	948,265	530,670
-15,921	14,985	947,642	530,156
-14,906	14,963	947,035	529,725
-13,892	15,002	946,117	529,315
-12,877	14,935	945,691	528,841
-11,863	14,946	944,900	528,415
-10,848	15,008	944,451	528,338
-9,833	15,104	943,953	528,344
-8,819	15,091	943,209	527,866
-7,804	15,012	942,842	527,388
-6,790	14,974	942,263	526,924
-5,775	14,968	941,612	526,521
-4,760	15,009	940,964	526,267
-3,746	14,997	940,362	525,871
-2,731	14,870	939,725	525,093
-1,717	14,790	939,015	524,421
-0,702	14,809	938,292	524,057
0,313	14,640	937,678	523,973
1,327	18,175	935,555	533,860
2,342	27,555	789,181	475,017
3,356	24,077	444,024	262,098
4,371	-5,839	295,276	144,416
5,386	-9,724	276,927	131,751
6,400	-11,088	271,223	127,759
7,415	-11,012	268,919	126,733
8,429	-11,196	267,491	125,880
9,444	-11,316	266,708	125,390
10,459	-11,172	266,024	125,189
11,473	-11,137	265,433	124,931
12,488	-11,271	264,854	124,526
13,502	-11,654	264,305	123,911
14,517	-11,334	263,896	123,997
15,531	-11,339	263,523	123,806
16,546	-11,240	263,244	123,754
17,561	-11,383	262,852	123,429
18,575	-11,231	262,493	123,386
19,590	-11,322	262,095	123,107
20,604	-11,401	261,822	122,897
21,619	-11,436	261,442	122,677
22,634	-11,365	261,170	122,601
23,648	-11,575	260,924	122,287
24,663	-11,364	260,659	122,340
25,677	-11,347	260,300	122,176
26,692	-11,360	260,020	122,022
27,707	-11,334	259,746	121,906
28,721	-11,382	259,506	121,740
29,736	-11,414	259,147	121,532
30,750	-11,430	259,117	121,493
31,765	-11,399	258,740	121,332
32,780	-11,506	258,472	121,101
33,794	-11,673	258,543	120,977
34,809	-11,450	258,094	120,952
35,823	-11,554	257,854	120,738
36,838	-11,484	257,509	120,627
37,853	-11,729	257,269	120,288
38,867	-11,685	257,044	120,211
39,882	-11,474	256,840	120,290
40,896	-11,510	256,521	120,098
41,911	-11,473	256,147	119,945
42,926	-11,743	256,142	119,696
43,940	-11,640	255,952	119,686
44,955	-11,561	255,489	119,528
45,969	-11,502	255,257	119,460
46,984	-11,816	255,039	119,075
47,999	-12,104	254,725	118,666
49,013	-12,252	254,708	118,519
50,028	-12,311	254,263	118,251
51,042	-12,374	253,972	118,050
52,057	-12,622	253,797	117,744
53,071	-12,291	253,694	117,972
54,086	-12,257	253,487	117,894
55,101	-12,035	253,308	117,992
56,115	-11,907	253,135	118,012
57,130	-11,381	253,026	118,404
58,144	-11,377	253,052	118,409
59,159	-11,165	252,650	118,393
60,174	-11,236	252,465	118,235
61,188	-11,389	252,351	118,039
62,203	-11,424	252,142	117,901
63,217	-11,175	251,709	117,901
64,232	-11,298	251,625	117,746
65,247	-11,337	251,480	117,634
66,261	-11,429	251,196	117,413
67,276	-11,549	251,009	117,212
68,290	-11,782	250,593	116,808
69,305	-12,005	250,494	116,562
70,320	-11,868	250,246	116,553
71,334	-11,843	250,414	116,642
72,349	-11,307	249,995	116,892
73,363	-11,198	249,718	116,846
74,378	-11,314	249,628	116,694
75,393	-11,366	249,455	116,558
76,407	-11,419	249,131	116,352
77,422	-11,374	248,907	116,275
78,436	-11,389	248,652	116,133
79,451	-11,281	248,446	116,117
80,466	-11,544	248,136	115,740
81,480	-11,650	248,073	115,611
82,495	-11,493	247,804	115,608
83,509	-11,821	247,602	115,227
84,524	-11,823	247,523	115,178
85,539	-11,800	247,295	115,081
86,553	-11,928	246,967	114,811
87,568	-11,607	246,900	115,039
88,582	-11,705	246,720	114,863
89,597	-11,791	246,517	114,685
90,611	-11,587	246,372	114,779
91,626	-11,530	246,302	114,784
92,641	-11,563	245,940	114,577
93,655	-11,505	245,898	114,596
94,670	-11,690	245,714	114,345
95,684	-11,560	245,580	114,381
96,699	-11,617	245,305	114,196
97,714	-11,582	245,072	114,106
98,728	-11,990	244,727	113,596
99,743	-12,018	244,558	113,484
100,757	-11,792	244,322	113,552
101,772	-11,909	244,113	113,348
102,787	-11,643	243,949	113,481
103,801	-11,519	243,787	113,499
104,816	-11,623	243,759	113,390
105,830	-11,540	243,603	113,376
106,845	-11,499	243,395	113,303
107,860	-11,496	243,238	113,222
108,874	-11,522	242,967	113,065
109,889	-11,690	242,711	112,797
110,903	-11,687	242,549	112,714
111,918	-11,788	242,360	112,533
112,933	-11,557	242,186	112,632
113,947	-11,766	242,096	112,408
114,962	-11,562	241,886	112,468
115,976	-11,400	241,558	112,438
116,991	-11,314	241,545	112,493
118,006	-11,571	241,477	112,240
119,020	-11,565	241,268	112,139
120,035	-11,266	241,038	112,266
121,049	-11,431	240,942	112,076
122,064	-11,471	240,838	111,985
123,079	-11,447	240,538	111,856
124,093	-11,633	240,121	111,500
125,108	-11,806	239,951	111,271
126,122	-12,008	239,848	111,049
127,137	-12,026	239,638	110,927
128,151	-12,028	239,553	110,876
129,166	-11,978	239,347	110,811
130,181	-11,772	239,112	110,860
131,195	-12,025	238,996	110,591
132,210	-11,770	238,857	110,723
133,224	-11,480	238,698	110,874
134,239	-11,532	238,547	110,752
135,254	-11,561	238,247	110,580
136,268	-11,734	238,052	110,340
137,283	-11,930	237,856	110,081
138,297	-11,858	237,549	109,988
139,312	-11,991	237,417	109,810
140,327	-11,583	237,357	110,100
141,341	-11,280	237,322	110,317
142,356	-11,248	237,209	110,280
143,370	-11,198	237,035	110,230
144,385	-11,202	236,995	110,198
145,400	-11,215	236,770	110,074
146,414	-11,259	236,684	109,988
147,429	-11,203	236,333	109,860
148,443	-11,129	236,148	109,823
149,458	-11,102	236,053	109,791
150,473	-11,201	235,810	109,590
151,487	-11,169	235,583	109,499
152,502	-11,430	235,490	109,239
153,516	-11,289	235,461	109,328
154,531	-11,107	235,133	109,310
155,546	-11,241	234,980	109,123
156,560	-11,335	234,733	108,924
157,575	-11,446	234,599	108,764
158,589	-11,459	234,373	108,639
159,604	-11,156	234,248	108,811
160,619	-11,202	234,100	108,696
161,633	-10,984	233,943	108,786
162,648	-11,043	233,794	108,660
163,662	-11,170	233,576	108,450
164,677	-11,409	233,477	108,206
165,692	-11,279	233,396	108,261
166,706	-10,958	233,272	108,447
167,721	-11,183	233,115	108,187
168,735	-10,953	232,929	108,271
169,750	-11,154	232,820	108,053
170,764	-11,358	232,593	107,778
171,779	-11,237	232,533	107,836
172,794	-11,268	232,382	107,732
173,808	-11,413	232,093	107,475
174,823	-11,785	231,606	106,949
175,837	-11,986	231,592	106,776
176,852	-11,397	231,563	107,213
177,867	-11,282	231,531	107,278
178,881	-10,977	231,243	107,374
179,896	-11,104	231,167	107,229
180,910	-10,939	230,995	107,268
181,925	-11,140	230,935	107,075
182,940	-11,062	230,839	107,081
183,954	-11,145	230,641	106,915
184,969	-10,765	230,413	107,095
185,983	-10,980	230,268	106,852
186,998	-10,845	230,223	106,926
188,013	-10,984	229,995	106,703
189,027	-10,988	229,840	106,618
190,042	-10,972	229,645	106,531
191,056	-10,915	229,533	106,513
192,071	-10,992	229,200	106,289
193,086	-10,962	229,137	106,274
194,100	-11,214	229,065	106,037
195,115	-11,311	228,647	105,759
196,129	-11,551	228,650	105,566
197,144	-6,491	230,383	110,279
198,159	-0,884	231,933	115,374
199,173	2,936	232,908	118,825
200,188	3,064	232,805	118,862
201,202	3,378	232,649	119,015
202,217	3,407	232,609	119,007
203,232	3,640	232,549	119,146
204,246	3,745	232,336	119,108
205,261	3,911	232,284	119,200
206,275	4,032	232,046	119,161
207,290	3,859	232,036	119,010
208,304	3,730	232,039	118,901
209,319	3,770	231,636	118,716
210,334	3,610	231,344	118,431
211,348	3,530	231,351	118,363
212,363	3,374	230,870	117,986
213,377	3,101	230,642	117,649
214,392	2,900	230,668	117,497
215,407	2,990	230,662	117,553
216,421	3,091	230,464	117,519
217,436	3,138	230,129	117,374
218,450	2,833	229,921	117,024
219,465	2,879	229,789	116,981
220,480	2,978	229,773	117,038
221,494	2,765	229,556	116,754
222,509	2,894	229,610	116,870
223,523	3,119	229,314	116,881
224,538	3,088	229,025	116,700
225,553	3,010	228,900	116,566
226,567	3,064	228,890	116,592
227,582	3,263	228,825	116,700
228,596	3,231	228,824	116,665
229,611	2,927	228,516	116,266
230,626	2,726	228,165	115,924
231,640	2,763	228,125	115,921
232,655	3,375	227,924	116,274
233,669	3,646	227,854	116,433
234,684	3,569	227,831	116,353
235,699	3,676	227,489	116,249
236,713	3,425	227,197	115,899
237,728	3,019	227,132	115,549
238,742	3,027	226,989	115,472
239,757	3,190	226,922	115,550
240,772	2,996	226,735	115,298
241,786	2,948	226,644	115,206
242,801	3,275	226,402	115,319
243,815	3,541	226,454	115,535
244,830	3,393	226,415	115,394
245,844	3,111	226,143	115,033
246,859	2,968	226,062	114,873
247,874	3,251	225,760	114,923
248,888	3,123	225,700	114,786
249,903	3,356	225,517	114,857
250,917	3,059	225,336	114,532
251,932	3,073	225,192	114,460
252,947	2,988	225,017	114,297
253,961	3,039	224,771	114,199
254,976	2,963	224,687	114,090
255,990	3,176	224,731	114,261
257,005	3,232	224,583	114,217
258,020	3,309	224,378	114,161
259,034	3,600	224,144	114,248
260,049	3,392	224,019	114,019
261,063	3,375	223,760	113,865
262,078	3,213	223,992	113,852
263,093	3,601	223,786	114,026
264,107	3,313	223,511	113,661
265,122	3,438	223,353	113,663
266,136	3,456	223,442	113,712
267,151	3,592	223,143	113,650
268,166	3,247	222,834	113,228
269,180	2,760	222,649	112,764
270,195	2,845	222,510	112,746
271,209	2,885	222,384	112,702
272,224	3,018	222,216	112,705
273,239	3,199	222,082	112,760
274,253	3,124	222,000	112,653
275,268	2,927	221,729	112,361
276,282	2,888	221,585	112,249
277,297	2,704	221,481	112,051
278,312	2,751	221,438	112,054
279,326	2,892	221,205	112,029
280,341	2,867	221,317	112,057
281,355	2,983	221,015	111,980
282,370	3,202	220,816	112,029
283,384	2,844	220,638	111,668
284,399	2,682	220,618	111,529
285,414	2,871	220,320	111,507
286,428	3,252	220,292	111,760
287,443	3,378	220,142	111,766
288,457	3,170	220,061	111,564
289,472	2,710	219,929	111,150
290,487	2,523	219,584	110,831
291,501	2,440	219,434	110,685
292,516	2,758	219,348	110,862
293,530	2,604	219,242	110,687
294,545	2,765	219,147	110,746
295,560	2,899	219,045	110,782
296,574	3,244	218,877	110,938
297,589	3,007	218,747	110,690
298,603	2,949	218,667	110,597
299,618	3,129	218,336	110,550
300,633	3,045	218,366	110,495
301,647	3,254	218,235	110,570
302,662	3,249	218,311	110,595
303,676	3,325	217,981	110,473
304,691	3,154	217,869	110,283
305,706	3,215	217,756	110,260
306,720	3,146	217,641	110,142
307,735	3,096	217,333	109,940
308,749	3,105	217,176	109,857
309,764	3,118	217,209	109,873
310,779	3,420	216,973	109,961
311,793	3,170	216,868	109,719
312,808	3,295	216,716	109,722
313,822	3,171	216,478	109,503
314,837	3,036	216,409	109,362
315,852	2,800	216,255	109,105
316,866	2,899	216,163	109,120
317,881	3,348	215,954	109,325
318,895	3,114	215,996	109,170
319,910	2,959	215,584	108,841
320,925	2,793	215,355	108,598
321,939	2,739	215,277	108,510
322,954	2,862	215,306	108,603
323,968	3,118	215,130	108,687
324,983	3,171	215,166	108,733
325,997	3,415	214,894	108,759
327,012	3,049	214,831	108,457
328,027	3,058	214,628	108,351
329,041	3,436	214,607	108,599
330,056	3,696	214,290	108,613
331,070	3,061	214,181	108,099
332,085	2,708	213,832	107,664
333,100	3,002	213,714	107,803
334,114	2,988	213,818	107,835
335,129	3,270	213,669	107,949
336,143	2,971	213,483	107,635
337,158	3,120	213,517	107,748
338,173	3,043	213,319	107,584
339,187	3,162	213,070	107,532
340,202	2,973	212,886	107,298
341,216	2,911	212,706	107,154
342,231	2,916	212,638	107,113
343,246	2,813	212,544	106,984
344,260	2,927	212,497	107,031
345,275	3,265	212,286	107,152
346,289	3,347	212,275	107,194
347,304	3,281	212,163	107,081
348,319	3,140	211,801	106,791
349,333	3,240	211,870	106,886
350,348	3,303	211,586	106,777
351,362	3,217	211,596	106,713
352,377	3,262	211,353	106,612
353,392	3,295	211,146	106,521
354,406	3,246	211,124	106,466
355,421	196,039	1339,872	1419,062
356,435	156,607	1477,361	1419,021
