DTS Sentinel unit serial number:	SN410029Multiplexer serial number:	ORYXHardware model number:	OX2-SRSoftware version number:	ORYX F/W v4,00 Oryx Data Collector v3.7.2.0data status	okinstallation	B6 Nyhavnadifferential loss correction	single-endedforward channel	channel 2reverse channel	N/Adate	2023/12/10time	05:05:08forward acquisition time	300,00reverse acquisition time	0,00gamma	499,1914k internal	0,3124k external	0,3124temperature offset calibration	1,0000default loss term (dB/km)	0,3820temperature slope calibration	1,0000multiplexer offset coefficient	1,0000multiplexer slope coefficient	1,0000fibre end	0,00T internal ref (°C)	22,34T ext. ref 1 (°C)	6,39T ext. ref 2 (°C)	6,37length (m)	temperature (°C)	Stokes	anti-Stokes-744,400	7,200	0,131	-0,073
-743,385	-121,162	-0,279	0,034
-742,371	112,294	0,164	0,147
-741,356	94,305	-0,209	0,177
-740,342	800,000	-0,016	-0,047
-739,327	-118,812	-0,186	-0,024
-738,312	172,620	0,053	0,057
-737,298	-79,500	-0,176	0,044
-736,283	-126,073	0,146	-0,016
-735,269	17,201	-0,327	0,193
-734,254	473,992	0,025	-0,043
-733,239	-14,916	-0,405	-0,193
-732,225	-58,667	0,051	0,016
-731,210	-87,441	-0,054	0,012
-730,196	77,052	0,062	0,049
-729,181	27,613	-0,042	-0,026
-728,167	136,351	0,050	0,048
-727,152	-200,000	0,016	0,110
-726,137	-154,033	-0,123	0,006
-725,123	14,621	-0,135	-0,078
-724,108	127,634	-0,120	-0,114
-723,094	313,374	-0,060	-0,084
-722,079	-200,000	0,020	-0,090
-721,064	-11,608	-0,160	-0,078
-720,050	24,623	0,077	-0,047
-719,035	363,524	-0,030	-0,045
-718,021	539,045	-0,068	0,120
-717,006	56,551	-0,089	-0,064
-715,991	-158,169	-0,080	0,003
-714,977	-200,000	0,008	-0,142
-713,962	800,000	-0,014	-0,031
-712,948	-47,375	0,177	-0,064
-711,933	37,298	0,054	-0,035
-710,918	-200,000	-0,011	-0,085
-709,904	-21,053	-0,122	0,056
-708,889	57,468	-0,112	-0,081
-707,875	-15,089	-0,040	-0,019
-706,860	-200,000	0,015	-0,075
-705,845	-55,928	0,053	0,017
-704,831	-68,917	-0,184	0,053
-703,816	177,299	0,027	0,029
-702,802	-200,000	0,013	0,086
-701,787	688,879	-0,054	-0,105
-700,772	51,636	-0,018	0,013
-699,758	251,465	0,069	0,087
-698,743	800,000	-0,031	-0,073
-697,729	-200,000	0,001	-0,034
-696,714	800,000	-0,026	0,074
-695,699	-88,678	-0,075	-0,016
-694,685	800,000	-0,038	-0,110
-693,670	800,000	-0,034	-0,104
-692,656	-200,000	-0,001	-0,051
-691,641	4,662	0,098	-0,053
-690,627	800,000	0,054	-0,137
-689,612	331,553	-0,042	-0,061
-688,597	539,014	-0,061	-0,109
-687,583	366,261	0,076	-0,114
-686,568	181,319	-0,090	0,098
-685,554	-129,768	-0,090	-0,009
-684,539	119,276	0,030	-0,028
-683,524	312,650	0,077	-0,108
-682,510	800,000	0,034	-0,094
-681,495	154,380	0,020	-0,020
-680,481	87,613	-0,072	-0,060
-679,466	800,000	-0,070	-0,174
-678,451	-78,994	0,136	-0,034
-677,437	800,000	-0,037	0,078
-676,422	42,952	0,068	-0,046
-675,408	530,487	-0,097	-0,171
-674,393	42,765	-0,110	0,074
-673,378	-200,000	-0,001	-0,048
-672,364	373,801	0,044	-0,066
-671,349	44,284	-0,040	0,027
-670,335	-90,557	0,028	-0,006
-669,320	-104,912	0,053	-0,009
-668,305	444,660	-0,026	0,042
-667,291	-200,000	0,005	-0,086
-666,276	314,531	-0,045	-0,063
-665,262	398,976	0,088	-0,138
-664,247	800,000	-0,053	-0,142
-663,232	134,721	0,104	-0,100
-662,218	176,395	0,063	0,068
-661,203	-129,010	0,170	-0,017
-660,189	128,869	-0,062	0,059
-659,174	-104,022	0,020	-0,003
-658,159	-107,250	-0,114	0,018
-657,145	44,248	-0,062	-0,042
-656,130	-92,461	-0,127	-0,026
-655,116	800,000	-0,008	0,019
-654,101	-200,000	-0,020	0,214
-653,086	-200,000	-0,030	0,156
-652,072	724,183	-0,026	0,052
-651,057	-41,463	-0,202	-0,077
-650,043	-200,000	-0,019	-0,116
-649,028	-99,406	0,054	0,010
-648,014	220,838	0,007	0,009
-646,999	-156,380	-0,122	-0,006
-645,984	-26,883	0,058	-0,025
-644,970	-200,000	-0,010	0,061
-643,955	-57,356	-0,109	-0,035
-642,941	81,897	0,053	-0,043
-641,926	764,811	-0,056	-0,113
-640,911	328,071	0,056	0,080
-639,897	-200,000	-0,030	0,131
-638,882	271,386	0,020	-0,026
-637,868	272,317	0,048	-0,062
-636,853	-171,293	-0,148	-0,004
-635,838	-200,000	-0,005	-0,066
-634,824	800,000	0,027	-0,086
-633,809	-200,000	0,000	0,043
-632,795	-30,375	-0,038	0,016
-631,780	-200,000	0,012	-0,058
-630,765	-200,000	-0,042	-0,224
-629,751	542,607	-0,029	-0,051
-628,736	418,722	0,116	-0,185
-627,722	243,186	-0,040	-0,050
-626,707	294,904	-0,054	0,073
-625,692	11,543	0,052	-0,029
-624,678	17,527	0,124	-0,073
-623,663	128,203	-0,075	-0,071
-622,649	-122,537	-0,126	-0,015
-621,634	31,204	-0,075	-0,048
-620,619	-83,739	-0,230	0,054
-619,605	431,560	0,028	-0,045
-618,590	327,903	0,073	-0,104
-617,576	800,000	0,030	0,082
-616,561	704,596	0,038	0,075
-615,546	-93,997	-0,107	0,022
-614,532	-135,974	-0,077	-0,007
-613,517	-74,247	-0,112	0,030
-612,503	-0,741	-0,029	0,015
-611,488	-84,744	0,102	-0,024
-610,474	287,795	-0,075	-0,101
-609,459	302,970	-0,042	0,057
-608,444	374,755	-0,018	0,027
-607,430	-111,078	-0,030	0,004
-606,415	-200,000	-0,006	-0,095
-605,401	18,564	-0,050	0,029
-604,386	800,000	-0,014	-0,031
-603,371	296,451	0,032	0,044
-602,357	62,868	-0,085	-0,063
-601,342	-101,553	0,109	-0,019
-600,328	-17,644	-0,089	-0,041
-599,313	-116,434	-0,080	-0,011
-598,298	-116,590	-0,064	-0,009
-597,284	-74,090	-0,076	-0,020
-596,269	-99,215	0,086	0,016
-595,255	-200,000	0,008	-0,052
-594,240	800,000	-0,078	-0,197
-593,225	-200,000	0,004	-0,095
-592,211	-16,343	-0,179	-0,084
-591,196	800,000	0,025	-0,055
-590,182	204,524	0,027	0,031
-589,167	60,529	0,100	0,073
-588,152	-6,970	-0,027	0,014
-587,138	45,730	0,042	0,028
-586,123	-170,332	0,083	0,002
-585,109	91,799	0,060	-0,050
-584,094	521,664	-0,042	-0,073
-583,079	-46,408	0,059	0,021
-582,065	208,022	-0,046	0,053
-581,050	61,120	0,023	-0,017
-580,036	39,372	-0,119	0,079
-579,021	180,122	-0,150	-0,162
-578,006	-30,541	0,016	-0,007
-576,992	-200,000	-0,011	-0,048
-575,977	-200,000	0,025	-0,104
-574,963	150,098	0,045	0,045
-573,948	800,000	0,030	0,062
-572,934	800,000	-0,020	0,044
-571,919	-53,158	-0,117	-0,040
-570,904	-0,823	-0,097	-0,051
-569,890	789,822	0,049	-0,099
-568,875	3,284	-0,055	-0,030
-567,861	800,000	0,026	-0,072
-566,846	523,599	-0,042	-0,074
-565,831	-200,000	-0,005	-0,060
-564,817	166,586	0,050	0,052
-563,802	733,505	0,027	-0,055
-562,788	678,488	-0,055	0,107
-561,773	178,385	0,070	0,076
-560,758	218,554	0,015	-0,018
-559,744	-200,000	0,013	0,058
-558,729	-9,717	0,154	0,076
-557,715	-69,414	-0,066	-0,019
-556,700	800,000	0,015	-0,032
-555,685	108,059	-0,082	0,072
-554,671	800,000	0,051	0,106
-553,656	301,619	0,046	0,064
-552,642	39,584	0,027	0,018
-551,627	-200,000	-0,002	0,029
-550,612	534,137	0,057	-0,099
-549,598	-200,000	-0,022	-0,073
-548,583	800,000	0,012	0,035
-547,569	-61,054	0,140	0,043
-546,554	44,585	0,081	-0,055
-545,539	-98,927	0,068	-0,013
-544,525	685,078	0,046	-0,089
-543,510	96,184	-0,031	0,026
-542,496	-66,519	0,036	0,011
-541,481	-23,300	-0,084	-0,037
-540,466	52,085	-0,127	-0,090
-539,452	-200,000	0,008	0,052
-538,437	750,769	0,042	0,085
-537,423	-200,000	0,031	0,126
-536,408	438,525	-0,055	0,088
-535,393	800,000	-0,070	-0,159
-534,379	-200,000	0,013	-0,086
-533,364	-200,000	-0,011	-0,126
-532,350	800,000	0,061	0,137
-531,335	-40,509	0,073	-0,028
-530,321	532,479	-0,035	0,061
-529,306	304,570	-0,058	-0,079
-528,291	-79,334	0,103	-0,026
-527,277	-138,264	-0,151	-0,012
-526,262	-103,130	0,086	-0,015
-525,248	70,845	0,012	0,009
-524,233	447,409	0,030	-0,049
-523,218	-200,000	-0,004	0,082
-522,204	63,146	-0,162	0,120
-521,189	102,737	-0,027	-0,023
-520,175	800,000	-0,046	0,098
-519,160	-200,000	0,030	0,109
-518,145	-200,000	0,007	0,126
-517,131	-58,111	0,132	0,042
-516,116	-77,177	0,025	0,006
-515,102	800,000	0,002	-0,005
-514,087	171,022	-0,070	0,074
-513,072	-134,388	0,046	-0,004
-512,058	177,134	-0,064	-0,069
-511,043	96,189	0,085	0,072
-510,029	5,203	-0,015	-0,008
-509,014	-200,000	-0,009	0,064
-507,999	-72,152	0,170	0,046
-506,985	-90,268	-0,081	-0,017
-505,970	159,390	-0,072	0,074
-504,956	208,489	-0,030	0,035
-503,941	565,634	0,011	-0,020
-502,926	-200,000	-0,003	0,115
-501,912	-150,221	0,109	-0,006
-500,897	765,112	0,090	-0,180
-499,883	-107,079	-0,055	-0,009
-498,868	800,000	-0,021	-0,063
-497,853	-200,000	-0,017	0,064
-496,839	222,994	0,047	-0,056
-495,824	-42,473	-0,134	0,050
-494,810	-200,000	-0,017	-0,095
-493,795	438,595	-0,052	-0,085
-492,781	800,000	-0,013	-0,040
-491,766	-52,518	-0,147	-0,050
-490,751	-54,956	-0,054	-0,018
-489,737	125,025	-0,029	-0,027
-488,722	-116,895	-0,067	0,009
-487,708	-200,000	-0,016	0,054
-486,693	273,368	-0,055	0,072
-485,678	65,549	-0,022	-0,016
-484,664	259,297	-0,045	0,057
-483,649	417,631	0,067	-0,106
-482,635	104,098	-0,056	0,049
-481,620	-200,000	-0,014	0,054
-480,605	214,656	-0,051	0,059
-479,591	115,395	-0,042	0,038
-478,576	76,768	-0,088	0,069
-477,562	-200,000	-0,010	0,102
-476,547	-55,710	0,034	-0,011
-475,532	-200,000	-0,006	-0,218
-474,518	-44,465	-0,137	0,050
-473,503	198,523	-0,038	-0,043
-472,489	-200,000	-0,006	-0,035
-471,474	-90,962	0,056	0,012
-470,459	-13,635	0,105	0,050
-469,445	-200,000	0,006	0,030
-468,430	-137,603	-0,067	0,005
-467,416	-85,576	0,080	0,018
-466,401	394,881	0,013	-0,021
-465,386	800,000	-0,033	0,075
-464,372	250,083	-0,094	0,118
-463,357	-200,000	-0,011	0,101
-462,343	800,000	-0,062	-0,138
-461,328	-200,000	-0,002	0,092
-460,313	-44,671	-0,030	-0,011
-459,299	789,235	0,058	-0,118
-458,284	-54,426	0,052	0,017
-457,270	287,936	0,032	0,042
-456,255	145,992	0,020	-0,020
-455,241	327,684	0,050	0,072
-454,226	69,528	0,053	0,040
-453,211	-74,730	0,218	-0,057
-452,197	52,817	0,077	0,054
-451,182	-55,635	-0,101	0,033
-450,168	-200,000	-0,005	-0,146
-449,153	108,042	0,034	-0,030
-448,138	800,000	-0,083	0,184
-447,124	84,228	-0,086	0,069
-446,109	98,444	-0,041	0,035
-445,095	18,193	-0,069	-0,041
-444,080	-200,000	-0,017	0,203
-443,065	800,000	-0,057	0,131
-442,051	800,000	0,029	-0,071
-441,036	234,031	0,063	0,076
-440,022	126,604	-0,070	0,066
-439,007	-145,176	0,132	0,009
-437,992	-82,711	-0,082	-0,019
-436,978	-119,673	0,098	-0,012
-435,963	800,000	0,019	0,047
-434,949	14,013	-0,049	-0,028
-433,934	307,718	-0,117	-0,161
-432,919	472,230	0,053	-0,088
-431,905	715,466	0,069	-0,136
-430,890	800,000	0,011	-0,036
-429,876	800,000	0,011	-0,028
-428,861	202,922	0,089	0,101
-427,846	-66,520	-0,039	-0,011
-426,832	-158,471	-0,083	0,003
-425,817	-200,000	0,008	-0,051
-424,803	-30,645	-0,120	0,050
-423,788	-200,000	-0,033	0,000
-422,773	800,000	-0,044	-0,095
-421,759	-200,000	-0,021	0,128
-420,744	800,000	-0,034	0,087
-419,730	-200,000	0,016	0,063
-418,715	-200,000	0,029	-0,134
-417,701	131,304	0,121	0,114
-416,686	-0,186	-0,096	-0,050
-415,671	33,579	-0,060	-0,038
-414,657	-35,163	0,069	-0,027
-413,642	-70,114	-0,139	0,039
-412,628	-79,881	0,100	0,024
-411,613	-200,000	-0,009	0,152
-410,598	55,728	-0,034	-0,024
-409,584	-117,552	0,043	-0,006
-408,569	246,242	0,028	0,034
-407,555	114,061	0,066	-0,059
-406,540	132,965	-0,098	0,093
-405,525	133,869	0,070	0,067
-404,511	-148,060	0,061	-0,004
-403,496	-200,000	0,013	-0,060
-402,482	-200,000	0,017	-0,165
-401,467	216,612	0,123	0,144
-400,452	-31,024	0,051	0,021
-399,438	-200,000	-0,009	0,096
-398,423	212,999	-0,072	0,084
-397,409	-37,932	-0,127	-0,050
-396,394	-120,175	-0,053	-0,007
-395,379	-200,000	-0,003	0,054
-394,365	39,807	-0,111	-0,073
-393,350	107,773	0,058	-0,051
-392,336	718,829	-0,010	-0,020
-391,321	-127,932	0,058	0,006
-390,306	800,000	0,068	0,164
-389,292	-78,019	0,112	-0,028
-388,277	-96,951	-0,140	-0,027
-387,263	287,290	0,065	0,086
-386,248	-36,478	-0,024	-0,009
-385,233	190,382	0,084	-0,093
-384,219	496,007	-0,046	0,078
-383,204	800,000	-0,044	-0,117
-382,190	-98,606	0,136	0,025
-381,175	266,367	0,025	-0,032
-380,160	-200,000	0,027	0,135
-379,146	548,058	-0,073	0,128
-378,131	-78,622	0,051	-0,013
-377,117	102,807	-0,059	-0,051
-376,102	463,562	-0,055	-0,091
-375,088	449,437	0,020	0,033
-374,073	-131,075	0,011	-0,001
-373,058	22,493	0,107	0,064
-372,044	-200,000	-0,008	-0,115
-371,029	69,633	0,054	0,041
-370,015	800,000	0,003	0,009
-369,000	327,591	0,058	0,081
-367,985	-92,173	0,106	-0,022
-366,971	136,245	0,041	-0,039
-365,956	162,524	0,082	-0,085
-364,942	796,386	-0,008	-0,017
-363,927	466,197	0,042	-0,070
-362,912	800,000	-0,027	0,064
-361,898	175,536	0,076	0,081
-360,883	35,538	-0,048	-0,031
-359,869	-200,000	0,003	-0,020
-358,854	24,382	0,045	0,027
-357,839	-200,000	0,011	0,196
-356,825	128,318	0,018	-0,017
-355,810	800,000	0,018	-0,041
-354,796	144,147	0,085	0,083
-353,781	150,095	0,074	-0,074
-352,766	800,000	-0,007	0,016
-351,752	486,259	-0,080	0,135
-350,737	-200,000	-0,010	-0,093
-349,723	519,602	0,039	0,068
-348,708	-106,128	-0,115	-0,019
-347,693	-200,000	0,014	0,057
-346,679	639,893	-0,040	-0,075
-345,664	446,036	0,082	0,132
-344,650	696,624	0,078	0,151
-343,635	249,185	-0,043	0,053
-342,620	166,257	0,060	0,062
-341,606	-83,834	0,093	-0,022
-340,591	-200,000	-0,004	0,118
-339,577	-97,373	-0,074	0,014
-338,562	800,000	-0,041	0,117
-337,548	-200,000	0,000	-0,055
-336,533	-32,650	-0,073	-0,030
-335,518	25,216	0,027	0,017
-334,504	-24,882	-0,095	0,041
-333,489	-200,000	0,008	0,044
-332,475	-24,679	-0,117	0,051
-331,460	580,912	0,018	0,033
-330,445	244,814	0,039	-0,048
-329,431	-200,000	-0,003	-0,055
-328,416	-200,000	0,006	0,208
-327,402	-200,000	0,011	-0,055
-326,387	-200,000	0,037	0,141
-325,372	35,348	-0,057	-0,036
-324,358	800,000	-0,038	-0,079
-323,343	342,423	0,032	0,046
-322,329	-17,421	0,062	-0,029
-321,314	-200,000	0,006	0,086
-320,299	179,464	0,058	0,063
-319,285	-156,645	0,059	0,003
-318,270	-200,000	-0,009	0,045
-317,256	-142,655	-0,090	-0,006
-316,241	-200,000	-0,003	-0,035
-315,226	-200,000	0,041	0,142
-314,212	-12,323	0,112	0,054
-313,197	345,951	-0,049	0,071
-312,183	-200,000	-0,026	0,131
-311,168	800,000	0,010	-0,020
-310,153	88,556	0,111	-0,090
-309,139	139,639	-0,087	-0,084
-308,124	148,372	-0,041	0,040
-307,110	-200,000	-0,012	-0,087
-306,095	-54,164	-0,107	-0,035
-305,080	115,894	0,038	0,034
-304,066	-200,000	-0,012	-0,121
-303,051	46,888	-0,043	-0,030
-302,037	-144,972	-0,132	-0,009
-301,022	120,810	-0,034	0,031
-300,008	245,882	0,071	0,088
-298,993	-200,000	0,054	0,202
-297,978	-111,268	0,054	0,008
-296,964	454,901	-0,085	-0,138
-295,949	304,753	-0,079	-0,107
-294,935	126,222	-0,142	-0,131
-293,920	-157,680	0,122	-0,005
-292,905	-53,577	0,082	-0,027
-291,891	123,228	0,029	-0,027
-290,876	800,000	-0,033	0,081
-289,862	335,299	-0,083	0,118
-288,847	-85,635	0,054	0,012
-287,832	136,840	-0,072	-0,069
-286,818	394,669	0,008	0,013
-285,803	-98,546	-0,123	-0,023
-284,789	507,690	-0,090	0,154
-283,774	-148,195	0,114	0,007
-282,759	126,015	0,017	-0,016
-281,745	-160,569	0,128	-0,005
-280,730	-25,365	0,052	-0,023
-279,716	-200,000	-0,004	0,070
-278,701	800,000	0,064	0,145
-277,686	5,608	0,035	-0,019
-276,672	74,341	-0,087	-0,066
-275,657	-178,112	0,189	0,003
-274,643	585,472	-0,016	0,028
-273,628	-200,000	-0,018	0,099
-272,613	180,345	-0,012	-0,012
-271,599	593,699	0,065	0,119
-270,584	-142,782	0,127	-0,009
-269,570	-91,890	-0,034	-0,007
-268,555	-123,194	-0,087	-0,010
-267,540	321,546	0,036	-0,051
-266,526	6,930	0,024	-0,013
-265,511	800,000	0,039	-0,091
-264,497	-31,097	0,010	0,004
-263,482	-89,645	0,171	0,036
-262,467	322,723	0,083	-0,115
-261,453	536,998	0,069	-0,121
-260,438	568,183	-0,053	0,095
-259,424	800,000	-0,045	-0,122
-258,409	331,073	-0,038	-0,053
-257,395	145,198	0,061	0,060
-256,380	-150,766	0,115	0,006
-255,365	-46,796	0,055	0,019
-254,351	184,318	0,076	-0,083
-253,336	102,928	0,076	0,065
-252,322	354,615	-0,002	-0,003
-251,307	329,316	-0,003	-0,004
-250,292	7,985	0,033	-0,018
-249,278	680,325	0,056	0,106
-248,263	41,687	0,035	-0,023
-247,249	-200,000	-0,025	-0,109
-246,234	-49,336	-0,081	-0,028
-245,219	800,000	0,010	0,031
-244,205	-200,000	-0,001	-0,039
-243,190	-60,006	-0,090	0,028
-242,176	709,907	0,047	0,091
-241,161	-200,000	0,003	0,143
-240,146	-91,857	-0,133	-0,027
-239,132	736,064	-0,015	-0,029
-238,117	-113,336	0,123	-0,017
-237,103	-200,000	0,023	-0,128
-236,088	745,831	-0,080	-0,158
-235,073	-200,000	0,001	0,051
-234,059	573,195	0,013	-0,024
-233,044	-200,000	-0,030	0,114
-232,030	250,403	-0,035	0,043
-231,015	162,431	0,060	-0,061
-230,000	-200,000	0,010	-0,068
-228,986	-200,000	-0,019	0,069
-227,971	229,211	0,049	-0,058
-226,957	-31,773	0,076	0,031
-225,942	-112,478	-0,162	0,023
-224,927	41,800	-0,008	0,005
-223,913	800,000	-0,002	0,005
-222,898	112,641	-0,085	-0,075
-221,884	254,588	0,050	-0,062
-220,869	794,575	0,052	-0,104
-219,855	65,406	0,126	-0,093
-218,840	-9,171	0,078	-0,038
-217,825	595,451	-0,056	0,101
-216,811	-200,000	0,012	-0,089
-215,796	-19,868	-0,060	0,027
-214,782	459,386	0,032	0,052
-213,767	354,851	0,056	0,081
-212,752	60,718	-0,026	0,019
-211,738	800,000	-0,010	0,023
-210,723	-101,235	0,083	-0,015
-209,709	800,000	-0,050	-0,114
-208,694	-27,504	-0,049	-0,021
-207,679	16,855	0,143	-0,083
-206,665	-200,000	0,011	0,042
-205,650	169,868	-0,026	0,027
-204,636	-21,663	0,135	0,060
-203,621	-200,000	-0,012	0,045
-202,606	-200,000	-0,010	0,043
-201,592	153,162	-0,114	0,114
-200,577	689,803	-0,039	-0,074
-199,563	246,613	-0,031	0,039
-198,548	-71,899	0,102	0,027
-197,533	67,349	0,049	-0,037
-196,519	792,484	0,023	-0,046
-195,504	95,849	0,092	0,077
-194,490	655,900	-0,048	-0,090
-193,475	-200,000	-0,015	-0,118
-192,460	-68,393	0,032	0,009
-191,446	596,448	0,053	0,096
-190,431	-200,000	-0,021	0,113
-189,417	800,000	-0,023	-0,061
-188,402	58,919	-0,176	-0,126
-187,387	114,314	-0,103	-0,091
-186,373	-200,000	0,008	0,032
-185,358	-189,327	-0,100	-0,001
-184,344	-200,000	0,025	-0,091
-183,329	-101,748	-0,038	-0,007
-182,315	732,695	0,047	0,091
-181,300	-52,400	-0,059	-0,020
-180,285	240,202	0,037	-0,045
-179,271	175,878	0,106	-0,112
-178,256	-200,000	0,010	0,048
-177,242	292,981	-0,030	0,040
-176,227	800,000	0,031	0,088
-175,212	-15,717	0,094	-0,044
-174,198	451,698	-0,040	-0,065
-173,183	-48,093	0,055	0,019
-172,169	-81,434	0,119	-0,028
-171,154	73,066	0,062	-0,047
-170,139	-200,000	-0,019	-0,090
-169,125	62,315	-0,054	-0,039
-168,110	103,886	-0,162	-0,138
-167,096	54,733	0,072	-0,051
-166,081	280,100	-0,027	-0,035
-165,066	-200,000	-0,014	0,064
-164,052	-200,000	-0,004	-0,055
-163,037	-119,806	-0,058	-0,007
-162,023	-36,540	0,101	-0,039
-161,008	416,191	-0,066	-0,102
-159,993	-142,018	0,040	0,003
-158,979	-102,080	0,073	-0,013
-157,964	-200,000	0,004	-0,160
-156,950	-21,834	-0,060	-0,026
-155,935	-200,000	0,021	-0,143
-154,920	619,944	-0,009	-0,017
-153,906	800,000	0,061	0,173
-152,891	-95,559	-0,033	-0,006
-151,877	122,993	-0,088	-0,080
-150,862	368,557	-0,026	0,039
-149,847	-74,577	-0,057	0,015
-148,833	202,852	0,086	-0,097
-147,818	68,675	0,052	0,039
-146,804	7,851	-0,093	0,051
-145,789	425,741	-0,026	-0,041
-144,775	800,000	-0,042	-0,095
-143,760	-200,000	-0,013	-0,063
-142,745	147,281	-0,049	-0,048
-141,731	-81,170	0,127	-0,030
-140,716	-53,240	-0,046	0,015
-139,702	113,705	0,041	-0,036
-138,687	56,342	-0,159	0,112
-137,672	-33,382	-0,088	-0,035
-136,658	-67,746	-0,121	0,034
-135,643	-101,033	-0,088	-0,016
-134,629	-200,000	0,012	-0,102
-133,614	-200,000	0,005	-0,017
-132,599	189,831	0,087	0,095
-131,585	-200,000	-0,026	-0,176
-130,570	258,053	0,082	-0,103
-129,556	-200,000	-0,028	-0,167
-128,541	623,814	-0,070	-0,130
-127,526	-200,000	-0,002	0,069
-126,512	-3,535	-0,035	-0,017
-125,497	-200,000	-0,012	-0,068
-124,483	-199,680	0,039	0,000
-123,468	-169,050	0,075	0,002
-122,453	800,000	-0,043	-0,098
-121,439	537,977	-0,034	0,060
-120,424	-200,000	-0,002	0,126
-119,410	800,000	-0,009	-0,026
-118,395	800,000	-0,052	-0,152
-117,380	207,694	0,039	-0,044
-116,366	-200,000	-0,023	-0,076
-115,351	20,213	-0,044	0,026
-114,337	-200,000	-0,016	-0,145
-113,322	-200,000	0,001	-0,041
-112,307	800,000	0,026	0,078
-111,293	-200,000	0,047	0,228
-110,278	800,000	0,084	0,188
-109,264	-148,204	-0,023	0,001
-108,249	649,319	0,056	0,104
-107,234	-154,341	-0,098	0,005
-106,220	224,079	0,073	-0,085
-105,205	326,697	0,069	-0,097
-104,191	-200,000	-0,014	0,053
-103,176	434,617	-0,024	0,038
-102,162	-200,000	0,012	0,121
-101,147	800,000	0,016	0,044
-100,132	-72,703	-0,123	-0,033
-99,118	769,244	-0,028	0,056
-98,103	-22,412	0,110	-0,048
-97,089	-55,322	0,068	-0,022
-96,074	800,000	-0,005	-0,010
-95,059	-30,571	0,084	0,034
-94,045	-200,000	0,012	-0,094
-93,030	207,884	0,065	-0,074
-92,016	736,115	-0,056	0,110
-91,001	52,498	0,111	0,077
-89,986	800,000	-0,030	0,068
-88,972	10,427	0,068	0,037
-87,957	431,212	-0,075	0,119
-86,943	33,219	0,044	-0,028
-85,928	-175,620	0,133	-0,003
-84,913	87,385	-0,066	0,053
-83,899	-59,618	0,022	-0,007
-82,884	688,267	0,028	-0,053
-81,870	-200,000	0,004	-0,018
-80,855	-167,596	0,101	0,003
-79,840	176,590	-0,016	0,017
-78,826	476,939	-0,024	-0,040
-77,811	749,614	-0,047	0,092
-76,797	-200,000	-0,023	-0,140
-75,782	1,699	0,018	-0,009
-74,767	-128,147	0,100	-0,010
-73,753	659,060	-0,002	0,003
-72,738	-200,000	0,011	0,142
-71,724	391,072	0,008	0,012
-70,709	254,771	0,075	0,093
-69,694	798,235	0,031	-0,062
-68,680	-3,831	0,116	-0,058
-67,665	81,850	-0,031	-0,024
-66,651	-69,764	0,094	-0,026
-65,636	305,322	-0,081	0,109
-64,622	36,130	0,112	-0,071
-63,607	275,231	-0,012	-0,015
-62,592	84,447	-0,057	0,045
-61,578	649,972	0,015	0,029
-60,563	421,644	0,041	0,064
-59,549	-140,250	0,150	0,011
-58,534	-165,205	-1,287	-0,040
-57,519	563,564	-0,806	-1,421
-56,505	-200,000	-0,811	-4,471
-55,490	42,930	0,582	-0,384
-54,476	800,000	4,886	11,738
-53,461	-200,000	13,531	252,713
-52,446	-200,000	689,492	2255,466
-51,432	587,762	1622,371	2909,013
-50,417	119,477	1634,871	1467,961
-49,403	73,174	1288,814	976,294
-48,388	38,080	1023,904	659,243
-47,373	24,334	981,600	586,836
-46,359	23,521	971,328	578,007
-45,344	22,557	967,005	572,265
-44,330	22,474	965,733	571,220
-43,315	22,440	964,204	570,180
-42,300	22,396	963,155	569,395
-41,286	22,422	961,984	568,764
-40,271	22,319	961,286	567,996
-39,257	22,292	960,434	567,381
-38,242	22,373	959,315	566,960
-37,227	22,342	958,500	566,355
-36,213	22,376	957,639	565,934
-35,198	22,247	956,743	564,965
-34,184	22,432	956,130	565,178
-33,169	22,316	955,186	564,222
-32,154	22,407	954,258	563,946
-31,140	22,354	953,364	563,224
-30,125	22,353	952,729	562,824
-29,111	22,398	952,049	562,544
-28,096	22,374	951,245	561,970
-27,082	22,353	950,455	561,414
-26,067	22,374	949,765	561,051
-25,052	22,408	948,971	560,671
-24,038	22,326	948,535	560,128
-23,023	22,353	947,674	559,683
-22,009	22,416	947,047	559,492
-20,994	22,413	946,430	559,096
-19,979	22,430	945,839	558,778
-18,965	22,414	945,252	558,359
-17,950	22,417	944,636	557,982
-16,936	22,318	943,895	557,208
-15,921	22,344	943,260	556,891
-14,906	22,254	942,634	556,214
-13,892	22,254	941,962	555,797
-12,877	22,258	941,343	555,420
-11,863	22,234	940,629	554,900
-10,848	22,268	940,145	554,703
-9,833	22,369	939,487	554,613
-8,819	22,384	938,959	554,325
-7,804	22,272	938,231	553,518
-6,790	22,242	937,783	553,138
-5,775	22,272	937,225	552,882
-4,760	22,217	936,626	552,333
-3,746	22,221	935,994	551,952
-2,731	22,137	935,341	551,280
-1,717	22,068	934,732	550,680
-0,702	22,092	933,904	550,247
0,313	21,879	933,283	550,038
1,327	25,018	931,364	558,726
2,342	34,574	795,798	502,830
3,356	32,572	451,177	282,042
4,371	1,616	293,225	152,488
5,386	-2,838	274,037	138,294
6,400	-4,149	268,461	134,254
7,415	-4,434	265,995	132,748
8,429	-4,143	264,762	132,387
9,444	-4,125	263,916	131,968
10,459	-4,117	263,256	131,634
11,473	-4,161	262,754	131,331
12,488	-4,279	262,071	130,871
13,502	-4,500	261,611	130,431
14,517	-4,615	261,319	130,170
15,531	-4,461	260,828	130,053
16,546	-4,564	260,561	129,815
17,561	-4,414	260,092	129,704
18,575	-4,322	259,781	129,620
19,590	-4,541	259,444	129,244
20,604	-4,694	259,357	129,053
21,619	-4,609	258,816	128,848
22,634	-4,551	258,454	128,708
23,648	-4,689	258,367	128,530
24,663	-4,600	258,020	128,425
25,677	-4,532	257,757	128,343
26,692	-4,471	257,302	128,159
27,707	-4,445	257,304	128,172
28,721	-4,600	257,001	127,872
29,736	-4,591	256,704	127,721
30,750	-4,604	256,462	127,578
31,765	-4,497	256,119	127,490
32,780	-4,586	255,914	127,298
33,794	-4,626	255,702	127,146
34,809	-4,758	255,472	126,904
35,823	-4,701	255,297	126,856
36,838	-4,893	255,163	126,610
37,853	-4,740	254,862	126,584
38,867	-4,834	254,631	126,375
39,882	-4,838	254,457	126,273
40,896	-4,518	254,073	126,351
41,911	-4,757	253,796	125,994
42,926	-4,743	253,706	125,950
43,940	-4,712	253,355	125,792
44,955	-4,532	253,047	125,784
45,969	-4,668	252,947	125,606
46,984	-5,043	252,772	125,181
47,999	-5,237	252,466	124,850
49,013	-5,213	252,155	124,706
50,028	-5,292	251,853	124,477
51,042	-5,466	251,763	124,271
52,057	-5,200	251,365	124,293
53,071	-5,239	251,227	124,180
54,086	-5,366	251,118	124,006
55,101	-5,064	250,931	124,162
56,115	-4,981	250,997	124,255
57,130	-4,650	250,757	124,411
58,144	-4,489	250,761	124,541
59,159	-4,405	250,402	124,424
60,174	-4,418	250,186	124,294
61,188	-4,591	250,123	124,103
62,203	-4,512	249,751	123,975
63,217	-4,637	249,420	123,693
64,232	-4,664	249,421	123,659
65,247	-4,596	249,232	123,612
66,261	-4,518	248,906	123,506
67,276	-4,740	248,634	123,171
68,290	-4,951	248,305	122,818
69,305	-4,883	248,114	122,770
70,320	-5,112	247,982	122,498
71,334	-4,784	247,807	122,680
72,349	-4,494	247,693	122,859
73,363	-4,468	247,550	122,799
74,378	-4,619	247,377	122,575
75,393	-4,599	247,051	122,419
76,407	-4,581	247,047	122,421
77,422	-4,659	246,869	122,256
78,436	-4,543	246,520	122,171
79,451	-4,526	246,296	122,063
80,466	-4,574	246,026	121,878
81,480	-4,651	245,867	121,724
82,495	-4,672	245,578	121,552
83,509	-4,633	245,496	121,533
84,524	-4,669	245,265	121,378
85,539	-4,971	245,082	121,023
86,553	-4,941	244,814	120,905
87,568	-4,703	244,654	121,014
88,582	-4,741	244,415	120,853
89,597	-4,886	244,252	120,641
90,611	-4,650	244,164	120,784
91,626	-4,681	244,092	120,712
92,641	-4,707	243,943	120,606
93,655	-4,661	243,624	120,475
94,670	-4,616	243,429	120,406
95,684	-4,840	243,218	120,104
96,699	-4,755	243,162	120,136
97,714	-4,671	242,915	120,073
98,728	-4,691	242,684	119,932
99,743	-4,812	242,467	119,713
100,757	-5,029	242,196	119,389
101,772	-4,992	242,175	119,399
102,787	-4,910	241,848	119,295
103,801	-4,755	241,738	119,358
104,816	-4,689	241,710	119,388
105,830	-4,498	241,437	119,401
106,845	-4,588	241,420	119,307
107,860	-4,578	241,206	119,199
108,874	-4,739	240,951	118,930
109,889	-4,895	240,801	118,717
110,903	-4,819	240,640	118,689
111,918	-4,713	240,521	118,707
112,933	-4,607	240,185	118,618
113,947	-4,822	240,070	118,374
114,962	-4,689	240,016	118,446
115,976	-4,456	239,614	118,428
116,991	-4,635	239,487	118,208
118,006	-4,559	239,350	118,192
119,020	-4,696	239,280	118,035
120,035	-4,427	239,171	118,191
121,049	-4,507	239,016	118,038
122,064	-4,525	238,716	117,864
123,079	-4,403	238,511	117,852
124,093	-4,489	238,419	117,726
125,108	-4,793	238,017	117,270
126,122	-5,042	237,919	117,009
127,137	-5,378	237,809	116,671
128,151	-5,065	237,544	116,785
129,166	-4,894	237,423	116,853
130,181	-4,725	237,242	116,891
131,195	-4,870	236,937	116,613
132,210	-4,817	236,843	116,599
133,224	-4,746	236,831	116,640
134,239	-4,521	236,675	116,735
135,254	-4,464	236,506	116,687
136,268	-4,728	236,224	116,325
137,283	-5,001	235,988	115,979
138,297	-5,018	235,829	115,876
139,312	-4,984	235,504	115,733
140,327	-4,612	235,602	116,070
141,341	-4,371	235,445	116,176
142,356	-4,188	235,334	116,258
143,370	-4,251	235,294	116,177
144,385	-4,326	235,176	116,048
145,400	-4,120	234,973	116,103
146,414	-4,184	234,625	115,869
147,429	-4,387	234,608	115,688
148,443	-4,283	234,337	115,627
149,458	-4,363	234,212	115,491
150,473	-4,307	234,042	115,442
151,487	-4,458	233,722	115,153
152,502	-4,374	233,618	115,159
153,516	-4,344	233,492	115,111
154,531	-4,442	233,320	114,938
155,546	-4,269	233,294	115,051
156,560	-4,567	233,070	114,695
157,575	-4,574	232,898	114,594
158,589	-4,336	232,652	114,652
159,604	-4,179	232,458	114,671
160,619	-4,183	232,421	114,638
161,633	-4,283	232,249	114,464
162,648	-4,144	232,013	114,448
163,662	-4,163	231,920	114,376
164,677	-4,320	231,770	114,168
165,692	-4,246	231,579	114,122
166,706	-4,160	231,483	114,133
167,721	-4,224	231,409	114,036
168,735	-4,128	231,092	113,945
169,750	-4,169	231,087	113,900
170,764	-4,425	230,965	113,628
171,779	-4,182	230,672	113,665
172,794	-4,145	230,648	113,672
173,808	-4,320	230,370	113,387
174,823	-4,969	230,108	112,741
175,837	-4,874	229,931	112,719
176,852	-4,479	229,937	113,020
177,867	-4,240	229,745	113,102
178,881	-4,302	229,576	112,961
179,896	-4,179	229,385	112,952
180,910	-3,993	229,224	113,007
181,925	-4,269	229,189	112,766
182,940	-4,102	228,928	112,757
183,954	-4,058	228,808	112,722
184,969	-4,035	228,759	112,705
185,983	-4,089	228,676	112,613
186,998	-4,269	228,461	112,357
188,013	-4,026	228,163	112,389
189,027	-4,131	228,248	112,340
190,042	-3,937	228,029	112,372
191,056	-4,249	227,934	112,074
192,071	-4,291	227,792	111,961
193,086	-4,113	227,516	111,953
194,100	-4,120	227,396	111,878
195,115	-4,317	227,139	111,591
196,129	-4,839	226,795	111,010
197,144	-2,598	227,529	113,088
198,159	0,648	228,473	116,059
199,173	3,530	229,272	118,686
200,188	4,236	229,113	119,140
201,202	4,062	229,018	118,946
202,217	4,171	228,915	118,965
203,232	4,417	228,856	119,114
204,246	4,576	228,711	119,151
205,261	4,719	228,463	119,121
206,275	4,869	228,426	119,207
207,290	4,710	228,402	119,061
208,304	4,924	228,031	119,022
209,319	4,768	227,938	118,842
210,334	4,546	227,782	118,580
211,348	4,586	227,505	118,456
212,363	3,981	227,343	117,898
213,377	3,734	227,107	117,576
214,392	3,746	226,859	117,445
215,407	3,929	226,805	117,547
216,421	4,095	226,600	117,557
217,436	4,042	226,428	117,417
218,450	3,848	226,209	117,145
219,465	3,674	226,057	116,923
220,480	3,768	225,915	116,911
221,494	3,946	225,734	116,943
222,509	3,875	225,803	116,914
223,523	3,989	225,526	116,846
224,538	3,660	225,356	116,499
225,553	3,843	225,278	116,586
226,567	3,902	225,138	116,548
227,582	4,050	225,099	116,630
228,596	4,311	224,951	116,740
229,611	3,999	224,821	116,427
230,626	3,513	224,554	115,910
231,640	3,516	224,393	115,819
232,655	4,053	224,357	116,196
233,669	4,470	224,460	116,554
234,684	4,580	224,091	116,434
235,699	4,319	223,890	116,123
236,713	4,152	223,713	115,896
237,728	4,012	223,462	115,650
238,742	3,779	223,199	115,329
239,757	3,851	223,260	115,404
240,772	3,977	222,976	115,341
241,786	3,843	222,881	115,182
242,801	4,080	222,878	115,347
243,815	4,348	222,814	115,504
244,830	4,259	222,656	115,346
245,844	4,096	222,386	115,074
246,859	4,004	222,238	114,918
247,874	4,166	222,236	115,027
248,888	4,099	222,003	114,847
249,903	4,021	221,797	114,672
250,917	3,953	221,617	114,518
251,932	3,974	221,383	114,403
252,947	3,874	221,253	114,251
253,961	3,652	221,306	114,102
254,976	3,684	221,022	113,970
255,990	3,958	220,867	114,084
257,005	4,111	220,898	114,202
258,020	4,000	220,737	114,027
259,034	4,244	220,642	114,149
260,049	4,127	220,478	113,967
261,063	4,292	220,274	113,973
262,078	4,249	220,174	113,879
263,093	4,301	220,013	113,825
264,107	4,156	219,860	113,628
265,122	4,020	219,790	113,482
266,136	4,129	219,693	113,501
267,151	4,489	219,544	113,680
268,166	4,036	219,319	113,220
269,180	3,707	219,051	112,830
270,195	3,822	218,820	112,785
271,209	3,905	218,722	112,786
272,224	3,888	218,691	112,747
273,239	4,088	218,552	112,812
274,253	3,776	218,396	112,493
275,268	3,784	218,137	112,355
276,282	3,578	217,981	112,115
277,297	3,467	217,945	112,004
278,312	3,665	217,860	112,096
279,326	3,850	217,727	112,152
280,341	3,906	217,542	112,088
281,355	4,007	217,401	112,078
282,370	3,637	217,422	111,810
283,384	3,653	216,957	111,572
284,399	3,567	216,910	111,476
285,414	3,725	216,747	111,497
286,428	3,777	216,669	111,484
287,443	3,929	216,560	111,529
288,457	3,988	216,537	111,550
289,472	3,970	216,283	111,396
290,487	3,571	216,008	110,955
291,501	3,462	215,781	110,750
292,516	3,633	215,733	110,840
293,530	3,679	215,605	110,797
294,545	3,572	215,414	110,612
295,560	3,680	215,347	110,645
296,574	3,663	215,339	110,619
297,589	3,663	215,195	110,535
298,603	3,895	215,061	110,624
299,618	3,926	214,917	110,561
300,633	3,874	214,800	110,454
301,647	4,058	214,735	110,543
302,662	4,144	214,563	110,506
303,676	4,172	214,405	110,435
304,691	4,179	214,260	110,356
305,706	4,132	214,322	110,345
306,720	4,342	213,947	110,291
307,735	3,770	213,888	109,843
308,749	3,776	213,710	109,745
309,764	4,067	213,556	109,865
310,779	4,141	213,486	109,871
311,793	4,366	213,192	109,870
312,808	4,107	213,187	109,674
313,822	4,040	213,012	109,526
314,837	3,950	212,890	109,390
315,852	3,533	212,643	108,957
316,866	3,942	212,449	109,138
317,881	4,255	212,464	109,358
318,895	4,026	212,314	109,109
319,910	3,750	212,156	108,822
320,925	3,566	211,918	108,560
321,939	3,319	211,786	108,308
322,954	3,549	211,726	108,430
323,968	4,073	211,556	108,704
324,983	4,281	211,518	108,821
325,997	4,383	211,274	108,758
327,012	3,991	211,063	108,363
328,027	3,857	211,123	108,290
329,041	4,232	211,044	108,505
330,056	4,335	211,020	108,555
331,070	3,947	210,694	108,105
332,085	3,767	210,491	107,864
333,100	3,785	210,429	107,836
334,114	4,012	210,221	107,878
335,129	3,744	210,197	107,669
336,143	3,650	210,070	107,528
337,158	3,951	209,877	107,631
338,173	3,879	209,698	107,479
339,187	3,578	209,663	107,241
340,202	3,668	209,422	107,171
341,216	3,606	209,202	107,005
342,231	3,494	209,351	106,994
343,246	3,588	209,015	106,879
344,260	3,795	209,033	107,023
345,275	3,843	208,782	106,917
346,289	4,131	208,589	107,009
347,304	4,047	208,555	106,924
348,319	4,145	208,429	106,918
349,333	4,003	208,302	106,745
350,348	3,930	208,078	106,569
351,362	4,020	208,151	106,660
352,377	4,086	208,013	106,626
353,392	3,730	207,788	106,255
354,406	3,766	207,713	106,231
355,421	193,382	1346,729	1432,941
356,435	154,250	1485,604	1433,064
