DTS Sentinel unit serial number:	SN410029Multiplexer serial number:	ORYXHardware model number:	OX2-SRSoftware version number:	ORYX F/W v4,00 Oryx Data Collector v3.7.2.0data status	okinstallation	B6 Nyhavnadifferential loss correction	single-endedforward channel	channel 2reverse channel	N/Adate	2023/12/10time	12:00:08forward acquisition time	300,00reverse acquisition time	0,00gamma	499,1914k internal	0,3123k external	0,3123temperature offset calibration	1,0000default loss term (dB/km)	0,3820temperature slope calibration	1,0000multiplexer offset coefficient	1,0000multiplexer slope coefficient	1,0000fibre end	0,00T internal ref (°C)	22,75T ext. ref 1 (°C)	6,65T ext. ref 2 (°C)	6,66length (m)	temperature (°C)	Stokes	anti-Stokes-744,400	-200,000	0,009	-0,057
-743,385	-86,758	-0,142	-0,032
-742,371	-5,089	0,064	-0,033
-741,356	-200,000	-0,007	0,187
-740,342	64,163	-0,058	0,044
-739,327	-15,645	-0,247	0,117
-738,312	-80,536	0,101	-0,025
-737,298	-4,245	-0,173	0,089
-736,283	-14,966	-0,031	-0,015
-735,269	-6,598	-0,192	0,097
-734,254	287,259	-0,065	-0,087
-733,239	-142,818	-0,463	-0,033
-732,225	13,697	0,069	0,040
-731,210	28,798	0,040	-0,025
-730,196	-32,558	-0,031	0,013
-729,181	358,265	-0,035	-0,052
-728,167	27,120	-0,042	-0,026
-727,152	292,093	0,068	-0,093
-726,137	-144,201	-0,108	0,007
-725,123	-142,523	-0,072	0,005
-724,108	-119,787	-0,161	-0,020
-723,094	-112,285	-0,090	0,013
-722,079	800,000	0,036	-0,105
-721,064	-38,591	0,088	0,035
-720,050	1,755	-0,084	-0,045
-719,035	-200,000	-0,025	-0,082
-718,021	676,785	0,053	-0,103
-717,006	19,574	-0,063	-0,038
-715,991	10,023	-0,132	-0,074
-714,977	-123,282	0,125	-0,015
-713,962	-200,000	0,004	0,031
-712,948	-44,130	-0,048	0,018
-711,933	-124,985	-0,113	-0,013
-710,918	364,024	0,037	-0,056
-709,904	278,509	-0,113	-0,151
-708,889	-200,000	-0,011	-0,048
-707,875	137,172	-0,105	0,102
-706,860	-38,925	0,060	-0,023
-705,845	800,000	0,052	-0,110
-704,831	-200,000	0,013	0,076
-703,816	69,442	-0,026	-0,020
-702,802	152,905	0,050	-0,051
-701,787	-200,000	-0,002	0,060
-700,772	-200,000	-0,002	0,049
-699,758	-200,000	0,024	0,102
-698,743	-200,000	0,018	0,085
-697,729	139,869	0,076	-0,074
-696,714	-103,301	0,042	-0,007
-695,699	-200,000	-0,017	-0,197
-694,685	-152,768	-0,251	0,013
-693,670	13,525	0,140	-0,081
-692,656	-17,348	-0,077	0,036
-691,641	-200,000	-0,025	0,088
-690,627	-139,770	-0,129	-0,010
-689,612	-142,615	0,096	-0,007
-688,597	-200,000	-0,003	0,168
-687,583	86,464	-0,019	-0,016
-686,568	742,685	0,014	0,029
-685,554	232,309	0,040	-0,048
-684,539	800,000	0,024	0,064
-683,524	-56,386	-0,056	-0,018
-682,510	-85,437	-0,095	0,022
-681,495	800,000	0,016	-0,047
-680,481	659,295	0,060	-0,116
-679,466	164,368	0,043	0,045
-678,451	-200,000	0,006	0,049
-677,437	8,368	-0,120	-0,067
-676,422	800,000	-0,031	-0,079
-675,408	532,652	-0,059	0,104
-674,393	-32,783	0,061	0,025
-673,378	379,771	-0,053	0,081
-672,364	-127,661	-0,130	0,014
-671,349	800,000	-0,047	-0,135
-670,335	-34,125	0,067	0,027
-669,320	67,330	-0,012	0,009
-668,305	426,914	-0,036	0,058
-667,291	49,842	-0,138	0,096
-666,276	-20,819	0,058	-0,026
-665,262	-200,000	-0,005	-0,136
-664,247	-85,775	-0,082	0,019
-663,232	695,997	0,040	0,078
-662,218	206,345	0,026	0,030
-661,203	-200,000	-0,047	0,169
-660,189	70,263	-0,068	0,052
-659,174	-200,000	0,026	-0,120
-658,159	-56,737	0,111	0,036
-657,145	300,430	-0,085	-0,117
-656,130	158,152	0,054	-0,056
-655,116	6,110	0,093	0,051
-654,101	-156,947	-0,086	0,004
-653,086	300,220	-0,040	-0,055
-652,072	-165,706	-0,088	0,003
-651,057	-92,106	-0,097	-0,020
-650,043	-10,391	0,093	-0,046
-649,028	91,935	-0,026	-0,022
-648,014	157,206	-0,045	0,046
-646,999	159,009	0,099	0,103
-645,984	-189,618	0,165	0,001
-644,970	-200,000	0,004	0,028
-643,955	178,217	-0,071	-0,077
-642,941	-89,662	-0,082	-0,018
-641,926	-200,000	0,006	-0,042
-640,911	74,256	0,016	0,012
-639,897	-47,722	0,013	-0,005
-638,882	10,062	0,024	0,013
-637,868	786,498	-0,072	-0,147
-636,853	-200,000	0,006	0,093
-635,838	38,742	0,067	-0,044
-634,824	-200,000	-0,005	-0,103
-633,809	82,217	0,144	-0,116
-632,795	-124,471	-0,161	-0,018
-631,780	51,331	0,116	-0,082
-630,765	446,606	-0,104	-0,171
-629,751	135,622	-0,067	-0,065
-628,736	96,263	-0,019	-0,016
-627,722	537,856	0,054	0,095
-626,707	-200,000	-0,032	0,125
-625,692	61,862	0,091	0,067
-624,678	-9,593	-0,035	-0,017
-623,663	7,438	-0,153	0,085
-622,649	15,793	0,029	-0,017
-621,634	38,453	-0,085	-0,056
-620,619	30,453	-0,066	0,042
-619,605	800,000	-0,049	0,114
-618,590	116,630	-0,050	-0,045
-617,576	-200,000	-0,007	0,165
-616,561	-23,410	-0,149	-0,066
-615,546	18,239	0,107	-0,063
-614,532	-138,843	-0,102	0,008
-613,517	270,223	-0,014	-0,018
-612,503	-200,000	0,001	-0,103
-611,488	215,458	0,051	0,060
-610,474	-40,649	-0,091	0,035
-609,459	-86,594	-0,136	0,031
-608,444	-103,767	-0,225	0,039
-607,430	56,154	-0,034	0,024
-606,415	98,673	-0,020	0,017
-605,401	87,492	0,033	-0,027
-604,386	12,295	0,152	0,087
-603,371	204,630	-0,049	-0,056
-602,357	320,306	-0,065	0,092
-601,342	326,877	0,135	-0,192
-600,328	800,000	-0,042	-0,126
-599,313	-150,582	0,129	0,007
-598,298	-75,066	-0,046	-0,012
-597,284	-54,499	-0,048	-0,016
-596,269	-141,038	-0,097	0,007
-595,255	800,000	0,046	-0,101
-594,240	-105,340	-0,136	-0,023
-593,225	-180,875	-0,168	0,002
-592,211	-100,786	-0,095	0,017
-591,196	298,655	-0,063	0,086
-590,182	-200,000	0,009	0,069
-589,167	-52,429	0,123	0,042
-588,152	258,274	-0,050	0,064
-587,138	-14,598	-0,025	0,012
-586,123	147,792	-0,043	-0,043
-585,109	-200,000	0,007	0,091
-584,094	-27,171	0,119	-0,051
-583,079	-200,000	-0,004	-0,105
-582,065	194,888	0,064	-0,072
-581,050	584,132	0,076	0,139
-580,036	113,245	-0,130	-0,117
-579,021	551,291	-0,056	0,100
-578,006	-200,000	0,016	-0,113
-576,992	-133,799	-0,034	0,003
-575,977	-5,286	-0,093	-0,047
-574,963	62,761	0,030	0,022
-573,948	110,891	0,094	-0,083
-572,934	800,000	0,008	0,021
-571,919	27,060	-0,115	-0,071
-570,904	800,000	0,049	0,117
-569,890	-44,604	-0,103	-0,038
-568,875	-200,000	0,011	0,066
-567,861	-200,000	-0,013	0,046
-566,846	-89,904	0,070	0,015
-565,831	114,131	0,061	-0,055
-564,817	-19,220	0,090	-0,041
-563,802	430,930	-0,068	-0,109
-562,788	-200,000	-0,001	-0,047
-561,773	-167,695	0,055	-0,002
-560,758	47,283	-0,109	0,075
-559,744	16,435	0,114	0,067
-558,729	308,674	-0,047	-0,065
-557,715	-200,000	0,010	0,114
-556,700	33,708	0,020	-0,013
-555,685	-200,000	0,004	-0,118
-554,671	-200,000	-0,018	-0,130
-553,656	800,000	-0,012	0,025
-552,642	-76,068	0,075	0,019
-551,627	800,000	0,020	-0,050
-550,612	-200,000	0,001	-0,069
-549,598	550,383	-0,013	-0,024
-548,583	-200,000	0,000	-0,052
-547,569	216,083	-0,069	0,081
-546,554	-89,922	-0,026	-0,006
-545,539	-200,000	0,000	-0,096
-544,525	138,789	-0,102	0,100
-543,510	-74,038	0,121	0,032
-542,496	178,039	-0,058	-0,063
-541,481	368,986	-0,028	-0,042
-540,466	-200,000	-0,013	-0,180
-539,452	124,125	0,059	0,055
-538,437	-200,000	-0,011	0,131
-537,423	258,263	0,030	-0,038
-536,408	-63,010	-0,040	0,012
-535,393	7,330	-0,169	-0,093
-534,379	165,311	-0,102	-0,106
-533,364	800,000	0,019	0,044
-532,350	129,174	0,017	0,016
-531,335	-13,700	0,102	0,049
-530,321	1,899	0,024	0,012
-529,306	218,440	0,008	-0,010
-528,291	-200,000	-0,004	-0,064
-527,277	800,000	-0,060	-0,130
-526,262	800,000	0,025	-0,075
-525,248	-200,000	-0,041	0,149
-524,233	-200,000	-0,004	-0,037
-523,218	198,755	-0,123	0,139
-522,204	-70,024	-0,044	-0,012
-521,189	-52,651	-0,075	-0,025
-520,175	-113,723	-0,036	0,005
-519,160	263,301	0,068	-0,087
-518,145	-200,000	0,017	0,079
-517,131	-200,000	-0,067	0,257
-516,116	800,000	0,016	-0,035
-515,102	738,700	0,004	-0,009
-514,087	120,486	-0,073	0,067
-513,072	-200,000	0,024	-0,135
-512,058	37,329	-0,124	-0,081
-511,043	476,108	0,067	-0,113
-510,029	-200,000	0,012	0,135
-509,014	252,183	0,092	0,115
-507,999	800,000	0,040	-0,100
-506,985	677,656	0,072	-0,139
-505,970	-71,977	-0,087	0,024
-504,956	-123,867	0,076	-0,009
-503,941	470,986	-0,052	-0,087
-502,926	21,359	0,072	-0,043
-501,912	-28,037	0,071	-0,030
-500,897	-200,000	0,008	0,093
-499,883	-0,562	0,053	0,028
-498,868	-200,000	0,001	0,074
-497,853	-174,486	-0,176	0,004
-496,839	-200,000	0,003	-0,013
-495,824	-200,000	-0,007	0,115
-494,810	50,860	-0,056	0,039
-493,795	-156,451	0,045	0,002
-492,781	-140,760	0,208	0,016
-491,766	175,886	-0,039	-0,042
-490,751	800,000	-0,040	-0,090
-489,737	19,288	-0,062	-0,037
-488,722	-200,000	-0,000	0,013
-487,708	800,000	-0,032	0,092
-486,693	-117,856	-0,097	-0,013
-485,678	-73,446	-0,112	-0,030
-484,664	800,000	-0,027	-0,076
-483,649	-200,000	-0,019	-0,163
-482,635	-200,000	0,003	-0,016
-481,620	800,000	0,037	0,085
-480,605	-133,536	0,112	-0,010
-479,591	-200,000	0,017	0,140
-478,576	-200,000	-0,015	0,095
-477,562	-200,000	0,005	-0,087
-476,547	592,799	0,022	-0,041
-475,532	800,000	0,003	0,007
-474,518	-65,035	0,097	-0,029
-473,503	800,000	-0,019	0,054
-472,489	-120,948	0,047	-0,006
-471,474	-200,000	-0,021	0,080
-470,459	50,467	-0,062	-0,043
-469,445	49,487	-0,058	-0,040
-468,430	-200,000	-0,021	0,075
-467,416	45,904	0,060	-0,041
-466,401	122,485	-0,064	-0,059
-465,386	-200,000	0,036	-0,119
-464,372	800,000	-0,003	0,008
-463,357	800,000	-0,057	0,146
-462,343	-83,429	0,113	0,027
-461,328	800,000	0,011	-0,035
-460,313	-200,000	-0,036	0,183
-459,299	-103,029	-0,040	0,007
-458,284	155,159	-0,020	-0,020
-457,270	514,026	0,070	0,120
-456,255	-200,000	-0,001	0,110
-455,241	-200,000	0,000	-0,032
-454,226	-31,262	0,081	-0,033
-453,211	-200,000	0,012	-0,096
-452,197	-200,000	0,035	0,169
-451,182	149,713	0,089	-0,089
-450,168	-86,186	-0,086	-0,019
-449,153	594,216	-0,046	0,084
-448,138	-200,000	-0,018	-0,150
-447,124	-144,596	-0,079	-0,005
-446,109	-80,056	0,055	0,014
-445,095	-30,456	0,082	0,034
-444,080	-20,630	-0,119	0,054
-443,065	30,442	0,041	-0,026
-442,051	-91,571	-0,111	0,023
-441,036	10,769	-0,029	-0,016
-440,022	-200,000	0,013	-0,064
-439,007	259,267	-0,032	-0,041
-437,992	-200,000	-0,001	-0,062
-436,978	800,000	-0,029	0,070
-435,963	800,000	0,031	-0,065
-434,949	315,918	-0,055	0,077
-433,934	-200,000	-0,005	-0,086
-432,919	0,086	-0,029	0,015
-431,905	-110,203	0,078	-0,012
-430,890	-200,000	-0,011	0,152
-429,876	270,222	-0,064	0,083
-428,861	-180,862	0,043	0,001
-427,846	193,970	-0,097	-0,108
-426,832	377,709	0,045	-0,068
-425,817	800,000	-0,014	-0,033
-424,803	-84,028	-0,067	-0,015
-423,788	173,207	-0,053	0,056
-422,773	37,503	-0,057	-0,037
-421,759	167,431	-0,082	0,085
-420,744	-200,000	0,022	0,072
-419,730	-128,014	0,187	-0,020
-418,715	132,629	-0,006	-0,006
-417,701	62,774	-0,084	0,062
-416,686	-126,020	0,067	-0,007
-415,671	-200,000	0,011	-0,176
-414,657	25,644	0,145	0,089
-413,642	-70,126	-0,029	0,008
-412,628	-55,155	0,205	0,068
-411,613	274,320	-0,028	-0,037
-410,598	-82,136	-0,123	0,029
-409,584	-200,000	-0,004	0,042
-408,569	134,104	0,059	-0,057
-407,555	-200,000	0,018	0,084
-406,540	148,788	0,152	0,152
-405,525	-200,000	0,036	0,155
-404,511	800,000	-0,033	0,070
-403,496	-200,000	0,044	-0,152
-402,482	-37,058	-0,109	-0,043
-401,467	-200,000	0,009	0,058
-400,452	-200,000	0,001	-0,047
-399,438	-200,000	0,019	0,093
-398,423	393,014	-0,073	0,111
-397,409	56,901	0,071	-0,051
-396,394	-200,000	0,006	0,111
-395,379	-200,000	0,029	0,111
-394,365	-200,000	0,010	0,100
-393,350	-125,835	-0,033	0,004
-392,336	127,970	-0,028	-0,026
-391,321	-200,000	0,009	-0,137
-390,306	231,281	-0,074	-0,090
-389,292	-41,869	-0,132	0,050
-388,277	-31,221	0,101	-0,042
-387,263	800,000	0,033	-0,095
-386,248	-200,000	-0,074	0,299
-385,233	-68,287	-0,120	0,034
-384,219	-64,890	0,076	-0,022
-383,204	90,006	-0,013	0,011
-382,190	-200,000	-0,007	0,092
-381,175	800,000	-0,021	0,054
-380,160	800,000	-0,026	0,065
-379,146	-200,000	-0,002	-0,028
-378,131	-112,662	-0,027	0,004
-377,117	81,885	0,084	0,067
-376,102	108,584	0,099	0,087
-375,088	369,214	-0,040	0,060
-374,073	74,887	-0,099	-0,076
-373,058	89,471	0,118	0,097
-372,044	534,306	-0,022	-0,039
-371,029	418,175	0,108	0,169
-370,015	25,925	-0,076	0,046
-369,000	-200,000	-0,002	-0,015
-367,985	63,696	-0,127	0,093
-366,971	-200,000	-0,006	-0,083
-365,956	800,000	-0,039	0,102
-364,942	800,000	-0,087	0,182
-363,927	-200,000	-0,012	0,072
-362,912	104,872	-0,129	0,112
-361,898	30,850	-0,029	-0,018
-360,883	7,254	-0,202	-0,110
-359,869	-109,387	-0,169	0,026
-358,854	386,775	-0,079	0,120
-357,839	800,000	0,047	-0,106
-356,825	82,359	0,087	-0,069
-355,810	-95,966	-0,076	-0,015
-354,796	-164,099	-0,132	-0,004
-353,781	107,732	0,052	-0,045
-352,766	437,813	0,050	-0,080
-351,752	-130,153	0,098	0,010
-350,737	-20,444	0,060	0,027
-349,723	129,905	0,062	0,058
-348,708	124,358	0,085	-0,078
-347,693	187,376	0,060	-0,066
-346,679	265,318	0,069	0,088
-345,664	800,000	-0,021	-0,049
-344,650	800,000	0,028	0,063
-343,635	-22,327	0,054	0,024
-342,620	800,000	0,042	0,090
-341,606	536,381	0,054	0,094
-340,591	-200,000	0,002	-0,149
-339,577	202,031	0,080	-0,091
-338,562	800,000	0,012	-0,038
-337,548	49,338	-0,075	-0,051
-336,533	-200,000	0,000	-0,041
-335,518	-168,912	0,147	0,004
-334,504	-59,826	0,094	-0,029
-333,489	-164,610	0,060	-0,002
-332,475	-200,000	0,003	-0,016
-331,460	-157,682	0,133	0,006
-330,445	422,360	-0,031	-0,048
-329,431	376,681	-0,047	0,070
-328,416	58,433	0,081	-0,058
-327,402	-200,000	0,003	0,034
-326,387	-200,000	-0,007	0,073
-325,372	800,000	-0,037	-0,099
-324,358	181,612	0,049	-0,053
-323,343	15,049	-0,032	-0,018
-322,329	-133,021	0,046	0,004
-321,314	-78,731	-0,071	-0,018
-320,299	-53,456	0,100	-0,033
-319,285	-200,000	-0,124	0,000
-318,270	170,845	0,035	-0,037
-317,256	-5,380	0,083	-0,042
-316,241	-45,293	0,073	-0,026
-315,226	-200,000	-0,018	0,072
-314,212	-182,087	0,174	-0,002
-313,197	-200,000	-0,032	-0,113
-312,183	-200,000	0,020	-0,107
-311,168	800,000	-0,054	0,141
-310,153	-200,000	0,034	0,115
-309,139	-100,749	-0,129	0,023
-308,124	9,639	0,121	-0,067
-307,110	-200,000	-0,029	-0,115
-306,095	-200,000	0,002	0,039
-305,080	23,055	0,168	0,101
-304,066	-130,976	-0,092	0,009
-303,051	-200,000	-0,013	-0,096
-302,037	-192,232	0,075	-0,001
-301,022	69,563	-0,101	-0,076
-300,008	234,261	0,159	0,193
-298,993	428,084	-0,014	0,021
-297,978	-200,000	0,032	0,171
-296,964	213,515	0,018	0,020
-295,949	-64,205	-0,236	-0,070
-294,935	148,251	-0,015	0,014
-293,920	-110,237	0,079	-0,012
-292,905	-19,636	0,082	0,037
-291,891	117,627	0,039	0,035
-290,876	-200,000	-0,006	0,105
-289,862	-153,876	0,073	0,004
-288,847	-147,328	-0,140	-0,009
-287,832	68,233	-0,023	0,017
-286,818	-200,000	0,013	-0,089
-285,803	-200,000	0,009	0,051
-284,789	714,205	0,045	0,087
-283,774	-200,000	-0,020	0,132
-282,759	-200,000	-0,020	0,124
-281,745	-2,949	-0,076	-0,039
-280,730	147,949	-0,159	-0,157
-279,716	388,622	-0,044	-0,067
-278,701	-200,000	0,014	-0,071
-277,686	-43,429	0,172	0,063
-276,672	-200,000	-0,039	0,134
-275,657	-6,305	-0,079	0,039
-274,643	-103,443	0,040	0,007
-273,628	-200,000	0,023	-0,098
-272,613	-107,319	-0,203	0,032
-271,599	63,738	0,037	0,027
-270,584	400,377	-0,035	0,054
-269,570	146,184	0,127	0,125
-268,555	-144,866	0,156	-0,010
-267,540	1,007	-0,048	-0,025
-266,526	-200,000	-0,019	-0,069
-265,511	800,000	-0,008	-0,021
-264,497	72,240	0,045	-0,034
-263,482	-131,812	0,097	0,009
-262,467	-200,000	0,001	0,086
-261,453	-200,000	-0,001	0,011
-260,438	800,000	0,054	-0,123
-259,424	-70,777	0,040	-0,011
-258,409	800,000	0,134	-0,281
-257,395	32,191	0,074	0,047
-256,380	570,775	0,024	-0,042
-255,365	-200,000	-0,002	0,090
-254,351	-200,000	0,000	0,035
-253,336	23,917	-0,092	-0,055
-252,322	-55,518	-0,121	-0,039
-251,307	34,922	0,053	-0,034
-250,292	-200,000	-0,016	-0,100
-249,278	374,890	0,051	0,076
-248,263	21,758	-0,096	-0,057
-247,249	-200,000	-0,025	-0,124
-246,234	800,000	-0,008	-0,018
-245,219	-100,353	0,033	0,006
-244,205	800,000	-0,061	-0,176
-243,190	-200,000	-0,017	-0,202
-242,176	7,523	0,122	-0,066
-241,161	140,497	0,067	-0,064
-240,146	800,000	0,002	0,006
-239,132	800,000	0,011	0,024
-238,117	346,637	-0,064	-0,093
-237,103	32,028	-0,163	-0,103
-236,088	350,546	0,050	-0,072
-235,073	511,895	-0,060	-0,102
-234,059	235,605	0,060	0,072
-233,044	800,000	0,034	0,071
-232,030	268,569	-0,073	-0,093
-231,015	-200,000	0,013	0,116
-230,000	-200,000	-0,032	-0,200
-228,986	569,091	-0,105	-0,188
-227,971	-77,778	0,101	-0,025
-226,957	-21,280	0,052	-0,023
-225,942	33,145	0,046	0,029
-224,927	355,361	0,034	-0,049
-223,913	800,000	0,023	-0,052
-222,898	95,892	0,040	-0,033
-221,884	-84,617	-0,085	0,019
-220,869	59,890	0,115	0,083
-219,855	-30,290	0,155	0,064
-218,840	-178,558	-0,055	0,001
-217,825	800,000	0,019	-0,042
-216,811	-136,244	-0,118	-0,010
-215,796	-75,466	-0,170	0,044
-214,782	-52,951	0,149	-0,050
-213,767	-49,865	0,074	0,026
-212,752	12,112	0,071	0,040
-211,738	800,000	-0,063	0,188
-210,723	-128,793	0,094	0,010
-209,709	64,772	-0,136	0,100
-208,694	-200,000	-0,018	-0,101
-207,679	-200,000	0,011	-0,049
-206,665	41,650	0,054	-0,036
-205,650	800,000	-0,050	0,119
-204,636	800,000	-0,045	0,127
-203,621	-124,572	0,076	-0,009
-202,606	699,073	0,026	-0,050
-201,592	19,912	-0,042	0,025
-200,577	10,393	0,058	0,032
-199,563	94,252	0,052	-0,043
-198,548	-200,000	-0,026	0,159
-197,533	-103,829	0,077	-0,013
-196,519	-200,000	-0,006	0,085
-195,504	-145,811	0,251	0,016
-194,490	-200,000	0,008	-0,060
-193,475	39,198	0,126	-0,082
-192,460	-200,000	0,021	0,070
-191,446	-78,134	0,079	0,020
-190,431	417,865	0,062	0,097
-189,417	-157,662	0,015	0,001
-188,402	-45,335	0,072	-0,026
-187,387	239,755	-0,015	0,018
-186,373	175,675	0,061	0,065
-185,358	95,905	-0,042	-0,035
-184,344	-200,000	0,012	0,083
-183,329	800,000	0,021	-0,061
-182,315	26,988	-0,151	-0,092
-181,300	73,115	-0,057	0,043
-180,285	-23,147	-0,055	-0,024
-179,271	360,390	0,058	-0,086
-178,256	733,300	0,053	-0,104
-177,242	-133,291	-0,028	-0,003
-176,227	698,143	0,048	-0,093
-175,212	207,417	-0,050	-0,057
-174,198	-121,417	-0,100	-0,012
-173,183	-200,000	-0,024	-0,089
-172,169	-200,000	0,029	-0,176
-171,154	-113,832	0,059	-0,008
-170,139	-88,729	-0,110	-0,024
-169,125	-164,537	0,091	-0,003
-168,110	-23,838	0,052	0,023
-167,096	-133,411	0,046	0,004
-166,081	159,761	0,105	0,107
-165,066	800,000	0,036	-0,100
-164,052	-72,691	-0,071	-0,019
-163,037	-101,994	0,055	-0,010
-162,023	158,664	0,020	0,020
-161,008	-200,000	-0,004	0,161
-159,993	800,000	-0,080	0,198
-158,979	-142,587	0,063	0,004
-157,964	-61,698	-0,124	0,038
-156,950	-148,496	0,066	0,004
-155,935	236,837	0,086	-0,104
-154,920	-200,000	0,014	0,048
-153,906	236,325	-0,040	0,049
-152,891	-200,000	-0,006	0,071
-151,877	-200,000	-0,009	0,035
-150,862	-122,952	0,066	0,008
-149,847	253,714	-0,061	-0,076
-148,833	-200,000	-0,021	-0,071
-147,818	-151,305	0,125	-0,007
-146,804	-134,479	-0,164	0,014
-145,789	-103,856	-0,070	-0,012
-144,775	800,000	-0,023	0,072
-143,760	533,343	-0,031	0,054
-142,745	743,670	-0,041	-0,080
-141,731	-200,000	-0,022	0,079
-140,716	-200,000	0,036	-0,123
-139,702	743,246	0,058	0,114
-138,687	-200,000	0,025	0,126
-137,672	-94,142	-0,117	-0,023
-136,658	170,386	-0,106	-0,110
-135,643	129,537	-0,080	-0,074
-134,629	800,000	0,042	0,087
-133,614	-41,072	0,087	0,032
-132,599	-79,830	0,118	-0,029
-131,585	-200,000	-0,005	0,120
-130,570	-200,000	0,004	0,059
-129,556	404,205	-0,117	0,180
-128,541	146,295	-0,055	0,053
-127,526	-200,000	-0,012	0,082
-126,512	166,370	-0,059	0,061
-125,497	-159,127	0,015	-0,001
-124,483	-47,158	0,077	-0,027
-123,468	81,456	0,054	-0,042
-122,453	-114,972	-0,082	0,011
-121,439	577,332	-0,072	-0,128
-120,424	800,000	-0,032	-0,097
-119,410	182,879	0,119	0,128
-118,395	382,871	-0,073	0,110
-117,380	225,596	0,019	0,023
-116,366	-200,000	-0,013	-0,074
-115,351	-200,000	-0,025	-0,105
-114,337	-200,000	0,019	-0,125
-113,322	627,946	0,053	-0,097
-112,307	-200,000	0,022	0,226
-111,293	800,000	0,022	0,060
-110,278	166,554	0,041	0,042
-109,264	-36,892	0,230	0,089
-108,249	186,520	-0,046	0,050
-107,234	-49,025	-0,023	-0,008
-106,220	-64,660	-0,032	0,009
-105,205	41,332	0,081	0,053
-104,191	667,419	0,029	-0,055
-103,176	53,330	0,087	-0,060
-102,162	-71,182	-0,059	-0,016
-101,147	503,630	0,041	-0,069
-100,132	800,000	-0,045	-0,134
-99,118	-23,796	-0,123	0,053
-98,103	800,000	0,016	-0,035
-97,089	-200,000	-0,006	-0,101
-96,074	800,000	-0,009	0,025
-95,059	268,499	0,055	0,070
-94,045	-0,390	-0,134	0,069
-93,030	800,000	0,021	0,058
-92,016	-10,745	-0,126	-0,060
-91,001	800,000	0,072	-0,177
-89,986	800,000	0,080	0,175
-88,972	-200,000	-0,019	0,141
-87,957	800,000	0,052	0,127
-86,943	313,457	-0,019	-0,026
-85,928	453,829	-0,011	-0,018
-84,913	-116,317	-0,048	0,006
-83,899	77,943	0,002	0,001
-82,884	103,354	0,103	0,088
-81,870	73,795	0,102	0,078
-80,855	-110,866	0,133	0,020
-79,840	69,307	-0,097	0,073
-78,826	261,977	-0,048	-0,061
-77,811	101,828	-0,061	0,052
-76,797	-25,350	-0,104	0,045
-75,782	-200,000	0,002	-0,063
-74,767	235,518	0,055	-0,066
-73,753	132,837	0,029	-0,027
-72,738	-200,000	0,010	-0,047
-71,724	-113,590	-0,135	0,019
-70,709	185,468	-0,055	-0,060
-69,694	86,563	-0,079	0,063
-68,680	-146,118	0,013	-0,001
-67,665	-8,746	-0,057	0,028
-66,651	-200,000	-0,003	0,067
-65,636	-200,000	-0,006	0,069
-64,622	-200,000	0,003	0,019
-63,607	67,377	-0,042	0,031
-62,592	-8,532	-0,024	0,012
-61,578	-73,450	0,066	-0,017
-60,563	-200,000	0,005	0,113
-59,549	142,679	-0,099	0,096
-58,534	-147,497	-1,317	-0,079
-57,519	521,203	-0,822	-1,406
-56,505	-200,000	-0,809	-4,309
-55,490	44,411	0,555	-0,369
-54,476	800,000	4,993	11,803
-53,461	-200,000	13,274	252,595
-52,446	-200,000	688,525	2273,464
-51,432	599,285	1623,309	2934,358
-50,417	121,260	1637,109	1479,095
-49,403	73,529	1291,353	980,090
-48,388	38,526	1025,805	662,277
-47,373	24,637	983,341	589,139
-46,359	23,848	972,995	580,328
-45,344	22,948	968,861	574,895
-44,330	22,904	967,208	573,747
-43,315	22,792	965,891	572,577
-42,300	22,783	964,880	571,928
-41,286	22,753	963,991	571,280
-40,271	22,729	963,023	570,604
-39,257	22,727	961,954	569,943
-38,242	22,737	961,088	569,438
-37,227	22,755	960,226	568,964
-36,213	22,757	959,289	568,392
-35,198	22,723	958,513	567,799
-34,184	22,801	957,785	567,601
-33,169	22,824	956,798	567,067
-32,154	22,798	956,083	566,535
-31,140	22,731	955,296	565,831
-30,125	22,786	954,453	565,487
-29,111	22,806	953,489	564,956
-28,096	22,734	953,037	564,434
-27,082	22,735	952,265	563,958
-26,067	22,787	951,448	563,619
-25,052	22,700	950,825	562,950
-24,038	22,780	950,140	562,778
-23,023	22,776	949,540	562,386
-22,009	22,810	948,734	561,996
-20,994	22,880	947,904	561,706
-19,979	22,823	947,649	561,351
-18,965	22,823	946,859	560,861
-17,950	22,833	946,148	560,449
-16,936	22,739	945,690	559,855
-15,921	22,737	944,838	559,322
-14,906	22,714	944,215	558,859
-13,892	22,671	943,526	558,292
-12,877	22,670	942,934	557,915
-11,863	22,629	942,372	557,431
-10,848	22,702	941,835	557,321
-9,833	22,741	941,300	557,106
-8,819	22,750	940,699	556,760
-7,804	22,699	940,059	556,196
-6,790	22,670	939,410	555,697
-5,775	22,716	938,745	555,429
-4,760	22,698	938,194	555,024
-3,746	22,680	937,546	554,560
-2,731	22,563	936,801	553,730
-1,717	22,431	936,092	552,869
-0,702	22,423	935,615	552,540
0,313	22,301	934,801	552,509
1,327	25,406	932,932	561,130
2,342	35,221	797,499	505,844
3,356	33,443	452,373	284,228
4,371	2,368	293,997	153,717
5,386	-2,110	274,798	139,429
6,400	-3,622	268,819	134,982
7,415	-4,164	266,501	133,307
8,429	-3,950	265,211	132,845
9,444	-3,789	264,131	132,440
10,459	-3,906	263,711	132,111
11,473	-4,161	263,319	131,671
12,488	-4,021	262,469	131,361
13,502	-4,229	262,080	130,967
14,517	-4,189	261,615	130,758
15,531	-4,084	261,215	130,641
16,546	-4,111	260,780	130,388
17,561	-4,196	260,472	130,147
18,575	-3,900	260,145	130,236
19,590	-4,144	259,831	129,850
20,604	-4,107	259,530	129,721
21,619	-4,180	259,235	129,496
22,634	-4,058	258,808	129,381
23,648	-4,148	258,625	129,197
24,663	-4,277	258,412	128,964
25,677	-4,332	258,087	128,742
26,692	-4,249	257,855	128,688
27,707	-4,429	257,650	128,415
28,721	-4,321	257,351	128,350
29,736	-4,371	257,060	128,149
30,750	-4,508	256,751	127,863
31,765	-4,193	256,639	128,074
32,780	-4,427	256,370	127,721
33,794	-4,261	256,064	127,704
34,809	-4,339	255,839	127,512
35,823	-4,304	255,570	127,397
36,838	-4,211	255,448	127,407
37,853	-4,355	255,237	127,164
38,867	-4,401	255,008	126,998
39,882	-4,274	254,621	126,905
40,896	-4,208	254,470	126,876
41,911	-4,176	254,284	126,800
42,926	-4,350	253,994	126,492
43,940	-4,421	253,835	126,340
44,955	-4,566	253,621	126,096
45,969	-4,703	253,414	125,862
46,984	-4,688	252,989	125,652
47,999	-4,919	252,811	125,352
49,013	-5,030	252,591	125,135
50,028	-5,104	252,407	124,969
51,042	-5,244	251,964	124,617
52,057	-5,092	251,764	124,638
53,071	-5,304	251,743	124,433
54,086	-5,020	251,418	124,508
55,101	-4,840	251,379	124,633
56,115	-4,668	251,194	124,678
57,130	-4,302	251,161	124,966
58,144	-4,200	251,148	125,037
59,159	-3,912	250,645	125,024
60,174	-4,014	250,618	124,911
61,188	-4,138	250,427	124,698
62,203	-4,071	250,160	124,612
63,217	-4,157	249,988	124,440
64,232	-4,035	249,721	124,402
65,247	-3,844	249,329	124,359
66,261	-4,020	249,247	124,156
67,276	-4,291	249,013	123,797
68,290	-4,393	248,633	123,510
69,305	-4,679	248,393	123,135
70,320	-4,448	248,288	123,270
71,334	-4,404	248,229	123,267
72,349	-3,969	247,990	123,507
73,363	-3,969	247,880	123,441
74,378	-4,110	247,637	123,190
75,393	-4,133	247,459	123,070
76,407	-4,240	247,252	122,866
77,422	-4,279	247,140	122,765
78,436	-4,249	246,932	122,678
79,451	-4,098	246,774	122,716
80,466	-4,437	246,464	122,264
81,480	-4,421	246,237	122,154
82,495	-4,526	246,015	121,944
83,509	-4,447	246,040	122,013
84,524	-4,462	245,570	121,756
85,539	-4,636	245,394	121,511
86,553	-4,502	245,276	121,555
87,568	-4,516	245,218	121,503
88,582	-4,522	244,817	121,289
89,597	-4,489	244,577	121,187
90,611	-4,328	244,601	121,323
91,626	-4,231	244,465	121,326
92,641	-4,363	244,376	121,160
93,655	-4,344	244,021	120,989
94,670	-4,408	243,947	120,888
95,684	-4,448	243,695	120,719
96,699	-4,255	243,510	120,778
97,714	-4,421	243,268	120,508
98,728	-4,902	243,106	120,017
99,743	-4,524	242,735	120,138
100,757	-4,849	242,714	119,847
101,772	-4,555	242,472	119,961
102,787	-4,593	242,339	119,852
103,801	-4,550	242,181	119,799
104,816	-4,333	242,089	119,923
105,830	-4,414	241,948	119,775
106,845	-4,204	241,793	119,861
107,860	-4,289	241,579	119,675
108,874	-4,387	241,373	119,481
109,889	-4,428	241,099	119,301
110,903	-4,328	240,945	119,296
111,918	-4,463	240,780	119,093
112,933	-4,510	240,685	118,996
113,947	-4,403	240,419	118,943
114,962	-4,090	240,172	119,067
115,976	-4,276	240,102	118,869
116,991	-4,250	239,918	118,788
118,006	-4,346	239,869	118,674
119,020	-4,121	239,652	118,741
120,035	-4,102	239,545	118,693
121,049	-4,092	239,439	118,638
122,064	-4,191	239,209	118,432
123,079	-4,281	238,986	118,238
124,093	-4,314	238,778	118,098
125,108	-4,632	238,540	117,710
126,122	-4,898	238,292	117,361
127,137	-4,817	238,107	117,325
128,151	-4,605	237,873	117,372
129,166	-4,673	237,965	117,352
130,181	-4,641	237,662	117,218
131,195	-4,729	237,384	116,998
132,210	-4,462	237,320	117,173
133,224	-4,264	237,167	117,247
134,239	-4,304	237,044	117,144
135,254	-4,404	236,944	117,003
136,268	-4,507	236,780	116,828
137,283	-4,611	236,221	116,458
138,297	-4,687	236,071	116,313
139,312	-4,632	235,906	116,265
140,327	-4,353	235,826	116,440
141,341	-3,865	235,916	116,867
142,356	-3,768	235,759	116,856
143,370	-3,972	235,648	116,627
144,385	-3,874	235,549	116,646
145,400	-4,057	235,307	116,369
146,414	-4,192	235,135	116,166
147,429	-4,116	234,850	116,075
148,443	-4,133	234,777	116,016
149,458	-4,117	234,698	115,979
150,473	-4,177	234,534	115,840
151,487	-3,999	234,211	115,812
152,502	-4,000	234,181	115,786
153,516	-3,869	233,773	115,678
154,531	-4,013	233,793	115,563
155,546	-4,141	233,601	115,355
156,560	-4,072	233,263	115,234
157,575	-4,331	233,305	115,039
158,589	-4,041	233,108	115,161
159,604	-3,966	232,953	115,134
160,619	-3,823	232,720	115,121
161,633	-3,905	232,707	115,040
162,648	-4,090	232,507	114,784
163,662	-3,924	232,290	114,798
164,677	-3,902	232,062	114,693
165,692	-4,051	232,005	114,537
166,706	-3,916	231,910	114,586
167,721	-3,989	231,731	114,429
168,735	-3,833	231,603	114,479
169,750	-3,786	231,415	114,413
170,764	-3,873	231,357	114,306
171,779	-3,964	231,084	114,089
172,794	-3,978	230,948	114,000
173,808	-3,997	230,833	113,919
174,823	-4,357	230,274	113,351
175,837	-4,596	230,265	113,149
176,852	-4,191	230,149	113,399
177,867	-3,919	230,328	113,690
178,881	-3,906	229,937	113,497
179,896	-3,948	229,937	113,455
180,910	-3,933	229,709	113,343
181,925	-3,945	229,686	113,312
182,940	-4,004	229,375	113,103
183,954	-3,739	229,179	113,203
184,969	-3,846	229,098	113,069
185,983	-3,783	228,967	113,044
186,998	-3,664	228,779	113,033
188,013	-3,612	228,587	112,969
189,027	-3,577	228,471	112,928
190,042	-3,792	228,318	112,676
191,056	-3,641	228,177	112,714
192,071	-3,918	228,102	112,452
193,086	-3,738	227,838	112,451
194,100	-3,881	227,849	112,336
195,115	-3,835	227,381	112,130
196,129	-4,561	227,314	111,527
197,144	-1,340	228,288	114,489
198,159	2,537	229,297	117,993
199,173	3,962	229,476	119,179
200,188	3,948	229,470	119,155
201,202	4,253	229,324	119,305
202,217	4,451	229,180	119,372
203,232	4,862	229,067	119,620
204,246	4,801	228,894	119,472
205,261	4,953	228,898	119,581
206,275	4,894	228,786	119,466
207,290	4,991	228,629	119,448
208,304	4,966	228,472	119,336
209,319	5,141	228,327	119,384
210,334	4,875	227,928	118,961
211,348	4,572	227,863	118,684
212,363	4,072	227,687	118,198
213,377	4,032	227,335	117,974
214,392	4,009	227,168	117,859
215,407	4,178	227,111	117,948
216,421	4,200	226,995	117,894
217,436	4,021	226,769	117,630
218,450	3,782	226,599	117,348
219,465	3,850	226,450	117,313
220,480	3,928	226,373	117,322
221,494	3,560	226,234	116,959
222,509	3,925	226,099	117,157
223,523	3,806	226,000	117,004
224,538	4,018	225,726	117,013
225,553	3,906	225,705	116,907
226,567	4,203	225,439	116,984
227,582	4,244	225,394	116,981
228,596	4,368	225,343	117,038
229,611	3,949	225,092	116,580
230,626	4,013	224,833	116,484
231,640	4,038	224,662	116,404
232,655	4,401	224,591	116,631
233,669	4,582	224,605	116,765
234,684	4,838	224,454	116,869
235,699	4,547	224,278	116,548
236,713	4,103	224,212	116,168
237,728	4,007	223,844	115,894
238,742	3,834	223,643	115,650
239,757	3,779	223,594	115,573
240,772	3,724	223,508	115,477
241,786	3,895	223,257	115,465
242,801	4,361	223,170	115,760
243,815	4,464	222,970	115,723
244,830	4,251	223,101	115,621
245,844	4,231	222,682	115,378
246,859	4,214	222,593	115,309
247,874	4,507	222,446	115,442
248,888	4,320	222,485	115,312
249,903	4,280	222,132	115,089
250,917	4,159	222,111	114,977
251,932	4,280	221,856	114,926
252,947	4,092	221,646	114,667
253,961	3,935	221,452	114,439
254,976	3,994	221,333	114,411
255,990	4,267	221,337	114,606
257,005	4,153	221,201	114,441
258,020	4,125	221,018	114,315
259,034	4,448	220,986	114,528
260,049	4,263	220,938	114,356
261,063	4,280	220,577	114,171
262,078	4,344	220,555	114,197
263,093	4,389	220,424	114,152
264,107	4,357	220,316	114,063
265,122	4,260	220,262	113,953
266,136	4,624	220,067	114,111
267,151	4,517	219,839	113,903
268,166	4,149	219,547	113,470
269,180	3,856	219,286	113,110
270,195	4,012	219,182	113,161
271,209	3,975	219,109	113,086
272,224	3,989	218,868	112,962
273,239	4,207	218,742	113,046
274,253	3,902	218,676	112,779
275,268	3,737	218,439	112,526
276,282	3,641	218,193	112,319
277,297	3,712	218,234	112,382
278,312	3,652	218,123	112,271
279,326	3,827	218,022	112,336
280,341	3,983	217,759	112,304
281,355	3,900	217,828	112,269
282,370	3,954	217,688	112,227
283,384	3,782	217,547	112,019
284,399	3,675	217,331	111,820
285,414	3,713	217,033	111,684
286,428	3,960	217,101	111,889
287,443	4,191	217,105	112,049
288,457	4,144	216,952	111,926
289,472	3,975	216,679	111,652
290,487	3,611	216,504	111,289
291,501	3,402	216,316	111,031
292,516	3,642	216,155	111,111
293,530	3,969	216,012	111,265
294,545	3,543	215,881	110,879
295,560	3,790	215,809	111,011
296,574	3,922	215,798	111,091
297,589	3,810	215,381	110,785
298,603	4,191	215,323	111,020
299,618	4,180	215,181	110,930
300,633	4,153	215,079	110,847
301,647	4,111	215,165	110,852
302,662	4,357	215,030	110,949
303,676	4,358	214,628	110,732
304,691	4,411	214,589	110,740
305,706	4,322	214,514	110,628
306,720	4,439	214,436	110,661
307,735	4,450	214,064	110,468
308,749	4,012	213,922	110,071
309,764	4,075	213,889	110,090
310,779	4,465	213,847	110,337
311,793	4,187	213,568	109,985
312,808	4,144	213,573	109,947
313,822	4,174	213,359	109,849
314,837	4,107	213,106	109,660
315,852	3,930	213,047	109,494
316,866	4,113	212,951	109,565
317,881	4,242	212,873	109,607
318,895	4,326	212,578	109,506
319,910	4,198	212,391	109,308
320,925	3,965	212,240	109,056
321,939	3,346	212,140	108,556
322,954	3,491	212,058	108,607
323,968	3,703	211,972	108,703
324,983	4,249	211,893	109,039
325,997	4,275	211,950	109,078
327,012	4,197	211,609	108,837
328,027	4,303	211,410	108,800
329,041	4,430	211,436	108,893
330,056	4,319	211,405	108,789
331,070	4,283	211,035	108,564
332,085	3,780	210,816	108,087
333,100	3,862	210,675	108,063
334,114	4,152	210,561	108,199
335,129	3,908	210,389	107,929
336,143	3,580	210,369	107,680
337,158	3,766	210,145	107,686
338,173	4,055	210,027	107,818
339,187	3,835	209,903	107,591
340,202	3,620	209,824	107,390
341,216	3,589	209,586	107,237
342,231	3,793	209,438	107,294
343,246	3,801	209,477	107,310
344,260	3,921	209,302	107,295
345,275	3,824	209,099	107,114
346,289	4,157	209,039	107,306
347,304	4,055	209,045	107,227
348,319	4,027	208,757	107,051
349,333	4,138	208,527	107,000
350,348	4,058	208,519	106,931
351,362	4,239	208,503	107,039
352,377	4,116	208,323	106,852
353,392	4,203	208,103	106,790
354,406	4,073	208,041	106,659
355,421	193,930	1347,192	1435,865
356,435	154,715	1486,097	1435,990
