DTS Sentinel unit serial number:	SN410029Multiplexer serial number:	ORYXHardware model number:	OX2-SRSoftware version number:	ORYX F/W v4,00 Oryx Data Collector v3.7.2.0data status	okinstallation	B6 Nyhavnadifferential loss correction	single-endedforward channel	channel 2reverse channel	N/Adate	2023/12/09time	16:30:08forward acquisition time	300,00reverse acquisition time	0,00gamma	499,1914k internal	0,3132k external	0,3132temperature offset calibration	1,0000default loss term (dB/km)	0,3820temperature slope calibration	1,0000multiplexer offset coefficient	1,0000multiplexer slope coefficient	1,0000fibre end	0,00T internal ref (°C)	20,87T ext. ref 1 (°C)	4,71T ext. ref 2 (°C)	4,71length (m)	temperature (°C)	Stokes	anti-Stokes-744,400	412,838	0,044	-0,070
-743,385	261,013	-0,066	0,085
-742,371	-200,000	-0,008	-0,041
-741,356	24,633	-0,320	0,196
-740,342	-200,000	-0,016	-0,055
-739,327	31,601	-0,237	0,151
-738,312	82,087	0,049	0,040
-737,298	-141,191	-0,224	0,017
-736,283	-76,227	0,114	0,030
-735,269	19,190	-0,212	0,126
-734,254	-140,158	0,128	-0,010
-733,239	-94,029	-0,402	-0,081
-732,225	341,795	0,052	0,076
-731,210	306,299	0,072	0,100
-730,196	-161,524	-0,088	0,003
-729,181	424,352	-0,048	-0,077
-728,167	758,487	0,053	-0,106
-727,152	800,000	-0,018	-0,055
-726,137	-128,441	-0,215	-0,022
-725,123	338,022	0,034	-0,049
-724,108	30,099	-0,208	-0,131
-723,094	-200,000	0,003	-0,055
-722,079	-57,710	-0,092	-0,030
-721,064	33,920	-0,085	0,055
-720,050	-31,026	-0,097	-0,041
-719,035	800,000	-0,071	-0,158
-718,021	24,977	-0,047	-0,029
-717,006	-200,000	-0,006	-0,098
-715,991	250,348	-0,180	-0,227
-714,977	147,185	-0,113	0,113
-713,962	-14,241	-0,067	0,032
-712,948	35,811	-0,039	-0,025
-711,933	-200,000	-0,002	0,057
-710,918	587,832	-0,051	0,094
-709,904	266,393	0,050	-0,065
-708,889	-200,000	0,038	-0,135
-707,875	-93,014	0,030	-0,006
-706,860	16,345	0,160	-0,094
-705,845	-9,173	0,081	-0,040
-704,831	146,593	-0,105	0,105
-703,816	327,235	-0,100	-0,143
-702,802	336,358	0,056	-0,081
-701,787	44,156	0,063	-0,043
-700,772	-200,000	0,061	-0,203
-699,758	-94,688	0,108	0,022
-698,743	-200,000	0,011	0,075
-697,729	-200,000	0,047	0,168
-696,714	16,137	-0,094	0,055
-695,699	192,357	-0,048	-0,054
-694,685	-155,132	-0,135	0,006
-693,670	800,000	-0,008	-0,026
-692,656	800,000	0,048	0,115
-691,641	-128,200	0,061	-0,006
-690,627	374,959	0,004	-0,007
-689,612	194,053	-0,029	0,032
-688,597	-105,505	-0,056	-0,009
-687,583	716,100	-0,052	-0,102
-686,568	120,385	-0,044	0,041
-685,554	-106,189	-0,052	0,008
-684,539	183,442	-0,036	0,040
-683,524	-151,303	-0,057	0,003
-682,510	-200,000	-0,023	-0,123
-681,495	-46,102	0,060	0,022
-680,481	383,957	-0,047	-0,072
-679,466	45,302	0,084	-0,057
-678,451	85,847	-0,124	-0,101
-677,437	800,000	0,011	0,028
-676,422	159,809	0,097	-0,101
-675,408	281,344	0,061	0,082
-674,393	800,000	-0,041	-0,119
-673,378	-137,440	-0,029	0,002
-672,364	74,841	-0,115	0,090
-671,349	263,758	0,037	0,048
-670,335	87,716	0,106	-0,087
-669,320	333,521	-0,086	0,123
-668,305	-15,278	-0,048	-0,023
-667,291	26,704	-0,082	0,051
-666,276	463,330	-0,024	0,040
-665,262	-45,292	-0,107	0,039
-664,247	-101,569	-0,116	-0,021
-663,232	86,846	0,025	-0,021
-662,218	-94,472	-0,109	0,022
-661,203	-114,476	-0,030	0,004
-660,189	-35,082	-0,069	-0,028
-659,174	800,000	0,044	-0,104
-658,159	-200,000	-0,042	-0,148
-657,145	222,664	-0,063	-0,075
-656,130	-200,000	-0,011	-0,144
-655,116	800,000	-0,044	-0,138
-654,101	-200,000	-0,006	0,155
-653,086	-5,068	0,015	0,008
-652,072	-40,709	-0,107	-0,041
-651,057	115,661	-0,091	-0,083
-650,043	6,998	-0,037	0,020
-649,028	800,000	-0,004	-0,011
-648,014	372,763	-0,048	0,072
-646,999	-129,715	-0,060	-0,006
-645,984	38,379	-0,002	-0,001
-644,970	471,355	0,038	-0,064
-643,955	-200,000	0,013	-0,135
-642,941	353,823	0,010	-0,015
-641,926	-35,380	0,075	0,030
-640,911	64,338	-0,072	-0,053
-639,897	-123,454	0,078	-0,009
-638,882	150,013	0,012	-0,012
-637,868	333,016	0,067	0,097
-636,853	186,553	-0,060	0,066
-635,838	31,671	0,115	-0,073
-634,824	82,166	0,028	-0,023
-633,809	-200,000	0,034	0,200
-632,795	-200,000	0,010	0,103
-631,780	800,000	0,022	0,067
-630,765	-157,308	0,048	0,002
-629,751	-200,000	-0,003	-0,039
-628,736	374,134	-0,075	-0,113
-627,722	-200,000	-0,015	-0,077
-626,707	-200,000	-0,021	0,000
-625,692	800,000	-0,031	-0,070
-624,678	800,000	0,012	-0,029
-623,663	734,584	0,068	-0,135
-622,649	-200,000	0,028	-0,107
-621,634	183,932	0,046	-0,051
-620,619	-200,000	-0,001	0,016
-619,605	-200,000	-0,026	0,114
-618,590	53,199	-0,070	-0,050
-617,576	-200,000	-0,020	0,101
-616,561	-15,210	-0,052	-0,024
-615,546	-200,000	-0,007	-0,092
-614,532	-66,192	0,210	0,061
-613,517	-73,396	-0,062	-0,017
-612,503	35,042	-0,074	0,048
-611,488	-185,558	-0,057	0,001
-610,474	26,873	0,077	-0,047
-609,459	-200,000	-0,018	-0,062
-608,444	165,729	0,096	-0,100
-607,430	-151,952	-0,050	0,003
-606,415	151,026	0,094	-0,095
-605,401	-200,000	0,009	-0,119
-604,386	100,153	-0,035	-0,030
-603,371	516,884	-0,106	0,184
-602,357	117,059	-0,044	0,040
-601,342	365,809	0,055	-0,082
-600,328	-129,844	-0,088	0,009
-599,313	19,187	-0,099	-0,059
-598,298	-197,580	-0,014	0,000
-597,284	268,588	-0,114	0,148
-596,269	-37,408	0,091	0,036
-595,255	-116,101	-0,090	0,012
-594,240	800,000	0,009	0,021
-593,225	-200,000	0,029	-0,149
-592,211	-162,877	-0,069	-0,002
-591,196	-200,000	-0,013	0,097
-590,182	-134,017	0,107	-0,010
-589,167	5,445	-0,097	0,053
-588,152	32,621	0,086	-0,055
-587,138	800,000	0,080	-0,168
-586,123	327,939	-0,040	-0,057
-585,109	-38,716	0,082	-0,032
-584,094	33,575	0,082	-0,053
-583,079	-137,570	-0,092	0,008
-582,065	312,902	-0,018	0,025
-581,050	-33,685	-0,159	0,064
-580,036	182,561	-0,037	-0,041
-579,021	488,973	0,073	-0,124
-578,006	-200,000	-0,023	-0,208
-576,992	79,911	-0,115	-0,091
-575,977	800,000	0,037	0,119
-574,963	262,948	0,018	-0,023
-573,948	16,959	0,152	0,089
-572,934	-91,726	0,064	0,013
-571,919	-200,000	0,011	0,097
-570,904	97,589	-0,107	-0,091
-569,890	-69,064	-0,058	0,016
-568,875	800,000	0,016	0,046
-567,861	52,168	0,067	0,047
-566,846	352,036	-0,014	0,020
-565,831	262,240	-0,046	0,059
-564,817	-200,000	0,008	-0,077
-563,802	-134,411	-0,197	0,018
-562,788	153,730	0,025	0,025
-561,773	800,000	0,034	-0,108
-560,758	-80,956	0,138	-0,033
-559,744	800,000	0,086	0,227
-558,729	265,953	0,022	0,028
-557,715	195,425	-0,010	0,011
-556,700	-39,500	-0,148	-0,057
-555,685	-200,000	0,004	0,107
-554,671	800,000	-0,004	0,011
-553,656	42,115	-0,084	-0,056
-552,642	270,034	0,036	-0,046
-551,627	202,852	0,100	-0,115
-550,612	20,755	-0,119	-0,071
-549,598	-200,000	0,014	0,074
-548,583	-143,466	-0,067	0,005
-547,569	109,330	-0,039	0,035
-546,554	-58,198	0,171	-0,055
-545,539	-69,096	0,045	0,013
-544,525	-93,090	0,024	-0,005
-543,510	800,000	0,029	-0,072
-542,496	-200,000	-0,014	0,073
-541,481	69,831	-0,122	0,093
-540,466	30,823	0,058	-0,036
-539,452	-140,038	-0,041	-0,003
-538,437	-121,820	0,052	-0,006
-537,423	-14,551	-0,027	0,013
-536,408	-19,184	0,242	-0,110
-535,393	-85,520	0,052	0,012
-534,379	344,338	-0,057	-0,083
-533,364	392,877	0,021	-0,033
-532,350	-61,941	-0,108	-0,033
-531,335	464,674	-0,074	-0,123
-530,321	-200,000	0,002	-0,080
-529,306	40,714	0,089	0,059
-528,291	136,654	-0,079	0,076
-527,277	114,695	-0,054	0,048
-526,262	350,718	0,059	-0,087
-525,248	406,780	0,085	0,133
-524,233	558,977	0,061	0,109
-523,218	9,784	0,051	0,028
-522,204	-96,116	-0,090	0,017
-521,189	-113,785	0,029	0,004
-520,175	222,302	-0,052	-0,062
-519,160	60,621	0,029	0,021
-518,145	15,065	-0,087	0,050
-517,131	282,839	0,089	-0,118
-516,116	8,269	0,061	0,034
-515,102	731,183	-0,112	-0,222
-514,087	-200,000	-0,010	-0,109
-513,072	61,016	-0,112	-0,082
-512,058	435,018	-0,054	-0,086
-511,043	-25,469	0,147	-0,064
-510,029	67,814	-0,086	0,065
-509,014	-200,000	0,001	0,061
-507,999	9,404	0,038	-0,021
-506,985	-71,141	-0,092	0,025
-505,970	702,488	0,034	-0,066
-504,956	-200,000	-0,035	0,185
-503,941	138,159	0,092	-0,089
-502,926	423,902	0,019	0,031
-501,912	644,376	-0,045	-0,084
-500,897	319,275	0,032	0,044
-499,883	-127,515	0,084	0,009
-498,868	-200,000	0,018	-0,066
-497,853	-200,000	-0,010	-0,108
-496,839	800,000	-0,008	0,021
-495,824	-39,509	0,102	-0,039
-494,810	210,042	-0,037	0,043
-493,795	243,012	0,045	0,056
-492,781	-200,000	-0,002	-0,193
-491,766	149,538	0,086	-0,085
-490,751	-40,367	0,042	-0,016
-489,737	-84,682	-0,035	0,008
-488,722	120,860	0,025	0,023
-487,708	687,693	0,042	0,082
-486,693	-200,000	-0,007	-0,033
-485,678	342,969	-0,056	0,082
-484,664	800,000	0,024	-0,052
-483,649	-25,010	-0,107	0,046
-482,635	553,475	0,008	-0,014
-481,620	109,084	0,045	0,040
-480,605	450,211	0,022	-0,036
-479,591	-27,579	-0,076	0,032
-478,576	-29,833	-0,140	-0,059
-477,562	-49,676	-0,114	0,040
-476,547	-200,000	-0,007	-0,133
-475,532	75,888	0,113	0,088
-474,518	-83,181	0,168	0,039
-473,503	440,741	-0,011	-0,018
-472,489	-200,000	-0,005	-0,016
-471,474	26,468	-0,068	0,042
-470,459	-200,000	0,001	-0,165
-469,445	-103,486	-0,059	-0,010
-468,430	-200,000	0,006	-0,049
-467,416	-139,271	0,058	-0,005
-466,401	5,870	0,033	0,018
-465,386	800,000	0,031	0,090
-464,372	-200,000	-0,011	-0,101
-463,357	800,000	-0,045	-0,136
-462,343	800,000	-0,042	-0,091
-461,328	-120,584	-0,113	0,014
-460,313	300,270	0,048	0,065
-459,299	-31,463	0,056	0,023
-458,284	-55,845	-0,064	0,021
-457,270	55,140	0,082	0,058
-456,255	43,313	-0,015	0,010
-455,241	119,604	0,048	-0,044
-454,226	28,784	0,082	-0,051
-453,211	-200,000	-0,013	0,140
-452,197	-200,000	0,033	0,160
-451,182	800,000	-0,006	0,018
-450,168	3,204	0,034	-0,018
-449,153	89,002	-0,196	-0,161
-448,138	-200,000	0,017	0,085
-447,124	279,625	0,099	-0,131
-446,109	-126,247	0,057	0,006
-445,095	265,979	-0,011	-0,015
-444,080	-122,564	-0,106	-0,012
-443,065	-135,192	0,172	0,015
-442,051	-50,289	-0,110	0,038
-441,036	63,993	0,058	0,043
-440,022	800,000	-0,026	0,076
-439,007	-104,125	-0,084	0,014
-437,992	-200,000	0,029	0,133
-436,978	-119,123	0,138	0,017
-435,963	800,000	0,040	-0,088
-434,949	-200,000	-0,031	0,189
-433,934	-200,000	-0,042	0,267
-432,919	-200,000	0,006	0,063
-431,905	495,050	0,108	0,184
-430,890	-129,157	0,097	0,010
-429,876	175,492	-0,022	-0,023
-428,861	-200,000	0,037	0,172
-427,846	115,304	-0,097	0,087
-426,832	-200,000	0,033	0,160
-425,817	-200,000	0,019	-0,125
-424,803	-200,000	0,020	0,191
-423,788	456,524	0,021	0,035
-422,773	200,769	-0,060	0,068
-421,759	-14,834	-0,054	0,026
-420,744	800,000	0,068	0,156
-419,730	800,000	-0,034	0,084
-418,715	-200,000	0,016	-0,074
-417,701	800,000	-0,037	-0,099
-416,686	89,520	-0,037	0,030
-415,671	-200,000	0,013	0,066
-414,657	-200,000	-0,002	0,033
-413,642	37,469	-0,125	0,081
-412,628	519,144	-0,078	0,135
-411,613	-167,934	0,132	-0,004
-410,598	55,067	-0,064	-0,045
-409,584	-114,760	-0,019	-0,003
-408,569	-7,009	-0,113	0,056
-407,555	449,648	0,050	0,081
-406,540	800,000	-0,018	-0,051
-405,525	85,875	0,045	-0,037
-404,511	-73,054	-0,097	-0,026
-403,496	800,000	-0,037	-0,109
-402,482	800,000	0,048	0,101
-401,467	800,000	-0,026	0,081
-400,452	568,670	0,020	0,035
-399,438	379,795	0,030	-0,045
-398,423	510,388	0,067	-0,115
-397,409	-33,941	-0,143	-0,057
-396,394	-200,000	-0,005	0,074
-395,379	-200,000	0,003	0,057
-394,365	-174,726	0,190	0,004
-393,350	-16,072	-0,126	0,058
-392,336	373,912	-0,009	-0,013
-391,321	-200,000	0,005	-0,078
-390,306	60,767	-0,217	-0,158
-389,292	-200,000	-0,020	-0,087
-388,277	619,785	-0,034	0,063
-387,263	-200,000	0,003	-0,054
-386,248	10,039	0,052	0,029
-385,233	624,615	0,035	-0,065
-384,219	31,031	0,092	-0,058
-383,204	171,561	-0,067	-0,071
-382,190	160,289	-0,084	0,086
-381,175	518,919	-0,014	-0,025
-380,160	23,558	0,131	0,079
-379,146	-200,000	0,013	-0,058
-378,131	-136,613	0,160	0,013
-377,117	800,000	0,020	-0,041
-376,102	44,409	-0,045	0,030
-375,088	303,212	0,113	-0,153
-374,073	169,119	0,040	-0,042
-373,058	313,280	0,036	0,050
-372,044	113,704	0,019	0,017
-371,029	47,151	-0,075	0,051
-370,015	-200,000	0,017	0,087
-369,000	195,943	-0,044	0,049
-367,985	800,000	-0,048	0,121
-366,971	56,044	-0,052	-0,037
-365,956	124,239	0,103	0,095
-364,942	145,985	0,065	0,064
-363,927	-61,190	0,143	0,044
-362,912	-59,765	-0,143	-0,045
-361,898	542,620	-0,045	-0,078
-360,883	-200,000	0,021	-0,107
-359,869	-58,460	0,052	0,016
-358,854	-66,578	-0,077	0,022
-357,839	33,715	-0,089	-0,057
-356,825	110,442	-0,075	-0,066
-355,810	-200,000	0,018	-0,115
-354,796	800,000	-0,026	0,084
-353,781	800,000	-0,024	-0,073
-352,766	-70,816	-0,094	-0,026
-351,752	37,332	-0,023	-0,015
-350,737	-200,000	0,010	-0,086
-349,723	-120,633	0,089	0,011
-348,708	159,491	-0,074	-0,075
-347,693	164,620	-0,010	-0,011
-346,679	693,933	-0,036	0,069
-345,664	310,538	0,050	-0,069
-344,650	34,906	0,050	0,032
-343,635	-155,075	0,045	0,002
-342,620	405,061	0,063	0,097
-341,606	-200,000	0,007	0,024
-340,591	192,944	-0,171	-0,189
-339,577	151,802	0,068	0,067
-338,562	198,478	-0,048	-0,053
-337,548	19,417	-0,056	-0,033
-336,533	256,376	0,052	-0,065
-335,518	800,000	-0,030	0,069
-334,504	800,000	-0,040	0,095
-333,489	319,001	-0,009	0,012
-332,475	-178,857	0,031	0,000
-331,460	-64,292	-0,108	0,032
-330,445	100,549	-0,095	0,081
-329,431	466,890	-0,067	-0,110
-328,416	-4,985	0,163	-0,082
-327,402	-9,626	0,044	-0,021
-326,387	-15,055	0,151	-0,071
-325,372	800,000	-0,023	0,075
-324,358	-200,000	-0,010	-0,038
-323,343	278,706	-0,034	-0,045
-322,329	800,000	0,045	0,124
-321,314	800,000	-0,027	0,067
-320,299	-200,000	0,050	0,196
-319,285	-54,731	-0,077	0,025
-318,270	-200,000	-0,022	0,105
-317,256	800,000	-0,022	0,051
-316,241	-64,246	-0,072	0,021
-315,226	695,093	-0,066	0,127
-314,212	-77,373	0,023	-0,006
-313,197	406,089	0,138	-0,214
-312,183	-42,968	-0,145	0,054
-311,168	-200,000	0,027	-0,089
-310,153	-72,177	-0,183	-0,049
-309,139	-4,344	-0,065	0,033
-308,124	800,000	-0,032	-0,085
-307,110	-67,774	-0,071	0,020
-306,095	540,849	0,036	-0,063
-305,080	163,507	-0,016	-0,016
-304,066	-97,686	0,085	0,016
-303,051	67,247	0,136	-0,101
-302,037	800,000	-0,025	-0,054
-301,022	-11,819	0,055	-0,026
-300,008	-124,604	0,074	0,008
-298,993	664,281	-0,061	0,116
-297,978	-66,811	0,040	0,011
-296,964	451,974	-0,055	-0,090
-295,949	-200,000	-0,016	0,097
-294,935	265,687	-0,043	0,055
-293,920	24,378	0,067	-0,041
-292,905	800,000	-0,035	-0,106
-291,891	205,928	-0,096	0,109
-290,876	218,356	0,068	0,079
-289,862	-27,889	0,039	0,016
-288,847	-147,238	0,060	-0,004
-287,832	87,930	0,094	-0,076
-286,818	800,000	0,043	-0,111
-285,803	800,000	-0,005	0,014
-284,789	-200,000	0,006	0,068
-283,774	-19,935	0,043	-0,019
-282,759	-72,396	0,047	-0,013
-281,745	-200,000	-0,005	0,027
-280,730	-115,568	-0,193	-0,026
-279,716	108,327	0,202	-0,176
-278,701	60,315	0,060	-0,043
-277,686	800,000	0,034	0,090
-276,672	-200,000	-0,015	0,135
-275,657	-60,555	0,065	-0,020
-274,643	477,494	-0,013	-0,021
-273,628	4,256	0,013	-0,007
-272,613	200,743	0,090	0,101
-271,599	203,089	-0,150	0,170
-270,584	800,000	0,027	0,068
-269,570	27,742	0,117	-0,072
-268,555	191,061	0,045	-0,049
-267,540	-200,000	0,053	0,205
-266,526	-200,000	-0,020	-0,107
-265,511	202,749	0,075	-0,085
-264,497	-200,000	-0,006	-0,158
-263,482	-15,482	0,120	0,056
-262,467	-112,236	0,124	0,018
-261,453	43,000	-0,036	0,024
-260,438	67,605	-0,046	0,034
-259,424	-122,874	0,164	-0,019
-258,409	70,940	-0,060	-0,045
-257,395	-50,562	-0,164	-0,056
-256,380	-7,666	0,120	0,059
-255,365	-35,565	-0,096	-0,038
-254,351	-200,000	-0,007	0,089
-253,336	-98,001	0,037	-0,007
-252,322	-200,000	-0,004	-0,093
-251,307	651,947	-0,052	0,097
-250,292	212,783	-0,038	-0,043
-249,278	-106,918	-0,065	0,010
-248,263	-53,374	-0,071	-0,024
-247,249	-200,000	-0,017	-0,065
-246,234	138,507	0,017	-0,017
-245,219	-200,000	-0,001	-0,008
-244,205	-102,216	-0,057	0,010
-243,190	11,391	-0,060	0,033
-242,176	-150,118	0,037	-0,002
-241,161	294,267	0,081	0,108
-240,146	-81,770	-0,100	-0,024
-239,132	800,000	0,019	-0,047
-238,117	-52,709	0,097	-0,033
-237,103	-159,098	-0,066	0,003
-236,088	39,805	0,051	-0,033
-235,073	-200,000	0,011	0,065
-234,059	382,541	-0,029	-0,044
-233,044	-23,714	0,047	-0,021
-232,030	-200,000	-0,025	-0,089
-231,015	800,000	0,042	0,112
-230,000	70,653	-0,103	-0,077
-228,986	800,000	0,017	-0,053
-227,971	186,453	0,043	0,046
-226,957	-200,000	-0,001	-0,044
-225,942	76,798	0,070	0,054
-224,927	-93,099	-0,037	0,008
-223,913	75,191	-0,075	-0,057
-222,898	-90,856	-0,186	-0,039
-221,884	-169,510	-0,092	-0,002
-220,869	508,537	-0,080	0,136
-219,855	-200,000	0,013	-0,095
-218,840	-75,379	-0,078	0,020
-217,825	-124,583	0,128	0,014
-216,811	111,962	-0,079	0,069
-215,796	-200,000	-0,021	-0,098
-214,782	-31,196	-0,066	-0,027
-213,767	-70,155	0,071	0,019
-212,752	-200,000	-0,035	-0,120
-211,738	-41,000	-0,074	0,028
-210,723	-27,793	0,116	-0,049
-209,709	-74,067	-0,077	-0,020
-208,694	339,913	-0,033	0,048
-207,679	800,000	-0,026	-0,071
-206,665	497,604	-0,083	0,140
-205,650	190,065	0,094	0,103
-204,636	-61,871	0,051	0,015
-203,621	748,921	0,020	0,040
-202,606	416,339	0,013	-0,021
-201,592	256,874	-0,085	0,106
-200,577	99,095	0,038	0,032
-199,563	-200,000	-0,011	0,057
-198,548	194,953	0,122	0,135
-197,533	-56,612	-0,180	0,058
-196,519	-26,357	0,059	0,025
-195,504	-200,000	0,004	-0,067
-194,490	50,549	0,022	-0,015
-193,475	584,127	0,005	0,009
-192,460	-200,000	0,013	-0,135
-191,446	7,586	0,025	-0,013
-190,431	168,168	0,070	-0,072
-189,417	-200,000	0,002	0,156
-188,402	800,000	-0,038	0,120
-187,387	-69,819	0,035	0,010
-186,373	-4,467	0,072	0,036
-185,358	273,880	-0,028	-0,036
-184,344	365,157	-0,039	0,057
-183,329	-105,631	-0,042	0,007
-182,315	60,673	0,066	-0,048
-181,300	-200,000	-0,024	0,167
-180,285	-23,560	-0,015	0,006
-179,271	-200,000	0,005	-0,162
-178,256	800,000	0,035	0,110
-177,242	377,165	0,094	0,140
-176,227	327,595	0,001	0,002
-175,212	626,717	-0,047	0,087
-174,198	-83,477	-0,094	-0,022
-173,183	-18,152	-0,078	-0,035
-172,169	18,103	-0,035	0,020
-171,154	-18,277	-0,058	-0,026
-170,139	-21,939	0,032	-0,014
-169,125	-67,049	0,141	0,040
-168,110	-200,000	-0,008	-0,061
-167,096	-196,984	-0,076	-0,000
-166,081	242,867	-0,106	-0,129
-165,066	-200,000	0,005	-0,088
-164,052	117,956	0,088	-0,079
-163,037	516,767	-0,015	-0,025
-162,023	-109,389	0,071	0,011
-161,008	-200,000	-0,008	-0,108
-159,993	-200,000	0,013	-0,049
-158,979	113,851	0,093	-0,082
-157,964	-115,115	-0,026	0,004
-156,950	-200,000	0,018	0,101
-155,935	800,000	0,029	-0,074
-154,920	-188,949	0,111	0,001
-153,906	-200,000	0,004	0,123
-152,891	-103,912	-0,111	0,019
-151,877	-107,324	0,024	0,004
-150,862	14,984	-0,095	-0,054
-149,847	-200,000	-0,030	0,115
-148,833	164,423	0,031	-0,032
-147,818	111,302	0,033	0,029
-146,804	-37,050	0,115	0,045
-145,789	-94,481	0,128	-0,025
-144,775	267,401	-0,076	-0,097
-143,760	-200,000	-0,057	0,221
-142,745	616,570	-0,034	-0,062
-141,731	800,000	0,047	-0,114
-140,716	425,564	0,046	-0,071
-139,702	225,344	-0,034	0,040
-138,687	247,225	0,086	0,105
-137,672	219,002	0,058	0,067
-136,658	33,863	-0,065	-0,041
-135,643	58,802	0,077	0,055
-134,629	800,000	-0,002	-0,005
-133,614	-19,895	0,035	0,016
-132,599	-165,642	0,046	-0,001
-131,585	-200,000	-0,015	0,137
-130,570	-57,835	-0,118	0,037
-129,556	-36,375	-0,146	-0,057
-128,541	-44,092	0,094	0,034
-127,526	187,878	0,030	0,033
-126,512	-200,000	-0,013	0,089
-125,497	198,895	0,037	-0,041
-124,483	407,520	0,101	0,156
-123,468	800,000	-0,051	0,121
-122,453	-124,529	-0,130	0,014
-121,439	-42,370	0,040	0,015
-120,424	-91,126	-0,150	-0,031
-119,410	800,000	0,038	-0,097
-118,395	-41,213	-0,042	0,016
-117,380	-47,365	0,160	0,056
-116,366	-80,233	-0,082	0,020
-115,351	-9,024	-0,028	-0,013
-114,337	-138,639	-0,167	-0,013
-113,322	672,840	0,021	0,039
-112,307	67,895	-0,092	-0,068
-111,293	-99,586	-0,070	-0,013
-110,278	800,000	-0,048	-0,102
-109,264	800,000	-0,052	-0,126
-108,249	-200,000	0,010	0,119
-107,234	-105,263	-0,101	0,016
-106,220	-148,358	0,050	-0,003
-105,205	800,000	-0,039	-0,125
-104,191	421,667	0,065	-0,102
-103,176	800,000	0,016	0,040
-102,162	800,000	-0,065	-0,136
-101,147	-200,000	0,007	-0,104
-100,132	-138,090	-0,131	-0,010
-99,118	-200,000	0,031	0,111
-98,103	586,880	0,042	0,075
-97,089	85,743	0,074	-0,059
-96,074	-37,061	0,117	0,045
-95,059	240,770	0,073	-0,089
-94,045	30,896	0,042	0,026
-93,030	800,000	0,044	-0,131
-92,016	77,139	0,178	-0,137
-91,001	-46,985	0,080	-0,028
-89,986	-200,000	0,011	0,103
-88,972	-149,404	0,093	0,005
-87,957	-131,688	-0,106	0,010
-86,943	-13,047	0,088	-0,041
-85,928	-200,000	-0,019	-0,103
-84,913	-153,296	0,077	-0,004
-83,899	-86,276	-0,058	0,013
-82,884	459,846	-0,007	0,011
-81,870	199,952	-0,101	-0,113
-80,855	-68,203	0,152	0,042
-79,840	595,818	-0,120	0,217
-78,826	328,080	-0,025	-0,035
-77,811	339,258	0,107	0,151
-76,797	-200,000	-0,025	0,097
-75,782	53,704	0,125	0,087
-74,767	434,476	-0,043	0,068
-73,753	273,957	0,108	0,139
-72,738	-200,000	0,029	0,172
-71,724	-87,774	-0,058	-0,013
-70,709	800,000	-0,024	0,052
-69,694	800,000	0,009	-0,019
-68,680	46,820	-0,061	0,041
-67,665	-118,659	0,058	-0,007
-66,651	55,727	0,069	0,048
-65,636	711,127	-0,023	0,045
-64,622	46,374	-0,047	0,031
-63,607	-51,313	0,056	0,019
-62,592	-200,000	0,011	0,132
-61,578	-200,000	-0,032	0,117
-60,563	800,000	-0,009	0,024
-59,549	289,311	0,062	0,082
-58,534	-79,469	-1,555	-0,377
-57,519	800,000	-0,700	-1,497
-56,505	-200,000	-1,072	-4,573
-55,490	-144,915	0,723	-0,047
-54,476	800,000	5,081	11,810
-53,461	-200,000	14,578	260,568
-52,446	-200,000	696,419	2236,121
-51,432	565,060	1622,185	2856,761
-50,417	117,965	1629,759	1452,845
-49,403	75,095	1283,727	977,944
-48,388	37,396	1022,542	654,532
-47,373	23,141	981,758	581,637
-46,359	22,326	971,045	572,599
-45,344	21,134	966,771	566,169
-44,330	21,139	965,302	565,301
-43,315	20,956	963,857	563,836
-42,300	20,919	962,842	563,100
-41,286	20,947	961,681	562,491
-40,271	20,919	960,875	561,907
-39,257	20,931	959,943	561,378
-38,242	20,938	958,832	560,726
-37,227	20,945	958,110	560,308
-36,213	20,892	957,232	559,599
-35,198	20,847	956,438	558,969
-34,184	20,884	955,667	558,616
-33,169	20,882	954,596	557,960
-32,154	20,964	953,775	557,721
-31,140	20,911	952,996	557,074
-30,125	20,922	952,420	556,751
-29,111	20,965	951,467	556,310
-28,096	20,888	950,831	555,668
-27,082	20,916	950,058	555,283
-26,067	20,877	949,192	554,631
-25,052	20,899	948,555	554,308
-24,038	20,871	947,894	553,809
-23,023	20,856	947,193	553,330
-22,009	20,991	946,550	553,364
-20,994	20,948	946,014	552,890
-19,979	20,927	945,533	552,521
-18,965	20,902	944,949	552,078
-17,950	20,889	944,301	551,637
-16,936	20,876	943,410	551,051
-15,921	20,832	943,003	550,651
-14,906	20,777	942,240	550,009
-13,892	20,796	941,485	549,609
-12,877	20,860	940,850	549,419
-11,863	20,764	940,414	548,837
-10,848	20,813	939,793	548,609
-9,833	20,887	939,359	548,568
-8,819	20,884	938,602	548,096
-7,804	20,823	938,055	547,562
-6,790	20,763	937,478	547,013
-5,775	20,793	936,746	546,658
-4,760	20,800	936,196	546,339
-3,746	20,732	935,760	545,849
-2,731	20,628	934,884	544,987
-1,717	20,603	934,243	544,512
-0,702	20,635	933,489	544,152
0,313	20,401	933,094	544,006
1,327	23,464	931,154	552,443
2,342	32,752	793,681	495,526
3,356	30,142	450,595	277,376
4,371	-0,036	294,994	151,382
5,386	-4,382	275,960	137,478
6,400	-5,494	270,278	133,600
7,415	-5,937	268,074	132,089
8,429	-5,607	266,719	131,713
9,444	-5,758	265,779	131,099
10,459	-5,670	265,117	130,842
11,473	-5,843	264,598	130,416
12,488	-5,811	264,066	130,171
13,502	-5,978	263,540	129,749
14,517	-6,069	263,221	129,498
15,531	-5,917	262,768	129,401
16,546	-5,819	262,317	129,255
17,561	-5,966	261,941	128,927
18,575	-5,908	261,650	128,824
19,590	-6,038	261,267	128,507
20,604	-5,872	261,063	128,545
21,619	-5,919	260,654	128,289
22,634	-5,987	260,300	128,043
23,648	-6,058	259,990	127,815
24,663	-5,948	259,666	127,743
25,677	-5,997	259,519	127,616
26,692	-5,812	259,211	127,618
27,707	-5,961	259,105	127,421
28,721	-5,948	258,653	127,199
29,736	-6,105	258,506	126,977
30,750	-5,868	258,133	126,992
31,765	-6,149	258,107	126,718
32,780	-6,077	257,585	126,514
33,794	-6,048	257,343	126,410
34,809	-6,021	257,260	126,382
35,823	-5,803	256,829	126,351
36,838	-5,779	256,542	126,220
37,853	-6,296	256,652	125,807
38,867	-6,028	256,318	125,868
39,882	-6,067	256,061	125,696
40,896	-6,164	255,881	125,512
41,911	-6,108	255,619	125,421
42,926	-6,115	255,328	125,261
43,940	-6,258	255,113	125,019
44,955	-6,213	254,852	124,919
45,969	-6,243	254,518	124,718
46,984	-6,423	254,444	124,513
47,999	-6,584	254,190	124,238
49,013	-6,787	253,915	123,915
50,028	-6,640	253,657	123,906
51,042	-6,829	253,349	123,580
52,057	-6,966	253,188	123,372
53,071	-6,951	252,973	123,269
54,086	-6,879	252,909	123,289
55,101	-6,647	252,622	123,339
56,115	-6,525	252,512	123,381
57,130	-5,923	252,426	123,849
58,144	-5,837	252,389	123,894
59,159	-5,883	251,996	123,650
60,174	-5,982	251,985	123,548
61,188	-5,870	251,632	123,461
62,203	-5,897	251,440	123,333
63,217	-5,991	251,240	123,142
64,232	-5,955	251,034	123,061
65,247	-5,998	250,800	122,898
66,261	-5,813	250,613	122,955
67,276	-6,180	250,217	122,435
68,290	-6,178	249,986	122,313
69,305	-6,393	249,774	122,014
70,320	-6,453	249,526	121,831
71,334	-6,200	249,616	122,081
72,349	-5,704	249,215	122,297
73,363	-5,764	249,304	122,279
74,378	-5,867	248,830	121,947
75,393	-6,059	248,709	121,713
76,407	-5,839	248,481	121,778
77,422	-5,963	248,284	121,565
78,436	-6,051	248,181	121,430
79,451	-6,016	248,048	121,383
80,466	-5,865	247,607	121,285
81,480	-6,193	247,435	120,911
82,495	-6,313	247,227	120,698
83,509	-6,225	247,065	120,682
84,524	-6,328	246,892	120,500
85,539	-6,516	246,730	120,251
86,553	-6,323	246,396	120,240
87,568	-6,304	246,298	120,198
88,582	-6,070	246,172	120,323
89,597	-6,294	245,851	119,966
90,611	-6,193	245,737	119,986
91,626	-5,996	245,670	120,107
92,641	-5,892	245,538	120,120
93,655	-5,936	245,191	119,902
94,670	-6,204	244,930	119,539
95,684	-6,320	244,776	119,357
96,699	-6,270	244,588	119,296
97,714	-6,485	244,482	119,054
98,728	-6,337	244,385	119,120
99,743	-6,386	243,945	118,854
100,757	-6,580	243,933	118,676
101,772	-6,434	243,791	118,717
102,787	-6,012	243,464	118,899
103,801	-6,270	243,463	118,674
104,816	-6,124	243,221	118,666
105,830	-5,804	243,037	118,832
106,845	-5,939	242,854	118,620
107,860	-5,904	242,628	118,527
108,874	-5,942	242,397	118,372
109,889	-6,095	242,246	118,162
110,903	-6,228	242,046	117,944
111,918	-6,308	241,930	117,810
112,933	-5,975	241,734	117,979
113,947	-6,135	241,587	117,766
114,962	-5,889	241,495	117,913
115,976	-6,137	241,292	117,598
116,991	-6,199	241,019	117,404
118,006	-6,039	240,999	117,516
119,020	-6,107	240,729	117,318
120,035	-5,981	240,676	117,384
121,049	-5,973	240,539	117,314
122,064	-6,209	240,364	117,025
123,079	-6,105	240,203	117,021
124,093	-6,135	239,944	116,860
125,108	-6,391	239,719	116,531
126,122	-6,576	239,262	116,147
127,137	-6,680	239,198	116,021
128,151	-6,459	239,087	116,137
129,166	-6,430	238,892	116,055
130,181	-6,328	238,661	116,016
131,195	-6,257	238,438	115,955
132,210	-6,270	238,357	115,895
133,224	-6,116	238,367	116,014
134,239	-6,174	238,196	115,873
135,254	-6,095	237,939	115,802
136,268	-6,120	237,660	115,635
137,283	-6,323	237,331	115,301
138,297	-6,633	237,324	115,037
139,312	-6,448	236,963	115,001
140,327	-6,338	236,975	115,085
141,341	-5,979	237,053	115,403
142,356	-5,646	236,913	115,593
143,370	-5,970	236,692	115,214
144,385	-5,610	236,397	115,349
145,400	-5,665	236,310	115,252
146,414	-5,769	236,215	115,112
147,429	-5,695	236,026	115,069
148,443	-5,861	235,717	114,775
149,458	-5,775	235,627	114,790
150,473	-5,710	235,468	114,755
151,487	-5,739	235,216	114,598
152,502	-5,943	235,282	114,457
153,516	-5,730	234,926	114,444
154,531	-5,657	234,885	114,472
155,546	-5,722	234,577	114,260
156,560	-5,814	234,435	114,107
157,575	-5,996	234,161	113,819
158,589	-5,835	234,010	113,863
159,604	-5,971	234,124	113,801
160,619	-5,566	233,814	113,961
161,633	-5,548	233,662	113,891
162,648	-5,627	233,530	113,754
163,662	-5,878	233,373	113,469
164,677	-5,722	233,147	113,472
165,692	-5,984	232,998	113,182
166,706	-5,619	232,965	113,445
167,721	-5,577	232,820	113,397
168,735	-5,537	232,621	113,322
169,750	-5,614	232,534	113,209
170,764	-5,986	232,318	112,800
171,779	-5,823	232,241	112,880
172,794	-5,596	232,052	112,958
173,808	-5,874	231,809	112,610
174,823	-6,085	231,516	112,293
175,837	-6,406	231,247	111,900
176,852	-6,013	231,204	112,177
177,867	-5,789	231,178	112,331
178,881	-5,754	230,987	112,256
179,896	-5,649	230,871	112,271
180,910	-5,375	230,535	112,312
181,925	-5,471	230,453	112,187
182,940	-5,599	230,417	112,059
183,954	-5,668	230,325	111,951
184,969	-5,526	230,068	111,927
185,983	-5,522	229,997	111,885
186,998	-5,577	229,849	111,761
188,013	-5,531	229,616	111,673
189,027	-5,628	229,528	111,544
190,042	-5,377	229,266	111,603
191,056	-5,377	228,894	111,411
192,071	-5,651	229,009	111,245
193,086	-5,430	228,822	111,315
194,100	-5,436	228,684	111,234
195,115	-5,691	228,373	110,875
196,129	-6,312	228,222	110,312
197,144	-3,264	229,125	113,103
198,159	1,061	230,279	117,028
199,173	3,637	231,065	119,423
200,188	4,048	230,892	119,642
201,202	3,972	230,663	119,454
202,217	4,006	230,614	119,444
203,232	4,136	230,615	119,535
204,246	4,358	230,444	119,608
205,261	4,417	230,334	119,586
206,275	4,611	230,401	119,761
207,290	4,530	230,064	119,512
208,304	4,600	229,823	119,430
209,319	4,503	229,733	119,298
210,334	4,318	229,527	119,037
211,348	4,135	229,329	118,782
212,363	3,783	229,078	118,371
213,377	3,739	228,760	118,163
214,392	3,675	228,563	118,001
215,407	3,806	228,576	118,097
216,421	3,734	228,505	117,995
217,436	3,670	228,219	117,788
218,450	3,385	228,021	117,456
219,465	3,347	227,768	117,286
220,480	3,470	227,638	117,303
221,494	3,440	227,553	117,226
222,509	3,618	227,531	117,340
223,523	3,456	227,379	117,128
224,538	3,525	227,157	117,056
225,553	3,543	227,053	117,005
226,567	3,788	226,869	117,087
227,582	3,915	226,767	117,120
228,596	4,138	226,619	117,203
229,611	3,805	226,392	116,822
230,626	3,544	226,282	116,557
231,640	3,651	226,068	116,517
232,655	3,813	226,102	116,647
233,669	4,210	225,972	116,871
234,684	4,319	225,949	116,931
235,699	4,117	225,548	116,560
236,713	3,882	225,480	116,338
237,728	3,750	225,305	116,137
238,742	3,712	225,043	115,963
239,757	3,438	224,970	115,708
240,772	3,590	224,809	115,730
241,786	3,649	224,694	115,704
242,801	3,519	224,636	115,566
243,815	4,107	224,525	115,942
244,830	4,100	224,429	115,877
245,844	3,689	224,046	115,360
246,859	3,841	223,895	115,386
247,874	3,710	224,034	115,349
248,888	3,934	223,624	115,295
249,903	3,682	223,585	115,076
250,917	3,848	223,376	115,083
251,932	3,527	223,214	114,749
252,947	3,608	222,978	114,678
253,961	3,237	222,956	114,379
254,976	3,597	222,760	114,537
255,990	3,748	222,745	114,632
257,005	3,820	222,614	114,607
258,020	3,950	222,421	114,595
259,034	3,999	222,407	114,613
260,049	4,048	222,203	114,535
261,063	4,020	221,992	114,395
262,078	4,002	221,950	114,350
263,093	4,132	221,732	114,325
264,107	4,059	221,528	114,155
265,122	4,036	221,382	114,052
266,136	4,118	221,484	114,155
267,151	4,086	221,289	114,021
268,166	3,490	221,042	113,442
269,180	3,404	220,666	113,176
270,195	3,437	220,696	113,205
271,209	3,446	220,443	113,073
272,224	3,588	220,448	113,169
273,239	3,785	220,229	113,192
274,253	3,942	219,995	113,177
275,268	3,576	219,799	112,797
276,282	3,311	219,805	112,595
277,297	3,237	219,560	112,406
278,312	3,391	219,397	112,425
279,326	3,648	219,403	112,607
280,341	3,518	219,209	112,402
281,355	3,616	219,103	112,409
282,370	3,680	218,858	112,320
283,384	3,569	218,624	112,109
284,399	3,273	218,578	111,859
285,414	3,426	218,454	111,898
286,428	3,574	218,323	111,928
287,443	3,760	218,294	112,039
288,457	4,017	218,031	112,081
289,472	3,658	217,816	111,700
290,487	3,193	217,694	111,289
291,501	3,066	217,597	111,137
292,516	3,211	217,650	111,260
293,530	3,474	217,347	111,286
294,545	3,208	217,254	111,036
295,560	3,554	216,981	111,137
296,574	3,692	216,929	111,200
297,589	3,588	216,816	111,056
298,603	3,814	216,657	111,129
299,618	3,774	216,599	111,060
300,633	3,766	216,463	110,975
301,647	3,824	216,425	110,987
302,662	4,157	216,392	111,201
303,676	3,853	215,980	110,760
304,691	3,731	215,760	110,551
305,706	3,923	215,814	110,706
306,720	4,053	215,666	110,713
307,735	3,878	215,549	110,518
308,749	3,633	215,459	110,286
309,764	3,856	215,189	110,298
310,779	3,919	215,153	110,315
311,793	3,855	214,818	110,087
312,808	3,688	214,777	109,937
313,822	3,519	214,762	109,799
314,837	3,607	214,450	109,692
315,852	3,530	214,184	109,491
316,866	3,482	214,241	109,476
317,881	3,722	214,160	109,596
318,895	3,870	214,034	109,628
319,910	3,943	213,742	109,520
320,925	3,568	213,591	109,167
321,939	3,194	213,424	108,806
322,954	3,304	213,415	108,869
323,968	3,695	213,241	109,049
324,983	3,946	213,069	109,129
325,997	3,886	213,069	109,077
327,012	3,660	212,864	108,802
328,027	3,702	212,784	108,781
329,041	4,046	212,799	109,022
330,056	4,101	212,602	108,951
331,070	3,825	212,311	108,597
332,085	3,459	212,077	108,209
333,100	3,645	212,023	108,303
334,114	3,782	211,920	108,338
335,129	3,693	211,743	108,175
336,143	3,733	211,578	108,109
337,158	3,521	211,678	108,001
338,173	3,547	211,420	107,878
339,187	3,363	211,162	107,608
340,202	3,511	210,902	107,570
341,216	3,460	210,873	107,510
342,231	3,557	210,869	107,566
343,246	3,509	210,662	107,417
344,260	3,280	210,537	107,184
345,275	3,492	210,429	107,267
346,289	3,650	210,357	107,331
347,304	3,908	210,231	107,438
348,319	3,679	210,053	107,178
349,333	3,617	209,945	107,070
350,348	3,764	209,855	107,117
351,362	3,891	209,661	107,096
352,377	3,872	209,448	106,965
353,392	3,535	209,506	106,751
354,406	3,791	209,251	106,789
355,421	195,206	1343,330	1431,987
356,435	155,841	1481,563	1432,064
