DTS Sentinel unit serial number:	SN410029Multiplexer serial number:	ORYXHardware model number:	OX2-SRSoftware version number:	ORYX F/W v4,00 Oryx Data Collector v3.7.2.0data status	okinstallation	B6 Nyhavnadifferential loss correction	single-endedforward channel	channel 2reverse channel	N/Adate	2023/12/07time	11:30:08forward acquisition time	300,00reverse acquisition time	0,00gamma	499,1914k internal	0,3202k external	0,3202temperature offset calibration	1,0000default loss term (dB/km)	0,3820temperature slope calibration	1,0000multiplexer offset coefficient	1,0000multiplexer slope coefficient	1,0000fibre end	0,00T internal ref (°C)	8,51T ext. ref 1 (°C)	-5,39T ext. ref 2 (°C)	-5,40length (m)	temperature (°C)	Stokes	anti-Stokes-744,400	60,208	0,196	0,141
-743,385	-87,132	-0,342	-0,075
-742,371	199,265	0,131	0,147
-741,356	-132,769	-0,349	0,032
-740,342	115,503	0,223	0,198
-739,327	2,299	-0,147	-0,077
-738,312	-37,745	0,188	0,072
-737,298	-104,580	-0,442	-0,073
-736,283	-166,066	0,182	-0,006
-735,269	-85,161	-0,333	-0,075
-734,254	77,349	0,170	0,131
-733,239	-22,890	-0,640	-0,279
-732,225	-26,263	0,236	0,100
-731,210	13,268	-0,020	-0,011
-730,196	-59,644	0,059	-0,018
-729,181	-108,782	-0,122	0,019
-728,167	800,000	-0,032	0,081
-727,152	-200,000	0,010	-0,035
-726,137	42,016	-0,026	0,017
-725,123	-98,145	-0,072	0,013
-724,108	-44,241	-0,095	0,035
-723,094	209,891	-0,127	-0,145
-722,079	-200,000	0,019	-0,128
-721,064	-200,000	-0,024	0,187
-720,050	8,187	0,063	0,034
-719,035	141,388	-0,031	-0,029
-718,021	-200,000	-0,022	-0,112
-717,006	800,000	-0,059	-0,130
-715,991	800,000	-0,077	-0,242
-714,977	766,464	-0,061	-0,120
-713,962	-43,830	-0,036	-0,013
-712,948	315,984	0,098	-0,134
-711,933	376,719	0,030	0,045
-710,918	-48,650	-0,119	-0,041
-709,904	-200,000	0,016	-0,160
-708,889	-200,000	-0,036	-0,169
-707,875	80,671	-0,053	0,041
-706,860	12,675	0,123	0,069
-705,845	-144,284	-0,011	0,001
-704,831	-4,389	0,053	-0,026
-703,816	265,147	0,068	-0,086
-702,802	-75,043	0,062	-0,016
-701,787	1,164	0,069	0,036
-700,772	800,000	0,008	0,019
-699,758	-200,000	0,027	0,098
-698,743	-153,160	0,083	-0,004
-697,729	800,000	-0,014	0,033
-696,714	-182,504	0,062	-0,001
-695,699	24,515	-0,073	-0,044
-694,685	-200,000	0,001	-0,007
-693,670	-41,959	-0,172	0,063
-692,656	800,000	-0,045	0,105
-691,641	429,558	-0,050	0,079
-690,627	800,000	-0,036	0,111
-689,612	-200,000	0,008	-0,052
-688,597	-200,000	0,007	0,112
-687,583	-153,987	0,118	0,006
-686,568	344,309	0,077	-0,110
-685,554	-200,000	-0,014	-0,109
-684,539	-200,000	-0,002	-0,119
-683,524	-200,000	0,008	0,026
-682,510	174,499	0,032	-0,034
-681,495	-51,734	-0,152	-0,051
-680,481	800,000	-0,080	-0,193
-679,466	-119,687	0,061	-0,008
-678,451	-58,551	-0,082	0,026
-677,437	49,810	0,072	0,049
-676,422	-47,500	-0,041	0,014
-675,408	-55,392	-0,041	0,013
-674,393	-152,827	-0,020	0,001
-673,378	155,822	-0,044	0,044
-672,364	800,000	-0,028	0,072
-671,349	14,845	-0,147	-0,083
-670,335	8,152	0,128	0,069
-669,320	800,000	0,023	0,053
-668,305	223,496	0,045	-0,053
-667,291	800,000	0,035	0,106
-666,276	-147,646	0,152	0,009
-665,262	-42,707	-0,140	-0,051
-664,247	800,000	0,031	-0,063
-663,232	-63,859	-0,224	-0,066
-662,218	107,705	0,050	-0,043
-661,203	576,805	0,038	0,067
-660,189	800,000	0,025	0,057
-659,174	87,821	-0,048	0,038
-658,159	336,668	-0,108	-0,152
-657,145	-200,000	0,028	-0,132
-656,130	23,842	-0,063	-0,038
-655,116	-151,939	-0,033	0,002
-654,101	-21,886	0,063	0,028
-653,086	800,000	0,061	-0,139
-652,072	149,657	-0,120	0,118
-651,057	-179,229	-0,054	0,001
-650,043	-200,000	-0,001	-0,025
-649,028	-84,815	-0,052	-0,012
-648,014	800,000	-0,017	-0,042
-646,999	-200,000	-0,007	-0,088
-645,984	-200,000	0,028	0,098
-644,970	235,407	-0,092	-0,110
-643,955	-9,073	-0,026	-0,013
-642,941	42,594	-0,081	-0,054
-641,926	-107,615	-0,124	-0,019
-640,911	-45,252	0,057	0,021
-639,897	-117,502	-0,076	0,010
-638,882	202,705	0,025	0,028
-637,868	15,193	-0,105	-0,060
-636,853	-200,000	-0,002	0,060
-635,838	73,275	0,057	0,043
-634,824	220,158	-0,025	-0,029
-633,809	512,766	0,079	-0,134
-632,795	-200,000	0,026	0,087
-631,780	-114,003	0,066	-0,009
-630,765	-120,739	-0,089	-0,011
-629,751	-32,938	-0,073	0,029
-628,736	100,869	0,017	0,014
-627,722	708,287	-0,032	-0,061
-626,707	-200,000	-0,002	0,136
-625,692	606,020	0,055	0,100
-624,678	-200,000	0,017	0,061
-623,663	-81,162	-0,117	0,028
-622,649	-200,000	-0,004	0,078
-621,634	-115,862	-0,104	0,014
-620,619	-80,088	0,066	-0,016
-619,605	-200,000	-0,051	0,166
-618,590	800,000	0,031	0,099
-617,576	56,162	0,065	0,046
-616,561	-200,000	0,017	-0,077
-615,546	-200,000	-0,009	-0,046
-614,532	-200,000	0,002	-0,128
-613,517	800,000	-0,050	-0,114
-612,503	-200,000	-0,010	-0,123
-611,488	-200,000	-0,006	0,084
-610,474	-120,421	0,080	-0,010
-609,459	133,972	0,043	0,040
-608,444	-115,657	-0,051	0,007
-607,430	-159,523	-0,204	-0,008
-606,415	800,000	-0,017	-0,041
-605,401	-111,297	0,061	0,009
-604,386	-200,000	0,012	0,050
-603,371	21,879	0,090	-0,053
-602,357	-123,700	0,080	0,009
-601,342	680,433	-0,064	-0,120
-600,328	39,616	-0,111	-0,072
-599,313	-200,000	0,032	-0,160
-598,298	-200,000	-0,010	-0,038
-597,284	-8,826	0,128	0,062
-596,269	-200,000	0,025	-0,122
-595,255	-34,298	-0,145	-0,057
-594,240	715,522	-0,044	-0,084
-593,225	-111,351	0,096	0,014
-592,211	800,000	0,019	0,061
-591,196	-46,840	0,045	-0,016
-590,182	-200,000	0,025	0,092
-589,167	-2,995	0,064	0,032
-588,152	437,263	0,010	-0,015
-587,138	193,350	-0,074	0,081
-586,123	-61,056	-0,069	0,021
-585,109	-116,689	-0,094	0,012
-584,094	800,000	-0,042	-0,129
-583,079	68,202	-0,101	-0,075
-582,065	-200,000	-0,019	-0,139
-581,050	800,000	-0,057	-0,130
-580,036	9,915	-0,150	-0,082
-579,021	58,896	0,047	-0,033
-578,006	-10,895	0,042	0,020
-576,992	122,295	-0,058	0,053
-575,977	-200,000	-0,009	-0,047
-574,963	-91,078	0,092	-0,019
-573,948	-200,000	-0,020	0,122
-572,934	343,329	-0,077	-0,109
-571,919	239,732	-0,075	-0,090
-570,904	178,303	-0,036	-0,038
-569,890	-16,061	0,116	-0,053
-568,875	221,612	0,064	-0,074
-567,861	-200,000	0,009	-0,070
-566,846	-135,045	-0,074	-0,006
-565,831	645,992	0,023	0,042
-564,817	361,152	-0,020	0,029
-563,802	75,798	-0,149	-0,114
-562,788	-101,621	-0,059	-0,010
-561,773	588,793	0,015	-0,027
-560,758	-42,365	0,125	0,046
-559,744	4,459	-0,096	-0,050
-558,729	-141,049	0,119	0,009
-557,715	85,948	-0,049	0,039
-556,700	64,052	-0,182	-0,132
-555,685	0,346	-0,015	0,008
-554,671	-101,171	0,031	-0,005
-553,656	-93,993	0,105	0,021
-552,642	-20,027	-0,210	0,093
-551,627	109,131	0,072	-0,062
-550,612	352,467	-0,007	-0,009
-549,598	-76,968	-0,170	0,043
-548,583	296,707	0,029	-0,038
-547,569	-129,703	-0,027	0,003
-546,554	174,357	0,041	0,043
-545,539	321,986	0,064	-0,088
-544,525	20,211	0,164	0,095
-543,510	-200,000	0,006	-0,061
-542,496	-60,499	0,064	-0,019
-541,481	-32,754	-0,162	-0,065
-540,466	172,704	0,005	0,005
-539,452	-200,000	-0,017	0,098
-538,437	104,826	-0,029	0,024
-537,423	-67,211	0,111	0,031
-536,408	122,810	-0,129	0,117
-535,393	131,383	-0,032	-0,030
-534,379	-200,000	0,016	-0,069
-533,364	-200,000	-0,004	-0,037
-532,350	-28,686	0,147	0,061
-531,335	160,092	-0,130	0,131
-530,321	11,090	-0,075	-0,041
-529,306	54,477	-0,128	-0,089
-528,291	136,871	-0,011	-0,010
-527,277	-200,000	0,014	-0,242
-526,262	-115,017	-0,039	-0,005
-525,248	282,267	0,094	-0,122
-524,233	168,031	0,068	0,070
-523,218	403,822	0,053	-0,081
-522,204	-200,000	-0,008	-0,096
-521,189	444,441	-0,055	-0,087
-520,175	-200,000	-0,024	-0,113
-519,160	128,193	0,082	0,076
-518,145	315,837	0,040	-0,055
-517,131	-200,000	-0,003	0,127
-516,116	-200,000	-0,010	0,052
-515,102	179,315	0,080	-0,084
-514,087	800,000	0,045	-0,103
-513,072	234,167	-0,065	-0,077
-512,058	83,973	-0,120	0,094
-511,043	-200,000	-0,001	-0,056
-510,029	511,601	-0,019	0,032
-509,014	-115,380	-0,068	-0,009
-507,999	800,000	-0,026	0,067
-506,985	346,592	-0,047	-0,067
-505,970	-200,000	0,031	-0,151
-504,956	-200,000	0,008	-0,132
-503,941	275,525	-0,051	0,066
-502,926	301,110	0,080	0,106
-501,912	494,294	-0,063	-0,105
-500,897	13,844	0,023	-0,013
-499,883	226,426	-0,082	-0,096
-498,868	158,445	0,074	-0,074
-497,853	18,073	-0,142	0,082
-496,839	19,116	0,083	-0,048
-495,824	275,538	0,032	-0,041
-494,810	-142,177	0,145	-0,010
-493,795	-142,014	-0,161	-0,011
-492,781	-114,586	0,030	-0,004
-491,766	146,115	0,039	0,038
-490,751	123,031	0,056	0,051
-489,737	800,000	-0,037	0,085
-488,722	800,000	0,061	0,134
-487,708	800,000	-0,023	-0,064
-486,693	-2,173	-0,043	0,022
-485,678	800,000	0,029	0,070
-484,664	181,849	-0,114	-0,121
-483,649	-144,605	-0,085	-0,006
-482,635	-200,000	-0,015	0,057
-481,620	-200,000	-0,007	-0,135
-480,605	370,284	-0,061	0,089
-479,591	-103,886	0,058	-0,010
-478,576	-52,888	-0,085	0,028
-477,562	246,078	0,036	-0,043
-476,547	61,073	-0,041	0,030
-475,532	20,752	0,053	0,031
-474,518	-200,000	0,001	0,108
-473,503	132,370	0,064	0,060
-472,489	-121,468	-0,221	-0,026
-471,474	-53,811	-0,135	0,044
-470,459	27,932	-0,061	-0,037
-469,445	-169,471	-0,044	0,001
-468,430	-200,000	-0,002	-0,036
-467,416	72,453	0,205	0,153
-466,401	-200,000	0,005	-0,046
-465,386	-200,000	0,003	-0,060
-464,372	554,204	0,048	-0,084
-463,357	222,975	0,065	-0,075
-462,343	-200,000	-0,034	-0,120
-461,328	-140,540	0,078	-0,006
-460,313	164,222	-0,061	0,062
-459,299	-111,357	0,093	-0,014
-458,284	800,000	0,061	0,144
-457,270	579,440	-0,055	-0,098
-456,255	-200,000	-0,003	0,056
-455,241	661,789	0,033	-0,062
-454,226	-200,000	-0,009	-0,055
-453,211	-121,676	0,109	-0,013
-452,197	608,511	0,047	0,084
-451,182	199,364	0,049	0,054
-450,168	41,481	0,071	0,046
-449,153	-66,509	-0,039	0,011
-448,138	-200,000	0,002	-0,006
-447,124	-55,893	-0,126	0,040
-446,109	80,727	0,125	0,097
-445,095	-74,401	-0,061	0,016
-444,080	-200,000	-0,010	0,116
-443,065	-200,000	0,025	0,120
-442,051	-108,731	0,100	-0,015
-441,036	200,247	-0,035	-0,039
-440,022	92,102	-0,021	-0,017
-439,007	92,633	-0,055	-0,045
-437,992	710,860	-0,071	0,135
-436,978	-200,000	-0,002	-0,037
-435,963	-200,000	0,014	-0,101
-434,949	-200,000	0,001	0,039
-433,934	226,349	0,012	0,013
-432,919	263,513	0,117	-0,147
-431,905	-32,404	0,041	0,016
-430,890	323,930	0,058	0,079
-429,876	-86,782	-0,103	0,022
-428,861	198,440	-0,072	0,080
-427,846	192,275	0,079	-0,086
-426,832	127,366	-0,112	-0,102
-425,817	-73,811	0,104	-0,027
-424,803	-69,843	-0,003	0,001
-423,788	221,153	0,081	-0,094
-422,773	-154,364	0,126	0,006
-421,759	-153,376	0,110	-0,005
-420,744	168,008	0,028	0,029
-419,730	-17,727	0,030	0,013
-418,715	481,107	-0,056	-0,092
-417,701	396,603	0,067	-0,101
-416,686	-28,487	0,074	-0,031
-415,671	127,606	0,158	0,144
-414,657	-128,140	0,027	0,003
-413,642	225,169	-0,088	-0,103
-412,628	-200,000	-0,002	-0,019
-411,613	337,808	-0,035	-0,049
-410,598	306,661	-0,107	0,144
-409,584	-9,619	0,231	-0,110
-408,569	330,844	0,085	0,117
-407,555	185,044	-0,084	0,089
-406,540	-200,000	0,160	-0,000
-405,525	622,458	0,026	-0,047
-404,511	73,353	-0,161	0,121
-403,496	302,861	0,037	-0,049
-402,482	-125,864	-0,017	-0,002
-401,467	-35,177	-0,106	0,041
-400,452	-61,130	0,102	-0,031
-399,438	41,296	0,099	-0,064
-398,423	160,305	-0,115	-0,115
-397,409	-64,611	-0,149	-0,043
-396,394	95,606	0,105	-0,085
-395,379	800,000	0,053	0,127
-394,365	-200,000	-0,001	-0,020
-393,350	-46,626	0,066	0,023
-392,336	-120,919	-0,096	0,012
-391,321	-200,000	-0,011	0,087
-390,306	-200,000	-0,011	-0,049
-389,292	-66,461	-0,149	0,042
-388,277	-200,000	0,025	0,101
-387,263	-75,186	-0,137	0,035
-386,248	140,402	0,055	-0,052
-385,233	-85,779	0,170	0,038
-384,219	145,307	0,114	0,110
-383,204	164,855	0,018	-0,018
-382,190	-126,059	-0,007	0,001
-381,175	800,000	-0,021	0,048
-380,160	157,188	-0,093	0,092
-379,146	-142,393	0,045	-0,003
-378,131	-148,516	0,190	0,011
-377,117	-200,000	0,014	0,084
-376,102	-200,000	-0,012	-0,137
-375,088	49,155	-0,128	-0,086
-374,073	800,000	-0,055	-0,129
-373,058	129,715	0,065	0,059
-372,044	353,111	0,036	-0,051
-371,029	800,000	0,006	-0,014
-370,015	298,073	-0,007	0,009
-369,000	112,081	-0,059	-0,051
-367,985	-200,000	0,041	-0,170
-366,971	-144,885	0,027	-0,002
-365,956	280,100	-0,047	-0,060
-364,942	695,670	-0,073	0,138
-363,927	-53,461	-0,088	-0,029
-362,912	167,655	-0,063	-0,064
-361,898	-200,000	0,003	-0,085
-360,883	-200,000	-0,004	-0,037
-359,869	800,000	-0,032	0,089
-358,854	-38,197	-0,090	-0,034
-357,839	-40,243	0,151	0,056
-356,825	-200,000	-0,041	0,135
-355,810	112,423	-0,127	0,110
-354,796	375,335	0,015	-0,022
-353,781	-99,754	-0,071	-0,013
-352,766	632,113	-0,044	-0,080
-351,752	-200,000	-0,030	-0,147
-350,737	-200,000	-0,018	0,076
-349,723	-200,000	-0,025	0,085
-348,708	504,815	-0,015	0,025
-347,693	4,078	0,116	0,060
-346,679	-21,565	-0,012	0,005
-345,664	-200,000	-0,002	-0,052
-344,650	168,802	0,085	0,087
-343,635	79,949	-0,061	0,047
-342,620	322,373	-0,036	-0,049
-341,606	800,000	-0,011	0,027
-340,591	-50,141	0,072	-0,024
-339,577	-200,000	0,010	0,035
-338,562	77,103	0,117	-0,089
-337,548	-158,999	-0,183	0,007
-336,533	173,807	0,127	0,131
-335,518	32,804	0,115	0,071
-334,504	-50,924	-0,075	0,025
-333,489	-159,951	0,094	0,004
-332,475	4,033	0,083	-0,043
-331,460	173,900	-0,083	0,086
-330,445	-147,688	0,066	0,004
-329,431	1,230	0,140	0,072
-328,416	-163,341	0,107	-0,004
-327,402	-97,857	-0,091	-0,017
-326,387	-200,000	-0,005	0,050
-325,372	-119,448	-0,078	0,010
-324,358	-132,273	0,120	-0,011
-323,343	-200,000	0,080	0,000
-322,329	-200,000	-0,010	0,123
-321,314	168,132	-0,036	-0,036
-320,299	62,117	0,060	0,043
-319,285	800,000	-0,035	0,098
-318,270	800,000	-0,032	-0,075
-317,256	28,296	-0,110	-0,066
-316,241	63,483	-0,038	0,027
-315,226	66,251	-0,113	0,082
-314,212	-156,432	0,022	-0,001
-313,197	-200,000	-0,034	0,138
-312,183	-97,420	0,103	-0,019
-311,168	338,194	0,035	0,050
-310,153	-200,000	-0,023	-0,126
-309,139	490,400	0,023	-0,038
-308,124	800,000	0,022	0,063
-307,110	686,339	0,076	0,143
-306,095	-200,000	0,008	0,061
-305,080	288,785	-0,114	0,147
-304,066	162,691	-0,060	-0,060
-303,051	31,049	-0,048	-0,030
-302,037	103,413	0,146	0,122
-301,022	-94,122	0,100	-0,019
-300,008	-91,770	-0,046	0,009
-298,993	-144,704	-0,006	0,000
-297,978	-58,675	-0,084	-0,026
-296,964	-128,677	0,108	-0,011
-295,949	84,364	0,124	-0,097
-294,935	-48,961	-0,027	0,009
-293,920	800,000	0,041	0,089
-292,905	303,440	0,058	0,077
-291,891	212,677	-0,045	0,051
-290,876	201,813	0,048	-0,053
-289,862	792,081	-0,054	0,106
-288,847	-136,895	-0,149	0,012
-287,832	677,244	-0,015	0,028
-286,818	-31,375	0,085	-0,034
-285,803	-200,000	0,040	0,129
-284,789	0,466	0,134	0,068
-283,774	-200,000	-0,020	0,180
-282,759	9,622	-0,129	-0,070
-281,745	128,083	-0,012	0,011
-280,730	-28,074	0,134	0,055
-279,716	-200,000	-0,010	-0,074
-278,701	37,031	-0,056	0,035
-277,686	784,602	0,029	-0,056
-276,672	-200,000	-0,005	0,029
-275,657	-149,780	-0,086	0,005
-274,643	-39,755	0,105	-0,039
-273,628	800,000	-0,025	-0,065
-272,613	8,983	-0,130	-0,070
-271,599	575,036	0,062	0,109
-270,584	-200,000	0,016	-0,074
-269,570	-200,000	0,014	-0,048
-268,555	138,135	-0,055	-0,052
-267,540	308,943	0,031	0,041
-266,526	426,858	-0,041	0,063
-265,511	-66,854	0,116	-0,033
-264,497	-200,000	0,069	0,227
-263,482	-8,877	0,009	-0,004
-262,467	21,917	0,049	0,028
-261,453	-127,122	0,090	-0,009
-260,438	100,189	-0,045	-0,038
-259,424	-4,884	-0,074	-0,036
-258,409	139,063	-0,047	-0,044
-257,395	800,000	0,017	0,053
-256,380	800,000	-0,022	-0,050
-255,365	474,073	-0,054	-0,087
-254,351	767,153	0,087	-0,169
-253,336	-138,151	-0,120	0,009
-252,322	-25,576	-0,095	-0,040
-251,307	800,000	-0,045	-0,135
-250,292	-155,104	0,112	0,005
-249,278	62,874	0,065	0,047
-248,263	-200,000	-0,001	0,011
-247,249	800,000	0,040	-0,088
-246,234	-111,337	-0,102	0,015
-245,219	-200,000	-0,006	-0,045
-244,205	438,160	0,044	0,068
-243,190	12,855	-0,050	-0,028
-242,176	-142,504	0,198	0,014
-241,161	310,864	-0,096	0,128
-240,146	800,000	-0,081	-0,212
-239,132	-89,321	0,049	0,010
-238,117	346,374	0,005	-0,007
-237,103	101,995	0,042	-0,035
-236,088	565,767	0,041	0,072
-235,073	-142,908	0,035	-0,002
-234,059	182,613	0,068	-0,071
-233,044	312,902	-0,098	0,131
-232,030	23,039	0,100	0,058
-231,015	539,784	-0,016	-0,028
-230,000	153,044	-0,112	-0,110
-228,986	-56,626	0,102	-0,032
-227,971	-144,612	-0,104	-0,007
-226,957	100,107	0,102	0,085
-225,942	-58,995	-0,034	-0,010
-224,927	88,745	-0,038	0,030
-223,913	800,000	0,048	-0,136
-222,898	457,315	-0,035	0,055
-221,884	248,991	-0,085	-0,103
-220,869	800,000	-0,059	-0,122
-219,855	-200,000	0,009	-0,181
-218,840	-200,000	0,039	0,129
-217,825	-200,000	-0,002	0,069
-216,811	800,000	-0,031	0,067
-215,796	252,637	-0,077	-0,093
-214,782	2,365	-0,076	-0,039
-213,767	-14,346	0,005	0,002
-212,752	800,000	0,063	-0,141
-211,738	-7,578	0,050	-0,024
-210,723	139,416	-0,092	0,086
-209,709	-200,000	-0,015	-0,163
-208,694	-140,821	-0,036	-0,003
-207,679	-64,893	0,149	-0,043
-206,665	-70,205	0,047	0,013
-205,650	212,753	0,086	0,097
-204,636	642,927	0,066	0,121
-203,621	800,000	0,073	0,170
-202,606	-200,000	-0,017	0,075
-201,592	-197,150	-0,061	-0,000
-200,577	8,082	-0,096	-0,051
-199,563	658,160	0,059	0,109
-198,548	-200,000	0,029	0,095
-197,533	-143,054	0,101	0,007
-196,519	32,937	-0,107	-0,066
-195,504	-200,000	-0,022	-0,077
-194,490	644,639	0,088	-0,160
-193,475	-52,019	0,040	0,013
-192,460	142,850	-0,052	-0,049
-191,446	-68,665	0,020	0,005
-190,431	375,563	0,025	-0,037
-189,417	-70,742	-0,040	-0,011
-188,402	-121,870	0,102	0,012
-187,387	99,525	0,073	-0,060
-186,373	-98,437	-0,066	0,012
-185,358	83,931	0,079	0,061
-184,344	800,000	0,060	0,122
-183,329	-200,000	0,138	0,000
-182,315	800,000	-0,026	0,060
-181,300	800,000	-0,007	-0,016
-180,285	-157,293	-0,069	-0,003
-179,271	-21,738	0,081	0,035
-178,256	800,000	-0,083	0,165
-177,242	-200,000	0,033	0,116
-176,227	34,234	0,110	-0,068
-175,212	800,000	0,025	0,064
-174,198	-60,512	0,023	0,007
-173,183	-200,000	0,005	0,039
-172,169	800,000	-0,041	-0,090
-171,154	-54,913	0,126	0,040
-170,139	18,829	0,037	0,021
-169,125	361,756	0,077	-0,110
-168,110	-200,000	-0,029	0,142
-167,096	194,997	-0,027	0,029
-166,081	-13,610	-0,081	-0,037
-165,066	672,208	0,046	-0,084
-164,052	-47,810	-0,142	0,048
-163,037	800,000	0,042	0,124
-162,023	-200,000	0,005	0,075
-161,008	452,671	-0,080	0,126
-159,993	-200,000	0,011	-0,103
-158,979	66,561	-0,112	0,081
-157,964	166,780	-0,061	0,062
-156,950	800,000	-0,024	0,072
-155,935	276,920	-0,027	0,034
-154,920	-200,000	0,023	0,139
-153,906	-109,392	0,147	0,022
-152,891	144,530	-0,059	0,056
-151,877	103,341	-0,071	-0,059
-150,862	-200,000	-0,001	0,016
-149,847	-143,704	0,039	-0,003
-148,833	-66,270	0,117	0,033
-147,818	-75,512	0,021	0,005
-146,804	800,000	-0,023	-0,046
-145,789	-200,000	0,019	-0,063
-144,775	-200,000	0,001	-0,070
-143,760	-108,902	-0,080	-0,012
-142,745	-200,000	-0,011	-0,054
-141,731	18,989	-0,061	0,035
-140,716	236,609	0,093	0,109
-139,702	-0,497	-0,106	0,053
-138,687	265,057	0,061	0,075
-137,672	247,504	-0,079	-0,095
-136,658	-160,521	0,094	-0,004
-135,643	-57,885	-0,100	0,031
-134,629	-150,096	-0,067	-0,004
-133,614	-200,000	0,025	0,104
-132,599	-81,362	-0,088	-0,020
-131,585	293,092	-0,116	0,151
-130,570	104,669	0,048	0,040
-129,556	163,423	-0,006	0,006
-128,541	232,056	-0,055	-0,064
-127,526	-45,743	-0,135	-0,047
-126,512	71,985	0,042	-0,031
-125,497	-200,000	0,011	0,073
-124,483	24,344	0,021	0,012
-123,468	221,160	0,064	0,073
-122,453	40,754	-0,197	-0,126
-121,439	36,922	0,079	0,049
-120,424	-200,000	0,000	-0,027
-119,410	-200,000	-0,009	-0,152
-118,395	-18,951	0,069	0,031
-117,380	-19,525	-0,061	0,027
-116,366	-4,302	0,078	-0,038
-115,351	-200,000	-0,011	0,159
-114,337	275,651	-0,006	0,008
-113,322	30,922	0,101	-0,061
-112,307	-200,000	0,022	-0,122
-111,293	366,308	0,029	0,042
-110,278	-200,000	-0,026	0,093
-109,264	-200,000	-0,017	-0,053
-108,249	121,710	-0,024	-0,021
-107,234	-23,839	-0,041	-0,017
-106,220	119,974	-0,043	0,038
-105,205	431,794	0,074	0,114
-104,191	-6,508	-0,112	0,054
-103,176	-180,929	-0,038	0,001
-102,162	56,171	0,078	0,054
-101,147	-4,773	-0,035	0,017
-100,132	73,033	-0,013	0,010
-99,118	-13,748	0,068	0,031
-98,103	50,862	0,065	-0,044
-97,089	-200,000	0,006	-0,030
-96,074	-73,625	-0,028	-0,007
-95,059	-147,639	-0,110	0,006
-94,045	-17,363	-0,029	-0,013
-93,030	68,438	-0,103	-0,075
-92,016	-200,000	-0,006	-0,120
-91,001	-200,000	-0,019	-0,088
-89,986	-200,000	0,032	-0,140
-88,972	-53,878	0,066	0,021
-87,957	30,478	0,133	-0,080
-86,943	360,594	-0,096	0,136
-85,928	394,311	-0,039	0,058
-84,913	-200,000	-0,007	-0,119
-83,899	800,000	0,033	0,075
-82,884	173,350	-0,071	0,073
-81,870	410,882	-0,001	0,002
-80,855	800,000	-0,011	0,026
-79,840	-200,000	-0,012	0,131
-78,826	306,145	0,059	-0,078
-77,811	-112,543	-0,109	-0,015
-76,797	-142,017	0,072	-0,005
-75,782	7,587	-0,095	0,050
-74,767	800,000	0,026	0,067
-73,753	223,845	0,068	-0,078
-72,738	32,089	-0,124	-0,075
-71,724	-94,013	-0,056	-0,011
-70,709	-14,265	-0,032	0,015
-69,694	-37,488	0,159	0,060
-68,680	153,486	-0,058	0,057
-67,665	7,859	0,112	0,059
-66,651	321,372	0,023	0,031
-65,636	1,385	-0,005	0,003
-64,622	-200,000	0,018	-0,078
-63,607	-200,000	0,002	0,048
-62,592	-200,000	0,017	-0,061
-61,578	44,697	-0,075	0,049
-60,563	-99,348	0,077	-0,014
-59,549	800,000	0,014	0,036
-58,534	86,738	-2,746	-2,144
-57,519	-1,233	0,425	-0,212
-56,505	800,000	-1,805	-5,494
-55,490	265,821	1,051	1,301
-54,476	800,000	5,416	11,781
-53,461	-200,000	22,020	341,651
-52,446	800,000	762,169	2282,830
-51,432	515,145	1656,199	2746,879
-50,417	66,918	1664,169	1197,892
-49,403	15,295	1583,297	876,339
-48,388	10,170	1535,860	823,846
-47,373	18,378	1529,571	862,171
-46,359	13,448	1518,163	830,866
-45,344	8,731	1514,057	804,783
-44,330	8,579	1512,276	803,036
-43,315	8,521	1510,787	801,923
-42,300	8,533	1508,730	800,860
-41,286	8,537	1506,961	799,908
-40,271	8,501	1505,668	799,011
-39,257	8,536	1504,232	798,393
-38,242	8,526	1502,815	797,561
-37,227	8,569	1501,268	796,921
-36,213	8,501	1500,063	795,909
-35,198	8,554	1498,685	795,412
-34,184	8,562	1497,373	794,726
-33,169	8,526	1496,018	793,793
-32,154	8,577	1494,558	793,244
-31,140	8,619	1493,129	792,660
-30,125	8,602	1491,668	791,769
-29,111	8,577	1490,740	791,123
-28,096	8,567	1489,634	790,454
-27,082	8,565	1488,481	789,801
-26,067	8,503	1487,510	788,943
-25,052	8,525	1486,037	788,243
-24,038	8,464	1485,165	787,444
-23,023	8,481	1484,041	786,903
-22,009	8,508	1483,173	786,544
-20,994	8,576	1482,137	786,301
-19,979	8,604	1480,670	785,628
-18,965	8,534	1479,978	784,884
-17,950	8,552	1478,945	784,397
-16,936	8,472	1478,234	783,593
-15,921	8,457	1476,850	782,752
-14,906	8,418	1475,831	781,989
-13,892	8,416	1474,762	781,386
-12,877	8,421	1473,881	780,912
-11,863	8,354	1472,739	779,946
-10,848	8,433	1471,965	779,893
-9,833	8,507	1470,995	779,711
-8,819	8,472	1469,945	778,953
-7,804	8,432	1468,856	778,147
-6,790	8,475	1468,194	777,978
-5,775	8,468	1467,300	777,438
-4,760	8,506	1466,447	777,138
-3,746	8,463	1465,192	776,234
-2,731	8,324	1464,200	775,000
-1,717	8,304	1463,084	774,279
-0,702	8,295	1462,101	773,688
0,313	8,085	1461,204	773,357
1,327	11,933	1458,293	790,460
2,342	21,157	1218,684	697,783
3,356	17,036	683,325	381,908
4,371	-11,037	462,651	215,045
5,386	-14,351	435,480	197,521
6,400	-15,296	426,552	192,091
7,415	-14,954	422,985	190,957
8,429	-16,480	419,941	187,400
9,444	-16,692	418,591	186,481
10,459	-16,856	417,334	185,673
11,473	-16,899	416,585	185,262
12,488	-17,124	415,759	184,562
13,502	-17,129	414,780	184,104
14,517	-17,194	413,926	183,617
15,531	-17,390	413,211	183,011
16,546	-17,394	412,369	182,615
17,561	-17,531	411,918	182,209
18,575	-17,369	411,158	182,081
19,590	-17,456	410,679	181,733
20,604	-17,535	410,328	181,452
21,619	-17,482	409,759	181,257
22,634	-17,570	409,176	180,861
23,648	-17,573	408,674	180,619
24,663	-17,586	408,334	180,434
25,677	-17,404	407,783	180,426
26,692	-17,557	407,344	180,005
27,707	-17,601	406,923	179,742
28,721	-17,542	406,448	179,598
29,736	-17,707	406,061	179,185
30,750	-17,543	405,518	179,153
31,765	-17,571	405,197	178,957
32,780	-17,564	404,850	178,798
33,794	-17,544	404,510	178,658
34,809	-17,526	404,079	178,477
35,823	-17,617	403,617	178,134
36,838	-17,582	403,144	177,956
37,853	-17,564	402,671	177,756
38,867	-17,610	402,429	177,571
39,882	-17,646	402,057	177,342
40,896	-17,662	401,838	177,209
41,911	-17,614	401,362	177,047
42,926	-17,722	401,121	176,779
43,940	-17,458	400,398	176,800
44,955	-17,598	400,397	176,596
45,969	-17,637	399,785	176,258
46,984	-17,745	399,477	175,960
47,999	-17,815	399,187	175,723
49,013	-17,738	398,848	175,662
50,028	-17,768	398,372	175,396
51,042	-17,872	398,068	175,108
52,057	-17,748	397,588	175,047
53,071	-17,871	397,461	174,811
54,086	-17,813	397,075	174,703
55,101	-17,763	396,740	174,607
56,115	-17,600	396,425	174,670
57,130	-17,387	396,186	174,834
58,144	-17,387	395,676	174,593
59,159	-17,435	395,546	174,455
60,174	-17,404	395,173	174,317
61,188	-17,239	394,598	174,267
62,203	-17,422	394,431	173,935
63,217	-17,379	393,964	173,770
64,232	-17,355	393,653	173,649
65,247	-17,094	393,295	173,821
66,261	-17,422	392,990	173,238
67,276	-17,610	392,535	172,773
68,290	-17,738	392,175	172,431
69,305	-17,621	391,960	172,474
70,320	-17,445	391,510	172,493
71,334	-17,501	391,332	172,326
72,349	-17,249	390,943	172,471
73,363	-17,305	390,622	172,240
74,378	-17,325	390,471	172,131
75,393	-17,295	389,901	171,904
76,407	-17,468	389,819	171,626
77,422	-17,445	389,205	171,370
78,436	-17,321	388,903	171,385
79,451	-17,345	388,590	171,200
80,466	-17,557	388,216	170,744
81,480	-17,524	387,713	170,550
82,495	-17,441	387,467	170,534
83,509	-17,559	387,229	170,261
84,524	-17,524	386,890	170,142
85,539	-17,565	386,459	169,884
86,553	-17,541	386,323	169,840
87,568	-17,427	385,786	169,736
88,582	-17,424	385,734	169,703
89,597	-17,594	385,464	169,348
90,611	-17,539	385,123	169,255
91,626	-17,454	384,836	169,224
92,641	-17,480	384,427	168,995
93,655	-17,581	384,231	168,764
94,670	-17,420	383,772	168,754
95,684	-17,490	383,535	168,545
96,699	-17,350	383,192	168,558
97,714	-17,446	383,017	168,344
98,728	-17,536	382,521	167,995
99,743	-17,574	382,257	167,816
100,757	-17,537	381,902	167,692
101,772	-17,469	381,619	167,640
102,787	-17,417	381,437	167,611
103,801	-17,452	381,080	167,395
104,816	-17,459	380,930	167,305
105,830	-17,279	380,610	167,379
106,845	-17,218	380,177	167,252
107,860	-17,360	380,079	167,013
108,874	-17,312	379,575	166,838
109,889	-17,169	379,146	166,816
110,903	-17,409	378,988	166,426
111,918	-17,204	378,680	166,537
112,933	-17,357	378,496	166,247
113,947	-17,165	378,109	166,306
114,962	-17,202	377,812	166,113
115,976	-17,354	377,651	165,835
116,991	-17,316	377,147	165,647
118,006	-17,392	377,117	165,523
119,020	-17,275	376,807	165,520
120,035	-17,296	376,594	165,385
121,049	-17,191	376,158	165,312
122,064	-17,299	375,952	165,070
123,079	-17,331	375,733	164,918
124,093	-17,318	375,243	164,706
125,108	-17,431	374,921	164,408
126,122	-17,552	374,519	164,065
127,137	-17,609	374,350	163,905
128,151	-17,507	374,189	163,948
129,166	-17,532	373,771	163,719
130,181	-17,531	373,458	163,568
131,195	-17,509	373,068	163,410
132,210	-17,289	372,791	163,549
133,224	-17,173	372,739	163,656
134,239	-17,127	372,409	163,554
135,254	-17,107	372,046	163,405
136,268	-17,310	371,751	163,008
137,283	-17,294	371,170	162,759
138,297	-17,507	371,118	162,457
139,312	-17,457	370,611	162,283
140,327	-17,302	370,595	162,453
141,341	-17,191	370,450	162,512
142,356	-17,039	370,102	162,534
143,370	-16,947	369,795	162,498
144,385	-17,098	369,438	162,141
145,400	-17,264	369,413	161,910
146,414	-17,060	369,019	161,974
147,429	-17,135	368,700	161,728
148,443	-17,226	368,496	161,512
149,458	-17,187	368,146	161,391
150,473	-17,060	367,995	161,467
151,487	-17,101	367,770	161,304
152,502	-17,081	367,353	161,131
153,516	-17,143	367,031	160,898
154,531	-17,104	366,871	160,863
155,546	-17,031	366,427	160,743
156,560	-17,115	366,337	160,586
157,575	-17,304	365,994	160,191
158,589	-17,114	365,796	160,321
159,604	-16,981	365,422	160,306
160,619	-17,083	365,053	160,005
161,633	-17,109	364,852	159,871
162,648	-17,051	364,644	159,837
163,662	-17,041	364,560	159,797
164,677	-16,937	364,119	159,717
165,692	-17,092	364,214	159,555
166,706	-17,000	363,711	159,433
167,721	-17,148	363,575	159,179
168,735	-17,036	363,399	159,224
169,750	-17,016	363,199	159,145
170,764	-16,942	362,758	159,028
171,779	-16,955	362,583	158,921
172,794	-16,998	362,402	158,776
173,808	-17,068	361,915	158,464
174,823	-17,378	361,570	157,925
175,837	-17,343	361,302	157,837
176,852	-17,052	361,321	158,180
177,867	-16,821	361,093	158,345
178,881	-17,020	360,858	157,988
179,896	-16,933	360,555	157,946
180,910	-17,061	360,230	157,636
181,925	-16,960	359,964	157,626
182,940	-16,977	359,804	157,522
183,954	-16,795	359,554	157,617
184,969	-16,871	359,267	157,385
185,983	-16,957	359,110	157,199
186,998	-16,941	358,718	157,033
188,013	-17,002	358,503	156,853
189,027	-16,881	358,201	156,851
190,042	-16,882	357,954	156,728
191,056	-16,885	357,786	156,636
192,071	-16,707	357,576	156,742
193,086	-16,684	357,318	156,642
194,100	-16,244	357,607	157,279
195,115	-15,374	357,385	158,202
196,129	-14,674	357,806	159,206
197,144	-10,794	359,541	164,598
198,159	-7,308	361,249	169,543
199,173	-4,418	362,604	173,636
200,188	-3,758	362,665	174,441
201,202	-3,355	362,391	174,777
202,217	-3,182	362,335	174,942
203,232	-3,053	362,140	174,987
204,246	-2,859	361,765	175,022
205,261	-2,795	361,680	175,041
206,275	-2,706	361,537	175,063
207,290	-2,673	361,124	174,887
208,304	-2,896	361,079	174,584
209,319	-2,737	360,731	174,589
210,334	-2,770	360,515	174,430
211,348	-2,716	360,275	174,362
212,363	-2,823	360,071	174,121
213,377	-2,584	359,884	174,300
214,392	-2,579	359,725	174,212
215,407	-2,515	359,389	174,110
216,421	-2,619	359,153	173,857
217,436	-2,512	358,923	173,856
218,450	-2,572	358,676	173,650
219,465	-2,558	358,367	173,502
220,480	-2,592	358,171	173,352
221,494	-2,729	358,088	173,133
222,509	-2,685	357,897	173,078
223,523	-2,446	357,551	173,177
224,538	-2,636	357,380	172,855
225,553	-2,505	357,050	172,834
226,567	-2,537	356,879	172,699
227,582	-2,554	356,559	172,508
228,596	-2,596	356,336	172,335
229,611	-2,478	356,153	172,370
230,626	-2,660	356,013	172,073
231,640	-2,632	355,677	171,928
232,655	-2,412	355,355	172,015
233,669	-2,642	355,166	171,639
234,684	-2,572	354,953	171,603
235,699	-2,512	354,646	171,509
236,713	-2,548	354,595	171,427
237,728	-2,433	354,205	171,357
238,742	-2,485	354,094	171,228
239,757	-2,525	353,800	171,025
240,772	-2,494	353,408	170,856
241,786	-2,526	353,238	170,721
242,801	-2,717	353,066	170,401
243,815	-2,541	352,853	170,487
244,830	-2,488	352,598	170,409
245,844	-2,603	352,587	170,256
246,859	-2,691	352,302	170,001
247,874	-2,500	351,829	169,979
248,888	-2,524	351,774	169,909
249,903	-2,455	351,530	169,856
250,917	-2,487	351,186	169,638
251,932	-2,519	351,056	169,522
252,947	-2,448	350,832	169,482
253,961	-2,455	350,622	169,357
254,976	-2,584	350,309	169,041
255,990	-2,574	350,048	168,912
257,005	-2,464	349,837	168,923
258,020	-2,483	349,643	168,791
259,034	-2,397	349,496	168,804
260,049	-2,499	349,217	168,537
261,063	-2,502	348,991	168,409
262,078	-2,427	348,657	168,319
263,093	-2,528	348,550	168,137
264,107	-2,314	348,277	168,236
265,122	-2,412	347,962	167,957
266,136	-2,508	347,946	167,824
267,151	-2,409	347,653	167,780
268,166	-2,437	347,333	167,579
269,180	-2,359	347,061	167,522
270,195	-2,452	346,888	167,318
271,209	-2,370	346,559	167,237
272,224	-2,354	346,534	167,229
273,239	-2,502	346,239	166,903
274,253	-2,342	346,131	167,018
275,268	-2,416	345,829	166,773
276,282	-2,376	345,511	166,650
277,297	-2,355	345,321	166,567
278,312	-2,468	345,280	166,405
279,326	-2,313	344,971	166,417
280,341	-2,326	344,868	166,338
281,355	-2,398	344,593	166,109
282,370	-2,228	344,300	166,144
283,384	-2,292	343,930	165,878
284,399	-2,454	343,820	165,628
285,414	-2,375	343,489	165,544
286,428	-2,283	343,309	165,546
287,443	-2,260	343,062	165,438
288,457	-2,179	342,868	165,420
289,472	-2,184	342,601	165,271
290,487	-2,430	342,558	164,959
291,501	-2,320	342,230	164,910
292,516	-2,348	342,124	164,813
293,530	-2,247	342,003	164,853
294,545	-2,184	341,716	164,770
295,560	-2,233	341,414	164,555
296,574	-2,183	341,266	164,526
297,589	-2,206	341,016	164,364
298,603	-2,190	340,864	164,295
299,618	-2,255	340,514	164,038
300,633	-2,263	340,215	163,872
301,647	-2,177	340,166	163,929
302,662	-2,182	339,909	163,784
303,676	-2,121	339,522	163,651
304,691	-2,202	339,376	163,476
305,706	-2,314	339,267	163,285
306,720	-2,213	338,975	163,241
307,735	-2,189	338,734	163,137
308,749	-2,268	338,701	163,019
309,764	-2,134	338,467	163,041
310,779	-2,085	338,107	162,907
311,793	-2,145	337,943	162,747
312,808	-2,150	337,631	162,577
313,822	-2,208	337,499	162,435
314,837	-2,078	337,306	162,471
315,852	-2,089	337,203	162,395
316,866	-2,040	336,831	162,255
317,881	-2,041	336,679	162,166
318,895	-1,850	336,343	162,200
319,910	-2,102	336,216	161,848
320,925	-2,044	336,076	161,829
321,939	-1,958	335,714	161,735
322,954	-2,045	335,569	161,555
323,968	-1,985	335,431	161,540
324,983	-1,941	335,203	161,464
325,997	-2,074	335,070	161,240
327,012	-1,888	334,689	161,245
328,027	-1,958	334,463	161,047
329,041	-2,007	334,308	160,904
330,056	-2,045	333,985	160,692
331,070	-1,776	333,790	160,878
332,085	-1,783	333,650	160,787
333,100	-1,858	333,409	160,575
334,114	-1,782	333,262	160,573
335,129	-1,922	333,089	160,324
336,143	-1,960	332,861	160,158
337,158	-1,829	332,591	160,156
338,173	-1,827	332,323	160,015
339,187	-1,882	332,103	159,835
340,202	-1,988	331,976	159,644
341,216	-1,888	331,671	159,592
342,231	-2,005	331,562	159,399
343,246	-1,931	331,253	159,316
344,260	-1,910	331,032	159,218
345,275	-1,946	330,797	159,053
346,289	-1,980	330,499	158,858
347,304	-1,863	330,337	158,892
348,319	-1,814	330,294	158,911
349,333	-1,880	330,235	158,797
350,348	-1,756	329,749	158,682
351,362	-1,828	329,575	158,507
352,377	-1,857	329,426	158,390
353,392	-1,792	329,312	158,390
354,406	-1,935	329,209	158,174
355,421	196,721	1324,866	1385,965
356,435	160,961	1446,004	1385,809
