DTS Sentinel unit serial number:	SN410029Multiplexer serial number:	ORYXHardware model number:	OX2-SRSoftware version number:	ORYX F/W v4,00 Oryx Data Collector v3.7.2.0data status	okinstallation	B6 Nyhavnadifferential loss correction	single-endedforward channel	channel 2reverse channel	N/Adate	2023/12/10time	03:30:08forward acquisition time	300,00reverse acquisition time	0,00gamma	499,1914k internal	0,3125k external	0,3125temperature offset calibration	1,0000default loss term (dB/km)	0,3820temperature slope calibration	1,0000multiplexer offset coefficient	1,0000multiplexer slope coefficient	1,0000fibre end	0,00T internal ref (°C)	22,02T ext. ref 1 (°C)	5,93T ext. ref 2 (°C)	5,91length (m)	temperature (°C)	Stokes	anti-Stokes-744,400	545,195	0,043	-0,076
-743,385	228,809	-0,098	0,119
-742,371	-79,000	0,089	0,022
-741,356	-7,907	-0,308	0,154
-740,342	-200,000	-0,003	-0,122
-739,327	-116,821	-0,355	-0,048
-738,312	93,586	0,049	0,041
-737,298	51,409	-0,177	0,125
-736,283	-21,548	0,099	-0,045
-735,269	109,127	-0,086	0,076
-734,254	800,000	-0,021	-0,069
-733,239	-51,232	-0,380	-0,132
-732,225	210,056	0,126	-0,148
-731,210	-200,000	-0,005	-0,088
-730,196	29,939	0,099	-0,062
-729,181	800,000	-0,028	-0,069
-728,167	800,000	0,047	-0,110
-727,152	115,126	-0,056	0,051
-726,137	319,030	0,105	-0,149
-725,123	800,000	0,028	-0,075
-724,108	-32,078	-0,125	-0,052
-723,094	510,630	-0,078	-0,136
-722,079	283,387	-0,075	-0,101
-721,064	-62,137	-0,140	-0,043
-720,050	-137,108	-0,029	-0,002
-719,035	49,490	-0,109	0,076
-718,021	-14,195	-0,084	-0,040
-717,006	184,026	-0,007	0,007
-715,991	800,000	-0,066	-0,145
-714,977	365,759	-0,048	-0,073
-713,962	-200,000	0,011	-0,044
-712,948	88,361	-0,033	0,027
-711,933	4,106	-0,165	0,089
-710,918	-200,000	-0,001	0,027
-709,904	800,000	-0,055	-0,128
-708,889	407,881	-0,060	-0,094
-707,875	-47,690	-0,140	0,050
-706,860	-121,751	-0,128	0,015
-705,845	-116,563	0,065	0,009
-704,831	116,252	-0,169	0,154
-703,816	-200,000	0,025	-0,087
-702,802	-200,000	-0,002	0,161
-701,787	179,299	-0,097	-0,106
-700,772	219,578	0,027	-0,033
-699,758	-92,551	0,054	0,011
-698,743	-105,149	-0,081	-0,014
-697,729	-56,491	0,112	0,037
-696,714	-6,467	-0,083	0,042
-695,699	131,489	0,039	-0,037
-694,685	-62,508	-0,100	0,031
-693,670	88,414	0,028	0,023
-692,656	-175,234	0,078	-0,002
-691,641	29,043	-0,048	-0,030
-690,627	131,255	0,129	0,123
-689,612	-113,126	0,107	0,016
-688,597	426,155	0,076	0,122
-687,583	-114,944	-0,130	-0,018
-686,568	-200,000	-0,028	-0,107
-685,554	455,992	0,018	-0,031
-684,539	-25,473	0,198	-0,087
-683,524	461,587	0,056	-0,093
-682,510	-66,498	-0,114	-0,033
-681,495	166,549	-0,064	-0,068
-680,481	-200,000	0,003	-0,149
-679,466	-148,436	0,093	0,006
-678,451	-9,267	-0,032	-0,016
-677,437	252,344	0,062	-0,079
-676,422	171,844	-0,087	-0,093
-675,408	-200,000	-0,001	0,026
-674,393	-128,748	-0,152	-0,016
-673,378	779,872	-0,043	-0,087
-672,364	-55,654	-0,046	0,015
-671,349	-200,000	-0,051	-0,217
-670,335	-9,384	-0,114	0,056
-669,320	-133,401	0,251	-0,023
-668,305	315,146	-0,027	0,037
-667,291	-24,442	0,035	0,016
-666,276	-108,687	-0,109	-0,017
-665,262	-59,736	0,073	0,023
-664,247	-200,000	-0,021	-0,089
-663,232	243,754	-0,096	-0,120
-662,218	77,609	-0,069	0,055
-661,203	-200,000	0,010	0,081
-660,189	16,419	0,078	0,046
-659,174	73,239	-0,078	-0,060
-658,159	70,695	-0,023	-0,017
-657,145	169,242	0,019	0,020
-656,130	-8,266	0,024	0,012
-655,116	800,000	0,002	-0,006
-654,101	253,764	0,027	-0,034
-653,086	-200,000	-0,034	0,169
-652,072	-141,789	-0,068	0,005
-651,057	38,812	-0,077	-0,051
-650,043	-79,877	-0,171	-0,042
-649,028	-60,458	0,069	0,022
-648,014	50,043	0,054	0,038
-646,999	-200,000	-0,004	-0,054
-645,984	-200,000	0,018	0,079
-644,970	47,012	-0,134	0,092
-643,955	29,439	0,076	-0,048
-642,941	432,774	0,025	-0,041
-641,926	-200,000	0,000	0,002
-640,911	-17,549	0,125	0,058
-639,897	800,000	0,014	0,037
-638,882	85,300	-0,063	0,051
-637,868	-67,294	-0,065	-0,019
-636,853	-32,537	-0,109	-0,045
-635,838	-200,000	-0,005	0,124
-634,824	-143,769	0,117	0,008
-633,809	-200,000	0,001	-0,121
-632,795	-17,666	0,143	0,066
-631,780	800,000	-0,081	0,188
-630,765	48,610	-0,105	0,073
-629,751	97,214	-0,097	-0,082
-628,736	-5,385	-0,026	0,013
-627,722	-21,498	-0,108	0,049
-626,707	-13,568	0,148	-0,071
-625,692	114,153	0,087	-0,078
-624,678	45,713	0,055	0,038
-623,663	-63,610	0,035	-0,011
-622,649	-200,000	-0,033	-0,162
-621,634	442,180	-0,038	-0,062
-620,619	-101,816	-0,104	0,018
-619,605	-121,343	-0,072	0,009
-618,590	-70,838	0,147	-0,041
-617,576	-12,687	0,079	0,038
-616,561	57,041	-0,135	0,097
-615,546	215,708	-0,012	-0,015
-614,532	-40,495	-0,138	0,053
-613,517	792,423	-0,045	0,092
-612,503	-200,000	-0,025	0,098
-611,488	-200,000	-0,003	0,080
-610,474	547,120	0,035	0,063
-609,459	800,000	0,003	-0,008
-608,444	-1,175	-0,082	0,043
-607,430	-56,142	0,076	0,025
-606,415	267,512	0,055	-0,072
-605,401	800,000	-0,031	-0,083
-604,386	-131,162	-0,053	0,005
-603,371	74,618	0,103	0,080
-602,357	800,000	0,008	-0,025
-601,342	-95,379	-0,070	0,014
-600,328	-200,000	-0,063	-0,233
-599,313	101,679	0,086	-0,074
-598,298	800,000	0,015	0,043
-597,284	-200,000	-0,047	0,174
-596,269	-43,444	-0,089	-0,033
-595,255	-26,800	0,060	0,026
-594,240	41,434	-0,127	-0,085
-593,225	-106,593	0,041	-0,007
-592,211	-149,773	0,015	0,001
-591,196	215,833	0,052	0,061
-590,182	-121,494	0,068	-0,008
-589,167	-200,000	0,001	0,064
-588,152	-200,000	0,001	0,093
-587,138	800,000	-0,032	0,088
-586,123	-200,000	-0,010	0,052
-585,109	-200,000	-0,026	-0,116
-584,094	-200,000	0,030	-0,099
-583,079	-95,597	0,119	-0,023
-582,065	-200,000	0,010	-0,060
-581,050	60,912	-0,076	0,055
-580,036	328,835	0,064	-0,091
-579,021	-7,599	0,125	-0,062
-578,006	-200,000	0,031	-0,155
-576,992	-70,988	0,029	0,008
-575,977	-52,125	-0,128	-0,044
-574,963	-200,000	0,017	-0,081
-573,948	279,450	0,077	-0,102
-572,934	800,000	0,061	0,132
-571,919	-53,205	-0,016	-0,006
-570,904	96,026	-0,060	-0,051
-569,890	127,698	-0,078	0,073
-568,875	-60,476	0,107	-0,034
-567,861	230,222	-0,058	0,070
-566,846	-4,498	0,115	0,058
-565,831	-88,010	0,126	0,028
-564,817	65,780	0,063	-0,047
-563,802	-119,433	-0,147	-0,019
-562,788	797,874	-0,077	-0,158
-561,773	-98,063	-0,029	0,005
-560,758	800,000	-0,037	0,086
-559,744	800,000	-0,014	-0,038
-558,729	103,043	0,063	0,054
-557,715	63,368	0,025	0,019
-556,700	-94,025	0,064	0,013
-555,685	-41,941	0,017	0,006
-554,671	-200,000	-0,023	-0,092
-553,656	-121,635	0,082	-0,010
-552,642	251,077	-0,056	0,071
-551,627	-97,596	-0,150	0,029
-550,612	-200,000	-0,008	-0,171
-549,598	800,000	0,036	-0,093
-548,583	-200,000	0,010	0,073
-547,569	302,275	-0,026	-0,036
-546,554	-98,660	0,045	0,008
-545,539	800,000	-0,027	-0,082
-544,525	-200,000	0,016	0,063
-543,510	800,000	-0,015	0,041
-542,496	564,321	-0,018	0,031
-541,481	800,000	0,026	-0,080
-540,466	227,676	-0,053	0,064
-539,452	178,956	-0,047	-0,051
-538,437	-60,135	-0,108	-0,034
-537,423	102,335	0,045	0,039
-536,408	-65,689	0,049	-0,014
-535,393	-112,020	-0,106	0,016
-534,379	-200,000	0,003	-0,030
-533,364	-5,263	-0,086	-0,043
-532,350	-150,620	0,139	-0,008
-531,335	191,462	-0,038	-0,043
-530,321	565,525	0,045	0,080
-529,306	-200,000	-0,006	0,103
-528,291	800,000	0,032	-0,101
-527,277	-200,000	0,005	-0,068
-526,262	366,479	0,045	0,067
-525,248	8,851	0,032	-0,018
-524,233	28,506	-0,068	0,042
-523,218	-51,593	-0,093	-0,032
-522,204	116,874	-0,066	0,059
-521,189	-200,000	0,019	0,090
-520,175	-115,390	0,131	0,018
-519,160	46,596	-0,017	-0,011
-518,145	800,000	-0,034	-0,077
-517,131	202,375	-0,050	0,057
-516,116	105,171	0,049	0,043
-515,102	-200,000	-0,002	-0,066
-514,087	386,229	0,028	0,044
-513,072	-72,781	-0,026	-0,007
-512,058	-200,000	0,020	-0,138
-511,043	-66,233	0,071	0,021
-510,029	-116,989	-0,115	-0,015
-509,014	93,569	0,125	-0,104
-507,999	293,714	0,041	-0,055
-506,985	361,016	-0,061	-0,091
-505,970	1,658	-0,054	-0,029
-504,956	451,314	0,028	0,045
-503,941	-200,000	0,008	-0,095
-502,926	237,621	-0,083	0,102
-501,912	-99,619	0,084	0,015
-500,897	-79,343	0,067	-0,017
-499,883	88,044	-0,147	-0,120
-498,868	800,000	0,007	-0,021
-497,853	-50,595	-0,062	-0,021
-496,839	-120,243	0,085	0,011
-495,824	472,781	-0,047	-0,079
-494,810	44,587	0,175	0,118
-493,795	-169,958	0,140	0,004
-492,781	43,996	-0,145	-0,098
-491,766	-108,581	-0,108	0,017
-490,751	-161,540	-0,051	0,002
-489,737	-124,166	-0,045	-0,005
-488,722	-86,733	0,078	-0,018
-487,708	-6,476	-0,165	0,083
-486,693	-34,972	-0,105	0,042
-485,678	800,000	-0,003	-0,007
-484,664	126,515	-0,083	0,078
-483,649	-200,000	-0,012	0,091
-482,635	-200,000	-0,002	0,006
-481,620	800,000	0,026	-0,067
-480,605	54,029	0,050	0,036
-479,591	-200,000	0,014	0,074
-478,576	656,883	0,073	-0,138
-477,562	-200,000	-0,045	-0,151
-476,547	-166,429	0,138	0,004
-475,532	-135,338	-0,138	-0,012
-474,518	800,000	0,060	-0,178
-473,503	-103,765	-0,072	0,012
-472,489	-5,143	-0,047	0,024
-471,474	800,000	0,013	-0,039
-470,459	-104,226	-0,076	-0,013
-469,445	720,401	0,025	-0,050
-468,430	516,012	-0,059	-0,102
-467,416	2,276	0,161	-0,086
-466,401	0,879	-0,170	-0,089
-465,386	800,000	0,033	-0,087
-464,372	-42,709	-0,091	-0,034
-463,357	-200,000	0,001	-0,104
-462,343	800,000	0,021	-0,067
-461,328	184,669	-0,094	-0,103
-460,313	795,657	-0,057	-0,116
-459,299	768,474	0,020	0,041
-458,284	-200,000	-0,006	0,027
-457,270	-128,234	0,023	-0,002
-456,255	420,679	0,015	-0,023
-455,241	-78,872	-0,058	-0,015
-454,226	-200,000	0,018	-0,154
-453,211	59,340	-0,057	-0,041
-452,197	-11,452	0,055	0,027
-451,182	214,722	0,123	-0,144
-450,168	-57,659	0,081	-0,026
-449,153	-200,000	0,016	-0,142
-448,138	386,652	-0,036	0,054
-447,124	-22,348	-0,123	-0,055
-446,109	36,829	-0,128	-0,083
-445,095	800,000	0,023	-0,050
-444,080	310,611	0,143	0,197
-443,065	-200,000	-0,006	0,127
-442,051	-58,510	-0,053	-0,017
-441,036	68,112	-0,046	-0,034
-440,022	463,256	-0,077	-0,128
-439,007	800,000	-0,019	0,041
-437,992	41,633	0,082	-0,055
-436,978	-200,000	0,009	0,042
-435,963	694,748	-0,023	0,045
-434,949	77,391	0,086	-0,067
-433,934	800,000	0,016	-0,044
-432,919	-76,059	-0,119	0,031
-431,905	-200,000	-0,009	-0,054
-430,890	184,597	0,028	0,030
-429,876	-17,214	0,056	0,026
-428,861	800,000	0,036	0,084
-427,846	385,654	-0,047	-0,072
-426,832	-7,901	-0,114	-0,056
-425,817	-200,000	-0,021	-0,092
-424,803	637,638	-0,035	0,066
-423,788	-200,000	0,002	0,159
-422,773	-200,000	0,015	-0,101
-421,759	347,466	0,060	-0,087
-420,744	-79,679	-0,096	-0,024
-419,730	542,711	-0,069	0,121
-418,715	-111,411	-0,112	-0,017
-417,701	120,925	-0,013	0,012
-416,686	-200,000	-0,002	0,014
-415,671	180,824	0,025	0,027
-414,657	-125,795	-0,152	0,017
-413,642	523,396	-0,056	-0,096
-412,628	98,417	-0,024	0,020
-411,613	-182,448	-0,128	0,002
-410,598	77,683	-0,007	-0,006
-409,584	-200,000	0,020	-0,166
-408,569	-200,000	0,010	0,053
-407,555	-200,000	0,015	0,222
-406,540	213,404	0,047	-0,055
-405,525	800,000	-0,012	0,038
-404,511	-200,000	-0,028	-0,160
-403,496	348,565	0,040	0,058
-402,482	505,515	0,050	0,085
-401,467	766,091	-0,015	0,031
-400,452	418,522	0,094	0,147
-399,438	50,389	-0,054	0,037
-398,423	64,128	-0,141	-0,104
-397,409	800,000	-0,019	0,044
-396,394	25,043	-0,024	-0,015
-395,379	221,983	0,022	-0,026
-394,365	-200,000	-0,009	0,081
-393,350	-34,827	-0,092	-0,037
-392,336	5,934	0,019	0,010
-391,321	-200,000	0,009	0,056
-390,306	48,589	0,008	0,006
-389,292	-200,000	-0,023	-0,155
-388,277	-15,886	-0,067	0,031
-387,263	-200,000	0,014	0,056
-386,248	-200,000	0,011	0,059
-385,233	-165,129	-0,134	0,004
-384,219	-200,000	-0,011	0,104
-383,204	2,507	0,088	0,047
-382,190	510,797	0,011	-0,019
-381,175	150,453	-0,060	0,060
-380,160	505,282	-0,035	0,060
-379,146	-200,000	-0,008	0,143
-378,131	-23,306	0,210	0,092
-377,117	-43,163	-0,069	-0,025
-376,102	-0,654	0,079	0,041
-375,088	-79,350	-0,097	0,024
-374,073	-200,000	0,003	0,093
-373,058	800,000	0,032	0,102
-372,044	-171,887	0,270	-0,006
-371,029	553,429	-0,048	0,085
-370,015	152,333	0,063	-0,063
-369,000	264,560	0,041	-0,053
-367,985	-200,000	-0,022	0,075
-366,971	800,000	0,052	-0,119
-365,956	-73,700	0,124	-0,033
-364,942	63,540	0,132	0,097
-363,927	44,271	-0,052	-0,035
-362,912	-200,000	-0,003	0,035
-361,898	53,883	-0,040	-0,028
-360,883	-94,955	-0,151	-0,030
-359,869	374,203	-0,049	-0,073
-358,854	-200,000	-0,044	0,186
-357,839	-100,740	0,065	-0,012
-356,825	142,063	0,018	0,018
-355,810	28,147	-0,063	0,039
-354,796	800,000	0,027	-0,068
-353,781	246,106	-0,044	-0,055
-352,766	800,000	0,057	-0,122
-351,752	251,703	0,012	-0,015
-350,737	-35,253	0,032	-0,013
-349,723	-168,091	-0,110	-0,003
-348,708	210,003	0,072	-0,083
-347,693	800,000	-0,058	-0,172
-346,679	82,308	-0,070	0,055
-345,664	-47,469	0,191	0,068
-344,650	800,000	-0,044	-0,110
-343,635	-182,120	0,133	-0,002
-342,620	678,780	-0,070	0,134
-341,606	636,350	0,049	0,092
-340,591	97,641	0,064	0,054
-339,577	-200,000	-0,013	-0,060
-338,562	150,693	-0,093	-0,093
-337,548	-200,000	0,000	0,179
-336,533	-130,030	0,056	-0,006
-335,518	800,000	0,033	0,085
-334,504	237,624	0,016	-0,019
-333,489	-200,000	-0,009	0,118
-332,475	-0,671	0,051	0,027
-331,460	800,000	-0,018	-0,038
-330,445	800,000	-0,060	-0,166
-329,431	13,999	0,125	0,071
-328,416	125,775	0,094	0,087
-327,402	-200,000	0,002	0,133
-326,387	-58,562	0,150	-0,048
-325,372	17,289	0,120	0,070
-324,358	417,753	0,065	0,103
-323,343	117,725	0,045	-0,040
-322,329	800,000	0,019	-0,050
-321,314	-187,694	0,121	-0,001
-320,299	-200,000	0,004	0,232
-319,285	82,587	0,090	0,071
-318,270	800,000	0,020	-0,042
-317,256	-200,000	-0,001	-0,114
-316,241	-181,767	0,152	-0,002
-315,226	800,000	0,022	-0,055
-314,212	-101,405	0,114	0,020
-313,197	800,000	0,018	-0,046
-312,183	-61,479	0,060	0,018
-311,168	-54,974	0,016	-0,005
-310,153	94,056	0,027	-0,022
-309,139	-200,000	-0,005	0,099
-308,124	442,736	0,066	-0,107
-307,110	30,633	0,096	0,060
-306,095	87,881	-0,127	0,103
-305,080	215,247	0,018	-0,020
-304,066	800,000	-0,042	-0,108
-303,051	-200,000	-0,004	0,023
-302,037	305,195	-0,050	0,068
-301,022	-200,000	-0,027	0,126
-300,008	54,964	-0,019	0,013
-298,993	37,652	0,060	-0,039
-297,978	58,522	-0,098	0,070
-296,964	-200,000	-0,011	-0,102
-295,949	800,000	-0,016	-0,043
-294,935	-200,000	0,014	0,056
-293,920	-111,542	-0,174	0,026
-292,905	800,000	0,072	-0,157
-291,891	140,518	0,086	0,083
-290,876	-70,310	-0,048	0,013
-289,862	350,700	0,064	0,093
-288,847	-104,222	0,092	-0,015
-287,832	-200,000	-0,017	-0,067
-286,818	-200,000	0,002	-0,031
-285,803	800,000	0,042	0,128
-284,789	-104,458	0,021	0,004
-283,774	800,000	0,048	0,112
-282,759	-200,000	0,018	-0,109
-281,745	-200,000	-0,007	-0,121
-280,730	181,227	-0,072	-0,078
-279,716	-55,469	-0,048	0,016
-278,701	-200,000	0,016	0,183
-277,686	-10,527	0,186	0,090
-276,672	-34,797	0,012	-0,005
-275,657	86,584	-0,063	0,051
-274,643	128,133	-0,071	-0,066
-273,628	32,306	-0,091	-0,057
-272,613	747,675	-0,064	-0,127
-271,599	-200,000	0,007	-0,102
-270,584	323,549	-0,003	-0,005
-269,570	98,130	0,067	-0,056
-268,555	-10,067	-0,045	-0,022
-267,540	200,543	-0,019	-0,022
-266,526	800,000	0,015	-0,041
-265,511	305,309	0,028	-0,038
-264,497	-99,358	0,132	0,024
-263,482	800,000	0,011	-0,033
-262,467	97,109	0,107	0,090
-261,453	328,345	-0,051	0,072
-260,438	-133,648	0,077	-0,007
-259,424	91,065	0,050	-0,041
-258,409	800,000	-0,055	-0,174
-257,395	-42,172	-0,048	0,018
-256,380	384,682	0,036	-0,055
-255,365	800,000	0,028	0,082
-254,351	-101,072	0,165	0,029
-253,336	-116,772	0,041	0,005
-252,322	-200,000	-0,014	0,120
-251,307	440,679	-0,137	0,219
-250,292	-200,000	0,011	-0,051
-249,278	-91,667	0,104	0,021
-248,263	-157,240	-0,125	0,005
-247,249	-200,000	0,014	0,114
-246,234	-200,000	0,005	0,033
-245,219	101,424	-0,009	0,008
-244,205	-92,459	-0,194	-0,040
-243,190	544,334	0,052	0,092
-242,176	-200,000	0,023	0,142
-241,161	800,000	0,054	0,135
-240,146	61,538	-0,023	0,016
-239,132	-200,000	0,011	0,039
-238,117	800,000	-0,024	-0,066
-237,103	658,345	-0,022	-0,042
-236,088	663,646	-0,042	-0,079
-235,073	-79,040	0,179	-0,044
-234,059	800,000	0,062	0,131
-233,044	-15,686	0,085	0,039
-232,030	-200,000	-0,046	-0,172
-231,015	-200,000	0,017	0,092
-230,000	375,293	-0,086	-0,128
-228,986	52,668	0,023	-0,016
-227,971	-81,956	0,078	0,018
-226,957	-63,837	0,108	0,032
-225,942	-200,000	0,005	-0,108
-224,927	800,000	-0,031	-0,076
-223,913	44,721	-0,013	-0,009
-222,898	67,208	-0,197	-0,146
-221,884	32,669	-0,023	-0,015
-220,869	605,506	-0,050	0,092
-219,855	-200,000	-0,014	0,088
-218,840	-80,937	0,084	-0,020
-217,825	-97,293	-0,122	0,023
-216,811	-200,000	-0,000	-0,026
-215,796	-85,865	0,059	0,013
-214,782	800,000	0,009	-0,023
-213,767	90,337	0,077	0,063
-212,752	-14,517	0,136	0,064
-211,738	420,935	-0,004	-0,007
-210,723	-200,000	0,004	0,025
-209,709	155,291	-0,126	-0,127
-208,694	33,521	-0,025	-0,016
-207,679	-200,000	0,008	0,165
-206,665	25,221	-0,030	0,018
-205,650	87,684	0,104	-0,084
-204,636	38,073	-0,058	-0,038
-203,621	-96,179	-0,044	-0,008
-202,606	-200,000	-0,008	-0,055
-201,592	-200,000	-0,008	-0,176
-200,577	-200,000	0,001	-0,176
-199,563	-200,000	0,017	0,125
-198,548	-200,000	0,051	0,191
-197,533	-107,340	0,045	0,007
-196,519	-200,000	-0,004	0,033
-195,504	330,902	0,069	0,097
-194,490	800,000	-0,051	-0,104
-193,475	-52,122	-0,145	-0,049
-192,460	61,844	0,053	0,039
-191,446	8,835	-0,094	0,052
-190,431	-200,000	0,025	0,095
-189,417	104,182	0,116	0,100
-188,402	-200,000	-0,000	0,013
-187,387	-61,535	-0,143	0,043
-186,373	800,000	0,042	-0,108
-185,358	33,134	-0,037	0,023
-184,344	800,000	0,031	0,063
-183,329	-200,000	0,000	0,100
-182,315	2,152	0,094	-0,049
-181,300	-102,209	-0,115	0,020
-180,285	95,774	-0,025	-0,021
-179,271	74,048	-0,077	-0,059
-178,256	-200,000	-0,012	-0,042
-177,242	-200,000	-0,006	0,023
-176,227	54,517	0,042	-0,030
-175,212	800,000	0,045	-0,108
-174,198	800,000	-0,044	0,120
-173,183	310,010	-0,050	-0,068
-172,169	202,312	-0,114	-0,128
-171,154	241,548	-0,071	-0,087
-170,139	199,970	0,076	0,085
-169,125	703,489	-0,044	0,084
-168,110	800,000	0,041	0,114
-167,096	58,235	-0,073	0,052
-166,081	-108,325	-0,104	-0,016
-165,066	-200,000	0,006	-0,082
-164,052	-200,000	0,002	-0,146
-163,037	-153,367	0,103	-0,005
-162,023	290,453	0,052	0,068
-161,008	800,000	-0,060	0,139
-159,993	0,896	-0,066	0,034
-158,979	-27,732	-0,176	0,074
-157,964	-2,412	0,153	-0,078
-156,950	55,049	-0,179	0,126
-155,935	114,183	0,100	0,088
-154,920	-200,000	0,010	-0,092
-153,906	-141,187	0,072	0,005
-152,891	-200,000	-0,052	0,000
-151,877	-11,684	-0,062	-0,030
-150,862	160,166	0,039	0,039
-149,847	-85,891	0,040	0,009
-148,833	149,734	-0,022	0,022
-147,818	118,932	-0,045	-0,040
-146,804	-43,692	-0,074	-0,027
-145,789	-200,000	0,005	0,040
-144,775	-200,000	-0,009	0,054
-143,760	73,852	0,025	-0,019
-142,745	111,390	-0,137	-0,120
-141,731	135,976	0,071	-0,067
-140,716	-200,000	-0,015	0,055
-139,702	-92,146	0,082	-0,017
-138,687	-200,000	-0,003	0,018
-137,672	-200,000	-0,016	0,149
-136,658	-200,000	-0,004	0,065
-135,643	182,693	-0,014	-0,015
-134,629	121,440	-0,049	-0,045
-133,614	-86,369	-0,007	-0,002
-132,599	118,472	0,075	0,068
-131,585	-200,000	-0,034	0,161
-130,570	-96,723	-0,140	-0,027
-129,556	457,634	0,051	-0,082
-128,541	-200,000	-0,001	-0,013
-127,526	537,180	0,078	-0,136
-126,512	225,984	0,049	-0,058
-125,497	800,000	0,028	0,064
-124,483	-5,340	0,096	0,048
-123,468	800,000	0,062	0,139
-122,453	93,538	0,088	-0,072
-121,439	-93,432	-0,085	-0,017
-120,424	-52,240	0,159	-0,053
-119,410	273,202	0,084	0,108
-118,395	33,323	0,084	-0,053
-117,380	-200,000	-0,012	0,041
-116,366	365,804	-0,039	0,058
-115,351	70,518	0,077	-0,058
-114,337	-40,776	-0,111	-0,041
-113,322	-26,455	0,023	0,010
-112,307	287,810	0,021	0,028
-111,293	-121,501	0,098	0,012
-110,278	-150,059	-0,020	-0,001
-109,264	-102,323	0,043	-0,007
-108,249	260,784	-0,116	-0,146
-107,234	-128,522	-0,050	-0,005
-106,220	-200,000	0,018	0,061
-105,205	426,214	0,097	-0,152
-104,191	-80,378	0,111	0,027
-103,176	4,915	0,121	-0,064
-102,162	800,000	-0,042	0,130
-101,147	637,174	-0,017	-0,032
-100,132	669,985	0,050	-0,094
-99,118	-80,422	0,020	-0,005
-98,103	800,000	-0,031	-0,083
-97,089	713,294	0,007	0,014
-96,074	-200,000	0,001	0,126
-95,059	24,116	-0,089	0,053
-94,045	-89,412	-0,101	-0,021
-93,030	-200,000	0,032	-0,156
-92,016	224,851	-0,079	-0,093
-91,001	800,000	0,034	-0,079
-89,986	43,016	0,035	0,023
-88,972	640,774	-0,036	-0,068
-87,957	-200,000	-0,013	0,069
-86,943	-119,228	-0,087	0,011
-85,928	800,000	-0,029	0,090
-84,913	800,000	-0,040	-0,102
-83,899	-82,936	0,177	0,041
-82,884	800,000	-0,018	-0,057
-81,870	800,000	0,063	0,185
-80,855	27,672	0,060	0,037
-79,840	-200,000	0,002	-0,048
-78,826	241,212	0,017	-0,021
-77,811	-36,916	-0,061	0,024
-76,797	744,873	-0,007	-0,014
-75,782	-71,000	0,054	0,015
-74,767	-63,970	0,101	0,030
-73,753	-54,168	0,094	-0,031
-72,738	700,404	-0,080	-0,154
-71,724	-200,000	-0,026	-0,093
-70,709	-71,670	-0,012	0,003
-69,694	-200,000	0,047	-0,152
-68,680	-63,558	0,075	-0,022
-67,665	-200,000	0,016	0,159
-66,651	311,620	0,050	-0,069
-65,636	187,560	-0,087	-0,094
-64,622	193,400	0,045	0,050
-63,607	800,000	-0,028	-0,066
-62,592	-200,000	0,003	0,022
-61,578	103,248	0,144	0,123
-60,563	800,000	-0,074	0,206
-59,549	-200,000	0,028	0,113
-58,534	-121,111	-1,430	-0,172
-57,519	792,160	-0,739	-1,480
-56,505	-200,000	-0,883	-4,455
-55,490	-85,987	0,821	-0,183
-54,476	800,000	4,972	11,584
-53,461	-200,000	13,928	252,890
-52,446	-200,000	692,188	2241,605
-51,432	577,333	1622,948	2888,844
-50,417	117,815	1633,086	1458,162
-49,403	72,363	1287,025	971,448
-48,388	37,565	1023,118	656,854
-47,373	24,026	981,101	585,401
-46,359	23,243	970,739	576,630
-45,344	22,279	966,560	570,979
-44,330	22,202	965,151	569,871
-43,315	22,051	963,611	568,447
-42,300	22,061	962,552	567,834
-41,286	21,993	961,751	567,119
-40,271	21,985	960,878	566,554
-39,257	22,042	959,679	566,010
-38,242	22,025	958,682	565,345
-37,227	22,004	957,960	564,829
-36,213	22,039	956,850	564,264
-35,198	22,040	956,121	563,816
-34,184	22,047	955,629	563,527
-33,169	22,003	954,652	562,783
-32,154	22,019	953,891	562,365
-31,140	22,088	952,717	561,873
-30,125	22,089	951,973	561,416
-29,111	22,096	951,183	560,950
-28,096	22,068	950,636	560,515
-27,082	22,027	949,876	559,914
-26,067	22,030	949,118	559,453
-25,052	22,049	948,372	559,052
-24,038	22,032	947,848	558,667
-23,023	22,040	947,155	558,263
-22,009	22,055	946,432	557,860
-20,994	22,182	945,699	557,813
-19,979	22,076	945,218	557,167
-18,965	22,010	944,587	556,565
-17,950	22,080	944,031	556,439
-16,936	22,121	943,057	555,972
-15,921	21,989	942,783	555,367
-14,906	21,943	941,904	554,683
-13,892	21,947	941,268	554,297
-12,877	21,916	940,545	553,752
-11,863	21,918	939,946	553,384
-10,848	21,955	939,458	553,191
-9,833	22,034	938,979	553,139
-8,819	22,098	938,255	552,893
-7,804	22,028	937,696	552,319
-6,790	21,901	937,055	551,520
-5,775	21,916	936,476	551,202
-4,760	21,978	935,786	550,970
-3,746	21,917	935,276	550,455
-2,731	21,814	934,421	549,606
-1,717	21,777	933,961	549,198
-0,702	21,742	933,207	548,624
0,313	21,567	932,622	548,557
1,327	24,603	930,527	556,810
2,342	34,029	794,790	500,648
3,356	31,826	450,910	280,694
4,371	1,173	293,806	152,312
5,386	-3,322	274,816	138,201
6,400	-4,620	269,268	134,193
7,415	-4,815	266,773	132,758
8,429	-4,563	265,534	132,361
9,444	-4,767	264,692	131,743
10,459	-4,733	264,113	131,474
11,473	-4,726	263,583	131,205
12,488	-4,790	263,048	130,870
13,502	-4,901	262,400	130,434
14,517	-4,740	261,861	130,301
15,531	-4,832	261,643	130,097
16,546	-4,967	261,256	129,772
17,561	-4,941	260,961	129,637
18,575	-4,842	260,477	129,474
19,590	-5,069	260,239	129,140
20,604	-4,758	260,003	129,291
21,619	-4,885	259,502	128,916
22,634	-4,820	259,255	128,840
23,648	-4,814	258,970	128,693
24,663	-4,875	258,766	128,526
25,677	-5,032	258,517	128,250
26,692	-4,952	258,172	128,139
27,707	-4,904	257,890	128,030
28,721	-4,953	257,703	127,882
29,736	-5,013	257,491	127,712
30,750	-5,028	257,106	127,497
31,765	-5,079	256,978	127,377
32,780	-4,966	256,676	127,315
33,794	-4,981	256,483	127,195
34,809	-5,001	256,202	127,027
35,823	-5,019	256,014	126,907
36,838	-5,018	255,692	126,737
37,853	-5,108	255,675	126,637
38,867	-5,198	255,262	126,343
39,882	-5,171	255,078	126,264
40,896	-5,200	254,980	126,179
41,911	-4,895	254,509	126,201
42,926	-5,085	254,456	125,998
43,940	-5,031	254,199	125,906
44,955	-5,106	253,972	125,717
45,969	-4,921	253,656	125,711
46,984	-5,143	253,402	125,380
47,999	-5,288	253,042	125,065
49,013	-5,607	253,036	124,774
50,028	-5,455	252,639	124,698
51,042	-5,859	252,496	124,266
52,057	-5,772	252,189	124,180
53,071	-5,712	252,104	124,179
54,086	-5,658	251,865	124,096
55,101	-5,561	251,710	124,093
56,115	-5,454	251,624	124,132
57,130	-4,992	251,491	124,455
58,144	-4,854	251,489	124,562
59,159	-4,807	251,000	124,349
60,174	-4,945	250,967	124,202
61,188	-4,847	250,774	124,181
62,203	-5,036	250,572	123,906
63,217	-4,956	250,340	123,850
64,232	-4,896	250,126	123,785
65,247	-4,771	249,821	123,729
66,261	-4,928	249,640	123,494
67,276	-5,072	249,270	123,177
68,290	-5,317	249,157	122,900
69,305	-5,450	248,942	122,670
70,320	-5,242	248,726	122,730
71,334	-5,103	248,663	122,807
72,349	-4,847	248,427	122,897
73,363	-4,949	248,319	122,746
74,378	-4,675	248,041	122,831
75,393	-4,930	247,707	122,438
76,407	-4,853	247,575	122,427
77,422	-5,184	247,538	122,117
78,436	-4,974	247,338	122,186
79,451	-4,965	247,055	122,043
80,466	-4,864	246,830	122,006
81,480	-5,156	246,502	121,586
82,495	-5,180	246,378	121,494
83,509	-5,009	246,138	121,509
84,524	-5,281	246,081	121,240
85,539	-5,349	245,901	121,084
86,553	-5,188	245,463	120,993
87,568	-5,111	245,372	121,001
88,582	-5,222	245,206	120,816
89,597	-5,364	245,022	120,595
90,611	-5,088	244,860	120,736
91,626	-4,971	244,747	120,768
92,641	-4,923	244,576	120,712
93,655	-4,991	244,365	120,541
94,670	-4,985	244,043	120,377
95,684	-5,080	243,936	120,234
96,699	-5,118	243,804	120,127
97,714	-5,097	243,577	120,021
98,728	-5,129	243,352	119,873
99,743	-5,313	243,262	119,664
100,757	-5,237	242,973	119,575
101,772	-5,280	242,785	119,436
102,787	-5,051	242,608	119,528
103,801	-5,234	242,522	119,324
104,816	-5,306	242,416	119,201
105,830	-4,909	242,274	119,450
106,845	-4,810	241,971	119,371
107,860	-4,920	241,744	119,158
108,874	-5,111	241,592	118,915
109,889	-5,254	241,539	118,760
110,903	-4,911	241,136	118,834
111,918	-5,124	241,074	118,617
112,933	-5,094	241,014	118,602
113,947	-4,925	240,702	118,577
114,962	-5,024	240,536	118,403
115,976	-5,111	240,375	118,241
116,991	-4,913	240,218	118,317
118,006	-5,028	240,085	118,146
119,020	-4,960	239,838	118,069
120,035	-4,734	239,804	118,227
121,049	-4,795	239,621	118,077
122,064	-4,848	239,406	117,916
123,079	-4,880	239,260	117,809
124,093	-4,832	238,910	117,665
125,108	-5,070	238,838	117,425
126,122	-5,360	238,617	117,069
127,137	-5,365	238,238	116,869
128,151	-5,298	238,231	116,909
129,166	-5,216	238,067	116,885
130,181	-5,261	237,846	116,730
131,195	-5,154	237,568	116,670
132,210	-5,102	237,579	116,707
133,224	-5,023	237,443	116,694
134,239	-4,955	237,243	116,640
135,254	-5,029	237,182	116,540
136,268	-5,134	236,939	116,325
137,283	-5,205	236,623	116,102
138,297	-5,194	236,473	116,027
139,312	-5,516	236,369	115,707
140,327	-4,943	236,204	116,076
141,341	-4,845	236,240	116,163
142,356	-4,688	236,001	116,161
143,370	-4,753	235,866	116,032
144,385	-4,653	235,560	115,952
145,400	-4,437	235,508	116,089
146,414	-4,572	235,285	115,861
147,429	-4,848	235,222	115,598
148,443	-4,821	234,962	115,481
149,458	-4,695	234,832	115,508
150,473	-4,767	234,700	115,376
151,487	-4,611	234,525	115,404
152,502	-4,839	234,339	115,120
153,516	-4,695	234,200	115,156
154,531	-4,549	233,947	115,138
155,546	-4,768	233,819	114,891
156,560	-4,606	233,624	114,913
157,575	-4,851	233,494	114,645
158,589	-4,937	233,301	114,471
159,604	-4,414	233,131	114,792
160,619	-4,645	232,966	114,518
161,633	-4,549	232,772	114,489
162,648	-4,634	232,735	114,392
163,662	-4,691	232,639	114,290
164,677	-4,835	232,382	114,039
165,692	-4,655	232,410	114,186
166,706	-4,535	232,108	114,122
167,721	-4,660	232,046	113,982
168,735	-4,774	231,884	113,803
169,750	-4,650	231,576	113,739
170,764	-4,661	231,518	113,691
171,779	-4,541	231,259	113,649
172,794	-4,606	231,208	113,562
173,808	-4,747	231,022	113,350
174,823	-5,262	230,771	112,813
175,837	-5,206	230,558	112,743
176,852	-4,799	230,377	112,963
177,867	-4,638	230,295	113,038
178,881	-4,697	230,190	112,931
179,896	-4,578	230,076	112,958
180,910	-4,655	229,962	112,831
181,925	-4,650	229,668	112,681
182,940	-4,403	229,591	112,826
183,954	-4,485	229,558	112,736
184,969	-4,449	229,354	112,653
185,983	-4,615	229,305	112,490
186,998	-4,419	229,204	112,583
188,013	-4,558	228,828	112,281
189,027	-4,507	228,730	112,262
190,042	-4,494	228,534	112,166
191,056	-4,591	228,437	112,033
192,071	-4,313	228,217	112,131
193,086	-4,428	228,113	111,981
194,100	-4,493	227,897	111,814
195,115	-4,647	227,644	111,561
196,129	-5,334	227,344	110,874
197,144	-3,243	227,945	112,774
198,159	0,381	229,202	116,198
199,173	3,595	229,945	119,061
200,188	4,057	229,921	119,397
201,202	4,211	229,578	119,328
202,217	4,380	229,492	119,403
203,232	4,320	229,454	119,326
204,246	4,602	229,387	119,498
205,261	4,542	229,316	119,405
206,275	4,841	229,136	119,531
207,290	4,708	229,006	119,350
208,304	4,703	228,885	119,273
209,319	4,571	228,625	119,025
210,334	4,375	228,434	118,763
211,348	4,335	228,156	118,578
212,363	4,199	228,039	118,402
213,377	3,565	227,747	117,753
214,392	3,945	227,535	117,924
215,407	3,827	227,459	117,784
216,421	3,952	227,237	117,755
217,436	3,936	227,065	117,642
218,450	3,502	227,039	117,286
219,465	3,609	226,759	117,214
220,480	3,488	226,707	117,083
221,494	3,587	226,473	117,028
222,509	3,917	226,333	117,197
223,523	3,925	226,185	117,115
224,538	3,606	226,108	116,823
225,553	3,711	226,003	116,838
226,567	4,064	225,829	117,005
227,582	4,022	225,805	116,951
228,596	4,039	225,626	116,860
229,611	3,888	225,520	116,681
230,626	3,624	225,126	116,266
231,640	3,805	225,055	116,357
232,655	4,151	224,983	116,570
233,669	4,398	224,960	116,735
234,684	4,452	224,902	116,735
235,699	4,063	224,647	116,299
236,713	3,875	224,345	115,990
237,728	3,707	224,240	115,799
238,742	3,682	223,996	115,644
239,757	3,804	223,947	115,700
240,772	3,934	223,574	115,594
241,786	3,660	223,535	115,359
242,801	4,017	223,567	115,633
243,815	4,407	223,426	115,843
244,830	4,136	223,386	115,609
245,844	3,959	223,121	115,328
246,859	4,009	222,850	115,215
247,874	3,909	222,841	115,125
248,888	4,068	222,714	115,168
249,903	4,148	222,456	115,084
250,917	3,874	222,271	114,774
251,932	3,797	222,278	114,710
252,947	3,796	222,021	114,566
253,961	3,822	221,770	114,445
254,976	3,781	221,698	114,368
255,990	3,922	221,703	114,465
257,005	3,835	221,691	114,383
258,020	3,885	221,477	114,301
259,034	4,217	221,259	114,425
260,049	4,155	221,129	114,301
261,063	4,032	220,917	114,090
262,078	4,206	220,841	114,169
263,093	4,229	220,727	114,118
264,107	4,122	220,568	113,946
265,122	3,911	220,550	113,770
266,136	4,306	220,273	113,909
267,151	4,344	220,253	113,916
268,166	3,853	219,977	113,401
269,180	3,708	219,589	113,085
270,195	3,560	219,488	112,914
271,209	3,887	219,426	113,112
272,224	3,641	219,335	112,874
273,239	3,908	219,159	112,970
274,253	3,796	219,041	112,817
275,268	3,671	218,844	112,613
276,282	3,464	218,684	112,370
277,297	3,493	218,530	112,301
278,312	3,541	218,483	112,303
279,326	3,672	218,308	112,299
280,341	3,779	218,213	112,318
281,355	3,950	218,111	112,380
282,370	3,692	217,863	112,054
283,384	3,595	217,705	111,892
284,399	3,368	217,456	111,588
285,414	3,287	217,487	111,535
286,428	3,762	217,345	111,799
287,443	3,759	217,301	111,763
288,457	4,004	217,080	111,818
289,472	3,828	216,891	111,584
290,487	3,418	216,618	111,135
291,501	3,469	216,287	110,992
292,516	3,265	216,431	110,909
293,530	3,310	216,275	110,851
294,545	3,419	216,159	110,861
295,560	3,664	215,992	110,943
296,574	3,847	215,897	111,016
297,589	3,950	215,744	111,002
298,603	3,759	215,810	110,888
299,618	3,811	215,667	110,843
300,633	3,846	215,476	110,759
301,647	3,974	215,421	110,814
302,662	3,792	215,253	110,587
303,676	4,038	215,086	110,667
304,691	4,156	214,969	110,682
305,706	4,094	214,804	110,543
306,720	4,072	214,803	110,517
307,735	3,683	214,383	110,013
308,749	3,681	214,198	109,906
309,764	3,962	214,273	110,135
310,779	4,133	214,039	110,128
311,793	4,133	213,964	110,079
312,808	3,955	213,858	109,888
313,822	4,001	213,646	109,802
314,837	3,846	213,541	109,627
315,852	3,585	213,400	109,360
316,866	3,911	213,254	109,507
317,881	3,883	213,241	109,471
318,895	3,943	212,928	109,343
319,910	3,953	212,756	109,252
320,925	3,457	212,542	108,780
321,939	3,297	212,289	108,528
322,954	3,548	212,439	108,773
323,968	3,903	212,341	108,964
324,983	3,810	212,139	108,785
325,997	4,191	212,048	108,999
327,012	3,709	211,943	108,594
328,027	3,735	211,849	108,554
329,041	4,238	211,768	108,859
330,056	4,401	211,527	108,840
331,070	3,866	211,403	108,389
332,085	3,551	211,225	108,067
333,100	3,643	211,060	108,037
334,114	3,718	210,901	107,999
335,129	3,812	210,752	107,979
336,143	3,786	210,633	107,890
337,158	3,780	210,512	107,815
338,173	3,805	210,311	107,719
339,187	3,701	210,225	107,593
340,202	3,553	210,038	107,384
341,216	3,492	209,965	107,294
342,231	3,670	209,735	107,292
343,246	3,581	209,616	107,159
344,260	3,602	209,429	107,068
345,275	3,648	209,424	107,089
346,289	3,823	209,445	107,212
347,304	4,240	209,234	107,385
348,319	3,732	209,165	106,985
349,333	3,747	209,012	106,908
350,348	3,787	208,889	106,864
351,362	3,985	208,779	106,936
352,377	4,023	208,594	106,858
353,392	4,029	208,365	106,735
354,406	3,733	208,518	106,599
355,421	194,140	1344,283	1432,535
356,435	154,924	1482,742	1432,645
