DTS Sentinel unit serial number:	SN410029Multiplexer serial number:	ORYXHardware model number:	OX2-SRSoftware version number:	ORYX F/W v4,00 Oryx Data Collector v3.7.2.0data status	okinstallation	B6 Nyhavnadifferential loss correction	single-endedforward channel	channel 2reverse channel	N/Adate	2023/12/10time	15:55:08forward acquisition time	300,00reverse acquisition time	0,00gamma	499,1914k internal	0,3122k external	0,3122temperature offset calibration	1,0000default loss term (dB/km)	0,3820temperature slope calibration	1,0000multiplexer offset coefficient	1,0000multiplexer slope coefficient	1,0000fibre end	0,00T internal ref (°C)	22,37T ext. ref 1 (°C)	6,01T ext. ref 2 (°C)	6,00length (m)	temperature (°C)	Stokes	anti-Stokes-744,400	45,215	0,048	-0,033
-743,385	-2,117	-0,162	0,085
-742,371	-200,000	0,039	0,162
-741,356	-66,766	-0,224	0,066
-740,342	-200,000	-0,008	0,040
-739,327	-86,919	-0,214	0,048
-738,312	800,000	0,035	-0,093
-737,298	164,715	-0,146	0,153
-736,283	-200,000	0,031	-0,103
-735,269	60,742	-0,225	0,166
-734,254	800,000	-0,035	0,081
-733,239	-140,686	-0,350	0,027
-732,225	800,000	0,044	-0,111
-731,210	800,000	-0,048	0,137
-730,196	125,498	-0,017	0,016
-729,181	-200,000	-0,011	-0,113
-728,167	-19,888	-0,108	0,049
-727,152	-66,167	-0,104	-0,031
-726,137	160,694	0,038	-0,039
-725,123	-200,000	-0,017	0,108
-724,108	84,691	-0,098	0,080
-723,094	-56,257	-0,046	-0,015
-722,079	-85,947	-0,059	-0,014
-721,064	-9,261	-0,113	-0,056
-720,050	-12,265	-0,015	0,007
-719,035	264,251	-0,050	0,065
-718,021	107,625	-0,052	-0,046
-717,006	-200,000	0,019	-0,102
-715,991	470,234	-0,059	-0,099
-714,977	800,000	0,031	-0,079
-713,962	-82,444	-0,173	-0,041
-712,948	403,772	0,034	-0,053
-711,933	182,996	-0,077	0,085
-710,918	1,888	0,040	-0,021
-709,904	258,470	0,091	-0,117
-708,889	564,431	-0,078	-0,140
-707,875	78,097	0,044	-0,035
-706,860	-55,075	-0,057	-0,019
-705,845	297,306	0,074	-0,101
-704,831	-200,000	-0,002	0,015
-703,816	20,773	0,038	-0,023
-702,802	800,000	0,035	-0,111
-701,787	43,860	-0,071	0,049
-700,772	-200,000	-0,024	-0,108
-699,758	194,243	0,056	0,064
-698,743	800,000	0,024	0,067
-697,729	-63,119	0,057	0,018
-696,714	800,000	-0,033	-0,067
-695,699	-200,000	-0,017	-0,072
-694,685	-200,000	0,016	-0,114
-693,670	-17,542	0,041	-0,019
-692,656	-200,000	-0,009	0,111
-691,641	-200,000	-0,001	0,041
-690,627	800,000	-0,016	0,046
-689,612	81,470	-0,040	-0,032
-688,597	200,279	-0,081	-0,093
-687,583	-79,666	-0,092	0,023
-686,568	103,427	-0,051	0,044
-685,554	-4,358	0,127	-0,065
-684,539	-48,682	0,136	0,048
-683,524	-200,000	0,000	0,056
-682,510	73,082	-0,037	0,029
-681,495	-200,000	0,004	-0,135
-680,481	800,000	-0,092	-0,199
-679,466	-70,836	-0,076	0,021
-678,451	241,220	-0,083	-0,103
-677,437	66,401	0,023	0,017
-676,422	-98,019	0,100	0,019
-675,408	36,096	-0,034	-0,022
-674,393	-77,066	-0,086	-0,022
-673,378	181,664	-0,098	-0,107
-672,364	164,250	0,058	-0,061
-671,349	410,043	0,037	0,058
-670,335	70,689	-0,195	0,150
-669,320	18,247	0,105	0,062
-668,305	800,000	0,040	0,099
-667,291	482,633	-0,076	0,129
-666,276	-200,000	0,030	-0,120
-665,262	800,000	-0,050	-0,115
-664,247	433,944	0,039	-0,064
-663,232	59,882	0,105	-0,077
-662,218	25,872	-0,096	-0,059
-661,203	169,895	-0,068	0,072
-660,189	800,000	0,036	0,101
-659,174	123,142	-0,104	-0,097
-658,159	800,000	0,023	-0,072
-657,145	26,391	-0,054	0,033
-656,130	690,705	0,070	0,138
-655,116	-36,614	-0,045	0,018
-654,101	-72,508	0,070	0,019
-653,086	-40,551	-0,038	-0,015
-652,072	141,274	-0,034	0,033
-651,057	-145,957	-0,100	-0,006
-650,043	-55,999	-0,151	-0,050
-649,028	792,630	-0,067	-0,137
-648,014	-7,927	0,155	0,078
-646,999	456,096	-0,068	0,112
-645,984	800,000	-0,028	0,060
-644,970	-200,000	-0,004	0,106
-643,955	-19,708	-0,064	-0,029
-642,941	800,000	-0,037	-0,092
-641,926	50,222	-0,118	0,083
-640,911	-61,851	-0,050	-0,015
-639,897	97,138	-0,086	0,073
-638,882	-89,060	-0,066	-0,014
-637,868	-0,053	-0,076	0,040
-636,853	-149,015	-0,202	-0,012
-635,838	800,000	0,042	-0,122
-634,824	554,643	0,063	0,113
-633,809	-200,000	0,012	0,000
-632,795	-126,410	0,144	-0,016
-631,780	800,000	-0,045	0,099
-630,765	139,200	-0,068	-0,067
-629,751	800,000	-0,039	-0,087
-628,736	28,383	-0,015	0,010
-627,722	-2,292	-0,022	-0,012
-626,707	122,159	-0,084	-0,078
-625,692	-115,835	-0,066	-0,009
-624,678	271,021	0,017	0,023
-623,663	166,450	0,050	-0,052
-622,649	800,000	0,025	0,079
-621,634	63,948	-0,059	-0,044
-620,619	454,628	0,089	-0,147
-619,605	800,000	-0,028	-0,082
-618,590	690,578	0,027	-0,053
-617,576	800,000	-0,045	0,121
-616,561	252,349	0,104	0,132
-615,546	330,377	0,079	-0,114
-614,532	800,000	0,016	-0,047
-613,517	-94,205	0,091	0,018
-612,503	-4,973	0,058	0,030
-611,488	-74,316	0,098	0,026
-610,474	-200,000	0,009	0,114
-609,459	-200,000	0,006	0,094
-608,444	-49,949	-0,087	0,031
-607,430	430,505	-0,075	-0,120
-606,415	-3,544	-0,170	-0,087
-605,401	-22,243	0,017	0,008
-604,386	26,015	0,107	-0,066
-603,371	-22,368	0,020	0,009
-602,357	-200,000	0,010	-0,077
-601,342	-80,379	-0,039	-0,010
-600,328	62,637	0,020	-0,015
-599,313	-90,187	0,010	-0,002
-598,298	-200,000	0,004	-0,054
-597,284	-200,000	-0,008	-0,069
-596,269	690,600	0,050	-0,098
-595,255	-35,550	-0,031	-0,012
-594,240	505,840	-0,050	0,086
-593,225	117,811	-0,024	-0,022
-592,211	-119,644	0,099	-0,013
-591,196	-27,165	-0,035	-0,015
-590,182	-131,178	0,044	-0,004
-589,167	-188,075	-0,082	-0,001
-588,152	-200,000	0,009	-0,038
-587,138	234,192	0,065	0,080
-586,123	800,000	-0,025	0,055
-585,109	-66,584	-0,141	-0,041
-584,094	289,256	0,093	0,125
-583,079	116,729	0,056	-0,051
-582,065	800,000	0,030	-0,080
-581,050	-51,836	0,084	-0,029
-580,036	800,000	-0,032	-0,086
-579,021	-200,000	-0,004	0,072
-578,006	-126,954	0,065	-0,007
-576,992	371,720	-0,030	0,044
-575,977	-56,988	-0,059	-0,019
-574,963	115,595	-0,030	0,027
-573,948	-200,000	-0,020	0,123
-572,934	-200,000	-0,013	0,088
-571,919	-92,152	0,051	-0,011
-570,904	-200,000	-0,026	-0,165
-569,890	800,000	-0,044	0,125
-568,875	800,000	-0,021	-0,046
-567,861	-114,190	0,058	0,008
-566,846	101,164	0,050	0,043
-565,831	-200,000	-0,002	-0,043
-564,817	-121,524	-0,148	0,018
-563,802	-126,411	0,032	0,003
-562,788	800,000	-0,021	-0,056
-561,773	-46,483	-0,094	0,034
-560,758	800,000	0,053	0,150
-559,744	-98,427	0,045	-0,008
-558,729	237,575	-0,052	-0,064
-557,715	800,000	-0,068	0,153
-556,700	800,000	-0,034	-0,073
-555,685	-166,249	0,043	0,001
-554,671	27,092	0,089	-0,055
-553,656	-52,909	0,039	-0,013
-552,642	88,343	-0,080	0,066
-551,627	-72,860	-0,038	0,010
-550,612	326,489	-0,050	-0,071
-549,598	294,684	-0,043	0,059
-548,583	441,684	-0,146	-0,237
-547,569	-200,000	-0,015	-0,052
-546,554	-85,821	0,181	0,041
-545,539	-36,283	0,074	0,029
-544,525	-18,512	-0,088	0,040
-543,510	-142,119	0,066	0,005
-542,496	766,057	-0,078	-0,157
-541,481	800,000	-0,053	-0,114
-540,466	435,213	-0,118	0,190
-539,452	97,001	0,085	-0,072
-538,437	-200,000	0,001	-0,071
-537,423	800,000	0,022	0,065
-536,408	247,172	-0,078	0,097
-535,393	-79,686	-0,063	-0,016
-534,379	-158,998	-0,102	0,004
-533,364	42,790	0,064	-0,043
-532,350	800,000	0,018	0,047
-531,335	-16,917	0,067	-0,031
-530,321	528,203	0,035	0,060
-529,306	-200,000	-0,015	-0,162
-528,291	75,509	-0,051	0,040
-527,277	800,000	-0,031	-0,069
-526,262	-7,978	-0,156	0,077
-525,248	128,864	0,090	0,084
-524,233	-32,852	0,064	-0,026
-523,218	59,304	0,012	-0,009
-522,204	-193,651	-0,035	0,000
-521,189	-200,000	0,002	-0,060
-520,175	5,121	-0,044	-0,024
-519,160	800,000	0,015	-0,044
-518,145	260,479	-0,084	-0,108
-517,131	147,662	0,070	0,070
-516,116	800,000	0,043	0,114
-515,102	50,229	-0,044	0,030
-514,087	800,000	0,038	0,082
-513,072	75,476	0,008	0,006
-512,058	-200,000	-0,000	0,025
-511,043	-200,000	0,003	-0,025
-510,029	-200,000	-0,032	0,000
-509,014	-87,635	-0,080	-0,018
-507,999	541,428	0,063	0,111
-506,985	77,841	0,107	-0,084
-505,970	31,256	-0,232	-0,147
-504,956	77,566	0,109	-0,085
-503,941	-100,641	-0,074	0,013
-502,926	-125,925	0,020	-0,002
-501,912	189,644	0,110	0,122
-500,897	301,936	0,036	0,049
-499,883	380,394	0,055	-0,084
-498,868	-68,246	-0,130	0,037
-497,853	-200,000	-0,013	-0,063
-496,839	-131,408	0,095	-0,009
-495,824	643,478	-0,041	0,078
-494,810	-200,000	-0,018	0,123
-493,795	165,316	0,049	-0,052
-492,781	-76,514	-0,135	0,035
-491,766	58,872	0,089	0,065
-490,751	-67,610	-0,131	-0,038
-489,737	-200,000	-0,054	-0,178
-488,722	-200,000	0,020	-0,082
-487,708	72,771	0,095	-0,073
-486,693	179,061	0,076	0,082
-485,678	-200,000	-0,053	0,200
-484,664	-143,560	-0,201	-0,014
-483,649	233,509	-0,036	0,044
-482,635	16,996	-0,012	0,007
-481,620	218,098	0,044	0,052
-480,605	-200,000	0,012	0,071
-479,591	32,673	0,114	0,073
-478,576	-84,318	0,146	0,034
-477,562	520,040	0,047	0,081
-476,547	-40,240	-0,064	-0,024
-475,532	9,442	0,084	0,047
-474,518	485,147	-0,046	-0,077
-473,503	86,392	0,082	0,066
-472,489	728,548	-0,057	-0,113
-471,474	800,000	0,013	0,041
-470,459	-104,344	-0,137	0,023
-469,445	-69,939	-0,051	0,014
-468,430	-200,000	0,012	-0,041
-467,416	-104,961	0,101	-0,017
-466,401	-200,000	-0,006	-0,105
-465,386	159,869	0,108	-0,111
-464,372	-200,000	0,052	0,173
-463,357	296,391	0,032	-0,044
-462,343	62,239	-0,028	0,021
-461,328	79,254	0,108	-0,085
-460,313	-77,582	-0,021	-0,005
-459,299	-63,359	0,056	0,017
-458,284	-200,000	0,000	-0,012
-457,270	-200,000	0,001	-0,005
-456,255	197,820	-0,081	-0,092
-455,241	800,000	0,069	0,193
-454,226	153,330	0,037	-0,037
-453,211	-44,629	0,157	-0,058
-452,197	255,652	-0,013	-0,017
-451,182	-200,000	-0,015	0,071
-450,168	-200,000	0,009	0,139
-449,153	-71,787	-0,095	0,026
-448,138	3,669	0,048	0,026
-447,124	493,456	-0,095	-0,160
-446,109	211,037	-0,048	-0,056
-445,095	110,863	-0,061	-0,054
-444,080	800,000	0,051	0,140
-443,065	-91,242	-0,124	-0,026
-442,051	213,522	-0,121	-0,141
-441,036	362,733	0,045	-0,067
-440,022	-200,000	0,001	-0,033
-439,007	-19,083	0,132	-0,060
-437,992	-99,648	0,143	0,026
-436,978	399,230	-0,029	0,044
-435,963	-200,000	-0,005	-0,098
-434,949	-200,000	0,145	-0,000
-433,934	-200,000	-0,014	-0,065
-432,919	-200,000	0,009	-0,075
-431,905	-129,714	-0,180	-0,018
-430,890	-200,000	-0,003	0,064
-429,876	-200,000	0,011	-0,042
-428,861	672,371	0,032	0,062
-427,846	-200,000	-0,003	-0,102
-426,832	33,697	0,066	-0,042
-425,817	-200,000	-0,018	-0,098
-424,803	-7,334	0,071	0,035
-423,788	285,627	-0,070	0,093
-422,773	-128,777	-0,039	-0,004
-421,759	308,481	-0,028	0,038
-420,744	124,825	-0,045	0,042
-419,730	-200,000	-0,019	-0,159
-418,715	25,357	-0,075	0,046
-417,701	485,924	0,041	-0,070
-416,686	-200,000	-0,010	0,147
-415,671	158,944	0,120	-0,123
-414,657	-96,442	-0,030	0,006
-413,642	-200,000	0,006	0,130
-412,628	157,259	0,030	-0,030
-411,613	800,000	0,057	-0,167
-410,598	131,485	-0,097	-0,092
-409,584	423,518	0,072	-0,114
-408,569	-24,617	-0,153	-0,067
-407,555	-53,293	-0,085	0,028
-406,540	553,528	-0,081	0,144
-405,525	-200,000	-0,101	0,000
-404,511	42,786	0,079	-0,053
-403,496	291,296	-0,033	-0,045
-402,482	-63,732	0,057	-0,017
-401,467	234,764	0,099	0,120
-400,452	-183,464	-0,052	-0,001
-399,438	-94,326	0,092	-0,018
-398,423	765,386	-0,021	-0,042
-397,409	-29,809	-0,105	0,044
-396,394	6,258	-0,100	-0,055
-395,379	800,000	-0,017	0,053
-394,365	-200,000	-0,009	0,282
-393,350	-200,000	-0,117	-0,000
-392,336	-120,545	-0,173	-0,021
-391,321	-16,965	0,058	-0,027
-390,306	138,044	-0,082	-0,079
-389,292	77,427	-0,055	-0,043
-388,277	-200,000	-0,019	-0,130
-387,263	-200,000	-0,006	0,091
-386,248	747,903	-0,016	0,033
-385,233	141,556	-0,114	0,111
-384,219	522,216	-0,053	-0,091
-383,204	800,000	-0,030	0,096
-382,190	800,000	-0,040	0,121
-381,175	-10,089	0,177	-0,086
-380,160	95,997	0,085	0,072
-379,146	-11,282	0,099	0,048
-378,131	450,655	0,072	0,118
-377,117	-14,884	0,050	0,024
-376,102	-200,000	0,005	0,040
-375,088	157,496	-0,046	0,047
-374,073	-166,779	-0,036	-0,001
-373,058	422,898	-0,017	-0,027
-372,044	-200,000	0,028	-0,099
-371,029	-87,878	0,091	0,020
-370,015	-93,130	-0,111	-0,022
-369,000	502,876	-0,071	-0,122
-367,985	-200,000	0,004	-0,036
-366,971	361,188	0,009	-0,013
-365,956	-64,325	0,116	0,034
-364,942	55,078	-0,090	0,064
-363,927	62,312	0,070	-0,051
-362,912	255,627	0,039	0,049
-361,898	431,918	-0,061	-0,098
-360,883	-200,000	-0,016	-0,109
-359,869	800,000	-0,024	0,058
-358,854	-200,000	-0,001	-0,004
-357,839	-200,000	0,034	0,123
-356,825	132,592	0,104	0,098
-355,810	-200,000	-0,014	0,104
-354,796	172,584	0,048	0,051
-353,781	800,000	-0,015	-0,047
-352,766	-200,000	0,019	0,164
-351,752	504,926	0,075	-0,129
-350,737	-76,481	0,127	-0,032
-349,723	-53,343	0,036	0,012
-348,708	-38,449	-0,056	0,022
-347,693	508,968	0,042	-0,072
-346,679	-200,000	-0,020	-0,128
-345,664	256,173	-0,033	-0,042
-344,650	125,937	-0,026	-0,024
-343,635	800,000	-0,040	0,089
-342,620	-200,000	0,044	0,218
-341,606	-200,000	-0,028	0,122
-340,591	-200,000	-0,014	0,077
-339,577	-200,000	-0,008	-0,037
-338,562	-200,000	-0,004	-0,151
-337,548	-58,893	0,020	0,006
-336,533	-10,401	-0,201	0,097
-335,518	-200,000	-0,048	0,157
-334,504	800,000	-0,086	0,195
-333,489	87,436	-0,074	-0,060
-332,475	-200,000	-0,048	-0,178
-331,460	424,309	-0,070	-0,111
-330,445	-200,000	0,027	-0,121
-329,431	-74,169	0,177	-0,047
-328,416	-18,986	-0,088	0,040
-327,402	-141,568	0,068	-0,005
-326,387	55,548	-0,085	-0,060
-325,372	800,000	-0,024	0,052
-324,358	57,730	0,031	-0,022
-323,343	-121,382	-0,045	0,005
-322,329	10,387	-0,051	0,029
-321,314	-88,932	0,062	0,013
-320,299	9,605	0,081	-0,045
-319,285	79,851	-0,066	-0,052
-318,270	-50,390	0,176	-0,061
-317,256	-83,987	0,076	0,018
-316,241	-200,000	-0,001	0,057
-315,226	-16,419	0,011	0,005
-314,212	-200,000	0,017	0,168
-313,197	147,828	0,047	0,046
-312,183	-200,000	0,002	0,006
-311,168	128,781	-0,095	0,089
-310,153	-16,720	-0,172	-0,079
-309,139	352,314	0,016	-0,023
-308,124	69,127	0,089	0,067
-307,110	783,774	0,086	0,174
-306,095	-89,080	0,024	-0,005
-305,080	-8,606	0,077	-0,038
-304,066	236,625	-0,038	-0,047
-303,051	-105,342	0,085	-0,014
-302,037	461,319	0,039	0,064
-301,022	52,873	0,031	0,022
-300,008	-61,473	0,123	0,037
-298,993	26,860	-0,048	0,030
-297,978	217,826	0,064	-0,075
-296,964	99,598	-0,084	-0,071
-295,949	800,000	-0,051	-0,118
-294,935	-106,776	0,161	-0,026
-293,920	-68,394	0,119	0,034
-292,905	-52,656	-0,112	0,038
-291,891	67,464	-0,068	0,051
-290,876	141,781	0,067	0,065
-289,862	-85,164	-0,054	-0,012
-288,847	-9,649	0,055	-0,027
-287,832	91,360	-0,165	-0,136
-286,818	2,056	0,068	0,036
-285,803	800,000	0,066	0,161
-284,789	137,755	0,061	-0,058
-283,774	170,062	-0,082	0,086
-282,759	-200,000	-0,019	0,068
-281,745	630,715	-0,056	0,104
-280,730	508,502	-0,030	-0,052
-279,716	-200,000	0,005	0,052
-278,701	-200,000	0,016	0,123
-277,686	691,922	0,061	0,117
-276,672	-200,000	0,009	0,051
-275,657	-22,372	0,125	-0,055
-274,643	-200,000	0,002	-0,025
-273,628	800,000	0,041	-0,087
-272,613	-103,821	-0,120	-0,020
-271,599	66,607	0,082	-0,061
-270,584	-110,629	0,032	0,005
-269,570	195,163	-0,097	0,108
-268,555	625,202	-0,062	0,114
-267,540	-200,000	0,019	0,125
-266,526	192,675	-0,078	-0,086
-265,511	105,206	-0,014	-0,012
-264,497	-92,658	0,210	0,043
-263,482	800,000	-0,009	0,029
-262,467	69,485	-0,078	0,059
-261,453	-61,479	0,161	0,049
-260,438	800,000	-0,010	-0,022
-259,424	49,569	-0,069	-0,047
-258,409	121,347	0,013	0,012
-257,395	53,642	-0,018	-0,013
-256,380	133,051	0,070	0,067
-255,365	245,988	0,010	0,013
-254,351	-200,000	0,007	-0,038
-253,336	33,032	0,032	-0,020
-252,322	-200,000	-0,016	-0,107
-251,307	800,000	0,019	0,043
-250,292	-200,000	-0,018	-0,131
-249,278	-40,778	0,053	-0,020
-248,263	398,640	0,019	0,029
-247,249	-45,633	-0,060	0,022
-246,234	240,625	0,078	-0,095
-245,219	32,976	-0,008	0,005
-244,205	-52,094	-0,025	0,008
-243,190	-200,000	0,028	0,122
-242,176	800,000	0,055	-0,111
-241,161	-200,000	-0,022	-0,138
-240,146	418,959	0,067	0,105
-239,132	429,228	0,031	0,049
-238,117	90,459	-0,136	0,112
-237,103	573,090	-0,034	-0,062
-236,088	-200,000	-0,027	-0,195
-235,073	-200,000	-0,011	0,113
-234,059	299,984	0,076	-0,103
-233,044	-200,000	0,002	-0,099
-232,030	-36,997	-0,026	-0,010
-231,015	-200,000	-0,018	-0,126
-230,000	499,517	-0,002	-0,003
-228,986	800,000	0,034	0,078
-227,971	-200,000	-0,050	-0,163
-226,957	179,285	-0,093	-0,099
-225,942	250,762	0,074	0,091
-224,927	89,676	0,042	0,034
-223,913	800,000	0,042	-0,124
-222,898	205,739	-0,093	-0,106
-221,884	-15,996	0,131	0,061
-220,869	-102,610	0,031	0,005
-219,855	445,978	0,074	-0,119
-218,840	-147,019	-0,049	-0,003
-217,825	187,785	0,112	0,122
-216,811	770,162	0,017	-0,034
-215,796	64,761	0,018	-0,013
-214,782	438,876	-0,032	-0,051
-213,767	-94,629	-0,082	0,016
-212,752	-200,000	0,001	0,184
-211,738	0,704	-0,049	-0,025
-210,723	230,925	-0,090	0,108
-209,709	-167,279	-0,045	-0,001
-208,694	-200,000	-0,048	-0,158
-207,679	148,282	0,107	-0,106
-206,665	-80,435	0,085	0,020
-205,650	263,756	0,040	-0,051
-204,636	800,000	0,016	0,036
-203,621	700,036	0,089	0,171
-202,606	-165,772	-0,069	-0,002
-201,592	-142,269	0,044	-0,003
-200,577	800,000	0,025	-0,064
-199,563	-76,022	0,155	-0,040
-198,548	6,547	0,165	0,089
-197,533	-101,483	0,037	0,007
-196,519	800,000	-0,041	0,085
-195,504	99,650	-0,047	-0,039
-194,490	-48,772	0,038	-0,013
-193,475	-200,000	-0,046	-0,174
-192,460	60,288	-0,054	-0,039
-191,446	188,218	0,072	-0,079
-190,431	-14,123	-0,033	0,016
-189,417	52,374	-0,027	-0,019
-188,402	16,710	0,034	0,020
-187,387	34,727	0,020	0,013
-186,373	129,305	-0,023	0,021
-185,358	-200,000	0,015	-0,065
-184,344	-200,000	0,008	-0,048
-183,329	-24,248	-0,011	-0,005
-182,315	-200,000	0,069	0,310
-181,300	790,772	-0,088	0,176
-180,285	52,683	0,081	0,056
-179,271	-67,749	0,078	-0,022
-178,256	-200,000	-0,001	0,007
-177,242	-177,723	-0,132	-0,002
-176,227	-163,387	0,070	0,002
-175,212	127,423	-0,107	0,099
-174,198	-113,095	0,051	-0,007
-173,183	649,228	-0,044	-0,082
-172,169	-200,000	0,007	0,063
-171,154	221,852	0,017	0,021
-170,139	68,383	-0,068	-0,050
-169,125	89,901	0,121	-0,099
-168,110	800,000	-0,055	-0,131
-167,096	489,654	-0,024	-0,039
-166,081	107,906	0,082	-0,071
-165,066	20,097	-0,030	0,017
-164,052	-200,000	-0,012	-0,063
-163,037	-105,131	0,060	0,010
-162,023	462,619	0,053	0,087
-161,008	-200,000	-0,014	-0,056
-159,993	157,742	-0,092	0,093
-158,979	-79,744	-0,101	0,025
-157,964	-7,297	0,047	-0,023
-156,950	-200,000	-0,011	-0,048
-155,935	800,000	0,010	0,022
-154,920	-200,000	0,026	0,097
-153,906	-200,000	0,005	-0,140
-152,891	-107,405	0,066	-0,010
-151,877	-200,000	-0,023	0,113
-150,862	-10,952	-0,107	0,051
-149,847	-200,000	-0,013	0,084
-148,833	420,335	0,057	0,089
-147,818	-200,000	0,043	0,145
-146,804	-106,777	0,092	0,015
-145,789	-20,600	0,028	0,012
-144,775	-153,232	0,037	0,002
-143,760	35,822	0,040	0,026
-142,745	-200,000	-0,027	-0,115
-141,731	-200,000	-0,010	0,044
-140,716	284,999	-0,046	0,060
-139,702	-200,000	-0,022	-0,087
-138,687	-18,277	0,086	-0,039
-137,672	263,803	0,044	-0,056
-136,658	578,815	0,023	-0,041
-135,643	49,853	0,089	0,061
-134,629	91,383	0,061	-0,050
-133,614	-104,398	0,122	-0,020
-132,599	55,729	-0,023	0,017
-131,585	-200,000	0,003	0,057
-130,570	-200,000	0,011	-0,046
-129,556	-102,779	-0,061	0,010
-128,541	800,000	0,043	0,091
-127,526	-178,227	0,085	0,001
-126,512	171,722	-0,009	-0,009
-125,497	800,000	-0,046	0,114
-124,483	-200,000	0,025	-0,110
-123,468	-58,114	0,068	0,021
-122,453	-200,000	-0,034	-0,196
-121,439	176,176	-0,040	-0,042
-120,424	52,027	0,047	0,033
-119,410	800,000	0,024	-0,059
-118,395	-200,000	0,047	0,162
-117,380	567,430	-0,057	0,101
-116,366	119,018	-0,076	-0,069
-115,351	800,000	-0,079	-0,192
-114,337	-200,000	0,007	-0,147
-113,322	-200,000	-0,046	0,183
-112,307	-61,721	-0,020	0,006
-111,293	65,689	0,069	0,051
-110,278	-17,707	0,087	-0,040
-109,264	800,000	-0,010	-0,026
-108,249	280,631	0,048	-0,062
-107,234	-50,400	-0,080	0,027
-106,220	-126,196	0,026	-0,003
-105,205	55,905	0,110	0,078
-104,191	-57,114	0,036	-0,011
-103,176	-200,000	-0,016	-0,065
-102,162	78,214	0,013	0,010
-101,147	800,000	-0,022	0,067
-100,132	114,604	-0,097	-0,086
-99,118	800,000	-0,025	-0,069
-98,103	235,012	0,058	-0,070
-97,089	-200,000	0,013	0,098
-96,074	8,787	-0,178	0,097
-95,059	-12,734	0,166	0,078
-94,045	-200,000	0,001	-0,026
-93,030	580,732	-0,029	-0,051
-92,016	308,179	-0,123	-0,167
-91,001	-200,000	-0,003	-0,035
-89,986	408,550	-0,050	0,077
-88,972	633,131	0,093	0,173
-87,957	800,000	-0,037	-0,104
-86,943	134,685	-0,029	0,028
-85,928	144,247	0,112	-0,109
-84,913	-36,793	-0,122	-0,047
-83,899	-19,081	-0,151	0,068
-82,884	-155,767	-0,042	-0,002
-81,870	666,147	0,065	0,122
-80,855	30,704	-0,121	-0,075
-79,840	715,923	-0,041	-0,080
-78,826	-152,108	0,023	-0,001
-77,811	-200,000	0,013	-0,068
-76,797	800,000	0,043	0,109
-75,782	57,310	-0,022	-0,016
-74,767	793,812	0,052	0,104
-73,753	800,000	-0,016	-0,034
-72,738	-200,000	-0,001	0,101
-71,724	289,976	0,089	-0,117
-70,709	-200,000	0,002	0,103
-69,694	414,140	0,093	-0,144
-68,680	648,176	0,063	-0,117
-67,665	-71,497	0,063	-0,017
-66,651	-106,374	0,167	0,027
-65,636	-93,381	-0,006	0,001
-64,622	800,000	0,011	0,024
-63,607	-148,146	0,122	0,007
-62,592	126,372	0,070	-0,064
-61,578	-200,000	0,041	0,156
-60,563	296,466	0,054	0,072
-59,549	143,920	0,081	0,079
-58,534	-115,748	-1,390	-0,187
-57,519	466,951	-0,821	-1,341
-56,505	-200,000	-0,837	-4,403
-55,490	72,735	0,535	-0,405
-54,476	800,000	4,989	11,789
-53,461	-200,000	13,586	252,758
-52,446	-200,000	689,420	2259,787
-51,432	592,234	1622,005	2918,958
-50,417	119,460	1635,147	1469,073
-49,403	73,301	1289,173	977,711
-48,388	38,092	1024,399	660,027
-47,373	24,403	981,864	587,600
-46,359	23,560	971,630	578,686
-45,344	22,600	967,244	572,914
-44,330	22,615	965,824	572,101
-43,315	22,425	964,391	570,610
-42,300	22,395	963,391	569,898
-41,286	22,422	962,646	569,520
-40,271	22,415	961,507	568,801
-39,257	22,386	960,702	568,209
-38,242	22,427	959,640	567,691
-37,227	22,407	958,941	567,191
-36,213	22,420	957,843	566,561
-35,198	22,313	957,050	565,724
-34,184	22,345	956,539	565,502
-33,169	22,375	955,569	565,004
-32,154	22,440	954,609	564,624
-31,140	22,440	953,696	564,059
-30,125	22,419	952,789	563,433
-29,111	22,436	952,170	563,100
-28,096	22,431	951,330	562,564
-27,082	22,398	950,825	562,137
-26,067	22,456	949,949	561,786
-25,052	22,430	949,242	561,260
-24,038	22,353	948,739	560,694
-23,023	22,397	948,111	560,443
-22,009	22,456	947,444	560,215
-20,994	22,486	946,640	559,812
-19,979	22,446	946,218	559,412
-18,965	22,467	945,541	559,056
-17,950	22,441	944,845	558,542
-16,936	22,375	944,196	557,924
-15,921	22,347	943,499	557,401
-14,906	22,278	942,868	556,785
-13,892	22,299	942,211	556,445
-12,877	22,314	941,591	556,103
-11,863	22,282	940,825	555,527
-10,848	22,284	940,403	555,262
-9,833	22,417	939,820	555,316
-8,819	22,404	939,272	554,929
-7,804	22,253	938,672	554,076
-6,790	22,209	938,060	553,552
-5,775	22,287	937,459	553,422
-4,760	22,353	936,609	553,107
-3,746	22,244	936,246	552,525
-2,731	22,168	935,579	551,870
-1,717	22,096	934,734	551,123
-0,702	22,127	934,088	550,817
0,313	21,923	933,607	550,723
1,327	25,067	931,555	559,353
2,342	34,724	796,186	503,798
3,356	32,716	451,504	282,645
4,371	1,748	293,589	152,909
5,386	-2,883	274,511	138,580
6,400	-4,254	268,638	134,332
7,415	-4,727	266,190	132,661
8,429	-4,619	265,152	132,231
9,444	-4,521	264,263	131,865
10,459	-4,553	263,546	131,467
11,473	-4,587	262,844	131,074
12,488	-4,557	262,351	130,843
13,502	-4,948	262,029	130,318
14,517	-4,782	261,440	130,163
15,531	-4,702	261,231	130,120
16,546	-4,515	260,722	130,023
17,561	-4,670	260,327	129,674
18,575	-4,695	260,247	129,601
19,590	-4,804	259,769	129,253
20,604	-4,531	259,403	129,305
21,619	-4,948	259,057	128,748
22,634	-4,625	258,653	128,824
23,648	-4,750	258,451	128,600
24,663	-4,541	258,114	128,607
25,677	-4,692	258,003	128,405
26,692	-4,734	257,748	128,230
27,707	-4,957	257,533	127,914
28,721	-4,729	257,097	127,888
29,736	-4,928	256,869	127,587
30,750	-4,771	256,599	127,580
31,765	-4,855	256,476	127,434
32,780	-4,845	256,233	127,310
33,794	-4,786	256,017	127,244
34,809	-4,749	255,684	127,100
35,823	-4,830	255,453	126,901
36,838	-4,944	255,263	126,696
37,853	-4,842	255,129	126,708
38,867	-4,765	254,900	126,651
39,882	-4,926	254,674	126,386
40,896	-4,805	254,385	126,337
41,911	-4,972	254,211	126,094
42,926	-4,895	254,000	126,044
43,940	-5,112	253,765	125,727
44,955	-4,994	253,535	125,705
45,969	-5,050	253,317	125,537
46,984	-5,303	253,115	125,205
47,999	-5,275	252,675	125,001
49,013	-5,361	252,289	124,724
50,028	-5,612	252,336	124,518
51,042	-5,682	251,864	124,213
52,057	-5,843	251,689	123,977
53,071	-5,517	251,541	124,175
54,086	-5,600	251,437	124,040
55,101	-5,268	251,126	124,163
56,115	-5,195	251,090	124,197
57,130	-4,878	250,998	124,414
58,144	-4,733	250,887	124,473
59,159	-4,527	250,636	124,515
60,174	-4,442	250,378	124,449
61,188	-4,560	250,164	124,230
62,203	-4,661	250,061	124,081
63,217	-4,795	249,892	123,871
64,232	-4,757	249,724	123,809
65,247	-4,461	249,423	123,902
66,261	-4,796	249,219	123,503
67,276	-4,823	248,854	123,288
68,290	-5,178	248,711	122,903
69,305	-5,283	248,550	122,723
70,320	-5,378	248,384	122,549
71,334	-4,997	248,221	122,783
72,349	-4,674	248,023	122,949
73,363	-4,591	247,920	122,957
74,378	-4,530	247,446	122,763
75,393	-4,803	247,332	122,463
76,407	-4,851	247,295	122,393
77,422	-4,676	247,061	122,416
78,436	-4,687	246,725	122,229
79,451	-4,674	246,620	122,177
80,466	-4,866	246,459	121,923
81,480	-4,985	246,199	121,684
82,495	-4,977	246,027	121,594
83,509	-4,978	245,737	121,440
84,524	-4,984	245,632	121,372
85,539	-4,930	245,257	121,221
86,553	-5,068	245,240	121,086
87,568	-5,025	245,115	121,050
88,582	-4,948	244,757	120,926
89,597	-5,004	244,511	120,747
90,611	-4,892	244,497	120,823
91,626	-4,873	244,421	120,791
92,641	-4,986	244,299	120,625
93,655	-4,803	243,879	120,560
94,670	-4,956	243,765	120,365
95,684	-4,958	243,529	120,236
96,699	-4,899	243,460	120,240
97,714	-5,078	243,211	119,958
98,728	-4,918	242,945	119,949
99,743	-5,035	242,732	119,736
100,757	-5,116	242,508	119,548
101,772	-5,019	242,330	119,530
102,787	-5,046	242,261	119,462
103,801	-5,038	242,179	119,418
104,816	-4,941	241,847	119,323
105,830	-4,989	241,842	119,272
106,845	-4,685	241,627	119,406
107,860	-4,623	241,546	119,406
108,874	-4,902	241,346	119,067
109,889	-5,139	241,070	118,724
110,903	-4,792	240,787	118,860
111,918	-5,271	240,740	118,432
112,933	-4,797	240,488	118,687
113,947	-4,813	240,416	118,628
114,962	-4,840	240,236	118,507
115,976	-4,907	240,139	118,393
116,991	-4,811	239,907	118,347
118,006	-4,655	239,646	118,335
119,020	-4,848	239,589	118,139
120,035	-4,834	239,437	118,065
121,049	-4,596	239,311	118,186
122,064	-4,740	239,079	117,943
123,079	-4,856	238,857	117,729
124,093	-5,001	238,666	117,506
125,108	-5,019	238,430	117,365
126,122	-5,131	238,246	117,172
127,137	-5,558	238,177	116,780
128,151	-5,265	237,819	116,833
129,166	-5,128	237,701	116,876
130,181	-4,973	237,423	116,854
131,195	-5,074	237,260	116,682
132,210	-4,962	237,302	116,783
133,224	-4,751	237,060	116,824
134,239	-5,028	237,005	116,563
135,254	-4,750	236,595	116,575
136,268	-4,920	236,474	116,367
137,283	-4,991	236,133	116,133
138,297	-5,258	236,053	115,868
139,312	-5,369	235,893	115,689
140,327	-5,106	235,915	115,901
141,341	-4,548	235,881	116,324
142,356	-4,677	235,787	116,163
143,370	-4,641	235,669	116,123
144,385	-4,452	235,505	116,184
145,400	-4,509	235,221	115,988
146,414	-4,341	234,903	115,955
147,429	-4,430	234,718	115,782
148,443	-4,521	234,692	115,687
149,458	-4,473	234,498	115,619
150,473	-4,415	234,266	115,541
151,487	-4,620	234,053	115,262
152,502	-4,562	234,067	115,305
153,516	-4,751	234,043	115,132
154,531	-4,482	233,549	115,093
155,546	-4,779	233,460	114,802
156,560	-4,629	233,361	114,862
157,575	-4,784	233,177	114,638
158,589	-4,557	232,911	114,678
159,604	-4,448	232,889	114,743
160,619	-4,183	232,615	114,808
161,633	-4,473	232,503	114,513
162,648	-4,474	232,404	114,453
163,662	-4,413	232,250	114,415
164,677	-4,807	232,161	114,049
165,692	-4,522	232,001	114,186
166,706	-4,606	231,881	114,050
167,721	-4,457	231,646	114,042
168,735	-4,501	231,623	113,986
169,750	-4,709	231,457	113,730
170,764	-4,366	231,083	113,806
171,779	-4,323	231,024	113,801
172,794	-4,631	230,947	113,510
173,808	-4,579	230,720	113,430
174,823	-5,079	230,229	112,786
175,837	-5,076	230,022	112,678
176,852	-4,755	230,143	112,978
177,867	-4,549	230,065	113,090
178,881	-4,484	229,832	113,017
179,896	-4,423	229,710	112,995
180,910	-4,202	229,680	113,142
181,925	-4,493	229,504	112,818
182,940	-4,424	229,255	112,740
183,954	-4,388	229,141	112,702
184,969	-4,447	228,941	112,547
185,983	-4,415	228,834	112,509
186,998	-4,241	228,695	112,566
188,013	-4,128	228,622	112,608
189,027	-4,381	228,460	112,322
190,042	-4,329	228,283	112,265
191,056	-4,223	228,013	112,204
192,071	-4,400	228,107	112,104
193,086	-4,458	227,780	111,889
194,100	-4,501	227,652	111,782
195,115	-4,432	227,180	111,593
196,129	-4,972	227,068	111,112
197,144	-1,680	228,043	114,126
198,159	1,731	229,353	117,421
199,173	3,993	229,708	119,348
200,188	4,362	229,572	119,553
201,202	4,335	229,370	119,416
202,217	4,549	229,221	119,493
203,232	4,831	229,141	119,659
204,246	4,838	229,033	119,597
205,261	4,828	228,939	119,530
206,275	4,823	228,896	119,493
207,290	4,910	228,701	119,448
208,304	4,954	228,479	119,355
209,319	4,932	228,327	119,248
210,334	4,842	228,184	119,093
211,348	4,733	227,823	118,811
212,363	4,227	227,652	118,322
213,377	3,863	227,444	117,924
214,392	3,805	227,224	117,756
215,407	4,019	227,239	117,917
216,421	4,425	227,040	118,113
217,436	4,070	226,870	117,744
218,450	3,842	226,663	117,451
219,465	3,815	226,415	117,291
220,480	3,655	226,431	117,167
221,494	4,020	226,271	117,352
222,509	3,861	226,149	117,158
223,523	3,858	225,956	117,045
224,538	3,990	225,772	117,039
225,553	3,799	225,691	116,841
226,567	4,274	225,493	117,089
227,582	4,408	225,445	117,156
228,596	4,483	225,436	117,198
229,611	4,225	225,184	116,861
230,626	3,942	224,960	116,520
231,640	3,842	224,750	116,325
232,655	4,123	224,853	116,580
233,669	4,548	224,741	116,834
234,684	4,588	224,713	116,839
235,699	4,374	224,448	116,529
236,713	4,158	224,184	116,218
237,728	3,953	224,051	115,985
238,742	4,007	223,729	115,848
239,757	4,040	223,491	115,739
240,772	3,957	223,525	115,684
241,786	4,019	223,250	115,579
242,801	4,434	223,286	115,899
243,815	4,407	223,141	115,792
244,830	4,502	223,038	115,800
245,844	4,004	222,907	115,349
246,859	4,159	222,732	115,363
247,874	4,396	222,594	115,460
248,888	4,314	222,427	115,301
249,903	4,189	222,138	115,048
250,917	3,803	222,163	114,762
251,932	4,027	221,926	114,797
252,947	3,974	221,834	114,699
253,961	3,904	221,495	114,462
254,976	3,931	221,470	114,458
255,990	4,195	221,444	114,631
257,005	4,046	221,378	114,476
258,020	4,245	221,149	114,496
259,034	4,490	221,089	114,636
260,049	4,025	220,977	114,222
261,063	4,256	220,734	114,258
262,078	4,513	220,512	114,323
263,093	4,108	220,614	114,066
264,107	4,209	220,474	114,058
265,122	4,523	220,199	114,137
266,136	4,725	220,056	114,203
267,151	4,683	219,886	114,073
268,166	4,090	219,696	113,527
269,180	3,924	219,321	113,201
270,195	3,894	219,229	113,122
271,209	3,987	219,176	113,152
272,224	3,999	219,153	113,139
273,239	4,261	218,897	113,189
274,253	3,945	218,750	112,871
275,268	3,892	218,572	112,731
276,282	3,837	218,324	112,553
277,297	3,757	218,296	112,469
278,312	3,915	218,126	112,487
279,326	4,010	218,106	112,536
280,341	3,907	218,012	112,402
281,355	4,018	217,820	112,375
282,370	3,924	217,681	112,225
283,384	3,873	217,447	112,057
284,399	3,732	217,167	111,800
285,414	3,540	217,357	111,748
286,428	4,225	217,170	112,140
287,443	3,959	217,063	111,881
288,457	4,056	216,866	111,840
289,472	4,096	216,697	111,772
290,487	3,635	216,350	111,249
291,501	3,612	216,151	111,120
292,516	3,878	216,243	111,350
293,530	3,956	215,976	111,259
294,545	3,781	215,882	111,075
295,560	3,803	215,897	111,088
296,574	3,935	215,759	111,103
297,589	3,852	215,634	110,968
298,603	4,020	215,489	111,005
299,618	4,232	215,215	111,007
300,633	3,932	215,306	110,828
301,647	4,325	215,187	111,040
302,662	4,303	215,010	110,922
303,676	4,207	214,909	110,791
304,691	4,365	214,816	110,847
305,706	4,253	214,589	110,640
306,720	4,298	214,391	110,560
307,735	4,100	214,264	110,343
308,749	3,958	214,116	110,155
309,764	4,027	214,080	110,176
310,779	4,525	213,799	110,377
311,793	4,416	213,663	110,219
312,808	4,245	213,698	110,106
313,822	4,116	213,423	109,862
314,837	4,017	213,136	109,634
315,852	3,818	213,223	109,527
316,866	3,799	213,067	109,424
317,881	4,335	212,877	109,697
318,895	4,327	212,788	109,637
319,910	4,074	212,614	109,357
320,925	3,740	212,350	108,974
321,939	3,632	212,137	108,779
322,954	3,712	212,031	108,772
323,968	3,883	212,132	108,935
324,983	4,097	211,977	108,997
325,997	4,287	211,932	109,099
327,012	3,921	211,793	108,759
328,027	4,441	211,553	108,993
329,041	4,482	211,424	108,946
330,056	4,640	211,362	109,016
331,070	4,125	211,115	108,516
332,085	3,747	210,887	108,123
333,100	3,838	210,777	108,121
334,114	4,099	210,671	108,240
335,129	4,161	210,555	108,215
336,143	4,009	210,343	107,990
337,158	3,913	210,254	107,866
338,173	4,011	210,248	107,922
339,187	3,940	209,988	107,730
340,202	3,754	209,699	107,442
341,216	3,903	209,616	107,494
342,231	3,791	209,566	107,380
343,246	3,759	209,468	107,299
344,260	3,799	209,293	107,227
345,275	3,896	209,252	107,264
346,289	4,306	209,086	107,455
347,304	4,039	209,086	107,259
348,319	4,076	208,942	107,202
349,333	3,971	208,724	107,007
350,348	4,250	208,534	107,095
351,362	4,420	208,482	107,176
352,377	4,334	208,404	107,067
353,392	3,908	208,324	106,720
354,406	4,119	208,019	106,701
355,421	194,346	1344,382	1434,523
356,435	155,074	1482,942	1434,635
