DTS Sentinel unit serial number:	SN410029Multiplexer serial number:	ORYXHardware model number:	OX2-SRSoftware version number:	ORYX F/W v4,00 Oryx Data Collector v3.7.2.0data status	okinstallation	B6 Nyhavnadifferential loss correction	single-endedforward channel	channel 2reverse channel	N/Adate	2023/12/11time	07:25:08forward acquisition time	300,00reverse acquisition time	0,00gamma	499,1914k internal	0,3128k external	0,3128temperature offset calibration	1,0000default loss term (dB/km)	0,3820temperature slope calibration	1,0000multiplexer offset coefficient	1,0000multiplexer slope coefficient	1,0000fibre end	0,00T internal ref (°C)	19,11T ext. ref 1 (°C)	1,61T ext. ref 2 (°C)	1,64length (m)	temperature (°C)	Stokes	anti-Stokes-744,400	116,308	0,034	-0,031
-743,385	-144,388	-0,316	0,022
-742,371	-200,000	0,001	-0,046
-741,356	107,651	-0,231	0,205
-740,342	-72,545	0,159	-0,043
-739,327	58,252	-0,125	0,091
-738,312	-200,000	-0,009	-0,048
-737,298	-89,929	-0,404	0,087
-736,283	59,768	0,106	-0,078
-735,269	-174,657	-0,103	-0,002
-734,254	28,359	0,056	-0,035
-733,239	-82,966	-0,452	-0,108
-732,225	83,849	0,097	0,079
-731,210	-160,287	-0,240	-0,009
-730,196	-73,001	0,078	0,021
-729,181	-200,000	-0,014	0,050
-728,167	-85,766	0,172	0,039
-727,152	219,956	-0,058	0,069
-726,137	-73,258	0,039	-0,010
-725,123	549,091	0,049	0,088
-724,108	-130,430	-0,138	0,014
-723,094	737,687	-0,008	0,017
-722,079	-200,000	0,022	-0,089
-721,064	-24,777	-0,082	-0,036
-720,050	-73,281	0,011	0,003
-719,035	-123,847	-0,044	0,005
-718,021	800,000	-0,062	-0,143
-717,006	-200,000	-0,012	0,061
-715,991	-200,000	-0,016	0,116
-714,977	-200,000	0,012	-0,192
-713,962	156,938	-0,110	-0,113
-712,948	-78,753	-0,054	-0,014
-711,933	-66,271	-0,089	0,026
-710,918	-42,823	-0,063	-0,024
-709,904	-200,000	-0,006	-0,130
-708,889	-200,000	0,058	0,239
-707,875	200,131	-0,026	-0,030
-706,860	31,666	0,051	0,032
-705,845	133,657	-0,077	0,074
-704,831	431,052	0,047	0,076
-703,816	-90,892	-0,076	-0,016
-702,802	-45,501	-0,091	0,033
-701,787	10,790	-0,138	-0,078
-700,772	-200,000	0,036	-0,125
-699,758	41,981	0,045	-0,031
-698,743	-141,482	-0,032	0,002
-697,729	-200,000	0,005	0,129
-696,714	-165,577	-0,159	-0,005
-695,699	-120,802	-0,029	0,004
-694,685	-29,042	-0,101	-0,043
-693,670	-30,053	-0,079	-0,033
-692,656	-139,359	0,100	-0,008
-691,641	800,000	-0,039	-0,090
-690,627	135,503	-0,009	-0,009
-689,612	-48,899	0,151	0,053
-688,597	-200,000	-0,031	0,105
-687,583	800,000	-0,025	-0,061
-686,568	800,000	-0,011	0,031
-685,554	637,659	0,027	-0,051
-684,539	-67,582	0,084	0,024
-683,524	-200,000	0,001	0,128
-682,510	-90,306	-0,144	0,031
-681,495	200,185	-0,076	0,087
-680,481	620,503	-0,049	-0,091
-679,466	89,756	-0,156	-0,129
-678,451	-109,565	-0,181	0,028
-677,437	-162,561	-0,086	-0,003
-676,422	800,000	0,023	-0,057
-675,408	-67,116	-0,074	0,021
-674,393	-115,134	-0,122	-0,017
-673,378	46,237	0,054	-0,037
-672,364	485,904	-0,090	0,153
-671,349	-151,914	-0,114	0,006
-670,335	426,949	-0,046	0,074
-669,320	601,626	-0,035	-0,066
-668,305	-172,776	-0,082	0,002
-667,291	800,000	-0,036	0,091
-666,276	800,000	-0,048	-0,124
-665,262	-200,000	-0,007	-0,070
-664,247	-145,690	-0,105	0,007
-663,232	176,622	-0,052	0,057
-662,218	-200,000	0,006	0,146
-661,203	120,604	-0,027	0,025
-660,189	-60,656	0,092	0,029
-659,174	-29,928	-0,100	0,042
-658,159	-18,598	-0,170	-0,078
-657,145	46,919	-0,123	-0,084
-656,130	329,760	-0,065	-0,093
-655,116	-200,000	-0,021	-0,098
-654,101	655,117	-0,053	0,101
-653,086	800,000	-0,045	0,102
-652,072	97,093	-0,064	0,055
-651,057	93,021	0,040	-0,033
-650,043	-53,560	-0,091	-0,031
-649,028	-200,000	0,005	0,050
-648,014	-200,000	0,014	0,085
-646,999	11,954	-0,068	-0,039
-645,984	-200,000	-0,003	-0,120
-644,970	485,333	-0,097	-0,164
-643,955	425,786	-0,075	0,120
-642,941	165,480	0,093	0,097
-641,926	-200,000	0,012	0,222
-640,911	800,000	-0,015	0,044
-639,897	343,838	0,093	-0,135
-638,882	43,834	0,027	0,019
-637,868	-200,000	-0,010	-0,036
-636,853	-38,736	-0,042	-0,016
-635,838	21,016	-0,111	-0,067
-634,824	-182,181	-0,019	0,000
-633,809	308,656	0,094	-0,130
-632,795	389,715	0,017	-0,027
-631,780	741,726	0,020	0,041
-630,765	800,000	0,024	-0,058
-629,751	800,000	-0,025	0,058
-628,736	119,803	0,032	0,029
-627,722	800,000	-0,019	0,053
-626,707	800,000	0,010	0,033
-625,692	508,405	-0,012	0,021
-624,678	20,229	-0,051	-0,031
-623,663	141,934	-0,045	0,044
-622,649	-55,340	-0,086	0,028
-621,634	-14,591	-0,135	-0,064
-620,619	188,550	0,038	-0,042
-619,605	120,533	0,160	-0,147
-618,590	618,654	-0,017	0,032
-617,576	453,980	0,031	0,052
-616,561	119,980	0,075	-0,069
-615,546	-69,913	-0,142	-0,040
-614,532	-200,000	-0,009	0,047
-613,517	-200,000	-0,010	-0,103
-612,503	-34,275	-0,075	0,030
-611,488	-200,000	-0,022	-0,103
-610,474	-85,757	-0,041	0,009
-609,459	481,754	0,019	0,032
-608,444	-45,808	-0,160	-0,058
-607,430	-112,232	0,072	0,011
-606,415	37,416	-0,014	-0,009
-605,401	110,934	-0,104	0,093
-604,386	87,194	0,053	0,044
-603,371	-3,847	0,049	0,025
-602,357	-9,036	-0,081	-0,040
-601,342	-60,225	-0,200	0,063
-600,328	-88,735	-0,108	0,023
-599,313	-80,869	-0,096	-0,023
-598,298	800,000	0,027	0,057
-597,284	-200,000	0,001	-0,037
-596,269	-200,000	-0,017	0,067
-595,255	61,802	-0,026	-0,019
-594,240	53,165	0,060	-0,042
-593,225	-105,270	-0,147	0,025
-592,211	-200,000	0,018	-0,085
-591,196	38,120	0,048	-0,032
-590,182	-200,000	0,001	-0,039
-589,167	8,919	0,095	-0,053
-588,152	-200,000	0,004	-0,022
-587,138	-98,496	0,052	0,010
-586,123	800,000	-0,024	0,059
-585,109	-200,000	-0,028	-0,145
-584,094	800,000	0,048	0,099
-583,079	800,000	0,012	-0,029
-582,065	800,000	-0,020	0,048
-581,050	297,989	0,045	0,061
-580,036	-29,600	-0,216	-0,091
-579,021	800,000	0,082	-0,183
-578,006	-200,000	0,007	-0,205
-576,992	9,924	-0,131	-0,073
-575,977	-200,000	-0,002	-0,019
-574,963	78,116	0,062	-0,049
-573,948	370,958	-0,039	0,058
-572,934	-15,657	-0,093	-0,044
-571,919	-122,894	0,053	0,006
-570,904	61,863	0,033	0,024
-569,890	-79,694	-0,090	-0,022
-568,875	-9,344	0,068	0,033
-567,861	40,955	0,039	0,026
-566,846	-200,000	0,001	0,011
-565,831	36,196	0,038	0,025
-564,817	-200,000	-0,036	-0,143
-563,802	-200,000	-0,010	-0,066
-562,788	317,103	0,027	-0,038
-561,773	176,467	-0,073	0,078
-560,758	800,000	0,047	0,097
-559,744	800,000	0,039	0,100
-558,729	774,139	-0,022	0,045
-557,715	-27,237	-0,045	0,019
-556,700	-19,099	-0,057	-0,026
-555,685	-200,000	0,007	-0,090
-554,671	-200,000	-0,005	0,045
-553,656	-200,000	-0,009	0,062
-552,642	114,632	0,045	0,040
-551,627	-200,000	-0,004	-0,045
-550,612	112,486	-0,095	0,085
-549,598	800,000	-0,045	0,137
-548,583	-200,000	0,020	0,142
-547,569	800,000	0,012	0,036
-546,554	91,880	0,015	-0,013
-545,539	800,000	0,024	0,049
-544,525	-200,000	-0,000	-0,154
-543,510	149,734	-0,068	-0,069
-542,496	-200,000	0,010	-0,069
-541,481	-200,000	0,001	-0,140
-540,466	350,378	0,036	-0,053
-539,452	101,400	0,097	0,083
-538,437	119,903	0,039	-0,036
-537,423	-116,166	-0,060	-0,008
-536,408	29,943	-0,076	-0,048
-535,393	-183,516	0,099	0,001
-534,379	-200,000	-0,030	-0,143
-533,364	-59,005	-0,050	-0,016
-532,350	-136,766	-0,060	0,005
-531,335	-200,000	-0,008	0,130
-530,321	-200,000	-0,027	0,109
-529,306	666,913	-0,076	0,146
-528,291	-55,825	-0,065	-0,021
-527,277	28,210	0,037	0,023
-526,262	6,562	0,052	-0,028
-525,248	800,000	-0,022	0,049
-524,233	2,543	0,110	0,059
-523,218	800,000	0,048	-0,123
-522,204	-125,064	-0,120	-0,013
-521,189	27,790	-0,029	-0,018
-520,175	-11,913	-0,072	0,035
-519,160	-120,250	-0,044	-0,005
-518,145	85,037	-0,103	0,083
-517,131	-16,632	0,275	0,128
-516,116	93,795	-0,115	-0,096
-515,102	384,713	-0,075	0,114
-514,087	58,056	0,078	0,057
-513,072	302,876	-0,065	-0,088
-512,058	-39,821	0,031	0,012
-511,043	-122,715	-0,096	0,011
-510,029	800,000	0,063	-0,206
-509,014	-61,747	0,073	0,022
-507,999	70,986	0,029	0,022
-506,985	800,000	-0,065	-0,167
-505,970	-200,000	-0,046	-0,159
-504,956	127,291	-0,127	-0,119
-503,941	-200,000	0,005	-0,039
-502,926	-138,772	0,069	0,005
-501,912	90,847	0,108	0,089
-500,897	-114,990	0,095	-0,013
-499,883	-109,439	-0,129	-0,020
-498,868	21,670	-0,117	0,070
-497,853	-200,000	0,013	-0,050
-496,839	136,287	0,037	0,035
-495,824	-109,696	0,085	-0,013
-494,810	-200,000	0,013	0,065
-493,795	800,000	0,037	0,097
-492,781	465,600	0,007	-0,012
-491,766	-200,000	0,024	-0,096
-490,751	800,000	-0,050	-0,142
-489,737	-31,015	-0,102	0,042
-488,722	301,263	0,071	0,097
-487,708	133,110	0,026	0,024
-486,693	-200,000	0,003	-0,069
-485,678	-135,456	-0,104	0,009
-484,664	-146,755	-0,042	-0,003
-483,649	-200,000	-0,010	0,078
-482,635	-200,000	-0,039	0,141
-481,620	800,000	-0,024	0,064
-480,605	-87,756	0,104	0,023
-479,591	-119,196	0,042	-0,005
-478,576	106,391	-0,044	-0,039
-477,562	109,633	-0,019	0,016
-476,547	-200,000	-0,044	-0,213
-475,532	-169,666	0,051	0,001
-474,518	-200,000	0,001	0,082
-473,503	-200,000	-0,028	0,142
-472,489	266,641	-0,081	0,105
-471,474	-177,723	-0,030	-0,001
-470,459	-200,000	-0,004	-0,050
-469,445	125,659	0,031	-0,028
-468,430	328,658	-0,029	-0,041
-467,416	-6,519	0,145	0,072
-466,401	184,420	0,027	-0,030
-465,386	-200,000	0,012	0,067
-464,372	-59,792	-0,065	0,020
-463,357	-25,169	-0,017	0,007
-462,343	17,815	0,018	-0,011
-461,328	259,353	0,006	0,008
-460,313	-200,000	-0,000	0,083
-459,299	-10,297	0,056	-0,027
-458,284	-50,506	-0,044	0,015
-457,270	-200,000	0,018	0,065
-456,255	260,285	-0,051	0,064
-455,241	800,000	-0,042	-0,088
-454,226	-131,730	0,007	-0,001
-453,211	-200,000	0,017	-0,077
-452,197	-69,330	0,177	-0,050
-451,182	-88,839	-0,114	-0,025
-450,168	503,157	-0,065	0,112
-449,153	108,257	-0,024	-0,021
-448,138	-96,342	-0,119	-0,023
-447,124	-113,885	-0,130	-0,018
-446,109	-54,181	-0,066	-0,022
-445,095	-200,000	-0,017	-0,115
-444,080	22,237	-0,032	0,019
-443,065	60,019	0,020	0,014
-442,051	-40,217	-0,077	0,030
-441,036	-200,000	0,005	-0,140
-440,022	-200,000	0,014	-0,061
-439,007	-72,711	0,085	-0,023
-437,992	19,362	0,027	0,016
-436,978	181,303	-0,052	0,056
-435,963	32,665	-0,049	0,031
-434,949	42,048	0,036	0,024
-433,934	800,000	0,044	-0,095
-432,919	357,347	-0,052	-0,076
-431,905	36,324	-0,150	0,097
-430,890	562,080	0,075	0,133
-429,876	-97,041	0,059	0,011
-428,861	207,264	-0,102	0,117
-427,846	76,287	0,051	-0,040
-426,832	316,125	0,053	-0,073
-425,817	-200,000	-0,000	-0,215
-424,803	800,000	-0,045	-0,110
-423,788	-200,000	0,005	-0,061
-422,773	105,937	0,144	0,125
-421,759	-146,484	0,023	0,001
-420,744	-20,430	0,062	-0,028
-419,730	48,436	-0,094	-0,065
-418,715	-200,000	-0,023	-0,113
-417,701	-200,000	0,004	-0,026
-416,686	-154,317	0,049	0,002
-415,671	168,997	0,128	-0,134
-414,657	-58,849	0,101	0,032
-413,642	559,170	0,043	0,076
-412,628	-200,000	-0,005	0,024
-411,613	31,095	0,010	-0,007
-410,598	800,000	0,007	-0,019
-409,584	194,159	0,090	0,101
-408,569	-145,993	0,143	-0,009
-407,555	266,267	0,044	-0,056
-406,540	-1,179	-0,114	-0,059
-405,525	-200,000	-0,016	-0,077
-404,511	530,409	-0,044	0,077
-403,496	11,122	-0,063	-0,035
-402,482	69,677	0,086	-0,065
-401,467	-74,928	-0,061	-0,016
-400,452	93,931	0,115	0,096
-399,438	800,000	-0,023	0,063
-398,423	162,581	-0,134	0,139
-397,409	-200,000	0,019	0,076
-396,394	-116,138	-0,017	0,002
-395,379	800,000	0,019	-0,059
-394,365	14,039	0,016	0,009
-393,350	800,000	-0,036	0,084
-392,336	624,624	-0,043	-0,080
-391,321	-14,453	0,092	-0,043
-390,306	-11,668	-0,146	0,070
-389,292	322,440	-0,087	0,122
-388,277	19,786	0,139	0,082
-387,263	800,000	0,048	-0,126
-386,248	12,435	0,115	-0,065
-385,233	-134,816	0,063	0,006
-384,219	-101,837	0,229	0,040
-383,204	-200,000	-0,003	-0,044
-382,190	-139,321	-0,075	-0,006
-381,175	-23,381	0,099	-0,044
-380,160	155,919	-0,077	0,078
-379,146	120,960	0,191	0,174
-378,131	-200,000	0,024	0,153
-377,117	800,000	0,056	0,133
-376,102	136,393	-0,100	0,095
-375,088	-200,000	0,012	-0,113
-374,073	800,000	-0,028	-0,088
-373,058	-80,057	0,111	-0,027
-372,044	356,654	0,104	-0,153
-371,029	-29,292	0,079	-0,033
-370,015	-53,693	0,104	0,035
-369,000	359,111	-0,018	-0,026
-367,985	260,191	-0,028	-0,035
-366,971	-200,000	0,026	-0,128
-365,956	-200,000	-0,024	-0,174
-364,942	800,000	0,044	-0,113
-363,927	800,000	-0,033	0,067
-362,912	-200,000	-0,015	0,116
-361,898	24,158	0,071	-0,043
-360,883	-200,000	-0,016	0,058
-359,869	149,565	-0,093	0,092
-358,854	8,200	0,097	0,053
-357,839	800,000	-0,027	0,073
-356,825	800,000	0,025	0,075
-355,810	222,098	-0,133	-0,158
-354,796	321,214	-0,011	-0,016
-353,781	20,803	-0,109	-0,065
-352,766	432,019	-0,012	0,019
-351,752	-200,000	0,015	0,107
-350,737	-200,000	0,014	0,096
-349,723	236,625	0,113	0,137
-348,708	-117,988	0,031	0,004
-347,693	198,358	0,072	-0,080
-346,679	800,000	0,049	-0,121
-345,664	-200,000	-0,025	-0,088
-344,650	800,000	-0,039	-0,096
-343,635	577,463	-0,010	-0,018
-342,620	61,300	0,136	0,099
-341,606	199,732	-0,032	0,036
-340,591	-200,000	0,007	-0,058
-339,577	800,000	0,001	-0,002
-338,562	-26,600	0,030	-0,013
-337,548	800,000	0,038	-0,094
-336,533	800,000	0,025	0,066
-335,518	-81,004	-0,025	-0,006
-334,504	800,000	-0,006	-0,018
-333,489	146,582	-0,058	0,057
-332,475	-55,640	-0,065	0,021
-331,460	-200,000	-0,021	-0,071
-330,445	502,229	-0,078	-0,133
-329,431	-87,384	0,122	-0,027
-328,416	97,230	0,149	0,125
-327,402	69,370	0,013	0,010
-326,387	800,000	-0,012	-0,031
-325,372	-200,000	0,006	-0,025
-324,358	240,304	-0,122	-0,149
-323,343	-156,081	0,023	-0,001
-322,329	-200,000	-0,019	-0,066
-321,314	-144,375	0,017	-0,001
-320,299	6,819	0,110	0,060
-319,285	249,476	-0,018	-0,023
-318,270	59,950	0,049	-0,036
-317,256	474,111	-0,042	-0,070
-316,241	-200,000	0,011	-0,073
-315,226	-200,000	0,003	-0,186
-314,212	-200,000	-0,011	0,072
-313,197	-101,275	0,118	0,021
-312,183	800,000	0,011	-0,031
-311,168	-40,674	-0,075	0,028
-310,153	-56,738	-0,056	-0,018
-309,139	-106,135	0,085	-0,014
-308,124	1,970	-0,123	0,065
-307,110	-200,000	-0,016	0,102
-306,095	-37,539	-0,154	0,060
-305,080	-161,589	-0,108	-0,004
-304,066	-200,000	-0,010	-0,091
-303,051	800,000	0,043	0,132
-302,037	326,438	0,054	-0,076
-301,022	226,115	0,048	-0,057
-300,008	59,694	0,031	-0,023
-298,993	246,576	0,127	0,158
-297,978	26,552	0,081	0,049
-296,964	48,907	0,030	0,021
-295,949	137,513	-0,186	-0,178
-294,935	774,464	0,055	-0,110
-293,920	-200,000	0,020	-0,102
-292,905	-200,000	-0,009	0,057
-291,891	-200,000	0,012	0,053
-290,876	154,561	-0,017	0,017
-289,862	-200,000	0,010	0,075
-288,847	364,195	-0,124	-0,183
-287,832	695,641	-0,092	0,177
-286,818	531,375	-0,033	-0,057
-285,803	62,338	-0,063	0,046
-284,789	-150,561	0,046	0,003
-283,774	-200,000	0,017	0,057
-282,759	-121,490	0,100	0,012
-281,745	-70,473	0,078	-0,021
-280,730	-200,000	-0,001	-0,134
-279,716	-20,265	0,075	0,034
-278,701	-134,505	-0,035	0,003
-277,686	-75,506	0,126	0,033
-276,672	-200,000	0,011	0,139
-275,657	800,000	0,006	0,013
-274,643	-34,825	-0,097	-0,038
-273,628	312,950	-0,070	-0,096
-272,613	800,000	0,040	0,096
-271,599	50,499	-0,060	0,041
-270,584	-62,433	0,177	-0,053
-269,570	-200,000	0,000	0,040
-268,555	-72,419	0,198	-0,053
-267,540	-43,275	-0,048	-0,018
-266,526	517,749	0,079	-0,136
-265,511	-200,000	-0,027	0,089
-264,497	83,164	-0,083	0,066
-263,482	-200,000	0,038	0,158
-262,467	-200,000	0,005	0,118
-261,453	69,946	-0,046	0,035
-260,438	-67,760	-0,114	0,032
-259,424	800,000	-0,043	-0,137
-258,409	612,154	0,053	-0,098
-257,395	644,771	-0,023	0,042
-256,380	-200,000	0,005	0,077
-255,365	800,000	0,049	0,139
-254,351	-41,166	-0,048	0,018
-253,336	-200,000	-0,002	-0,031
-252,322	-200,000	0,003	0,075
-251,307	-200,000	-0,012	-0,077
-250,292	702,168	0,023	-0,044
-249,278	-111,440	0,036	-0,005
-248,263	-13,911	0,207	0,097
-247,249	-173,375	0,062	0,001
-246,234	1,209	-0,084	-0,044
-245,219	-175,781	-0,145	-0,003
-244,205	-176,871	0,061	0,001
-243,190	-72,707	0,062	-0,016
-242,176	-26,050	0,031	-0,013
-241,161	-70,625	0,066	-0,018
-240,146	-200,000	0,001	0,084
-239,132	-55,299	0,027	-0,009
-238,117	45,605	-0,155	-0,105
-237,103	-178,430	-0,095	-0,002
-236,088	-38,056	0,123	-0,048
-235,073	131,982	0,061	0,057
-234,059	704,309	0,068	0,131
-233,044	85,924	-0,054	-0,043
-232,030	-200,000	0,002	0,037
-231,015	-200,000	0,002	0,043
-230,000	100,766	-0,105	-0,089
-228,986	-151,742	-0,085	-0,004
-227,971	417,927	-0,094	0,146
-226,957	132,448	0,033	0,031
-225,942	-200,000	-0,021	0,091
-224,927	-127,071	0,087	-0,009
-223,913	-11,139	-0,075	-0,036
-222,898	686,985	-0,061	0,116
-221,884	-115,271	0,145	-0,020
-220,869	226,268	0,087	0,104
-219,855	-91,045	0,118	0,024
-218,840	-200,000	0,001	0,029
-217,825	-72,166	0,082	-0,022
-216,811	192,982	0,039	-0,043
-215,796	-141,563	-0,074	-0,005
-214,782	220,136	0,071	-0,083
-213,767	136,975	-0,014	0,014
-212,752	-29,473	0,087	0,036
-211,738	626,546	0,026	0,048
-210,723	-142,806	0,075	0,005
-209,709	-94,038	0,054	0,011
-208,694	-200,000	-0,011	-0,073
-207,679	-96,327	-0,124	0,024
-206,665	74,689	0,107	-0,082
-205,650	-200,000	-0,035	0,134
-204,636	-71,580	-0,045	0,012
-203,621	484,349	-0,059	-0,098
-202,606	157,918	-0,061	-0,061
-201,592	53,570	-0,076	-0,053
-200,577	529,351	-0,058	-0,100
-199,563	-142,040	-0,062	-0,004
-198,548	-200,000	-0,007	0,077
-197,533	-146,674	0,030	0,002
-196,519	79,502	0,072	-0,057
-195,504	758,932	0,066	-0,132
-194,490	800,000	-0,065	-0,146
-193,475	91,879	0,095	-0,078
-192,460	62,511	0,051	0,037
-191,446	-118,152	-0,116	0,015
-190,431	514,295	0,034	0,058
-189,417	-200,000	-0,006	0,032
-188,402	124,751	0,026	0,024
-187,387	-141,567	-0,160	0,012
-186,373	109,344	-0,041	-0,036
-185,358	-142,694	0,079	0,006
-184,344	800,000	0,040	0,114
-183,329	-122,009	-0,041	-0,005
-182,315	-200,000	0,029	0,135
-181,300	-200,000	0,005	0,081
-180,285	-90,242	-0,082	-0,017
-179,271	800,000	-0,056	0,141
-178,256	19,126	0,067	-0,039
-177,242	-200,000	0,016	-0,088
-176,227	113,483	0,146	0,129
-175,212	510,272	-0,039	0,066
-174,198	-200,000	-0,012	-0,088
-173,183	-42,701	-0,072	0,027
-172,169	-118,121	-0,048	-0,006
-171,154	-147,316	-0,087	-0,005
-170,139	98,275	0,017	0,014
-169,125	381,694	0,097	0,146
-168,110	-120,837	0,109	-0,013
-167,096	67,572	0,077	-0,057
-166,081	-200,000	-0,002	-0,137
-165,066	161,785	-0,026	0,027
-164,052	45,108	-0,034	-0,023
-163,037	109,907	0,084	0,074
-162,023	95,432	-0,042	0,035
-161,008	678,990	-0,036	0,068
-159,993	201,937	-0,129	0,145
-158,979	241,659	-0,110	0,134
-157,964	-200,000	-0,012	-0,083
-156,950	-200,000	-0,012	0,098
-155,935	-106,506	0,051	0,008
-154,920	800,000	-0,044	-0,117
-153,906	371,323	0,041	-0,060
-152,891	123,549	0,166	0,151
-151,877	80,964	-0,071	0,055
-150,862	800,000	0,016	-0,034
-149,847	-76,021	0,042	0,011
-148,833	601,041	-0,035	-0,063
-147,818	154,796	0,023	0,023
-146,804	-200,000	0,156	0,000
-145,789	0,901	0,077	-0,040
-144,775	-57,907	-0,066	-0,021
-143,760	-200,000	-0,009	-0,036
-142,745	-200,000	-0,006	-0,151
-141,731	602,189	-0,053	0,096
-140,716	-200,000	-0,012	0,082
-139,702	-200,000	0,006	0,156
-138,687	768,184	-0,065	0,130
-137,672	63,993	-0,042	0,031
-136,658	-200,000	0,008	0,060
-135,643	177,604	-0,115	-0,121
-134,629	-200,000	-0,004	-0,030
-133,614	115,071	0,036	-0,032
-132,599	284,292	-0,073	-0,096
-131,585	434,299	0,081	0,128
-130,570	-56,209	-0,122	0,039
-129,556	5,816	0,141	-0,075
-128,541	80,648	-0,065	0,051
-127,526	800,000	-0,064	0,142
-126,512	-20,576	-0,126	-0,056
-125,497	-42,531	0,123	-0,045
-124,483	33,767	0,055	-0,035
-123,468	-120,742	-0,039	-0,005
-122,453	-26,520	-0,060	0,026
-121,439	70,115	-0,143	0,107
-120,424	129,255	-0,082	0,076
-119,410	445,865	0,047	-0,076
-118,395	800,000	0,011	-0,035
-117,380	-57,823	-0,071	-0,022
-116,366	45,291	0,089	-0,059
-115,351	446,007	-0,111	-0,177
-114,337	268,054	-0,045	-0,058
-113,322	-200,000	0,004	-0,056
-112,307	188,461	-0,036	-0,039
-111,293	-200,000	-0,002	0,131
-110,278	-200,000	0,004	0,038
-109,264	485,952	-0,012	0,020
-108,249	-161,011	-0,057	-0,002
-107,234	-200,000	0,005	0,047
-106,220	800,000	-0,099	0,203
-105,205	274,467	0,032	0,042
-104,191	-200,000	-0,003	-0,116
-103,176	6,873	0,030	-0,016
-102,162	-146,888	0,078	0,005
-101,147	101,420	0,094	0,079
-100,132	-18,613	-0,078	-0,035
-99,118	-200,000	-0,010	-0,099
-98,103	-97,737	-0,121	-0,023
-97,089	800,000	-0,005	0,013
-96,074	28,065	0,046	-0,028
-95,059	-22,268	-0,038	-0,017
-94,045	-78,002	-0,200	-0,050
-93,030	87,690	0,016	0,013
-92,016	102,252	-0,076	-0,065
-91,001	-45,797	-0,081	-0,029
-89,986	154,911	0,073	0,073
-88,972	-200,000	0,026	0,083
-87,957	800,000	0,081	0,210
-86,943	-58,727	-0,148	-0,046
-85,928	800,000	0,024	-0,049
-84,913	324,869	-0,072	-0,100
-83,899	36,137	0,089	-0,057
-82,884	236,877	0,072	0,087
-81,870	-200,000	-0,018	-0,139
-80,855	-200,000	0,004	-0,021
-79,840	-101,791	0,191	0,033
-78,826	640,675	0,021	-0,039
-77,811	-15,832	-0,173	-0,080
-76,797	-6,502	-0,020	0,010
-75,782	800,000	0,046	0,095
-74,767	-200,000	-0,009	0,041
-73,753	-200,000	-0,005	-0,054
-72,738	-61,785	0,122	0,037
-71,724	-13,344	-0,045	0,021
-70,709	-119,181	0,065	-0,008
-69,694	-200,000	0,027	0,120
-68,680	150,526	0,073	0,072
-67,665	-200,000	-0,014	0,072
-66,651	-200,000	-0,006	0,030
-65,636	763,581	0,076	0,150
-64,622	-55,270	-0,107	0,034
-63,607	-200,000	-0,006	-0,108
-62,592	-139,563	0,078	0,006
-61,578	-107,266	-0,118	-0,019
-60,563	-8,177	0,030	0,015
-59,549	205,122	0,117	0,132
-58,534	-66,883	-1,721	-0,490
-57,519	722,182	-0,620	-1,201
-56,505	-200,000	-1,051	-4,768
-55,490	-174,270	0,645	-0,013
-54,476	800,000	5,245	12,101
-53,461	-200,000	15,583	279,312
-52,446	-200,000	698,395	2276,718
-51,432	589,985	1615,913	2898,814
-50,417	123,409	1622,923	1474,220
-49,403	84,738	1282,527	1016,815
-48,388	37,677	1025,415	658,176
-47,373	22,093	986,848	581,913
-46,359	20,996	975,819	571,770
-45,344	19,307	971,872	563,882
-44,330	19,512	970,218	563,573
-43,315	19,225	968,601	561,670
-42,300	19,177	967,672	560,954
-41,286	19,130	966,656	560,189
-40,271	19,167	965,549	559,646
-39,257	19,196	964,800	559,282
-38,242	19,136	964,088	558,651
-37,227	19,146	963,227	558,163
-36,213	19,152	962,277	557,610
-35,198	19,067	961,326	556,760
-34,184	19,136	960,779	556,646
-33,169	19,092	959,884	555,963
-32,154	19,133	958,999	555,561
-31,140	19,166	958,029	555,084
-30,125	19,196	957,332	554,755
-29,111	19,175	956,648	554,269
-28,096	19,175	955,797	553,755
-27,082	19,142	955,206	553,282
-26,067	19,165	954,423	552,881
-25,052	19,093	953,699	552,209
-24,038	19,172	952,836	551,942
-23,023	19,156	952,244	551,524
-22,009	19,176	951,534	551,158
-20,994	19,167	950,937	550,759
-19,979	19,113	950,478	550,298
-18,965	19,158	949,691	549,965
-17,950	19,188	949,043	549,664
-16,936	19,100	948,521	549,059
-15,921	19,017	947,916	548,420
-14,906	19,030	947,063	547,946
-13,892	19,091	946,415	547,745
-12,877	19,024	945,870	547,194
-11,863	18,993	945,138	546,649
-10,848	18,963	944,715	546,287
-9,833	19,070	944,180	546,298
-8,819	19,095	943,483	545,953
-7,804	19,021	943,008	545,419
-6,790	19,017	942,162	544,897
-5,775	19,051	941,662	544,695
-4,760	19,086	941,016	544,410
-3,746	18,967	940,552	543,741
-2,731	18,888	939,584	542,908
-1,717	18,852	939,010	542,441
-0,702	18,866	938,327	542,069
0,313	18,648	937,908	541,954
1,327	21,626	935,949	550,203
2,342	30,525	794,569	490,812
3,356	27,282	448,514	272,153
4,371	-3,053	294,206	148,117
5,386	-7,209	275,681	134,828
6,400	-8,756	269,942	130,567
7,415	-9,263	267,948	129,122
8,429	-8,727	266,743	129,023
9,444	-8,453	266,005	128,906
10,459	-8,319	265,463	128,756
11,473	-8,478	264,832	128,292
12,488	-8,324	264,211	128,121
13,502	-8,694	263,816	127,581
14,517	-8,236	263,470	127,818
15,531	-7,943	263,240	127,961
16,546	-7,731	262,863	127,959
17,561	-7,816	262,480	127,684
18,575	-7,756	262,264	127,622
19,590	-7,957	261,841	127,223
20,604	-7,661	261,501	127,314
21,619	-7,965	261,312	126,937
22,634	-7,885	260,766	126,732
23,648	-7,690	260,456	126,745
24,663	-7,943	260,441	126,500
25,677	-8,028	260,198	126,294
26,692	-7,666	259,803	126,415
27,707	-7,747	259,608	126,236
28,721	-7,964	259,493	125,975
29,736	-7,973	259,184	125,805
30,750	-7,741	258,809	125,819
31,765	-7,991	258,694	125,529
32,780	-8,064	258,605	125,410
33,794	-7,720	258,003	125,413
34,809	-7,688	257,805	125,333
35,823	-7,745	257,608	125,176
36,838	-7,885	257,465	124,971
37,853	-7,918	257,324	124,863
38,867	-7,791	256,830	124,724
39,882	-7,942	256,836	124,582
40,896	-7,887	256,634	124,522
41,911	-7,827	256,255	124,380
42,926	-7,837	256,011	124,241
43,940	-7,965	255,854	124,041
44,955	-7,815	255,473	123,977
45,969	-7,789	255,255	123,884
46,984	-8,060	255,088	123,553
47,999	-8,412	255,082	123,231
49,013	-8,479	254,624	122,940
50,028	-8,359	254,529	122,989
51,042	-8,392	254,177	122,778
52,057	-8,503	253,994	122,582
53,071	-8,641	253,869	122,390
54,086	-8,474	253,583	122,387
55,101	-8,472	253,472	122,324
56,115	-8,325	253,363	122,388
57,130	-7,986	253,064	122,528
58,144	-7,891	252,871	122,506
59,159	-7,944	252,774	122,403
60,174	-7,975	252,577	122,269
61,188	-7,946	252,384	122,190
62,203	-7,870	252,161	122,137
63,217	-8,086	251,954	121,839
64,232	-7,991	251,657	121,767
65,247	-7,834	251,443	121,788
66,261	-7,857	251,224	121,651
67,276	-7,844	250,934	121,510
68,290	-8,009	250,678	121,234
69,305	-8,378	250,442	120,792
70,320	-8,349	250,351	120,762
71,334	-8,075	250,315	120,969
72,349	-7,768	250,041	121,090
73,363	-7,965	249,771	120,779
74,378	-7,864	249,443	120,696
75,393	-8,018	249,350	120,509
76,407	-7,934	249,218	120,506
77,422	-7,970	248,981	120,351
78,436	-8,005	248,744	120,195
79,451	-7,993	248,445	120,050
80,466	-7,976	248,376	120,020
81,480	-8,024	248,153	119,861
82,495	-8,041	247,856	119,693
83,509	-8,018	247,773	119,662
84,524	-7,951	247,537	119,593
85,539	-8,150	247,461	119,378
86,553	-8,253	247,146	119,127
87,568	-8,093	247,046	119,204
88,582	-8,283	246,923	118,973
89,597	-8,157	246,570	118,899
90,611	-8,184	246,496	118,830
91,626	-8,040	246,311	118,852
92,641	-7,844	246,006	118,859
93,655	-8,137	245,900	118,551
94,670	-8,058	245,786	118,551
95,684	-8,088	245,628	118,439
96,699	-8,308	245,428	118,148
97,714	-8,165	245,118	118,108
98,728	-8,126	244,913	118,031
99,743	-8,123	244,582	117,863
100,757	-8,046	244,428	117,844
101,772	-8,296	244,347	117,585
102,787	-8,203	244,167	117,565
103,801	-8,246	244,147	117,509
104,816	-8,080	243,894	117,516
105,830	-8,080	243,650	117,387
106,845	-8,149	243,488	117,241
107,860	-7,953	243,322	117,315
108,874	-8,319	243,071	116,878
109,889	-8,290	242,910	116,814
110,903	-8,323	242,592	116,624
111,918	-8,310	242,454	116,558
112,933	-8,282	242,169	116,434
113,947	-8,149	242,220	116,558
114,962	-7,902	241,996	116,644
115,976	-7,930	241,808	116,520
116,991	-7,922	241,634	116,432
118,006	-8,083	241,567	116,257
119,020	-8,113	241,318	116,102
120,035	-7,931	241,211	116,190
121,049	-7,917	240,984	116,082
122,064	-8,099	240,847	115,856
123,079	-8,040	240,615	115,783
124,093	-8,246	240,459	115,528
125,108	-8,413	240,351	115,329
126,122	-8,295	240,216	115,350
127,137	-8,334	239,843	115,129
128,151	-8,451	239,744	114,975
129,166	-8,176	239,422	115,036
130,181	-8,254	239,331	114,918
131,195	-8,337	239,083	114,720
132,210	-8,258	239,040	114,754
133,224	-8,195	238,906	114,731
134,239	-8,326	238,644	114,488
135,254	-8,305	238,392	114,374
136,268	-8,273	238,209	114,303
137,283	-8,485	238,172	114,102
138,297	-8,472	237,781	113,915
139,312	-8,451	237,461	113,769
140,327	-8,162	237,432	113,979
141,341	-7,737	237,446	114,320
142,356	-7,952	237,282	114,057
143,370	-7,739	237,132	114,147
144,385	-7,933	237,065	113,947
145,400	-7,834	236,876	113,926
146,414	-7,618	236,612	113,963
147,429	-7,958	236,508	113,629
148,443	-8,108	236,394	113,443
149,458	-7,980	236,031	113,361
150,473	-8,021	235,988	113,298
151,487	-7,902	235,654	113,223
152,502	-8,099	235,599	113,028
153,516	-7,853	235,572	113,203
154,531	-7,826	235,327	113,097
155,546	-7,877	235,108	112,940
156,560	-7,976	234,950	112,775
157,575	-8,068	234,608	112,528
158,589	-8,323	234,544	112,283
159,604	-7,798	234,489	112,666
160,619	-7,599	234,352	112,749
161,633	-7,654	234,216	112,630
162,648	-7,730	234,150	112,528
163,662	-7,826	233,951	112,346
164,677	-8,057	233,698	112,030
165,692	-7,739	233,355	112,108
166,706	-7,650	233,430	112,205
167,721	-7,654	233,369	112,163
168,735	-7,679	233,230	112,066
169,750	-7,909	232,968	111,747
170,764	-7,967	232,579	111,505
171,779	-8,051	232,697	111,485
172,794	-7,914	232,407	111,445
173,808	-8,028	232,270	111,279
174,823	-8,412	231,889	110,784
175,837	-8,538	231,760	110,612
176,852	-8,243	231,590	110,754
177,867	-7,848	231,558	111,040
178,881	-8,068	231,653	110,902
179,896	-7,819	231,268	110,904
180,910	-7,734	231,085	110,873
181,925	-7,818	230,991	110,752
182,940	-7,935	230,866	110,590
183,954	-7,605	230,722	110,771
184,969	-7,838	230,636	110,536
185,983	-7,704	230,533	110,582
186,998	-7,787	230,365	110,427
188,013	-7,667	230,181	110,423
189,027	-7,762	230,024	110,263
190,042	-7,797	229,887	110,160
191,056	-7,836	229,537	109,952
192,071	-7,817	229,392	109,888
193,086	-7,968	229,083	109,613
194,100	-8,733	228,829	108,887
195,115	-9,916	227,947	107,541
196,129	-10,531	228,054	107,105
197,144	-6,062	229,494	111,255
198,159	-0,576	231,013	116,274
199,173	2,852	231,928	119,409
200,188	3,662	231,980	120,060
201,202	4,052	232,010	120,369
202,217	4,175	231,962	120,429
203,232	4,134	231,926	120,368
204,246	4,214	231,615	120,258
205,261	4,210	231,640	120,257
206,275	4,467	231,300	120,270
207,290	4,499	231,138	120,200
208,304	4,469	230,808	119,995
209,319	4,143	230,830	119,742
210,334	4,143	230,682	119,655
211,348	3,982	230,367	119,356
212,363	3,508	230,144	118,862
213,377	3,529	229,766	118,672
214,392	3,195	229,669	118,354
215,407	3,130	229,442	118,176
216,421	3,028	229,408	118,069
217,436	3,027	229,077	117,887
218,450	2,748	228,994	117,618
219,465	2,894	228,824	117,633
220,480	2,787	228,747	117,501
221,494	3,026	228,530	117,563
222,509	2,979	228,515	117,509
223,523	3,344	228,330	117,684
224,538	3,317	228,137	117,553
225,553	3,273	228,043	117,460
226,567	3,178	227,854	117,279
227,582	3,050	227,728	117,106
228,596	3,233	227,650	117,196
229,611	3,197	227,467	117,063
230,626	3,164	227,228	116,905
231,640	2,906	227,113	116,638
232,655	3,196	227,020	116,801
233,669	3,172	226,756	116,637
234,684	3,162	226,683	116,581
235,699	3,307	226,599	116,638
236,713	3,429	226,395	116,616
237,728	3,363	226,200	116,454
238,742	3,395	226,061	116,397
239,757	3,365	225,998	116,332
240,772	3,218	225,884	116,151
241,786	3,496	225,651	116,231
242,801	3,703	225,720	116,414
243,815	3,677	225,591	116,317
244,830	3,541	225,561	116,188
245,844	3,562	225,213	116,014
246,859	3,473	224,999	115,827
247,874	3,515	224,871	115,782
248,888	3,488	224,697	115,661
249,903	3,278	224,528	115,406
250,917	3,576	224,303	115,505
251,932	3,217	224,275	115,209
252,947	3,189	224,224	115,152
253,961	3,444	223,898	115,166
254,976	3,221	223,818	114,947
255,990	3,466	223,734	115,077
257,005	3,386	223,494	114,884
258,020	3,562	223,410	114,962
259,034	3,766	223,367	115,083
260,049	3,854	223,165	115,034
261,063	3,712	222,964	114,815
262,078	3,365	222,890	114,506
263,093	3,602	222,710	114,580
264,107	3,591	222,578	114,494
265,122	3,518	222,364	114,320
266,136	3,585	222,231	114,291
267,151	3,460	222,174	114,159
268,166	3,356	221,883	113,921
269,180	3,410	221,656	113,835
270,195	3,331	221,657	113,767
271,209	3,137	221,413	113,487
272,224	3,269	221,442	113,589
273,239	3,340	221,187	113,501
274,253	3,248	221,003	113,329
275,268	3,072	220,850	113,110
276,282	3,120	220,652	113,034
277,297	3,256	220,491	113,042
278,312	3,185	220,497	112,983
279,326	3,267	220,380	112,973
280,341	3,391	220,236	112,980
281,355	3,604	220,073	113,044
282,370	3,448	219,819	112,788
283,384	3,144	219,796	112,543
284,399	3,118	219,531	112,378
285,414	3,334	219,465	112,493
286,428	3,410	219,391	112,501
287,443	3,614	219,298	112,593
288,457	3,498	219,071	112,381
289,472	3,415	218,840	112,192
290,487	3,117	218,773	111,929
291,501	3,054	218,580	111,775
292,516	3,190	218,469	111,807
293,530	3,250	218,379	111,795
294,545	3,329	218,310	111,808
295,560	3,365	218,059	111,695
296,574	3,438	217,929	111,672
297,589	3,714	217,759	111,775
298,603	3,686	217,659	111,694
299,618	3,481	217,540	111,474
300,633	3,604	217,575	111,571
301,647	3,433	217,441	111,368
302,662	3,805	217,122	111,465
303,676	3,756	217,043	111,379
304,691	3,496	217,083	111,201
305,706	3,720	216,643	111,128
306,720	3,714	216,570	111,076
307,735	3,415	216,448	110,788
308,749	3,350	216,378	110,694
309,764	3,609	216,274	110,818
310,779	3,707	216,092	110,786
311,793	3,389	215,848	110,422
312,808	3,606	215,734	110,510
313,822	3,515	215,542	110,337
314,837	3,127	215,451	110,001
315,852	3,369	215,268	110,072
316,866	3,370	215,273	110,065
317,881	3,394	215,160	110,015
318,895	3,429	214,895	109,895
319,910	3,343	214,711	109,729
320,925	3,168	214,630	109,552
321,939	3,207	214,507	109,508
322,954	3,335	214,322	109,495
323,968	3,045	214,380	109,307
324,983	3,268	214,292	109,412
325,997	3,480	213,893	109,351
327,012	3,307	213,849	109,195
328,027	3,464	213,569	109,154
329,041	3,401	213,645	109,138
330,056	3,349	213,525	109,030
331,070	3,439	213,270	108,954
332,085	3,263	213,149	108,757
333,100	3,266	212,989	108,668
334,114	3,755	212,732	108,874
335,129	3,596	212,682	108,726
336,143	3,162	212,521	108,327
337,158	3,120	212,484	108,268
338,173	3,116	212,362	108,194
339,187	3,285	212,164	108,202
340,202	3,130	211,937	107,968
341,216	2,944	211,973	107,845
342,231	3,227	211,595	107,843
343,246	3,259	211,694	107,906
344,260	3,300	211,490	107,822
345,275	3,087	211,436	107,635
346,289	3,202	211,366	107,670
347,304	3,361	211,213	107,694
348,319	3,357	211,054	107,601
349,333	3,370	210,841	107,492
350,348	3,122	210,791	107,283
351,362	3,318	210,572	107,299
352,377	3,630	210,391	107,416
353,392	3,380	210,474	107,274
354,406	3,430	210,017	107,066
355,421	192,568	1341,291	1423,042
356,435	153,656	1479,174	1423,097
