DTS Sentinel unit serial number:	SN410029Multiplexer serial number:	ORYXHardware model number:	OX2-SRSoftware version number:	ORYX F/W v4,00 Oryx Data Collector v3.7.2.0data status	okinstallation	B6 Nyhavnadifferential loss correction	single-endedforward channel	channel 2reverse channel	N/Adate	2023/12/08time	00:55:08forward acquisition time	300,00reverse acquisition time	0,00gamma	499,1914k internal	0,3164k external	0,3164temperature offset calibration	1,0000default loss term (dB/km)	0,3820temperature slope calibration	1,0000multiplexer offset coefficient	1,0000multiplexer slope coefficient	1,0000fibre end	0,00T internal ref (°C)	13,28T ext. ref 1 (°C)	-3,60T ext. ref 2 (°C)	-3,59length (m)	temperature (°C)	Stokes	anti-Stokes-744,400	-200,000	-0,017	0,187
-743,385	-152,990	-0,279	-0,014
-742,371	-114,114	0,154	0,022
-741,356	-181,587	-0,331	-0,005
-740,342	-91,932	0,252	-0,052
-739,327	-120,669	-0,300	0,037
-738,312	39,434	0,097	-0,064
-737,298	-44,077	-0,355	-0,130
-736,283	-1,318	0,122	0,063
-735,269	75,606	-0,356	0,277
-734,254	611,181	0,115	0,213
-733,239	-132,790	-0,539	-0,050
-732,225	-99,843	0,220	0,040
-731,210	800,000	0,057	0,125
-730,196	-105,858	0,089	0,015
-729,181	46,853	-0,054	-0,037
-728,167	-200,000	-0,010	0,100
-727,152	-200,000	-0,018	-0,095
-726,137	129,941	-0,106	-0,100
-725,123	687,847	-0,044	-0,085
-724,108	-189,052	-0,212	0,002
-723,094	38,614	0,131	-0,085
-722,079	800,000	-0,045	-0,141
-721,064	-168,546	-0,046	-0,001
-720,050	254,229	-0,074	0,093
-719,035	-45,023	0,116	-0,042
-718,021	102,936	-0,205	0,176
-717,006	800,000	-0,042	-0,099
-715,991	-148,097	-0,132	-0,008
-714,977	-25,090	-0,041	0,018
-713,962	161,525	-0,021	0,022
-712,948	-200,000	-0,005	0,095
-711,933	-160,916	-0,109	-0,004
-710,918	91,970	-0,021	-0,017
-709,904	-200,000	0,006	0,098
-708,889	-4,255	-0,017	0,009
-707,875	-79,455	-0,121	0,030
-706,860	-72,531	0,080	-0,021
-705,845	-200,000	0,034	0,120
-704,831	627,803	-0,006	-0,012
-703,816	124,864	0,101	0,094
-702,802	410,613	-0,051	-0,080
-701,787	-140,766	0,075	0,006
-700,772	6,572	-0,011	0,006
-699,758	301,727	-0,110	0,150
-698,743	196,370	0,068	0,076
-697,729	35,425	0,039	-0,025
-696,714	45,584	-0,084	-0,057
-695,699	50,425	-0,036	0,025
-694,685	361,130	-0,075	-0,111
-693,670	107,814	-0,063	-0,055
-692,656	-131,010	-0,018	0,002
-691,641	102,681	-0,063	0,054
-690,627	-161,598	0,062	0,002
-689,612	-200,000	-0,014	0,108
-688,597	-200,000	-0,024	-0,091
-687,583	-19,166	0,136	-0,062
-686,568	-200,000	0,073	-0,250
-685,554	41,670	0,079	-0,052
-684,539	-36,555	0,064	0,025
-683,524	69,787	0,081	0,061
-682,510	576,058	-0,074	0,134
-681,495	-164,490	0,082	0,003
-680,481	57,176	-0,091	-0,065
-679,466	226,733	0,025	-0,030
-678,451	-200,000	0,002	-0,123
-677,437	800,000	-0,067	0,174
-676,422	-83,418	0,058	-0,013
-675,408	129,396	0,046	-0,043
-674,393	-154,066	-0,059	-0,003
-673,378	97,240	0,016	0,014
-672,364	800,000	0,073	-0,164
-671,349	-12,293	-0,244	-0,117
-670,335	492,325	0,054	0,091
-669,320	-200,000	0,018	0,070
-668,305	-200,000	-0,021	0,104
-667,291	-200,000	0,019	-0,118
-666,276	-200,000	-0,002	-0,062
-665,262	-200,000	-0,045	-0,156
-664,247	-200,000	0,015	0,098
-663,232	470,901	0,025	0,042
-662,218	800,000	0,029	-0,063
-661,203	-200,000	-0,004	-0,081
-660,189	-200,000	-0,018	-0,071
-659,174	739,298	-0,072	-0,142
-658,159	372,455	-0,024	0,037
-657,145	-48,932	-0,100	-0,035
-656,130	-16,157	0,066	0,031
-655,116	-87,393	0,058	-0,013
-654,101	800,000	-0,047	0,133
-653,086	389,907	-0,056	0,085
-652,072	-200,000	0,005	-0,041
-651,057	-144,473	-0,150	0,010
-650,043	-200,000	0,030	0,115
-649,028	-200,000	-0,027	0,092
-648,014	-6,397	-0,028	-0,014
-646,999	122,355	0,108	-0,098
-645,984	-1,548	0,032	-0,016
-644,970	-200,000	0,004	-0,065
-643,955	35,876	-0,058	0,038
-642,941	102,519	-0,062	-0,053
-641,926	156,009	-0,107	0,108
-640,911	82,504	-0,117	0,093
-639,897	138,350	0,034	-0,032
-638,882	-21,664	-0,242	-0,107
-637,868	27,738	0,044	-0,027
-636,853	307,634	0,079	0,108
-635,838	-194,993	-0,133	-0,001
-634,824	-200,000	-0,020	0,069
-633,809	-200,000	0,015	0,091
-632,795	101,786	-0,088	0,075
-631,780	-72,178	0,092	0,025
-630,765	10,841	-0,103	-0,058
-629,751	-49,025	-0,072	-0,025
-628,736	47,574	-0,189	-0,129
-627,722	-200,000	-0,019	0,108
-626,707	-29,862	-0,043	0,018
-625,692	-22,993	0,130	0,057
-624,678	-200,000	-0,008	0,090
-623,663	17,647	-0,038	-0,022
-622,649	136,483	-0,139	-0,133
-621,634	259,414	-0,048	-0,061
-620,619	149,254	0,103	0,102
-619,605	-200,000	-0,015	0,089
-618,590	-200,000	0,002	-0,069
-617,576	67,263	0,037	0,027
-616,561	110,780	0,024	-0,021
-615,546	-56,005	-0,049	-0,016
-614,532	-58,547	0,056	-0,018
-613,517	-98,823	-0,015	-0,003
-612,503	517,931	-0,055	0,095
-611,488	-141,139	-0,071	-0,005
-610,474	-30,716	0,054	0,022
-609,459	87,154	0,036	-0,029
-608,444	-79,493	-0,056	-0,014
-607,430	-200,000	-0,006	-0,112
-606,415	-200,000	-0,030	-0,105
-605,401	-3,067	0,060	-0,030
-604,386	46,322	0,099	0,067
-603,371	37,580	-0,091	0,059
-602,357	-5,384	-0,113	0,056
-601,342	760,884	0,031	0,061
-600,328	201,179	-0,047	-0,053
-599,313	740,675	-0,061	0,119
-598,298	137,502	0,104	-0,100
-597,284	-200,000	0,017	0,057
-596,269	800,000	-0,001	-0,002
-595,255	-200,000	0,014	-0,061
-594,240	238,627	0,050	-0,061
-593,225	328,650	-0,073	-0,102
-592,211	-200,000	-0,017	-0,103
-591,196	-200,000	0,018	-0,289
-590,182	-200,000	0,010	0,071
-589,167	225,503	-0,048	0,057
-588,152	800,000	-0,024	0,064
-587,138	800,000	-0,043	-0,098
-586,123	219,332	-0,037	-0,044
-585,109	-109,283	-0,075	-0,012
-584,094	-200,000	-0,005	-0,057
-583,079	214,202	0,079	0,091
-582,065	388,667	-0,021	-0,031
-581,050	329,639	-0,044	0,062
-580,036	-60,237	-0,170	-0,053
-579,021	315,015	-0,079	-0,108
-578,006	800,000	-0,020	-0,051
-576,992	800,000	-0,046	0,137
-575,977	341,423	-0,027	0,039
-574,963	-200,000	-0,013	0,075
-573,948	148,089	0,105	0,103
-572,934	255,594	-0,011	0,014
-571,919	-78,448	-0,084	0,021
-570,904	113,666	0,042	0,037
-569,890	-200,000	0,000	-0,051
-568,875	75,076	0,140	0,108
-567,861	22,573	0,167	0,099
-566,846	800,000	0,034	0,070
-565,831	412,016	-0,037	0,058
-564,817	-200,000	0,010	-0,034
-563,802	110,419	-0,067	0,058
-562,788	-49,886	-0,064	0,022
-561,773	-15,860	0,151	-0,070
-560,758	33,865	-0,060	0,038
-559,744	-55,926	-0,060	-0,019
-558,729	0,161	0,028	0,015
-557,715	-4,753	0,064	-0,032
-556,700	-148,190	-0,122	0,007
-555,685	-127,487	-0,048	0,005
-554,671	88,531	-0,049	0,039
-553,656	46,860	-0,047	0,032
-552,642	800,000	0,052	0,113
-551,627	41,844	0,139	0,092
-550,612	405,660	0,049	0,075
-549,598	243,985	-0,039	-0,048
-548,583	169,945	-0,049	-0,051
-547,569	-66,143	-0,057	0,017
-546,554	-85,262	0,119	0,027
-545,539	144,662	-0,064	0,062
-544,525	-70,588	0,158	-0,043
-543,510	-127,297	-0,080	0,008
-542,496	131,007	-0,058	-0,054
-541,481	-200,000	0,008	0,071
-540,466	-200,000	0,003	-0,060
-539,452	-50,767	0,047	-0,016
-538,437	-197,079	0,112	-0,001
-537,423	-74,353	0,143	0,037
-536,408	-200,000	-0,031	0,174
-535,393	-30,835	-0,105	-0,043
-534,379	194,093	-0,028	-0,031
-533,364	-48,955	0,082	0,029
-532,350	13,607	-0,124	-0,070
-531,335	-84,932	0,058	0,013
-530,321	155,932	-0,065	0,066
-529,306	800,000	-0,040	-0,108
-528,291	-11,600	-0,060	0,029
-527,277	-50,442	-0,049	0,017
-526,262	-200,000	0,021	0,167
-525,248	-139,406	0,099	0,008
-524,233	-200,000	0,032	0,190
-523,218	-200,000	0,015	0,166
-522,204	557,781	0,010	0,018
-521,189	-200,000	0,004	-0,063
-520,175	538,576	0,046	-0,079
-519,160	800,000	-0,023	-0,057
-518,145	123,562	0,099	-0,090
-517,131	-13,612	0,047	-0,022
-516,116	185,802	-0,040	-0,043
-515,102	-200,000	-0,001	0,057
-514,087	109,011	-0,127	-0,111
-513,072	685,315	0,035	-0,067
-512,058	-200,000	0,011	-0,119
-511,043	-115,688	0,108	0,015
-510,029	800,000	-0,036	0,115
-509,014	26,124	0,065	0,040
-507,999	-4,511	-0,057	-0,028
-506,985	-114,253	0,057	0,008
-505,970	-60,412	-0,059	0,018
-504,956	267,298	-0,062	-0,079
-503,941	-200,000	-0,021	0,105
-502,926	-200,000	-0,018	0,087
-501,912	0,834	0,098	0,051
-500,897	-83,855	-0,054	-0,012
-499,883	-200,000	-0,030	-0,124
-498,868	-200,000	-0,023	-0,114
-497,853	-73,905	-0,006	0,002
-496,839	800,000	0,035	0,076
-495,824	-88,372	0,020	-0,004
-494,810	800,000	0,021	-0,050
-493,795	73,709	0,123	-0,094
-492,781	-54,988	-0,008	-0,003
-491,766	-93,123	0,019	0,004
-490,751	42,807	-0,050	0,033
-489,737	-45,277	0,054	-0,019
-488,722	-94,395	-0,043	0,009
-487,708	187,086	0,033	0,036
-486,693	800,000	0,027	-0,060
-485,678	-75,498	-0,068	-0,018
-484,664	-55,446	-0,160	0,052
-483,649	344,820	0,025	-0,035
-482,635	-200,000	-0,035	-0,174
-481,620	697,119	-0,044	0,084
-480,605	-79,016	0,086	0,021
-479,591	220,840	-0,093	0,109
-478,576	-10,388	0,117	0,056
-477,562	800,000	-0,039	-0,092
-476,547	214,985	-0,064	-0,074
-475,532	205,292	-0,033	0,037
-474,518	127,461	0,053	0,049
-473,503	-200,000	-0,003	0,119
-472,489	-200,000	-0,008	-0,085
-471,474	-200,000	-0,010	0,124
-470,459	758,780	-0,029	-0,058
-469,445	111,765	-0,102	-0,090
-468,430	-51,108	-0,062	-0,021
-467,416	629,180	0,054	-0,099
-466,401	-108,567	0,233	0,036
-465,386	173,178	-0,084	0,088
-464,372	-129,919	0,025	0,002
-463,357	43,998	0,042	-0,028
-462,343	800,000	-0,047	-0,138
-461,328	5,358	0,077	-0,041
-460,313	-99,064	-0,045	-0,008
-459,299	406,888	-0,038	-0,058
-458,284	-105,724	0,023	-0,004
-457,270	312,308	0,067	0,091
-456,255	-189,623	0,029	-0,000
-455,241	-200,000	-0,003	-0,081
-454,226	-57,050	-0,051	0,016
-453,211	171,768	0,051	0,053
-452,197	-53,603	0,147	-0,049
-451,182	-40,206	0,086	-0,032
-450,168	800,000	-0,011	0,031
-449,153	800,000	-0,031	-0,094
-448,138	-70,637	-0,061	-0,017
-447,124	-70,253	0,085	-0,023
-446,109	-35,106	-0,057	0,023
-445,095	800,000	0,003	-0,009
-444,080	111,136	-0,041	-0,036
-443,065	-26,722	0,078	-0,033
-442,051	-200,000	-0,014	0,134
-441,036	670,816	0,015	0,028
-440,022	-192,727	0,086	-0,001
-439,007	5,861	0,147	-0,079
-437,992	26,598	-0,106	-0,064
-436,978	-97,846	0,114	-0,021
-435,963	114,545	0,119	-0,105
-434,949	82,346	-0,031	-0,024
-433,934	-200,000	-0,031	0,162
-432,919	-200,000	0,008	-0,056
-431,905	-200,000	-0,002	-0,048
-430,890	800,000	0,051	-0,133
-429,876	88,663	0,041	-0,033
-428,861	800,000	0,028	-0,066
-427,846	57,906	0,109	-0,077
-426,832	91,760	0,035	-0,028
-425,817	-71,541	0,052	-0,014
-424,803	-109,315	0,054	0,008
-423,788	-200,000	-0,004	0,128
-422,773	-102,410	0,133	0,023
-421,759	-145,316	-0,215	0,014
-420,744	266,334	0,115	-0,147
-419,730	-59,607	0,168	0,052
-418,715	671,315	-0,046	-0,088
-417,701	128,630	-0,064	0,060
-416,686	387,672	0,119	0,179
-415,671	37,672	0,063	0,040
-414,657	-200,000	-0,005	0,038
-413,642	68,129	-0,019	0,014
-412,628	800,000	-0,049	0,103
-411,613	-24,871	-0,087	0,038
-410,598	76,816	0,084	-0,064
-409,584	-59,408	-0,113	-0,035
-408,569	186,631	-0,077	0,083
-407,555	109,234	0,048	0,042
-406,540	138,370	0,039	-0,037
-405,525	-25,704	0,059	-0,025
-404,511	13,363	-0,013	-0,007
-403,496	5,074	0,009	-0,005
-402,482	182,801	0,023	-0,024
-401,467	-200,000	0,184	0,000
-400,452	51,937	0,133	0,092
-399,438	0,031	-0,044	0,023
-398,423	273,140	-0,094	-0,120
-397,409	-107,797	-0,045	0,007
-396,394	322,519	0,017	0,023
-395,379	-200,000	-0,005	0,144
-394,365	266,882	0,091	-0,115
-393,350	-9,302	0,065	0,031
-392,336	319,511	0,029	0,040
-391,321	162,429	-0,039	0,040
-390,306	6,182	-0,114	-0,061
-389,292	340,881	-0,085	-0,120
-388,277	-11,817	-0,046	0,022
-387,263	-72,969	0,038	-0,010
-386,248	339,726	0,058	0,083
-385,233	-200,000	-0,012	0,088
-384,219	-200,000	0,042	0,145
-383,204	800,000	0,059	0,127
-382,190	-200,000	-0,019	-0,073
-381,175	-200,000	0,012	-0,059
-380,160	-200,000	-0,002	-0,060
-379,146	235,868	0,033	-0,040
-378,131	800,000	0,026	0,052
-377,117	-200,000	0,022	0,154
-376,102	800,000	0,033	-0,088
-375,088	60,072	0,028	-0,020
-374,073	397,374	0,039	0,059
-373,058	450,835	0,065	-0,104
-372,044	142,772	0,054	-0,052
-371,029	-157,101	0,074	0,003
-370,015	-43,208	-0,098	-0,036
-369,000	57,105	0,047	-0,033
-367,985	800,000	-0,027	-0,056
-366,971	-200,000	-0,019	-0,196
-365,956	615,768	0,071	-0,129
-364,942	-200,000	0,001	0,005
-363,927	360,773	0,050	-0,072
-362,912	-54,155	0,077	-0,025
-361,898	48,929	-0,077	0,052
-360,883	-138,140	-0,076	-0,006
-359,869	-75,244	0,164	0,042
-358,854	-67,601	0,049	-0,014
-357,839	-200,000	0,048	0,188
-356,825	-29,824	0,054	-0,022
-355,810	166,969	-0,066	0,068
-354,796	234,101	0,067	0,080
-353,781	32,413	-0,036	-0,023
-352,766	71,262	-0,031	0,023
-351,752	54,308	0,047	-0,033
-350,737	-75,257	-0,190	0,049
-349,723	208,159	0,008	-0,009
-348,708	800,000	-0,065	-0,206
-347,693	-31,311	-0,075	-0,031
-346,679	800,000	-0,029	-0,062
-345,664	60,384	0,036	-0,026
-344,650	73,676	-0,069	0,052
-343,635	-32,258	0,019	-0,008
-342,620	520,075	0,052	0,088
-341,606	-200,000	0,015	0,134
-340,591	800,000	0,065	-0,187
-339,577	22,563	-0,029	0,017
-338,562	-200,000	0,007	-0,048
-337,548	163,274	-0,011	0,011
-336,533	30,805	-0,124	0,077
-335,518	5,524	0,137	0,073
-334,504	-152,915	0,097	-0,005
-333,489	-200,000	-0,045	-0,206
-332,475	176,221	0,035	0,037
-331,460	-200,000	0,004	-0,051
-330,445	65,941	0,068	-0,050
-329,431	-145,312	0,083	0,005
-328,416	311,666	-0,047	-0,064
-327,402	-200,000	0,025	0,104
-326,387	-61,890	-0,075	0,023
-325,372	800,000	0,031	-0,064
-324,358	52,795	-0,118	0,081
-323,343	-42,936	-0,012	-0,004
-322,329	-200,000	0,024	0,078
-321,314	-200,000	0,015	0,089
-320,299	-130,168	0,073	-0,007
-319,285	-31,993	-0,046	-0,019
-318,270	-4,873	-0,079	0,039
-317,256	-200,000	-0,003	-0,150
-316,241	429,886	0,086	-0,136
-315,226	-87,547	0,135	0,029
-314,212	-62,431	0,156	-0,047
-313,197	-200,000	-0,024	0,110
-312,183	133,273	0,063	-0,059
-311,168	-200,000	0,030	0,144
-310,153	-95,767	-0,140	-0,027
-309,139	29,197	-0,057	0,035
-308,124	128,628	0,059	0,055
-307,110	-13,523	-0,093	-0,043
-306,095	35,080	-0,110	0,070
-305,080	-72,285	-0,087	-0,023
-304,066	346,173	-0,074	-0,105
-303,051	423,025	-0,038	0,059
-302,037	144,729	-0,030	0,029
-301,022	650,562	0,032	-0,059
-300,008	-43,525	0,196	0,071
-298,993	15,110	-0,090	-0,051
-297,978	-197,253	0,053	-0,000
-296,964	-66,592	-0,162	-0,046
-295,949	-200,000	-0,034	-0,238
-294,935	-60,338	-0,060	-0,018
-293,920	142,577	0,054	-0,052
-292,905	-200,000	0,004	-0,107
-291,891	89,782	-0,037	-0,030
-290,876	-92,124	-0,080	-0,016
-289,862	154,404	-0,150	-0,149
-288,847	309,166	0,130	-0,176
-287,832	-6,016	-0,155	-0,077
-286,818	800,000	-0,005	0,011
-285,803	-37,760	0,142	0,054
-284,789	355,162	-0,088	0,127
-283,774	-200,000	-0,020	0,146
-282,759	-75,325	-0,036	0,009
-281,745	-186,170	-0,009	0,000
-280,730	-200,000	-0,003	0,036
-279,716	639,570	0,022	0,040
-278,701	-8,126	0,047	0,023
-277,686	352,037	0,063	0,091
-276,672	-200,000	0,019	0,065
-275,657	-200,000	0,022	-0,126
-274,643	9,558	-0,145	-0,079
-273,628	800,000	0,007	-0,017
-272,613	400,681	0,052	-0,080
-271,599	102,177	-0,121	0,102
-270,584	15,115	0,216	0,122
-269,570	282,376	0,029	-0,037
-268,555	186,557	-0,041	-0,045
-267,540	-1,272	-0,068	0,035
-266,526	-49,081	0,078	0,027
-265,511	-110,068	-0,098	-0,015
-264,497	136,331	0,018	-0,017
-263,482	-200,000	0,023	0,098
-262,467	28,794	0,075	0,046
-261,453	-200,000	-0,003	-0,096
-260,438	488,914	-0,068	-0,113
-259,424	106,277	0,011	0,010
-258,409	-15,001	0,082	-0,038
-257,395	477,192	0,045	-0,073
-256,380	89,616	0,128	-0,103
-255,365	-19,708	0,086	0,038
-254,351	-98,637	-0,166	-0,030
-253,336	204,471	0,131	-0,147
-252,322	113,062	-0,025	-0,022
-251,307	-154,114	-0,081	-0,004
-250,292	-200,000	0,025	0,094
-249,278	-200,000	-0,001	0,028
-248,263	93,023	0,135	0,110
-247,249	-200,000	0,016	0,099
-246,234	367,585	-0,035	-0,051
-245,219	550,017	-0,076	-0,131
-244,205	800,000	0,018	-0,046
-243,190	-137,388	-0,122	0,010
-242,176	27,906	0,063	-0,038
-241,161	0,950	-0,072	0,037
-240,146	609,309	0,070	-0,127
-239,132	-200,000	-0,005	0,147
-238,117	800,000	0,047	-0,116
-237,103	800,000	0,042	-0,098
-236,088	562,611	0,045	0,079
-235,073	-36,419	0,057	0,022
-234,059	800,000	0,014	-0,034
-233,044	-59,867	0,100	0,031
-232,030	225,658	-0,171	-0,200
-231,015	621,846	-0,023	-0,041
-230,000	-53,388	-0,070	0,023
-228,986	489,842	-0,000	-0,001
-227,971	-200,000	-0,023	0,138
-226,957	52,361	0,158	0,109
-225,942	800,000	-0,035	-0,088
-224,927	449,795	0,097	-0,155
-223,913	172,471	-0,088	-0,092
-222,898	-23,268	-0,075	0,033
-221,884	-200,000	0,021	0,121
-220,869	204,035	-0,060	-0,067
-219,855	33,972	-0,041	0,026
-218,840	168,989	-0,036	0,037
-217,825	519,540	-0,045	0,077
-216,811	-65,164	0,074	0,021
-215,796	310,720	0,004	0,006
-214,782	-200,000	-0,018	0,176
-213,767	800,000	-0,024	0,065
-212,752	-54,787	0,180	0,058
-211,738	-200,000	0,015	0,095
-210,723	-200,000	-0,000	0,163
-209,709	128,829	-0,089	0,082
-208,694	121,238	-0,104	-0,093
-207,679	-63,324	-0,092	0,027
-206,665	380,149	-0,040	0,059
-205,650	-118,492	0,025	-0,003
-204,636	148,660	-0,021	-0,020
-203,621	585,208	-0,013	0,023
-202,606	-200,000	0,020	0,090
-201,592	-200,000	0,004	-0,049
-200,577	153,411	0,057	0,056
-199,563	204,689	-0,088	-0,098
-198,548	-77,669	0,098	0,024
-197,533	-200,000	0,040	0,140
-196,519	-50,888	-0,096	-0,032
-195,504	-94,638	-0,133	-0,026
-194,490	-200,000	0,003	0,058
-193,475	-0,372	0,125	0,064
-192,460	-64,613	-0,051	-0,015
-191,446	756,874	0,023	0,045
-190,431	-161,821	0,168	0,006
-189,417	21,995	0,084	0,049
-188,402	109,450	0,100	0,086
-187,387	160,029	0,030	-0,030
-186,373	-200,000	0,015	-0,095
-185,358	94,605	-0,050	-0,041
-184,344	-116,276	0,125	0,017
-183,329	567,724	-0,053	-0,092
-182,315	77,758	-0,032	-0,025
-181,300	7,610	-0,069	-0,037
-180,285	800,000	0,054	-0,159
-179,271	2,800	-0,050	0,026
-178,256	-200,000	0,115	0,000
-177,242	507,033	-0,028	0,047
-176,227	-200,000	-0,018	0,073
-175,212	182,048	-0,079	0,084
-174,198	-200,000	-0,014	0,053
-173,183	3,242	-0,143	0,075
-172,169	-64,883	-0,053	0,015
-171,154	-41,026	0,063	0,023
-170,139	800,000	-0,061	0,168
-169,125	-200,000	-0,027	-0,188
-168,110	-9,239	-0,067	-0,032
-167,096	366,413	0,042	-0,062
-166,081	800,000	-0,033	-0,068
-165,066	800,000	0,025	-0,074
-164,052	800,000	-0,019	0,051
-163,037	-26,927	-0,040	-0,017
-162,023	53,820	0,063	0,044
-161,008	23,882	0,076	0,045
-159,993	-86,898	-0,122	0,027
-158,979	191,601	-0,069	-0,075
-157,964	-200,000	-0,143	-0,000
-156,950	800,000	-0,028	-0,059
-155,935	-200,000	-0,030	-0,123
-154,920	-39,842	-0,015	-0,006
-153,906	-200,000	-0,003	0,143
-152,891	-200,000	-0,032	0,153
-151,877	154,037	-0,072	-0,071
-150,862	436,579	-0,012	-0,018
-149,847	-96,102	-0,157	0,030
-148,833	626,871	0,060	0,109
-147,818	-200,000	-0,016	0,060
-146,804	-121,260	0,148	-0,018
-145,789	-146,864	-0,126	-0,008
-144,775	208,542	-0,034	0,039
-143,760	-161,863	-0,049	-0,002
-142,745	800,000	-0,026	-0,071
-141,731	43,095	-0,067	-0,044
-140,716	46,414	0,137	0,091
-139,702	254,598	-0,075	0,093
-138,687	263,708	-0,104	0,130
-137,672	170,071	0,045	0,047
-136,658	-118,681	0,054	-0,007
-135,643	-116,394	-0,131	-0,017
-134,629	-65,577	0,145	0,042
-133,614	-200,000	0,002	0,093
-132,599	-59,694	-0,080	0,024
-131,585	-41,463	0,052	0,019
-130,570	-200,000	0,002	-0,029
-129,556	800,000	-0,049	-0,127
-128,541	-200,000	-0,011	-0,112
-127,526	-112,749	0,077	-0,011
-126,512	246,866	-0,041	0,050
-125,497	-200,000	0,009	0,078
-124,483	145,189	-0,017	0,016
-123,468	-115,069	-0,065	-0,009
-122,453	116,237	-0,017	-0,015
-121,439	-91,710	-0,108	0,022
-120,424	41,567	0,089	-0,058
-119,410	113,586	-0,059	-0,051
-118,395	74,849	-0,140	0,106
-117,380	36,978	0,115	0,073
-116,366	-110,947	-0,013	0,002
-115,351	-58,607	-0,111	0,034
-114,337	-200,000	0,003	-0,025
-113,322	-200,000	0,012	0,052
-112,307	665,800	-0,060	-0,111
-111,293	471,646	0,084	0,136
-110,278	100,329	-0,087	-0,073
-109,264	16,256	0,115	0,065
-108,249	-200,000	0,005	-0,078
-107,234	-69,063	0,067	-0,018
-106,220	-200,000	0,003	-0,046
-105,205	-200,000	0,042	0,251
-104,191	-200,000	0,003	0,088
-103,176	800,000	0,084	0,198
-102,162	262,162	0,018	-0,022
-101,147	194,879	-0,110	0,120
-100,132	800,000	-0,040	-0,126
-99,118	-37,118	-0,081	-0,031
-98,103	-106,713	-0,045	-0,007
-97,089	44,468	0,143	0,094
-96,074	800,000	0,020	0,055
-95,059	-165,916	-0,029	-0,001
-94,045	297,079	-0,049	0,065
-93,030	-200,000	0,018	-0,068
-92,016	-68,719	-0,107	0,029
-91,001	305,082	0,084	-0,112
-89,986	-58,471	-0,037	0,011
-88,972	-43,107	0,141	-0,051
-87,957	4,822	-0,061	-0,032
-86,943	-39,863	-0,081	0,030
-85,928	-83,020	0,075	0,017
-84,913	-27,517	-0,125	-0,052
-83,899	417,366	0,014	-0,022
-82,884	-137,006	-0,097	0,008
-81,870	-200,000	-0,013	-0,043
-80,855	-200,000	-0,029	0,157
-79,840	-39,969	0,025	0,009
-78,826	-200,000	0,015	0,083
-77,811	717,969	-0,071	0,136
-76,797	230,533	0,081	0,095
-75,782	3,041	0,101	-0,052
-74,767	800,000	0,083	-0,177
-73,753	217,277	0,033	0,038
-72,738	-72,728	-0,027	0,007
-71,724	-200,000	-0,018	-0,059
-70,709	250,468	-0,035	0,042
-69,694	-200,000	-0,023	-0,079
-68,680	-71,241	0,096	0,026
-67,665	800,000	0,036	0,094
-66,651	89,062	0,067	0,053
-65,636	323,668	-0,035	-0,048
-64,622	158,420	-0,048	0,048
-63,607	-113,653	-0,157	-0,022
-62,592	785,875	0,098	-0,194
-61,578	-200,000	0,005	-0,104
-60,563	-160,306	-0,111	0,004
-59,549	-200,000	-0,008	0,177
-58,534	29,974	-2,180	-1,328
-57,519	-200,000	-0,220	-0,733
-56,505	-200,000	-1,403	-5,065
-55,490	96,565	0,931	0,763
-54,476	800,000	5,455	12,054
-53,461	-200,000	18,873	318,071
-52,446	800,000	740,897	2321,166
-51,432	549,539	1654,315	2850,955
-50,417	109,990	1637,241	1406,526
-49,403	73,606	1287,739	964,884
-48,388	29,755	1029,391	626,179
-47,373	19,671	992,231	570,252
-46,359	17,060	979,960	554,604
-45,344	13,664	976,126	541,277
-44,330	13,985	974,682	541,507
-43,315	13,295	972,783	538,171
-42,300	13,331	971,441	537,527
-41,286	13,319	970,644	537,023
-40,271	13,279	969,895	536,458
-39,257	13,248	969,032	535,859
-38,242	13,342	967,924	535,531
-37,227	13,357	967,138	535,122
-36,213	13,305	966,170	534,398
-35,198	13,271	965,364	533,820
-34,184	13,361	964,799	533,779
-33,169	13,225	963,754	532,737
-32,154	13,313	962,794	532,471
-31,140	13,363	961,817	532,073
-30,125	13,382	961,032	531,678
-29,111	13,295	960,235	530,934
-28,096	13,318	959,610	530,641
-27,082	13,305	959,079	530,285
-26,067	13,327	958,195	529,845
-25,052	13,316	957,541	529,429
-24,038	13,311	956,881	529,026
-23,023	13,242	956,256	528,439
-22,009	13,338	955,524	528,322
-20,994	13,265	954,986	527,768
-19,979	13,336	954,284	527,585
-18,965	13,296	953,605	527,062
-17,950	13,356	953,042	526,923
-16,936	13,260	952,586	526,343
-15,921	13,259	951,887	525,933
-14,906	13,242	951,025	525,380
-13,892	13,200	950,443	524,904
-12,877	13,183	949,773	524,459
-11,863	13,220	949,068	524,167
-10,848	13,270	948,544	524,016
-9,833	13,293	948,106	523,826
-8,819	13,298	947,336	523,396
-7,804	13,197	946,713	522,710
-6,790	13,172	946,265	522,361
-5,775	13,245	945,745	522,286
-4,760	13,245	945,105	521,913
-3,746	13,241	944,357	521,465
-2,731	13,146	943,597	520,724
-1,717	13,014	943,055	519,986
-0,702	13,005	942,406	519,579
0,313	12,819	941,834	519,460
1,327	16,360	939,428	529,265
2,342	25,515	789,967	469,175
3,356	21,617	444,448	258,172
4,371	-7,813	297,450	143,181
5,386	-11,678	279,318	130,754
6,400	-12,955	273,541	126,844
7,415	-12,986	271,069	125,658
8,429	-13,190	269,733	124,839
9,444	-13,129	268,892	124,495
10,459	-13,001	268,126	124,246
11,473	-13,301	267,412	123,630
12,488	-13,149	266,855	123,501
13,502	-13,552	266,451	122,936
14,517	-13,322	265,853	122,858
15,531	-13,276	265,655	122,797
16,546	-13,110	265,156	122,706
17,561	-13,222	264,751	122,406
18,575	-13,220	264,641	122,346
19,590	-13,407	264,108	121,920
20,604	-13,194	264,054	122,077
21,619	-13,110	263,529	121,899
22,634	-13,343	263,149	121,502
23,648	-13,349	262,863	121,354
24,663	-13,261	262,579	121,291
25,677	-13,289	262,287	121,121
26,692	-13,054	262,017	121,195
27,707	-13,272	261,803	120,891
28,721	-13,249	261,424	120,725
29,736	-13,400	261,174	120,465
30,750	-13,292	260,899	120,423
31,765	-13,361	260,700	120,259
32,780	-13,220	260,501	120,281
33,794	-13,215	260,158	120,118
34,809	-13,421	260,010	119,856
35,823	-13,355	259,737	119,778
36,838	-13,406	259,571	119,645
37,853	-13,639	259,279	119,293
38,867	-13,434	258,831	119,258
39,882	-13,459	258,695	119,163
40,896	-13,381	258,507	119,134
41,911	-13,679	258,377	118,801
42,926	-13,409	257,941	118,827
43,940	-13,393	257,802	118,767
44,955	-13,495	257,648	118,595
45,969	-13,378	257,281	118,520
46,984	-13,783	257,163	118,098
47,999	-13,922	256,801	117,801
49,013	-14,087	256,626	117,565
50,028	-14,188	256,381	117,355
51,042	-14,160	256,027	117,206
52,057	-14,391	255,729	116,859
53,071	-14,149	255,541	116,973
54,086	-14,373	255,625	116,806
55,101	-14,038	255,251	116,916
56,115	-13,709	255,003	117,078
57,130	-13,516	255,020	117,242
58,144	-13,230	254,793	117,376
59,159	-13,088	254,654	117,424
60,174	-13,174	254,392	117,218
61,188	-13,161	254,094	117,082
62,203	-13,100	253,901	117,035
63,217	-13,254	253,800	116,845
64,232	-13,381	253,584	116,626
65,247	-13,254	253,284	116,587
66,261	-13,389	252,889	116,279
67,276	-13,612	252,727	116,002
68,290	-13,923	252,505	115,622
69,305	-13,941	252,274	115,491
70,320	-13,879	252,047	115,430
71,334	-13,492	251,889	115,679
72,349	-13,131	251,648	115,867
73,363	-13,365	251,639	115,652
74,378	-13,183	251,330	115,655
75,393	-13,234	251,188	115,537
76,407	-13,275	250,886	115,352
77,422	-13,215	250,786	115,347
78,436	-13,322	250,522	115,124
79,451	-13,233	250,243	115,061
80,466	-13,499	250,036	114,730
81,480	-13,575	249,873	114,581
82,495	-13,567	249,525	114,418
83,509	-13,537	249,505	114,423
84,524	-13,706	249,215	114,137
85,539	-13,849	249,004	113,909
86,553	-13,746	248,729	113,861
87,568	-13,454	248,514	113,998
88,582	-13,819	248,489	113,669
89,597	-13,488	248,173	113,793
90,611	-13,458	248,052	113,753
91,626	-13,486	247,987	113,688
92,641	-13,521	247,809	113,567
93,655	-13,353	247,413	113,518
94,670	-13,519	247,410	113,366
95,684	-13,413	247,157	113,329
96,699	-13,286	246,884	113,300
97,714	-13,691	246,853	112,936
98,728	-13,690	246,587	112,806
99,743	-13,686	246,212	112,628
100,757	-14,025	246,085	112,276
101,772	-13,683	245,791	112,417
102,787	-13,717	245,748	112,360
103,801	-13,483	245,538	112,448
104,816	-13,347	245,393	112,485
105,830	-13,311	245,183	112,408
106,845	-13,277	244,966	112,327
107,860	-13,368	244,991	112,253
108,874	-13,419	244,643	112,041
109,889	-13,443	244,354	111,879
110,903	-13,528	244,273	111,762
111,918	-13,590	244,082	111,613
112,933	-13,473	243,813	111,577
113,947	-13,409	243,847	111,636
114,962	-13,298	243,537	111,575
115,976	-13,358	243,402	111,454
116,991	-13,238	243,282	111,488
118,006	-13,255	242,866	111,273
119,020	-13,375	242,989	111,221
120,035	-13,241	242,866	111,265
121,049	-13,327	242,609	111,066
122,064	-13,419	242,423	110,896
123,079	-13,492	242,201	110,725
124,093	-13,460	242,024	110,660
125,108	-13,692	241,849	110,380
126,122	-13,823	241,470	110,090
127,137	-13,785	241,149	109,965
128,151	-13,765	241,120	109,959
129,166	-13,545	240,839	110,000
130,181	-13,706	240,779	109,832
131,195	-13,780	240,477	109,624
132,210	-13,468	240,473	109,866
133,224	-13,429	240,199	109,763
134,239	-13,253	239,997	109,803
135,254	-13,441	239,838	109,568
136,268	-13,542	239,739	109,432
137,283	-13,596	239,285	109,171
138,297	-13,745	239,047	108,932
139,312	-13,869	238,950	108,778
140,327	-13,487	238,940	109,073
141,341	-12,992	238,924	109,454
142,356	-13,021	238,724	109,330
143,370	-13,118	238,650	109,208
144,385	-13,064	238,431	109,142
145,400	-13,103	238,122	108,959
146,414	-13,046	237,908	108,897
147,429	-13,229	237,899	108,736
148,443	-13,156	237,704	108,697
149,458	-13,343	237,629	108,503
150,473	-13,245	237,302	108,422
151,487	-13,295	237,185	108,318
152,502	-13,230	237,007	108,279
153,516	-13,095	236,885	108,322
154,531	-13,004	236,658	108,282
155,546	-13,264	236,400	107,946
156,560	-13,167	236,306	107,971
157,575	-13,454	236,071	107,626
158,589	-13,329	235,929	107,651
159,604	-12,994	235,736	107,820
160,619	-12,906	235,743	107,883
161,633	-12,931	235,492	107,739
162,648	-13,011	235,406	107,626
163,662	-13,170	235,178	107,387
164,677	-13,244	235,065	107,266
165,692	-13,268	234,933	107,178
166,706	-13,182	234,933	107,236
167,721	-12,985	234,589	107,226
168,735	-12,632	234,298	107,362
169,750	-13,025	234,308	107,046
170,764	-13,148	234,119	106,853
171,779	-13,104	234,014	106,831
172,794	-12,831	233,699	106,892
173,808	-13,339	233,619	106,446
174,823	-13,597	233,288	106,083
175,837	-13,920	233,048	105,711
176,852	-13,077	233,043	106,361
177,867	-13,228	232,935	106,183
178,881	-13,267	232,921	106,137
179,896	-13,027	232,608	106,173
180,910	-12,980	232,669	106,228
181,925	-12,928	232,258	106,072
182,940	-13,029	232,098	105,910
183,954	-12,947	232,079	105,956
184,969	-13,000	231,955	105,849
185,983	-12,832	231,727	105,867
186,998	-12,954	231,618	105,713
188,013	-12,968	231,433	105,608
189,027	-12,797	231,228	105,638
190,042	-12,958	231,051	105,422
191,056	-12,709	230,889	105,532
192,071	-12,761	230,622	105,360
193,086	-12,957	230,548	105,165
194,100	-13,154	230,472	104,968
195,115	-13,352	229,990	104,587
196,129	-13,133	230,154	104,821
197,144	-7,887	231,818	109,655
198,159	-2,682	233,467	114,498
199,173	1,622	234,705	118,471
200,188	2,616	235,025	119,401
201,202	2,832	234,631	119,359
202,217	2,609	234,458	119,086
203,232	2,903	234,385	119,268
204,246	2,911	234,306	119,223
205,261	2,862	234,233	119,137
206,275	3,035	234,049	119,168
207,290	3,252	233,780	119,189
208,304	3,211	233,519	119,014
209,319	3,159	233,523	118,964
210,334	3,040	233,341	118,768
211,348	2,842	233,142	118,503
212,363	2,356	232,916	118,001
213,377	2,230	232,534	117,699
214,392	2,268	232,523	117,713
215,407	2,371	232,471	117,755
216,421	2,523	232,355	117,804
217,436	2,417	231,944	117,503
218,450	2,368	231,657	117,309
219,465	2,144	231,623	117,109
220,480	2,116	231,488	117,008
221,494	2,140	231,472	117,009
222,509	2,297	231,341	117,053
223,523	2,551	231,171	117,152
224,538	2,307	230,810	116,771
225,553	2,448	230,729	116,828
226,567	2,162	230,687	116,576
227,582	2,596	230,677	116,894
228,596	2,659	230,586	116,886
229,611	2,586	230,397	116,724
230,626	2,292	230,051	116,313
231,640	2,211	229,961	116,195
232,655	2,493	229,700	116,268
233,669	2,824	229,850	116,587
234,684	2,749	229,754	116,470
235,699	2,797	229,525	116,381
236,713	2,404	229,248	115,931
237,728	2,557	228,937	115,879
238,742	2,323	228,818	115,630
239,757	2,770	228,654	115,877
240,772	2,419	228,630	115,588
241,786	1,998	228,440	115,162
242,801	2,461	228,438	115,502
243,815	2,758	228,414	115,706
244,830	2,636	228,219	115,503
245,844	2,370	227,783	115,071
246,859	2,383	227,601	114,979
247,874	2,663	227,622	115,191
248,888	2,717	227,463	115,141
249,903	2,585	227,296	114,946
250,917	2,434	227,189	114,768
251,932	2,491	226,925	114,668
252,947	2,304	226,694	114,400
253,961	2,372	226,607	114,398
254,976	2,041	226,551	114,110
255,990	2,515	226,529	114,445
257,005	2,573	226,425	114,426
258,020	2,623	226,124	114,301
259,034	2,759	226,041	114,351
260,049	2,597	225,887	114,141
261,063	2,598	225,723	114,049
262,078	2,885	225,619	114,201
263,093	2,640	225,652	114,024
264,107	2,746	225,345	113,939
265,122	2,580	225,244	113,753
266,136	2,888	225,049	113,874
267,151	2,851	225,002	113,812
268,166	2,539	224,849	113,492
269,180	2,305	224,327	113,045
270,195	2,323	224,242	113,005
271,209	2,550	223,973	113,028
272,224	2,167	224,102	112,799
273,239	2,463	223,965	112,940
274,253	2,337	223,775	112,740
275,268	2,317	223,613	112,634
276,282	2,447	223,264	112,544
277,297	2,234	223,197	112,343
278,312	2,378	223,181	112,431
279,326	2,303	223,117	112,333
280,341	2,388	222,959	112,307
281,355	2,691	222,685	112,382
282,370	2,506	222,625	112,205
283,384	2,339	222,403	111,960
284,399	2,081	222,346	111,732
285,414	2,292	222,166	111,787
286,428	2,319	222,129	111,778
287,443	2,576	221,935	111,859
288,457	2,629	221,812	111,826
289,472	2,356	221,502	111,459
290,487	2,003	221,404	111,141
291,501	1,895	221,161	110,931
292,516	2,055	221,047	110,980
293,530	2,190	220,943	111,017
294,545	1,915	221,060	110,865
295,560	2,273	220,814	110,993
296,574	2,459	220,658	111,041
297,589	2,135	220,536	110,733
298,603	2,485	220,454	110,938
299,618	2,366	220,222	110,724
300,633	2,357	220,239	110,716
301,647	2,617	220,046	110,798
302,662	2,780	219,783	110,774
303,676	2,669	219,702	110,643
304,691	2,739	219,637	110,651
305,706	2,766	219,513	110,599
306,720	2,614	219,324	110,383
307,735	2,515	218,990	110,134
308,749	2,428	218,833	109,982
309,764	2,633	218,850	110,129
310,779	2,649	218,722	110,066
311,793	2,647	218,524	109,955
312,808	2,528	218,478	109,837
313,822	2,618	218,246	109,775
314,837	2,422	218,139	109,570
315,852	1,968	218,007	109,167
316,866	2,439	217,883	109,435
317,881	2,456	217,734	109,362
318,895	2,434	217,622	109,280
319,910	2,175	217,403	108,975
320,925	2,143	217,171	108,825
321,939	1,554	216,880	108,249
322,954	1,759	216,895	108,393
323,968	2,455	216,903	108,886
324,983	2,845	216,797	109,102
325,997	2,719	216,796	109,001
327,012	2,787	216,386	108,833
328,027	2,533	216,385	108,643
329,041	2,826	216,442	108,871
330,056	2,908	216,092	108,743
331,070	2,631	216,013	108,496
332,085	2,347	215,716	108,135
333,100	2,439	215,667	108,166
334,114	2,436	215,512	108,077
335,129	2,413	215,402	107,996
336,143	2,012	215,295	107,648
337,158	2,290	215,154	107,766
338,173	2,465	214,910	107,757
339,187	1,922	214,730	107,274
340,202	2,141	214,574	107,341
341,216	2,573	214,469	107,583
342,231	2,661	214,392	107,598
343,246	2,525	214,259	107,426
344,260	2,584	214,170	107,413
345,275	2,416	214,218	107,309
346,289	2,656	214,053	107,386
347,304	2,635	213,718	107,193
348,319	2,404	213,520	106,922
349,333	2,448	213,480	106,924
350,348	2,635	213,226	106,917
351,362	2,620	213,280	106,925
352,377	2,724	213,218	106,957
353,392	2,507	212,980	106,677
354,406	2,655	212,757	106,659
355,421	197,595	1313,079	1392,753
356,435	158,093	1447,078	1392,680
