DTS Sentinel unit serial number:	SN410029Multiplexer serial number:	ORYXHardware model number:	OX2-SRSoftware version number:	ORYX F/W v4,00 Oryx Data Collector v3.7.2.0data status	okinstallation	B6 Nyhavnadifferential loss correction	single-endedforward channel	channel 2reverse channel	N/Adate	2023/12/09time	05:15:08forward acquisition time	300,00reverse acquisition time	0,00gamma	499,1914k internal	0,3144k external	0,3144temperature offset calibration	1,0000default loss term (dB/km)	0,3820temperature slope calibration	1,0000multiplexer offset coefficient	1,0000multiplexer slope coefficient	1,0000fibre end	0,00T internal ref (°C)	17,73T ext. ref 1 (°C)	2,20T ext. ref 2 (°C)	2,23length (m)	temperature (°C)	Stokes	anti-Stokes-744,400	-152,020	0,054	0,003
-743,385	-117,624	-0,182	0,024
-742,371	90,113	0,048	0,039
-741,356	32,031	-0,299	0,190
-740,342	-82,869	0,136	0,032
-739,327	-149,127	-0,239	-0,014
-738,312	-126,011	-0,095	-0,010
-737,298	-79,490	-0,355	-0,088
-736,283	350,134	0,027	-0,039
-735,269	-184,927	-0,354	-0,004
-734,254	-175,732	0,113	-0,002
-733,239	-31,126	-0,567	-0,236
-732,225	-113,909	0,205	0,029
-731,210	-88,023	0,018	0,004
-730,196	16,480	-0,082	-0,048
-729,181	69,599	0,062	-0,047
-728,167	-156,404	-0,129	-0,006
-727,152	3,922	-0,111	-0,060
-726,137	800,000	-0,045	-0,108
-725,123	-76,806	-0,039	0,010
-724,108	21,264	-0,052	-0,031
-723,094	218,648	-0,112	-0,132
-722,079	-200,000	-0,001	0,017
-721,064	-200,000	-0,006	-0,054
-720,050	800,000	0,029	-0,094
-719,035	-200,000	0,014	0,108
-718,021	120,843	0,005	0,005
-717,006	-5,297	0,067	0,034
-715,991	-200,000	0,005	-0,166
-714,977	382,883	-0,025	0,037
-713,962	60,125	0,063	-0,046
-712,948	279,360	-0,052	0,069
-711,933	-200,000	-0,014	0,103
-710,918	268,518	0,067	-0,087
-709,904	-200,000	-0,014	-0,125
-708,889	14,551	-0,151	-0,087
-707,875	-14,306	-0,080	-0,038
-706,860	-200,000	-0,008	-0,074
-705,845	264,299	-0,070	-0,090
-704,831	800,000	-0,036	0,096
-703,816	-113,112	0,090	0,013
-702,802	800,000	-0,009	0,020
-701,787	-45,156	-0,121	0,044
-700,772	-95,513	0,025	0,005
-699,758	135,601	0,023	0,022
-698,743	143,299	-0,032	-0,032
-697,729	217,235	0,093	0,110
-696,714	290,674	-0,111	-0,149
-695,699	-60,313	-0,100	-0,031
-694,685	-200,000	0,008	-0,091
-693,670	325,361	0,054	-0,076
-692,656	-118,609	-0,077	-0,010
-691,641	310,339	-0,087	0,121
-690,627	-104,190	-0,098	0,017
-689,612	-16,597	-0,119	0,055
-688,597	-45,640	-0,108	-0,039
-687,583	32,260	-0,079	0,050
-686,568	38,425	0,206	-0,135
-685,554	-200,000	-0,037	-0,152
-684,539	144,119	-0,029	-0,028
-683,524	220,567	0,118	0,141
-682,510	-54,527	-0,223	-0,074
-681,495	800,000	-0,078	-0,209
-680,481	190,111	-0,037	-0,041
-679,466	-200,000	0,010	-0,060
-678,451	800,000	-0,071	-0,161
-677,437	-57,730	-0,139	-0,045
-676,422	793,940	-0,046	0,095
-675,408	273,744	0,079	-0,103
-674,393	125,098	-0,057	-0,053
-673,378	187,281	-0,035	-0,038
-672,364	630,400	-0,040	-0,075
-671,349	708,032	-0,085	0,167
-670,335	-200,000	0,008	-0,091
-669,320	773,326	-0,072	0,146
-668,305	-122,786	-0,056	-0,007
-667,291	-72,124	-0,091	-0,025
-666,276	-200,000	0,022	0,107
-665,262	-146,291	-0,136	-0,009
-664,247	-200,000	0,005	-0,066
-663,232	-200,000	-0,025	-0,081
-662,218	-200,000	0,018	0,072
-661,203	-132,230	-0,067	-0,006
-660,189	-200,000	0,022	-0,128
-659,174	199,717	-0,086	-0,098
-658,159	16,896	-0,133	-0,078
-657,145	-60,315	0,049	0,015
-656,130	0,680	-0,061	-0,032
-655,116	-153,121	0,092	0,005
-654,101	-49,451	-0,075	-0,026
-653,086	-51,545	0,116	-0,040
-652,072	800,000	0,019	-0,047
-651,057	-171,978	0,021	0,000
-650,043	82,726	-0,048	-0,039
-649,028	-200,000	-0,018	-0,109
-648,014	156,098	-0,056	0,057
-646,999	800,000	-0,031	0,099
-645,984	800,000	0,025	0,069
-644,970	99,491	0,102	0,087
-643,955	-168,243	-0,045	0,001
-642,941	6,002	-0,045	0,025
-641,926	241,984	-0,097	-0,120
-640,911	361,838	0,020	-0,029
-639,897	-76,110	-0,111	0,029
-638,882	156,268	-0,060	0,061
-637,868	-133,953	0,059	-0,005
-636,853	-185,118	0,121	0,001
-635,838	276,604	0,065	-0,086
-634,824	93,438	0,107	-0,089
-633,809	800,000	0,005	-0,016
-632,795	800,000	0,053	0,123
-631,780	-120,659	0,090	0,011
-630,765	290,443	-0,027	0,037
-629,751	98,829	0,023	-0,019
-628,736	-2,538	-0,165	-0,085
-627,722	-54,443	-0,131	0,044
-626,707	-200,000	0,008	-0,139
-625,692	533,396	0,046	0,081
-624,678	10,028	-0,012	-0,007
-623,663	-75,632	-0,085	0,022
-622,649	800,000	0,029	-0,087
-621,634	-28,896	0,083	-0,035
-620,619	236,001	-0,054	0,066
-619,605	-200,000	0,005	-0,059
-618,590	262,121	0,013	0,017
-617,576	-35,054	0,080	-0,032
-616,561	66,659	-0,057	-0,043
-615,546	403,266	-0,059	-0,092
-614,532	71,608	0,088	-0,067
-613,517	266,650	-0,094	0,121
-612,503	-200,000	0,017	0,083
-611,488	484,217	-0,085	0,143
-610,474	82,834	-0,015	0,012
-609,459	18,007	-0,136	-0,080
-608,444	-152,699	0,085	0,004
-607,430	-86,330	-0,103	0,023
-606,415	-30,692	-0,178	-0,074
-605,401	800,000	0,014	-0,044
-604,386	0,096	0,100	-0,052
-603,371	707,122	0,015	0,029
-602,357	7,197	-0,090	0,049
-601,342	-200,000	-0,000	0,106
-600,328	24,682	0,074	0,045
-599,313	-19,664	-0,060	-0,027
-598,298	-83,210	0,049	0,011
-597,284	12,064	0,088	0,050
-596,269	183,095	0,060	0,065
-595,255	-6,076	0,080	0,040
-594,240	-200,000	0,003	-0,016
-593,225	-40,375	-0,043	-0,016
-592,211	-86,211	-0,142	0,032
-591,196	603,255	0,027	-0,050
-590,182	692,905	-0,041	-0,080
-589,167	-200,000	-0,001	-0,081
-588,152	-200,000	-0,031	-0,131
-587,138	546,506	0,060	0,105
-586,123	-128,884	-0,066	-0,007
-585,109	156,908	0,045	-0,046
-584,094	221,613	-0,049	0,058
-583,079	195,487	0,034	0,038
-582,065	22,633	0,068	0,041
-581,050	-30,082	-0,047	0,020
-580,036	173,155	-0,049	0,052
-579,021	800,000	0,008	-0,021
-578,006	192,103	-0,163	-0,181
-576,992	18,002	-0,058	0,034
-575,977	31,327	0,132	0,083
-574,963	-200,000	-0,026	0,116
-573,948	43,378	-0,070	-0,047
-572,934	-34,802	0,111	0,044
-571,919	80,075	0,007	-0,006
-570,904	-23,921	0,042	0,018
-569,890	-43,722	0,110	-0,040
-568,875	-6,825	0,134	-0,067
-567,861	800,000	-0,049	-0,150
-566,846	800,000	-0,053	0,116
-565,831	145,239	-0,099	-0,098
-564,817	-41,100	-0,069	0,026
-563,802	-136,203	-0,085	-0,007
-562,788	-52,764	-0,069	-0,023
-561,773	223,808	0,045	0,054
-560,758	-200,000	0,008	-0,037
-559,744	352,417	-0,038	0,056
-558,729	104,007	-0,105	0,090
-557,715	174,888	0,018	0,019
-556,700	136,098	-0,041	-0,039
-555,685	-60,246	-0,090	-0,028
-554,671	-39,979	0,065	-0,025
-553,656	21,408	0,149	0,089
-552,642	-50,237	0,043	0,015
-551,627	-122,409	-0,184	-0,022
-550,612	211,552	0,054	-0,063
-549,598	-200,000	-0,033	-0,108
-548,583	-27,412	-0,043	-0,018
-547,569	-200,000	0,007	0,048
-546,554	-127,385	0,116	0,012
-545,539	-52,175	-0,083	-0,028
-544,525	-200,000	0,000	0,056
-543,510	183,094	-0,023	0,025
-542,496	672,002	0,033	-0,063
-541,481	647,635	-0,035	-0,065
-540,466	-200,000	-0,007	0,035
-539,452	98,928	0,040	-0,034
-538,437	560,689	-0,036	-0,064
-537,423	175,157	-0,045	-0,048
-536,408	446,358	0,061	0,099
-535,393	-200,000	0,015	0,081
-534,379	35,408	-0,102	0,066
-533,364	127,932	0,115	0,107
-532,350	-200,000	-0,044	0,171
-531,335	500,594	0,040	0,069
-530,321	800,000	-0,036	-0,099
-529,306	481,211	-0,032	0,054
-528,291	-200,000	0,014	-0,058
-527,277	-200,000	-0,000	0,115
-526,262	-78,049	0,092	0,023
-525,248	-63,438	0,104	-0,031
-524,233	-125,151	-0,172	-0,019
-523,218	800,000	0,039	-0,121
-522,204	-200,000	-0,004	0,031
-521,189	800,000	0,032	0,079
-520,175	-200,000	-0,006	-0,092
-519,160	188,343	-0,059	-0,065
-518,145	-200,000	-0,038	0,147
-517,131	-40,174	0,159	-0,061
-516,116	-41,068	-0,039	0,015
-515,102	-200,000	0,014	-0,073
-514,087	-200,000	-0,015	0,110
-513,072	706,494	0,028	0,054
-512,058	-43,270	0,020	0,007
-511,043	-174,216	0,039	0,001
-510,029	22,919	0,100	0,060
-509,014	702,827	0,065	0,127
-507,999	260,311	-0,094	-0,120
-506,985	-200,000	-0,013	-0,114
-505,970	800,000	-0,019	0,051
-504,956	410,959	-0,064	-0,099
-503,941	-55,171	0,011	-0,004
-502,926	-62,023	0,050	0,015
-501,912	0,096	0,044	0,023
-500,897	47,903	-0,047	0,032
-499,883	-58,412	0,068	0,022
-498,868	-200,000	0,005	0,098
-497,853	58,518	-0,077	0,056
-496,839	-200,000	0,078	0,000
-495,824	346,319	0,011	-0,016
-494,810	603,111	-0,025	0,046
-493,795	46,571	-0,037	-0,025
-492,781	209,694	-0,030	-0,034
-491,766	-128,256	0,049	0,005
-490,751	-138,602	-0,216	-0,017
-489,737	-101,728	-0,151	-0,027
-488,722	-200,000	0,019	-0,097
-487,708	-183,199	0,116	0,001
-486,693	-200,000	0,013	-0,074
-485,678	188,753	-0,012	-0,014
-484,664	87,542	-0,030	-0,025
-483,649	-137,177	-0,150	0,012
-482,635	-114,605	-0,091	0,013
-481,620	-200,000	0,011	0,038
-480,605	-151,491	0,080	-0,004
-479,591	-200,000	-0,006	-0,068
-478,576	467,830	-0,050	0,083
-477,562	-104,464	-0,102	-0,017
-476,547	674,596	-0,085	-0,163
-475,532	652,596	0,037	0,069
-474,518	131,863	0,103	0,097
-473,503	182,905	0,054	-0,059
-472,489	138,619	-0,075	0,072
-471,474	800,000	-0,018	0,053
-470,459	-200,000	-0,010	-0,057
-469,445	-200,000	-0,008	0,045
-468,430	800,000	-0,063	-0,131
-467,416	-200,000	0,028	-0,114
-466,401	370,825	-0,088	-0,131
-465,386	196,418	0,055	-0,061
-464,372	192,565	-0,090	-0,099
-463,357	800,000	-0,059	-0,151
-462,343	-200,000	-0,001	-0,072
-461,328	-200,000	-0,014	-0,056
-460,313	-200,000	-0,017	0,071
-459,299	142,757	-0,036	-0,035
-458,284	-98,010	0,025	0,005
-457,270	-197,486	-0,063	0,000
-456,255	-53,709	0,037	0,012
-455,241	86,745	-0,047	-0,038
-454,226	-111,886	-0,186	0,027
-453,211	-145,202	0,111	-0,007
-452,197	-142,547	-0,039	0,003
-451,182	-112,298	0,122	0,018
-450,168	-200,000	0,023	0,077
-449,153	212,265	0,048	-0,056
-448,138	4,509	-0,056	-0,030
-447,124	333,840	0,035	-0,050
-446,109	47,688	0,102	0,070
-445,095	-106,073	0,031	0,005
-444,080	105,654	0,042	0,037
-443,065	-81,674	0,135	-0,032
-442,051	-200,000	0,007	-0,035
-441,036	-91,453	-0,064	-0,013
-440,022	105,985	-0,022	0,019
-439,007	-138,586	-0,141	0,011
-437,992	-200,000	-0,014	0,070
-436,978	-66,258	0,039	0,011
-435,963	-26,665	0,088	-0,038
-434,949	800,000	-0,021	0,064
-433,934	-200,000	-0,001	-0,056
-432,919	94,259	0,012	0,010
-431,905	-56,956	-0,116	0,037
-430,890	39,734	0,088	0,057
-429,876	-200,000	0,008	0,071
-428,861	168,966	0,063	0,065
-427,846	179,836	0,086	-0,092
-426,832	-82,234	-0,043	0,010
-425,817	800,000	0,051	0,111
-424,803	-119,935	0,127	-0,016
-423,788	151,452	-0,062	-0,062
-422,773	-135,703	0,046	0,004
-421,759	-69,751	-0,035	0,010
-420,744	-10,436	0,116	0,056
-419,730	-113,010	-0,089	-0,013
-418,715	-38,102	-0,040	-0,016
-417,701	-117,312	-0,088	0,012
-416,686	111,833	0,103	0,091
-415,671	800,000	0,064	0,137
-414,657	800,000	-0,047	-0,123
-413,642	-11,389	-0,124	0,059
-412,628	260,348	-0,052	-0,065
-411,613	-200,000	-0,004	-0,115
-410,598	-168,675	0,069	-0,002
-409,584	148,542	0,054	0,054
-408,569	800,000	-0,010	0,033
-407,555	-17,414	0,059	0,027
-406,540	336,695	0,113	-0,161
-405,525	-53,175	-0,115	-0,038
-404,511	-14,878	-0,072	0,034
-403,496	-200,000	0,019	-0,116
-402,482	800,000	-0,008	0,020
-401,467	-68,012	-0,034	0,010
-400,452	405,880	0,049	0,076
-399,438	-200,000	0,011	0,052
-398,423	-200,000	0,090	0,000
-397,409	-111,060	-0,092	0,014
-396,394	17,588	-0,054	-0,031
-395,379	800,000	-0,019	0,047
-394,365	-25,453	0,061	0,026
-393,350	800,000	0,050	-0,144
-392,336	133,953	0,061	-0,058
-391,321	-171,573	0,112	0,003
-390,306	-200,000	0,002	0,111
-389,292	800,000	0,034	0,090
-388,277	45,201	0,032	0,021
-387,263	-77,048	0,062	0,016
-386,248	187,755	0,042	0,046
-385,233	117,520	0,020	0,018
-384,219	-16,268	-0,057	-0,026
-383,204	333,479	-0,067	-0,095
-382,190	-23,937	-0,067	-0,029
-381,175	800,000	0,012	-0,033
-380,160	612,146	0,063	-0,115
-379,146	-28,857	-0,094	-0,039
-378,131	294,312	-0,081	0,108
-377,117	136,145	-0,076	-0,073
-376,102	800,000	-0,002	-0,004
-375,088	539,612	-0,036	-0,063
-374,073	4,382	-0,155	0,083
-373,058	-200,000	-0,016	0,059
-372,044	800,000	-0,076	0,189
-371,029	-200,000	0,028	0,134
-370,015	-53,773	-0,077	-0,026
-369,000	80,777	0,121	-0,095
-367,985	50,866	-0,116	-0,080
-366,971	36,979	-0,067	-0,043
-365,956	-55,804	0,049	-0,016
-364,942	-82,466	0,133	-0,031
-363,927	800,000	0,030	0,074
-362,912	800,000	0,050	0,127
-361,898	-26,510	-0,128	0,055
-360,883	-200,000	-0,016	-0,076
-359,869	-200,000	-0,022	-0,079
-358,854	-138,876	-0,075	0,006
-357,839	-134,064	0,102	-0,009
-356,825	-200,000	0,022	-0,090
-355,810	-200,000	0,026	-0,190
-354,796	171,352	-0,043	0,046
-353,781	243,152	0,055	0,067
-352,766	24,901	-0,083	0,050
-351,752	275,708	0,076	0,098
-350,737	-27,962	0,019	0,008
-349,723	30,414	0,055	0,035
-348,708	-25,887	0,094	0,040
-347,693	261,661	0,113	-0,143
-346,679	322,253	0,020	0,028
-345,664	-146,638	-0,087	-0,005
-344,650	-84,108	-0,105	0,024
-343,635	-200,000	-0,011	-0,118
-342,620	800,000	0,029	0,071
-341,606	-200,000	-0,004	-0,070
-340,591	308,993	-0,079	-0,108
-339,577	-18,534	-0,102	-0,046
-338,562	800,000	-0,050	-0,149
-337,548	-200,000	0,008	0,036
-336,533	7,890	0,114	-0,062
-335,518	112,590	-0,056	-0,049
-334,504	301,827	0,037	-0,050
-333,489	266,421	0,063	0,080
-332,475	800,000	-0,027	-0,074
-331,460	-119,593	-0,059	0,007
-330,445	52,414	0,067	0,046
-329,431	99,750	-0,082	0,070
-328,416	140,998	0,114	0,110
-327,402	-100,142	0,137	0,025
-326,387	46,669	-0,061	0,041
-325,372	800,000	-0,057	0,139
-324,358	437,246	-0,038	-0,060
-323,343	346,325	0,013	-0,018
-322,329	207,922	-0,061	-0,070
-321,314	237,480	0,119	0,144
-320,299	-87,714	0,103	0,022
-319,285	418,856	-0,057	0,089
-318,270	6,210	-0,168	-0,091
-317,256	-59,780	-0,071	0,022
-316,241	-200,000	0,029	0,114
-315,226	800,000	-0,029	0,088
-314,212	-200,000	0,006	0,195
-313,197	63,841	0,032	0,023
-312,183	667,571	-0,031	-0,059
-311,168	108,077	0,085	-0,073
-310,153	-200,000	-0,014	0,088
-309,139	-136,880	-0,010	-0,001
-308,124	450,910	-0,053	0,085
-307,110	-77,205	0,108	0,027
-306,095	-154,446	0,130	0,006
-305,080	50,700	0,189	0,130
-304,066	374,372	-0,033	0,049
-303,051	800,000	-0,037	-0,105
-302,037	-200,000	0,025	0,092
-301,022	800,000	0,050	-0,117
-300,008	258,903	0,044	0,055
-298,993	-110,270	0,152	-0,023
-297,978	77,951	-0,118	-0,091
-296,964	796,244	-0,068	-0,136
-295,949	14,383	-0,063	-0,036
-294,935	193,211	-0,041	-0,045
-293,920	800,000	0,039	0,120
-292,905	255,210	0,050	-0,063
-291,891	-53,602	-0,082	-0,027
-290,876	162,968	-0,069	0,070
-289,862	-200,000	0,007	-0,033
-288,847	800,000	0,020	-0,045
-287,832	-176,161	-0,014	-0,000
-286,818	-173,132	0,066	-0,001
-285,803	46,724	0,034	0,023
-284,789	140,365	0,048	-0,046
-283,774	-43,716	0,069	0,025
-282,759	-200,000	-0,023	0,000
-281,745	30,544	0,032	0,020
-280,730	15,444	-0,042	0,024
-279,716	-64,009	0,130	-0,038
-278,701	-200,000	-0,007	0,037
-277,686	-200,000	-0,031	0,194
-276,672	135,998	-0,051	0,048
-275,657	438,148	0,030	-0,047
-274,643	-200,000	-0,044	-0,156
-273,628	5,713	-0,141	0,075
-272,613	-200,000	0,002	0,028
-271,599	-48,269	-0,099	0,035
-270,584	-200,000	0,022	0,097
-269,570	-200,000	0,013	-0,069
-268,555	-30,311	-0,093	0,038
-267,540	-200,000	0,009	-0,049
-266,526	7,459	0,110	-0,059
-265,511	-200,000	-0,044	0,000
-264,497	660,352	-0,014	0,026
-263,482	-134,938	0,176	0,015
-262,467	271,190	0,026	-0,033
-261,453	82,296	0,056	0,044
-260,438	345,348	-0,067	-0,096
-259,424	-200,000	-0,037	0,169
-258,409	-200,000	-0,012	0,116
-257,395	800,000	-0,022	-0,065
-256,380	-200,000	0,001	0,068
-255,365	632,214	0,037	0,068
-254,351	-78,321	0,087	-0,021
-253,336	-200,000	-0,013	0,051
-252,322	-200,000	-0,003	0,068
-251,307	130,675	0,108	0,100
-250,292	800,000	0,021	0,063
-249,278	72,683	-0,119	0,090
-248,263	448,372	0,076	-0,122
-247,249	-200,000	0,024	-0,080
-246,234	-200,000	0,008	0,061
-245,219	425,427	-0,048	-0,075
-244,205	800,000	-0,022	-0,046
-243,190	61,268	0,079	-0,057
-242,176	800,000	-0,082	0,185
-241,161	-5,700	-0,122	0,061
-240,146	135,661	-0,045	-0,042
-239,132	403,582	0,039	0,061
-238,117	153,765	-0,089	0,088
-237,103	216,539	0,052	-0,060
-236,088	-4,619	-0,028	-0,014
-235,073	74,246	-0,025	0,019
-234,059	57,170	0,091	-0,064
-233,044	-30,014	-0,063	0,026
-232,030	-200,000	0,014	0,054
-231,015	55,447	-0,109	0,077
-230,000	83,476	-0,048	-0,038
-228,986	260,171	-0,021	0,026
-227,971	386,881	0,069	0,104
-226,957	-125,821	0,072	0,008
-225,942	348,120	-0,057	0,082
-224,927	150,931	-0,033	0,033
-223,913	800,000	-0,025	-0,054
-222,898	-200,000	0,009	-0,082
-221,884	-49,980	-0,184	-0,063
-220,869	-100,972	0,236	0,042
-219,855	372,463	-0,046	0,068
-218,840	800,000	0,032	0,077
-217,825	185,161	0,074	0,080
-216,811	-200,000	0,015	-0,095
-215,796	70,918	-0,092	-0,069
-214,782	-200,000	0,030	0,159
-213,767	-200,000	0,020	-0,102
-212,752	7,282	0,122	-0,066
-211,738	-122,709	0,096	0,011
-210,723	86,395	-0,069	-0,055
-209,709	-153,064	0,027	-0,001
-208,694	556,639	0,058	0,102
-207,679	-2,922	0,122	-0,061
-206,665	40,771	-0,126	-0,082
-205,650	-200,000	0,014	0,086
-204,636	-76,933	0,085	0,021
-203,621	-200,000	0,050	-0,185
-202,606	-200,000	-0,011	0,086
-201,592	-200,000	0,011	-0,089
-200,577	-35,123	-0,022	0,009
-199,563	-91,936	-0,093	0,019
-198,548	800,000	0,034	-0,069
-197,533	-119,426	0,012	-0,001
-196,519	-197,667	-0,036	-0,000
-195,504	800,000	-0,044	-0,127
-194,490	-43,037	0,013	0,005
-193,475	135,230	-0,142	-0,134
-192,460	-121,546	0,128	-0,015
-191,446	49,354	0,073	-0,050
-190,431	232,322	0,106	0,127
-189,417	-200,000	0,002	0,050
-188,402	-200,000	-0,012	-0,212
-187,387	135,492	0,084	-0,080
-186,373	-200,000	0,027	0,098
-185,358	18,669	0,111	-0,064
-184,344	106,897	0,078	-0,067
-183,329	351,884	0,030	0,043
-182,315	70,095	-0,051	-0,038
-181,300	772,939	-0,034	-0,068
-180,285	67,631	0,062	0,046
-179,271	578,953	-0,060	-0,107
-178,256	92,703	0,166	-0,136
-177,242	800,000	-0,052	-0,114
-176,227	-200,000	-0,009	0,098
-175,212	-46,388	0,126	0,045
-174,198	800,000	-0,038	0,090
-173,183	617,512	0,046	-0,084
-172,169	-36,458	-0,007	-0,003
-171,154	-200,000	-0,006	0,026
-170,139	14,472	0,043	-0,024
-169,125	510,187	0,021	-0,035
-168,110	71,973	0,081	-0,061
-167,096	-4,831	-0,106	0,053
-166,081	800,000	0,022	0,063
-165,066	-10,660	-0,121	0,058
-164,052	39,643	-0,040	-0,026
-163,037	3,059	0,035	-0,018
-162,023	102,103	0,041	-0,034
-161,008	527,207	-0,038	0,065
-159,993	516,395	0,047	-0,080
-158,979	142,156	-0,016	-0,015
-157,964	492,585	-0,007	0,012
-156,950	800,000	0,026	-0,056
-155,935	800,000	0,048	-0,123
-154,920	-3,105	0,038	0,019
-153,906	68,376	0,092	-0,068
-152,891	-99,277	-0,111	-0,020
-151,877	226,574	0,042	-0,049
-150,862	-200,000	0,018	-0,072
-149,847	-58,953	-0,096	0,030
-148,833	492,816	0,017	0,029
-147,818	800,000	-0,037	0,083
-146,804	100,208	0,044	0,037
-145,789	27,462	-0,077	-0,047
-144,775	58,705	-0,133	-0,094
-143,760	282,537	-0,030	-0,039
-142,745	78,670	-0,056	-0,043
-141,731	429,742	-0,085	-0,134
-140,716	22,238	-0,043	-0,025
-139,702	-42,821	-0,033	0,012
-138,687	-200,000	0,019	-0,089
-137,672	174,415	-0,083	-0,087
-136,658	-58,157	0,069	-0,022
-135,643	330,062	0,012	0,017
-134,629	-181,149	-0,166	0,002
-133,614	-65,949	0,119	-0,034
-132,599	-87,700	0,140	0,030
-131,585	-93,797	0,070	-0,014
-130,570	-44,317	0,092	-0,033
-129,556	349,048	0,031	-0,044
-128,541	-200,000	-0,007	0,023
-127,526	-200,000	-0,021	-0,076
-126,512	464,611	0,013	-0,022
-125,497	366,364	-0,023	-0,034
-124,483	800,000	0,043	-0,119
-123,468	78,541	0,154	-0,119
-122,453	-39,478	-0,131	0,049
-121,439	-200,000	0,011	0,037
-120,424	213,729	0,032	0,036
-119,410	-200,000	-0,040	0,138
-118,395	-1,682	-0,050	-0,025
-117,380	-200,000	-0,006	-0,018
-116,366	-200,000	0,022	-0,089
-115,351	313,672	-0,043	0,058
-114,337	800,000	-0,009	0,024
-113,322	287,355	-0,030	-0,040
-112,307	-21,938	0,050	0,022
-111,293	185,193	-0,063	0,068
-110,278	388,862	0,106	0,159
-109,264	167,838	0,037	-0,038
-108,249	-103,573	-0,047	-0,008
-107,234	702,042	0,047	0,090
-106,220	433,689	0,091	-0,143
-105,205	220,179	0,064	-0,074
-104,191	82,333	0,121	-0,095
-103,176	-122,103	0,092	0,011
-102,162	-73,813	0,119	-0,031
-101,147	-200,000	-0,002	-0,044
-100,132	264,332	0,056	-0,071
-99,118	90,629	0,084	-0,068
-98,103	119,403	0,044	-0,040
-97,089	-200,000	-0,006	-0,043
-96,074	394,728	-0,042	-0,063
-95,059	32,129	0,077	0,048
-94,045	800,000	-0,032	-0,075
-93,030	-200,000	0,001	0,061
-92,016	-48,932	0,035	-0,012
-91,001	800,000	0,019	0,045
-89,986	408,794	-0,028	0,042
-88,972	400,186	0,093	-0,141
-87,957	35,802	0,025	-0,016
-86,943	212,797	-0,089	0,102
-85,928	-29,403	-0,103	0,042
-84,913	35,978	0,102	-0,065
-83,899	800,000	-0,039	-0,117
-82,884	-200,000	-0,016	0,089
-81,870	800,000	0,020	-0,041
-80,855	-104,661	0,107	-0,018
-79,840	-200,000	-0,036	0,128
-78,826	131,911	-0,033	-0,031
-77,811	227,958	-0,080	-0,095
-76,797	-200,000	0,010	0,038
-75,782	-91,893	0,114	0,023
-74,767	99,421	0,027	0,023
-73,753	524,051	0,035	-0,060
-72,738	800,000	0,049	-0,108
-71,724	114,332	-0,103	-0,090
-70,709	-171,353	-0,053	0,001
-69,694	800,000	0,065	-0,157
-68,680	247,196	0,075	0,092
-67,665	-19,608	0,035	0,016
-66,651	-200,000	-0,006	-0,100
-65,636	-58,852	-0,048	-0,015
-64,622	-200,000	-0,020	0,139
-63,607	69,286	-0,114	-0,085
-62,592	412,332	0,015	-0,023
-61,578	-50,376	-0,024	0,008
-60,563	99,565	-0,029	0,024
-59,549	381,442	0,006	0,008
-58,534	-36,340	-1,757	-0,680
-57,519	-200,000	-0,286	-1,150
-56,505	-200,000	-1,127	-4,797
-55,490	-169,231	0,809	0,021
-54,476	800,000	5,286	12,095
-53,461	-200,000	16,338	277,843
-52,446	800,000	708,976	2230,805
-51,432	554,045	1623,323	2825,526
-50,417	121,759	1621,611	1457,916
-49,403	83,466	1283,065	1007,091
-48,388	36,436	1029,345	653,149
-47,373	21,161	992,069	578,935
-46,359	19,985	980,483	568,271
-45,344	18,021	976,292	559,358
-44,330	18,149	975,112	559,081
-43,315	17,805	973,367	556,928
-42,300	17,817	972,269	556,319
-41,286	17,807	971,170	555,633
-40,271	17,737	970,244	554,853
-39,257	17,801	969,402	554,561
-38,242	17,822	968,832	554,279
-37,227	17,841	967,785	553,720
-36,213	17,698	967,062	552,820
-35,198	17,729	965,985	552,282
-34,184	17,838	965,186	552,158
-33,169	17,731	964,411	551,345
-32,154	17,786	963,529	550,999
-31,140	17,829	962,705	550,645
-30,125	17,843	961,922	550,218
-29,111	17,807	961,251	549,698
-28,096	17,833	960,489	549,322
-27,082	17,731	959,971	548,674
-26,067	17,802	958,885	548,263
-25,052	17,816	958,240	547,917
-24,038	17,763	957,482	547,291
-23,023	17,722	956,872	546,788
-22,009	17,784	956,144	546,551
-20,994	17,762	955,762	546,239
-19,979	17,768	955,063	545,838
-18,965	17,711	954,302	545,197
-17,950	17,761	953,742	545,018
-16,936	17,636	953,086	544,218
-15,921	17,712	952,413	544,058
-14,906	17,666	951,640	543,445
-13,892	17,676	950,891	543,029
-12,877	17,612	950,255	542,439
-11,863	17,580	949,682	541,990
-10,848	17,620	949,246	541,845
-9,833	17,756	948,757	541,981
-8,819	17,682	948,166	541,384
-7,804	17,635	947,407	540,780
-6,790	17,638	946,902	540,479
-5,775	17,732	946,235	540,378
-4,760	17,704	945,598	539,903
-3,746	17,654	944,943	539,349
-2,731	17,542	944,271	538,588
-1,717	17,455	943,563	537,884
-0,702	17,465	942,994	537,571
0,313	17,274	942,336	537,400
1,327	20,549	940,480	546,674
2,342	29,944	796,828	488,185
3,356	27,116	449,246	270,975
4,371	-2,449	295,318	148,539
5,386	-6,594	276,663	135,210
6,400	-7,833	270,927	131,242
7,415	-8,010	268,549	129,915
8,429	-7,897	267,111	129,311
9,444	-8,153	266,318	128,682
10,459	-8,096	265,616	128,383
11,473	-8,324	265,068	127,899
12,488	-8,300	264,498	127,634
13,502	-8,609	263,903	127,057
14,517	-8,522	263,442	126,902
15,531	-8,714	262,956	126,483
16,546	-8,729	262,663	126,317
17,561	-8,757	262,236	126,076
18,575	-8,645	261,986	126,045
19,590	-8,805	261,555	125,682
20,604	-8,663	261,160	125,609
21,619	-8,873	260,977	125,321
22,634	-8,871	260,704	125,181
23,648	-8,872	260,380	125,013
24,663	-8,838	260,013	124,856
25,677	-8,810	259,743	124,740
26,692	-8,974	259,479	124,456
27,707	-8,943	259,299	124,387
28,721	-8,855	259,021	124,320
29,736	-8,843	258,637	124,136
30,750	-8,971	258,483	123,937
31,765	-9,026	258,205	123,744
32,780	-8,984	257,938	123,642
33,794	-9,107	257,868	123,490
34,809	-8,927	257,524	123,473
35,823	-9,061	257,312	123,241
36,838	-9,184	257,067	123,005
37,853	-9,206	256,843	122,867
38,867	-8,848	256,439	122,977
39,882	-9,132	256,432	122,713
40,896	-9,030	256,135	122,650
41,911	-8,986	255,802	122,519
42,926	-8,987	255,447	122,336
43,940	-9,157	255,394	122,151
44,955	-9,184	255,136	121,993
45,969	-9,241	254,892	121,816
46,984	-9,629	254,584	121,319
47,999	-9,732	254,406	121,135
49,013	-9,706	253,994	120,950
50,028	-9,797	253,876	120,804
51,042	-9,917	253,598	120,557
52,057	-9,779	253,223	120,488
53,071	-9,773	253,083	120,415
54,086	-9,875	253,047	120,299
55,101	-9,668	252,940	120,416
56,115	-9,472	252,789	120,504
57,130	-8,984	252,649	120,848
58,144	-8,531	252,596	121,204
59,159	-8,729	252,374	120,915
60,174	-8,808	252,225	120,765
61,188	-8,585	251,810	120,747
62,203	-8,688	251,700	120,595
63,217	-8,863	251,409	120,294
64,232	-8,931	251,244	120,146
65,247	-8,846	251,067	120,124
66,261	-9,019	250,782	119,828
67,276	-9,185	250,397	119,492
68,290	-9,468	250,173	119,132
69,305	-9,454	250,072	119,086
70,320	-9,380	249,937	119,074
71,334	-9,169	249,664	119,113
72,349	-8,743	249,714	119,490
73,363	-8,440	249,400	119,588
74,378	-8,668	249,213	119,292
75,393	-8,702	248,904	119,105
76,407	-8,935	248,742	118,819
77,422	-8,919	248,588	118,749
78,436	-9,009	248,508	118,623
79,451	-8,860	248,222	118,603
80,466	-9,009	247,811	118,270
81,480	-9,262	247,684	117,984
82,495	-9,426	247,424	117,711
83,509	-9,380	247,325	117,693
84,524	-9,353	247,128	117,611
85,539	-9,371	246,788	117,424
86,553	-9,449	246,711	117,311
87,568	-9,297	246,411	117,286
88,582	-9,267	246,293	117,245
89,597	-9,287	246,057	117,105
90,611	-9,105	246,018	117,229
91,626	-9,102	245,889	117,159
92,641	-8,881	245,562	117,178
93,655	-9,099	245,392	116,904
94,670	-9,083	245,266	116,847
95,684	-9,217	245,054	116,624
96,699	-9,038	244,884	116,682
97,714	-9,346	244,688	116,321
98,728	-9,486	244,472	116,091
99,743	-9,385	244,220	116,046
100,757	-9,377	243,964	115,920
101,772	-9,399	243,789	115,808
102,787	-9,157	243,605	115,911
103,801	-9,289	243,676	115,826
104,816	-9,178	243,481	115,814
105,830	-8,921	243,263	115,913
106,845	-8,872	243,127	115,879
107,860	-9,006	242,970	115,683
108,874	-8,981	242,520	115,478
109,889	-8,937	242,373	115,435
110,903	-9,217	242,387	115,200
111,918	-9,122	242,231	115,194
112,933	-8,872	241,963	115,262
113,947	-9,071	241,751	114,987
114,962	-8,956	241,458	114,932
115,976	-9,129	241,646	114,869
116,991	-9,088	241,333	114,744
118,006	-8,978	241,234	114,777
119,020	-9,152	240,970	114,498
120,035	-8,975	240,924	114,611
121,049	-8,826	240,889	114,707
122,064	-8,924	240,708	114,530
123,079	-8,861	240,224	114,341
124,093	-9,075	240,085	114,089
125,108	-9,216	239,734	113,798
126,122	-9,347	239,567	113,601
127,137	-9,609	239,471	113,332
128,151	-9,575	239,292	113,266
129,166	-9,269	239,021	113,376
130,181	-9,286	238,908	113,298
131,195	-9,560	238,748	112,989
132,210	-9,113	238,529	113,238
133,224	-9,019	238,518	113,300
134,239	-9,020	238,412	113,238
135,254	-9,000	238,136	113,114
136,268	-9,105	237,803	112,860
137,283	-9,489	237,655	112,470
138,297	-9,481	237,545	112,414
139,312	-9,429	237,258	112,310
140,327	-8,882	237,187	112,707
141,341	-8,634	237,190	112,898
142,356	-8,716	237,173	112,814
143,370	-8,699	237,036	112,752
144,385	-8,455	236,902	112,875
145,400	-8,321	236,628	112,842
146,414	-8,388	236,428	112,683
147,429	-8,637	236,075	112,305
148,443	-8,742	236,028	112,189
149,458	-8,565	235,837	112,229
150,473	-8,529	235,569	112,121
151,487	-8,684	235,574	111,989
152,502	-8,508	235,231	111,956
153,516	-8,670	235,207	111,806
154,531	-8,515	234,956	111,800
155,546	-8,586	234,698	111,611
156,560	-8,701	234,630	111,477
157,575	-8,796	234,355	111,261
158,589	-8,800	234,293	111,219
159,604	-8,522	234,363	111,463
160,619	-8,492	234,044	111,325
161,633	-8,538	233,848	111,186
162,648	-8,388	233,732	111,239
163,662	-8,707	233,534	110,882
164,677	-8,889	233,400	110,664
165,692	-8,606	233,202	110,785
166,706	-8,408	233,155	110,909
167,721	-8,394	233,060	110,865
168,735	-8,341	232,802	110,774
169,750	-8,501	232,732	110,604
170,764	-8,574	232,512	110,433
171,779	-8,576	232,388	110,363
172,794	-8,266	232,245	110,528
173,808	-8,622	231,977	110,112
174,823	-9,362	231,747	109,412
175,837	-9,255	231,426	109,334
176,852	-8,705	231,457	109,771
177,867	-8,592	231,379	109,812
178,881	-8,565	231,282	109,778
179,896	-8,503	231,227	109,790
180,910	-8,381	231,025	109,780
181,925	-8,294	230,805	109,733
182,940	-8,432	230,770	109,599
183,954	-8,347	230,640	109,594
184,969	-8,534	230,500	109,372
185,983	-8,342	230,242	109,389
186,998	-8,439	230,069	109,221
188,013	-8,342	229,975	109,243
189,027	-8,183	229,800	109,273
190,042	-8,307	229,610	109,077
191,056	-8,273	229,391	108,990
192,071	-8,283	229,228	108,894
193,086	-8,285	229,168	108,855
194,100	-8,045	228,972	108,937
195,115	-7,929	228,756	108,915
196,129	-7,950	228,953	108,982
197,144	-4,232	230,105	112,409
198,159	0,033	231,183	116,246
199,173	3,373	232,097	119,300
200,188	3,468	232,056	119,341
201,202	3,621	231,931	119,387
202,217	3,820	231,777	119,451
203,232	3,786	231,714	119,381
204,246	3,974	231,557	119,436
205,261	3,954	231,414	119,336
206,275	4,154	231,259	119,401
207,290	4,337	231,119	119,459
208,304	4,194	231,078	119,317
209,319	4,095	230,756	119,063
210,334	4,089	230,603	118,969
211,348	3,795	230,360	118,606
212,363	3,386	230,150	118,171
213,377	3,217	229,840	117,872
214,392	3,189	229,829	117,834
215,407	3,406	229,800	117,976
216,421	3,381	229,577	117,832
217,436	3,410	229,224	117,662
218,450	3,002	229,156	117,304
219,465	3,164	228,826	117,248
220,480	3,060	228,836	117,163
221,494	3,077	228,710	117,101
222,509	3,249	228,688	117,211
223,523	3,234	228,539	117,113
224,538	3,202	228,288	116,950
225,553	3,118	228,183	116,821
226,567	3,362	228,019	116,913
227,582	3,561	227,955	117,022
228,596	3,609	227,804	116,970
229,611	3,224	227,720	116,624
230,626	3,074	227,369	116,319
231,640	3,140	227,226	116,285
232,655	3,532	227,161	116,540
233,669	3,775	227,092	116,679
234,684	4,026	227,070	116,848
235,699	3,618	226,906	116,443
236,713	3,455	226,500	116,101
237,728	3,322	226,357	115,917
238,742	3,096	226,295	115,703
239,757	3,426	226,033	115,809
240,772	3,195	225,843	115,526
241,786	3,516	225,718	115,694
242,801	3,500	225,616	115,620
243,815	3,856	225,500	115,819
244,830	3,854	225,484	115,798
245,844	3,604	225,213	115,461
246,859	3,417	225,083	115,243
247,874	3,393	225,087	115,217
248,888	3,497	224,856	115,166
249,903	3,514	224,743	115,111
250,917	3,391	224,514	114,891
251,932	3,269	224,443	114,753
252,947	3,289	224,249	114,659
253,961	3,329	223,944	114,523
254,976	3,242	223,951	114,451
255,990	3,405	223,925	114,549
257,005	3,479	223,733	114,497
258,020	3,601	223,616	114,517
259,034	3,414	223,564	114,341
260,049	3,551	223,280	114,287
261,063	3,607	223,091	114,222
262,078	3,785	222,902	114,248
263,093	3,660	222,902	114,145
264,107	3,383	222,835	113,894
265,122	3,546	222,632	113,901
266,136	3,602	222,529	113,880
267,151	3,725	222,327	113,858
268,166	3,306	222,152	113,447
269,180	3,249	221,807	113,219
270,195	3,290	221,620	113,143
271,209	3,357	221,589	113,167
272,224	3,220	221,485	113,003
273,239	3,517	221,379	113,158
274,253	3,385	221,072	112,894
275,268	3,240	220,939	112,709
276,282	3,193	220,855	112,622
277,297	2,915	220,617	112,285
278,312	3,263	220,445	112,444
279,326	3,306	220,444	112,465
280,341	3,320	220,315	112,399
281,355	3,402	220,225	112,404
282,370	3,203	219,990	112,128
283,384	2,932	219,755	111,800
284,399	3,152	219,653	111,898
285,414	3,172	219,432	111,791
286,428	3,280	219,350	111,818
287,443	3,319	219,359	111,841
288,457	3,334	219,214	111,768
289,472	3,216	218,978	111,552
290,487	2,855	218,720	111,147
291,501	2,999	218,524	111,143
292,516	2,855	218,528	111,030
293,530	2,979	218,448	111,069
294,545	2,986	218,294	110,987
295,560	3,167	218,307	111,115
296,574	3,227	218,048	111,016
297,589	3,290	217,879	110,966
298,603	3,659	217,837	111,202
299,618	3,338	217,679	110,879
300,633	3,342	217,499	110,781
301,647	3,396	217,464	110,792
302,662	3,579	217,310	110,836
303,676	3,498	217,231	110,727
304,691	3,444	217,162	110,643
305,706	3,565	216,919	110,597
306,720	3,584	216,702	110,490
307,735	3,361	216,499	110,217
308,749	3,253	216,449	110,103
309,764	3,375	216,247	110,078
310,779	3,710	216,303	110,338
311,793	3,505	216,059	110,056
312,808	3,353	215,937	109,875
313,822	3,414	215,682	109,779
314,837	3,242	215,649	109,630
315,852	3,161	215,419	109,445
316,866	3,252	215,194	109,386
317,881	3,189	215,147	109,307
318,895	3,174	215,058	109,241
319,910	3,518	214,924	109,409
320,925	3,256	214,702	109,100
321,939	3,065	214,593	108,899
322,954	3,329	214,510	109,035
323,968	3,441	214,405	109,051
324,983	3,617	214,255	109,090
325,997	3,508	214,266	109,009
327,012	3,506	213,927	108,825
328,027	3,429	213,731	108,661
329,041	3,635	213,859	108,863
330,056	3,722	213,728	108,848
331,070	3,252	213,377	108,326
332,085	3,055	213,244	108,110
333,100	3,117	213,095	108,069
334,114	3,371	213,219	108,302
335,129	3,567	212,938	108,288
336,143	3,282	212,749	107,981
337,158	3,262	212,617	107,890
338,173	3,174	212,449	107,733
339,187	3,208	212,307	107,676
340,202	2,877	212,263	107,411
341,216	2,918	212,025	107,309
342,231	3,335	211,811	107,485
343,246	3,199	211,743	107,345
344,260	3,009	211,550	107,104
345,275	3,169	211,509	107,186
346,289	3,290	211,457	107,235
347,304	3,602	211,295	107,362
348,319	3,744	210,988	107,296
349,333	3,171	210,944	106,863
350,348	3,574	210,841	107,083
351,362	3,638	210,832	107,113
352,377	3,532	210,603	106,913
353,392	3,206	210,458	106,603
354,406	3,348	210,310	106,618
355,421	195,027	1340,571	1423,097
356,435	155,730	1478,299	1423,109
