DTS Sentinel unit serial number:	SN410029Multiplexer serial number:	ORYXHardware model number:	OX2-SRSoftware version number:	ORYX F/W v4,00 Oryx Data Collector v3.7.2.0data status	okinstallation	B6 Nyhavnadifferential loss correction	single-endedforward channel	channel 2reverse channel	N/Adate	2023/12/10time	19:45:08forward acquisition time	300,00reverse acquisition time	0,00gamma	499,1914k internal	0,3123k external	0,3123temperature offset calibration	1,0000default loss term (dB/km)	0,3820temperature slope calibration	1,0000multiplexer offset coefficient	1,0000multiplexer slope coefficient	1,0000fibre end	0,00T internal ref (°C)	22,31T ext. ref 1 (°C)	5,99T ext. ref 2 (°C)	6,00length (m)	temperature (°C)	Stokes	anti-Stokes-744,400	800,000	0,016	-0,051
-743,385	-3,055	-0,148	0,077
-742,371	-173,946	0,159	-0,003
-741,356	-84,539	-0,252	0,059
-740,342	126,596	0,112	0,106
-739,327	59,906	-0,140	0,103
-738,312	-200,000	-0,004	0,093
-737,298	-28,572	-0,157	0,067
-736,283	273,088	0,077	0,102
-735,269	10,305	-0,239	0,135
-734,254	79,497	-0,066	-0,053
-733,239	-119,060	-0,435	0,056
-732,225	139,476	0,076	0,074
-731,210	98,507	0,104	0,089
-730,196	229,719	0,062	-0,075
-729,181	-200,000	-0,004	0,050
-728,167	28,038	0,183	-0,115
-727,152	800,000	0,004	0,014
-726,137	800,000	-0,031	-0,095
-725,123	31,462	-0,075	-0,048
-724,108	800,000	-0,069	-0,157
-723,094	-58,825	-0,142	0,046
-722,079	800,000	-0,094	-0,239
-721,064	12,704	0,101	-0,058
-720,050	-35,500	-0,137	-0,055
-719,035	800,000	0,028	-0,089
-718,021	476,479	-0,084	-0,142
-717,006	22,567	-0,053	0,032
-715,991	-80,811	-0,122	-0,030
-714,977	-200,000	-0,004	-0,049
-713,962	-56,037	-0,102	0,034
-712,948	-29,820	0,060	0,025
-711,933	800,000	-0,014	-0,041
-710,918	800,000	0,062	0,158
-709,904	-200,000	0,026	-0,130
-708,889	-130,965	-0,131	-0,013
-707,875	102,576	0,035	-0,030
-706,860	165,184	-0,088	0,093
-705,845	104,180	0,099	-0,087
-704,831	800,000	-0,009	-0,026
-703,816	800,000	-0,048	-0,111
-702,802	168,269	-0,031	-0,033
-701,787	359,238	0,071	-0,105
-700,772	277,995	-0,073	-0,097
-699,758	800,000	-0,048	-0,141
-698,743	58,849	0,032	-0,023
-697,729	-200,000	0,003	-0,033
-696,714	-147,478	-0,110	0,007
-695,699	512,578	0,032	-0,055
-694,685	-200,000	0,012	-0,122
-693,670	800,000	0,038	-0,094
-692,656	114,757	0,086	-0,078
-691,641	235,417	0,049	-0,060
-690,627	18,396	0,165	0,098
-689,612	-66,329	0,062	-0,018
-688,597	-32,167	-0,047	0,020
-687,583	75,983	-0,127	-0,100
-686,568	-37,229	-0,244	-0,097
-685,554	137,426	0,037	0,036
-684,539	22,263	0,033	0,020
-683,524	800,000	-0,066	0,139
-682,510	-200,000	0,013	-0,118
-681,495	-151,273	-0,096	-0,005
-680,481	-200,000	-0,010	-0,102
-679,466	-200,000	-0,007	-0,063
-678,451	-200,000	0,030	-0,143
-677,437	41,611	0,027	0,018
-676,422	280,227	0,039	0,052
-675,408	-48,053	-0,096	0,034
-674,393	800,000	-0,035	0,080
-673,378	-127,677	-0,111	-0,012
-672,364	174,636	0,107	-0,115
-671,349	-112,726	-0,166	0,024
-670,335	109,081	0,059	0,052
-669,320	126,796	-0,029	0,027
-668,305	800,000	0,055	0,181
-667,291	795,596	-0,063	-0,129
-666,276	-200,000	-0,004	0,091
-665,262	8,824	-0,154	-0,086
-664,247	357,231	0,048	0,071
-663,232	-200,000	0,005	-0,076
-662,218	800,000	0,020	-0,050
-661,203	-181,122	0,050	-0,001
-660,189	172,185	-0,036	-0,039
-659,174	-151,460	-0,123	-0,007
-658,159	108,608	0,069	-0,061
-657,145	90,062	0,037	-0,031
-656,130	-200,000	-0,003	0,063
-655,116	210,367	-0,039	-0,045
-654,101	495,053	0,051	-0,088
-653,086	-13,290	-0,042	-0,020
-652,072	240,764	-0,037	-0,046
-651,057	196,331	-0,061	-0,069
-650,043	800,000	0,054	-0,145
-649,028	-10,181	-0,190	-0,093
-648,014	-80,030	-0,070	-0,017
-646,999	-61,563	-0,090	0,028
-645,984	499,906	0,093	-0,160
-644,970	800,000	-0,043	-0,138
-643,955	-85,092	-0,060	-0,014
-642,941	486,091	-0,044	-0,075
-641,926	-93,669	0,095	-0,019
-640,911	-97,441	0,019	0,004
-639,897	-200,000	0,001	0,063
-638,882	87,012	-0,111	0,091
-637,868	265,725	-0,041	-0,053
-636,853	-62,936	-0,091	0,028
-635,838	-82,728	-0,205	-0,049
-634,824	-200,000	-0,009	-0,045
-633,809	357,776	0,088	-0,131
-632,795	-61,260	0,128	-0,040
-631,780	202,271	-0,074	-0,085
-630,765	-200,000	-0,027	0,116
-629,751	-200,000	0,017	-0,103
-628,736	373,894	0,044	-0,066
-627,722	349,440	-0,043	0,063
-626,707	168,496	-0,065	-0,069
-625,692	297,134	0,079	0,108
-624,678	-12,983	0,025	0,012
-623,663	-200,000	-0,027	-0,143
-622,649	-56,311	-0,082	-0,027
-621,634	206,805	-0,102	-0,118
-620,619	-200,000	-0,009	-0,063
-619,605	229,872	0,081	0,098
-618,590	105,897	-0,059	0,052
-617,576	-200,000	-0,006	0,067
-616,561	-55,033	0,074	0,024
-615,546	-200,000	-0,014	-0,059
-614,532	19,407	-0,070	-0,042
-613,517	-200,000	0,017	-0,119
-612,503	-164,024	0,036	0,001
-611,488	800,000	-0,025	0,065
-610,474	-15,456	0,146	-0,069
-609,459	-17,266	0,070	-0,033
-608,444	800,000	0,057	-0,122
-607,430	800,000	0,059	-0,137
-606,415	-200,000	0,005	-0,048
-605,401	76,471	-0,015	0,012
-604,386	104,825	-0,107	0,093
-603,371	73,559	-0,068	-0,053
-602,357	-173,662	0,123	-0,003
-601,342	800,000	-0,028	0,067
-600,328	-200,000	-0,015	-0,080
-599,313	157,493	0,074	0,076
-598,298	-200,000	-0,000	0,092
-597,284	-99,555	-0,022	0,004
-596,269	515,613	0,072	0,124
-595,255	-130,829	-0,101	0,010
-594,240	-12,050	0,059	0,028
-593,225	-156,836	-0,046	-0,002
-592,211	82,991	0,031	0,025
-591,196	-200,000	0,007	-0,087
-590,182	-30,995	0,084	0,035
-589,167	446,444	-0,005	-0,008
-588,152	406,700	0,125	0,197
-587,138	-132,884	0,096	-0,009
-586,123	800,000	-0,013	-0,028
-585,109	-101,034	-0,073	0,013
-584,094	-154,852	0,005	0,000
-583,079	500,578	0,074	0,127
-582,065	-97,888	0,107	-0,020
-581,050	-200,000	-0,002	0,057
-580,036	-200,000	0,025	-0,154
-579,021	88,251	-0,138	0,114
-578,006	-57,596	-0,094	0,030
-576,992	-97,294	0,095	0,018
-575,977	-157,817	0,081	0,003
-574,963	282,280	-0,100	-0,133
-573,948	267,270	-0,057	-0,074
-572,934	-200,000	-0,002	-0,073
-571,919	-200,000	0,005	-0,054
-570,904	673,600	-0,058	0,112
-569,890	-200,000	0,005	-0,019
-568,875	-200,000	0,004	0,076
-567,861	281,253	-0,058	-0,077
-566,846	-36,869	-0,159	0,063
-565,831	258,051	0,052	0,066
-564,817	49,982	-0,192	-0,134
-563,802	-200,000	-0,039	-0,142
-562,788	-200,000	0,001	-0,072
-561,773	-200,000	-0,012	-0,059
-560,758	-123,557	0,154	0,018
-559,744	800,000	0,062	0,200
-558,729	-200,000	0,025	0,221
-557,715	-97,214	-0,172	-0,033
-556,700	365,975	0,079	-0,118
-555,685	800,000	-0,037	0,079
-554,671	-76,844	0,061	-0,016
-553,656	800,000	0,043	0,109
-552,642	768,696	-0,088	0,177
-551,627	-200,000	-0,016	0,055
-550,612	427,315	-0,078	0,126
-549,598	34,707	0,037	-0,024
-548,583	-200,000	-0,043	-0,176
-547,569	800,000	0,018	-0,057
-546,554	800,000	0,014	0,042
-545,539	225,828	-0,047	-0,057
-544,525	-200,000	0,006	0,104
-543,510	-13,845	0,032	-0,015
-542,496	175,039	-0,051	0,054
-541,481	800,000	-0,046	-0,129
-540,466	800,000	-0,023	-0,067
-539,452	228,101	0,052	0,063
-538,437	-200,000	-0,006	0,087
-537,423	800,000	-0,075	0,155
-536,408	-12,501	0,079	0,038
-535,393	115,321	-0,046	-0,041
-534,379	20,543	0,029	0,017
-533,364	800,000	-0,016	-0,041
-532,350	-200,000	-0,006	0,052
-531,335	73,894	-0,037	-0,029
-530,321	-200,000	-0,020	0,103
-529,306	247,645	-0,083	-0,104
-528,291	-200,000	0,002	-0,071
-527,277	-24,295	-0,116	-0,051
-526,262	-103,462	-0,152	0,026
-525,248	-179,425	-0,077	0,001
-524,233	-120,599	0,181	-0,022
-523,218	-200,000	-0,007	0,148
-522,204	-131,757	-0,090	0,009
-521,189	-42,946	-0,076	0,028
-520,175	-200,000	-0,001	-0,071
-519,160	800,000	-0,022	-0,059
-518,145	253,682	0,101	0,128
-517,131	40,929	-0,053	0,036
-516,116	800,000	-0,045	0,112
-515,102	63,684	-0,022	-0,016
-514,087	-200,000	-0,003	-0,167
-513,072	-101,839	-0,075	-0,013
-512,058	-200,000	-0,010	-0,067
-511,043	155,504	0,008	-0,008
-510,029	-200,000	-0,005	0,039
-509,014	-200,000	-0,015	0,102
-507,999	690,729	0,084	-0,163
-506,985	50,087	-0,090	-0,063
-505,970	93,686	-0,184	0,154
-504,956	-35,117	-0,100	0,040
-503,941	-153,730	0,056	0,003
-502,926	478,237	0,013	0,022
-501,912	-200,000	-0,004	0,042
-500,897	27,189	-0,079	-0,049
-499,883	501,977	0,047	0,080
-498,868	-67,870	0,036	-0,010
-497,853	800,000	0,056	-0,146
-496,839	-27,758	-0,067	0,029
-495,824	-200,000	-0,007	0,028
-494,810	-93,275	-0,101	0,020
-493,795	-7,875	-0,050	0,025
-492,781	-53,314	-0,004	0,001
-491,766	-25,126	-0,117	0,051
-490,751	-200,000	-0,014	-0,059
-489,737	80,579	0,094	-0,075
-488,722	-176,035	0,064	0,001
-487,708	-200,000	-0,006	0,021
-486,693	151,972	0,104	0,105
-485,678	-200,000	-0,018	0,118
-484,664	-73,154	-0,074	-0,020
-483,649	-72,351	-0,084	0,023
-482,635	40,916	0,054	-0,036
-481,620	800,000	-0,009	0,019
-480,605	-200,000	0,002	0,063
-479,591	363,834	-0,076	0,114
-478,576	87,611	0,049	-0,040
-477,562	-33,706	-0,083	0,033
-476,547	144,111	-0,014	-0,014
-475,532	-65,343	0,113	-0,033
-474,518	-148,647	0,050	0,003
-473,503	-61,005	0,074	-0,023
-472,489	-200,000	0,004	0,117
-471,474	136,959	0,045	-0,044
-470,459	-122,480	0,040	-0,005
-469,445	-69,874	-0,044	0,012
-468,430	-200,000	-0,028	-0,185
-467,416	132,154	0,012	0,011
-466,401	800,000	0,053	-0,127
-465,386	-200,000	0,011	0,120
-464,372	4,192	-0,131	-0,070
-463,357	-113,684	-0,093	-0,013
-462,343	99,549	0,028	-0,024
-461,328	-32,024	-0,081	0,033
-460,313	-33,729	0,073	0,030
-459,299	-117,552	0,123	-0,016
-458,284	800,000	-0,066	0,182
-457,270	100,144	-0,136	0,116
-456,255	800,000	0,034	-0,092
-455,241	-200,000	-0,003	0,057
-454,226	-81,790	-0,144	-0,034
-453,211	800,000	0,029	0,081
-452,197	-27,877	-0,030	0,013
-451,182	587,189	-0,036	0,066
-450,168	112,401	-0,075	0,067
-449,153	-200,000	-0,003	-0,014
-448,138	-200,000	-0,008	-0,079
-447,124	160,231	-0,057	0,059
-446,109	-200,000	0,002	0,008
-445,095	-33,184	-0,123	0,050
-444,080	207,836	0,057	0,065
-443,065	-193,531	-0,109	-0,001
-442,051	-53,008	0,087	-0,029
-441,036	-200,000	-0,020	-0,143
-440,022	-133,598	0,060	0,005
-439,007	207,256	-0,040	-0,046
-437,992	-200,000	0,003	-0,053
-436,978	396,408	0,111	0,171
-435,963	-66,148	-0,103	0,030
-434,949	100,459	0,054	-0,046
-433,934	-180,863	-0,047	0,001
-432,919	362,890	0,040	-0,059
-431,905	59,306	0,170	-0,123
-430,890	372,047	-0,057	0,085
-429,876	-117,327	0,072	-0,010
-428,861	214,416	-0,105	0,123
-427,846	-200,000	0,020	0,124
-426,832	-200,000	0,023	0,132
-425,817	200,453	-0,026	-0,029
-424,803	800,000	0,013	-0,039
-423,788	800,000	0,006	0,019
-422,773	175,588	0,094	0,100
-421,759	-44,974	0,070	0,025
-420,744	800,000	0,010	0,024
-419,730	-200,000	-0,009	-0,109
-418,715	-86,388	0,096	0,022
-417,701	700,580	0,061	0,120
-416,686	162,498	-0,036	0,037
-415,671	26,481	0,132	-0,081
-414,657	127,343	-0,063	0,059
-413,642	129,414	0,076	0,072
-412,628	-200,000	-0,020	-0,176
-411,613	-133,118	0,075	-0,007
-410,598	-27,839	0,055	0,023
-409,584	-12,729	-0,132	0,063
-408,569	16,080	0,220	0,127
-407,555	-200,000	0,002	-0,166
-406,540	-2,348	0,062	-0,032
-405,525	32,235	-0,175	0,111
-404,511	-32,181	-0,054	-0,022
-403,496	63,516	0,044	-0,032
-402,482	-8,590	0,103	-0,051
-401,467	-200,000	0,026	0,097
-400,452	18,598	0,134	0,079
-399,438	-200,000	-0,014	0,074
-398,423	-16,304	-0,107	-0,050
-397,409	-39,718	0,003	0,001
-396,394	230,223	0,069	-0,083
-395,379	800,000	0,019	0,043
-394,365	426,710	0,083	0,132
-393,350	44,804	-0,133	-0,090
-392,336	-113,851	-0,175	0,025
-391,321	-77,751	0,011	0,003
-390,306	800,000	0,048	-0,123
-389,292	595,250	0,021	0,038
-388,277	-34,492	0,138	-0,055
-387,263	151,607	0,045	0,045
-386,248	-200,000	-0,003	-0,044
-385,233	36,276	0,032	-0,021
-384,219	800,000	0,036	-0,096
-383,204	668,923	-0,078	-0,149
-382,190	134,927	-0,045	-0,043
-381,175	-18,591	-0,096	-0,044
-380,160	-200,000	-0,007	0,151
-379,146	24,375	0,068	0,041
-378,131	117,548	-0,132	0,120
-377,117	-200,000	0,036	0,121
-376,102	800,000	-0,042	-0,128
-375,088	144,021	-0,100	-0,098
-374,073	324,202	0,116	-0,163
-373,058	-38,691	0,070	-0,027
-372,044	61,792	-0,090	-0,066
-371,029	-36,680	0,038	-0,015
-370,015	-134,853	-0,100	-0,009
-369,000	-39,445	-0,118	0,045
-367,985	-200,000	0,021	0,073
-366,971	598,523	0,015	0,027
-365,956	-200,000	-0,006	0,131
-364,942	178,875	0,125	0,135
-363,927	21,040	0,048	0,029
-362,912	-200,000	-0,038	-0,144
-361,898	-200,000	0,015	-0,092
-360,883	30,668	0,067	0,042
-359,869	-200,000	0,006	0,036
-358,854	229,333	-0,044	-0,052
-357,839	553,824	0,033	0,058
-356,825	-35,734	-0,038	-0,015
-355,810	-118,574	0,062	-0,008
-354,796	78,554	0,070	-0,055
-353,781	190,342	0,023	-0,025
-352,766	-140,555	-0,090	0,007
-351,752	-134,981	0,078	0,007
-350,737	168,897	0,072	0,075
-349,723	-103,309	0,106	0,018
-348,708	-200,000	-0,060	0,000
-347,693	564,079	0,037	-0,066
-346,679	387,716	0,031	-0,048
-345,664	-107,229	-0,073	0,012
-344,650	43,823	0,111	-0,074
-343,635	-132,101	0,066	0,006
-342,620	-200,000	0,017	0,063
-341,606	-200,000	-0,023	-0,132
-340,591	-74,409	-0,048	-0,013
-339,577	267,006	0,062	0,079
-338,562	-200,000	-0,015	-0,055
-337,548	-86,857	-0,127	-0,028
-336,533	45,542	0,059	0,040
-335,518	-62,411	0,138	0,042
-334,504	-72,654	0,088	0,024
-333,489	166,573	-0,075	-0,078
-332,475	-68,674	0,107	-0,030
-331,460	44,605	-0,125	-0,084
-330,445	-9,366	0,117	0,057
-329,431	706,871	-0,019	-0,037
-328,416	-200,000	0,020	0,070
-327,402	144,814	-0,097	0,095
-326,387	-200,000	-0,006	0,237
-325,372	-36,908	-0,070	0,027
-324,358	-149,545	-0,149	-0,008
-323,343	-200,000	0,018	-0,204
-322,329	40,596	0,070	0,046
-321,314	121,436	0,061	-0,056
-320,299	-73,101	0,053	-0,014
-319,285	76,850	-0,130	0,101
-318,270	292,378	-0,051	0,068
-317,256	138,884	0,057	-0,055
-316,241	-200,000	0,016	-0,079
-315,226	800,000	-0,034	-0,073
-314,212	-87,359	0,146	0,032
-313,197	-200,000	0,013	0,092
-312,183	800,000	0,019	0,041
-311,168	-72,891	0,182	0,049
-310,153	84,722	-0,079	0,063
-309,139	2,067	0,026	-0,014
-308,124	800,000	0,013	-0,041
-307,110	-200,000	-0,029	0,095
-306,095	132,576	-0,007	0,006
-305,080	568,554	0,075	0,134
-304,066	-91,322	0,078	0,016
-303,051	8,105	0,053	-0,029
-302,037	-97,442	-0,115	-0,022
-301,022	-200,000	-0,002	-0,034
-300,008	17,644	0,112	0,065
-298,993	-200,000	0,004	0,102
-297,978	-200,000	0,000	-0,030
-296,964	205,190	0,077	0,088
-295,949	597,751	-0,077	0,141
-294,935	54,308	-0,108	-0,076
-293,920	102,325	0,073	0,063
-292,905	-117,491	0,094	0,012
-291,891	252,917	-0,002	0,003
-290,876	-10,881	0,053	0,026
-289,862	-17,358	0,121	0,055
-288,847	-200,000	-0,029	-0,131
-287,832	-200,000	-0,000	-0,050
-286,818	-200,000	0,017	-0,091
-285,803	20,842	0,039	-0,023
-284,789	-20,810	-0,080	-0,036
-283,774	-39,385	0,103	0,039
-282,759	2,295	0,088	0,046
-281,745	-200,000	-0,020	-0,065
-280,730	175,229	-0,053	-0,056
-279,716	800,000	-0,042	-0,091
-278,701	-200,000	0,006	0,042
-277,686	163,544	0,035	0,036
-276,672	286,990	-0,038	0,050
-275,657	123,921	0,095	-0,087
-274,643	262,580	-0,029	-0,037
-273,628	-162,138	-0,082	0,003
-272,613	-200,000	-0,035	-0,134
-271,599	800,000	0,048	0,107
-270,584	395,513	0,078	0,120
-269,570	-200,000	-0,008	0,141
-268,555	-200,000	-0,012	0,072
-267,540	-200,000	0,031	0,120
-266,526	-91,270	-0,189	0,039
-265,511	43,356	0,169	-0,113
-264,497	800,000	0,024	0,058
-263,482	114,937	0,051	0,046
-262,467	104,072	-0,080	-0,069
-261,453	-24,657	0,030	0,013
-260,438	44,389	0,101	-0,068
-259,424	-200,000	0,008	-0,064
-258,409	397,540	-0,031	-0,048
-257,395	800,000	0,030	-0,076
-256,380	-103,210	0,100	-0,017
-255,365	-28,534	0,167	-0,070
-254,351	240,242	0,084	0,102
-253,336	70,864	-0,086	0,065
-252,322	-200,000	0,001	-0,123
-251,307	-200,000	-0,004	-0,052
-250,292	45,500	0,102	0,069
-249,278	800,000	0,019	0,059
-248,263	585,267	0,058	-0,104
-247,249	800,000	0,026	0,063
-246,234	12,143	0,105	0,059
-245,219	800,000	-0,022	-0,064
-244,205	800,000	-0,054	-0,162
-243,190	24,036	0,102	0,061
-242,176	-75,455	0,074	0,019
-241,161	497,359	0,030	0,050
-240,146	665,401	-0,078	0,148
-239,132	-110,159	0,037	-0,006
-238,117	-200,000	-0,018	0,105
-237,103	800,000	-0,048	-0,152
-236,088	-0,817	-0,052	-0,027
-235,073	142,343	0,088	0,086
-234,059	-50,458	0,120	0,041
-233,044	-57,289	-0,085	-0,027
-232,030	-165,978	-0,080	0,002
-231,015	-200,000	0,012	0,040
-230,000	-112,498	0,163	-0,024
-228,986	20,970	-0,042	0,025
-227,971	800,000	-0,042	0,122
-226,957	-46,365	-0,122	0,044
-225,942	-46,746	0,160	0,057
-224,927	62,134	-0,183	0,134
-223,913	-120,320	0,025	-0,003
-222,898	383,470	-0,063	-0,095
-221,884	299,280	-0,034	-0,046
-220,869	-54,872	0,135	0,044
-219,855	-200,000	0,001	-0,009
-218,840	9,886	-0,071	0,039
-217,825	15,956	-0,079	0,045
-216,811	12,477	0,046	-0,026
-215,796	-200,000	0,004	-0,025
-214,782	105,993	0,118	-0,102
-213,767	152,013	0,031	-0,031
-212,752	18,260	-0,123	0,072
-211,738	360,192	0,076	0,111
-210,723	-8,896	0,046	0,023
-209,709	-200,000	-0,012	-0,120
-208,694	192,399	-0,101	-0,112
-207,679	-200,000	-0,023	-0,105
-206,665	-124,618	-0,146	0,016
-205,650	800,000	0,054	0,132
-204,636	800,000	-0,039	-0,120
-203,621	324,918	-0,054	-0,076
-202,606	-200,000	-0,004	0,075
-201,592	15,283	-0,096	-0,055
-200,577	431,062	0,040	0,063
-199,563	-200,000	0,036	-0,147
-198,548	-200,000	-0,024	-0,146
-197,533	23,873	0,182	0,109
-196,519	-117,883	-0,073	-0,009
-195,504	-18,432	-0,032	-0,015
-194,490	287,497	-0,035	0,047
-193,475	800,000	-0,053	-0,108
-192,460	800,000	-0,054	-0,141
-191,446	209,107	-0,066	0,075
-190,431	800,000	-0,058	-0,126
-189,417	-69,046	-0,071	0,020
-188,402	-200,000	-0,018	0,152
-187,387	-200,000	0,019	0,066
-186,373	66,327	0,099	0,073
-185,358	-200,000	-0,012	-0,167
-184,344	-200,000	0,009	0,054
-183,329	800,000	0,053	0,122
-182,315	329,891	-0,009	0,013
-181,300	-200,000	0,014	-0,176
-180,285	-200,000	-0,018	-0,199
-179,271	-200,000	-0,004	-0,068
-178,256	-200,000	-0,007	-0,043
-177,242	38,052	0,078	-0,051
-176,227	800,000	0,029	-0,086
-175,212	-200,000	-0,003	-0,101
-174,198	32,463	0,121	-0,076
-173,183	800,000	0,015	-0,046
-172,169	163,189	-0,016	0,016
-171,154	3,583	-0,030	-0,016
-170,139	584,333	-0,044	-0,079
-169,125	-111,622	-0,086	0,013
-168,110	-77,424	0,156	0,039
-167,096	-200,000	0,003	0,012
-166,081	18,193	0,030	0,017
-165,066	-200,000	-0,001	-0,038
-164,052	-125,054	-0,059	-0,007
-163,037	-200,000	-0,018	0,081
-162,023	-15,820	-0,071	-0,033
-161,008	542,118	0,069	-0,120
-159,993	-52,428	-0,027	-0,009
-158,979	-200,000	-0,039	-0,191
-157,964	344,768	0,019	-0,027
-156,950	-152,610	-0,080	0,004
-155,935	-200,000	0,006	0,085
-154,920	-200,000	-0,017	-0,060
-153,906	800,000	-0,043	0,122
-152,891	-24,534	0,069	0,030
-151,877	-102,373	-0,113	-0,020
-150,862	-200,000	-0,016	-0,089
-149,847	-62,043	-0,070	-0,021
-148,833	224,876	-0,048	0,057
-147,818	109,622	0,076	0,066
-146,804	-63,980	0,134	-0,040
-145,789	74,365	-0,124	0,095
-144,775	261,604	0,082	0,103
-143,760	-200,000	0,005	0,056
-142,745	95,735	-0,102	-0,085
-141,731	7,868	0,028	0,015
-140,716	443,087	0,023	-0,037
-139,702	-32,058	0,189	0,077
-138,687	-33,652	0,085	-0,034
-137,672	-143,416	0,094	-0,006
-136,658	41,220	-0,159	-0,105
-135,643	-143,262	-0,260	-0,018
-134,629	-10,657	0,088	-0,042
-133,614	-200,000	0,003	-0,073
-132,599	270,747	0,048	-0,062
-131,585	137,898	0,076	0,072
-130,570	238,250	-0,028	-0,034
-129,556	-61,444	-0,168	0,051
-128,541	800,000	0,079	-0,170
-127,526	260,261	0,071	-0,090
-126,512	-123,624	-0,042	0,005
-125,497	397,639	0,104	-0,158
-124,483	800,000	0,042	0,119
-123,468	800,000	0,042	-0,118
-122,453	-105,480	-0,105	-0,017
-121,439	800,000	0,040	0,083
-120,424	-116,187	0,053	-0,007
-119,410	-200,000	-0,006	-0,076
-118,395	-71,154	0,114	0,031
-117,380	-105,943	0,104	0,017
-116,366	-77,638	-0,117	-0,029
-115,351	208,321	-0,066	0,075
-114,337	-200,000	0,003	0,018
-113,322	-55,911	0,103	-0,033
-112,307	800,000	0,075	0,181
-111,293	526,556	-0,027	0,047
-110,278	-4,866	0,074	0,037
-109,264	1,142	0,050	-0,026
-108,249	166,008	-0,076	-0,078
-107,234	77,770	-0,125	-0,097
-106,220	302,472	0,055	0,074
-105,205	192,843	-0,034	-0,037
-104,191	184,318	0,035	-0,037
-103,176	800,000	0,043	0,128
-102,162	-200,000	0,002	-0,102
-101,147	84,805	-0,118	-0,094
-100,132	41,921	-0,182	0,120
-99,118	-35,148	-0,097	0,038
-98,103	566,618	-0,051	0,090
-97,089	-200,000	-0,015	-0,115
-96,074	-10,008	-0,094	0,045
-95,059	-200,000	-0,007	0,194
-94,045	365,384	0,012	0,017
-93,030	213,415	0,059	-0,068
-92,016	-51,091	-0,055	0,019
-91,001	800,000	0,064	0,130
-89,986	800,000	-0,017	-0,038
-88,972	-200,000	-0,005	0,102
-87,957	-183,356	0,068	0,001
-86,943	17,934	-0,033	0,019
-85,928	356,389	-0,061	-0,088
-84,913	800,000	-0,040	-0,092
-83,899	-200,000	0,009	0,031
-82,884	211,342	0,095	0,108
-81,870	800,000	0,020	-0,042
-80,855	800,000	-0,006	-0,015
-79,840	-193,172	0,021	-0,000
-78,826	-195,175	-0,075	-0,000
-77,811	-4,898	-0,112	-0,056
-76,797	460,852	0,047	0,076
-75,782	-200,000	-0,034	-0,144
-74,767	24,875	0,040	-0,024
-73,753	800,000	-0,017	-0,040
-72,738	179,672	0,102	-0,109
-71,724	800,000	-0,059	-0,124
-70,709	375,347	-0,045	-0,067
-69,694	-200,000	0,007	-0,077
-68,680	-114,648	0,040	0,006
-67,665	-162,162	0,128	-0,005
-66,651	449,168	0,113	0,182
-65,636	96,802	-0,066	0,055
-64,622	800,000	0,024	0,058
-63,607	-200,000	0,009	-0,122
-62,592	34,240	0,076	-0,048
-61,578	-200,000	0,021	0,107
-60,563	-99,117	0,041	0,007
-59,549	-105,647	-0,106	0,017
-58,534	-143,274	-1,335	-0,092
-57,519	800,000	-0,687	-1,565
-56,505	-200,000	-0,974	-4,476
-55,490	98,852	0,587	-0,491
-54,476	800,000	5,054	11,770
-53,461	-200,000	13,466	252,866
-52,446	-200,000	689,734	2257,725
-51,432	590,164	1622,307	2915,431
-50,417	119,083	1634,864	1467,008
-49,403	73,134	1288,866	976,786
-48,388	37,943	1024,175	659,367
-47,373	24,285	981,725	587,117
-46,359	23,507	971,299	578,310
-45,344	22,556	967,269	572,778
-44,330	22,455	965,785	571,546
-43,315	22,398	964,192	570,396
-42,300	22,366	963,262	569,718
-41,286	22,320	962,300	568,978
-40,271	22,298	961,361	568,328
-39,257	22,358	960,306	567,879
-38,242	22,273	959,571	567,144
-37,227	22,345	958,571	566,764
-36,213	22,277	957,758	566,040
-35,198	22,270	956,944	565,516
-34,184	22,340	956,230	565,296
-33,169	22,340	955,187	564,657
-32,154	22,334	954,607	564,274
-31,140	22,331	953,607	563,648
-30,125	22,356	952,680	563,161
-29,111	22,382	951,820	562,714
-28,096	22,390	951,234	562,369
-27,082	22,335	950,642	561,822
-26,067	22,378	949,720	561,391
-25,052	22,316	949,179	560,852
-24,038	22,292	948,521	560,362
-23,023	22,325	948,023	560,150
-22,009	22,431	947,003	559,865
-20,994	22,431	946,503	559,548
-19,979	22,406	945,864	559,068
-18,965	22,404	945,424	558,780
-17,950	22,408	944,701	558,342
-16,936	22,291	944,036	557,555
-15,921	22,294	943,329	557,124
-14,906	22,272	942,518	556,553
-13,892	22,217	942,008	556,056
-12,877	22,231	941,317	555,668
-11,863	22,206	940,659	555,180
-10,848	22,190	940,286	554,887
-9,833	22,327	939,645	554,923
-8,819	22,291	939,135	554,484
-7,804	22,229	938,315	553,780
-6,790	22,237	937,785	553,471
-5,775	22,272	937,199	553,214
-4,760	22,230	936,602	552,709
-3,746	22,242	935,964	552,348
-2,731	22,071	935,375	551,439
-1,717	22,058	934,635	550,939
-0,702	22,117	933,671	550,534
0,313	21,861	933,125	550,235
1,327	25,026	931,148	558,972
2,342	34,656	795,994	503,487
3,356	32,628	451,787	282,685
4,371	1,513	293,947	152,855
5,386	-2,759	274,802	138,843
6,400	-4,403	269,139	134,443
7,415	-5,024	266,667	132,624
8,429	-4,403	265,289	132,495
9,444	-4,500	264,566	132,034
10,459	-4,594	264,056	131,682
11,473	-4,621	263,353	131,296
12,488	-4,616	262,842	131,034
13,502	-4,922	262,266	130,457
14,517	-4,819	261,925	130,369
15,531	-4,641	261,500	130,307
16,546	-4,714	261,239	130,100
17,561	-4,470	260,795	130,086
18,575	-4,549	260,402	129,808
19,590	-4,648	260,040	129,527
20,604	-4,766	259,957	129,368
21,619	-4,686	259,460	129,181
22,634	-4,713	259,153	128,993
23,648	-4,568	258,822	128,946
24,663	-4,666	258,680	128,776
25,677	-4,732	258,447	128,590
26,692	-4,727	258,138	128,429
27,707	-4,697	257,832	128,292
28,721	-4,688	257,561	128,154
29,736	-4,804	257,351	127,935
30,750	-4,703	257,043	127,860
31,765	-4,822	256,706	127,576
32,780	-4,848	256,660	127,518
33,794	-4,920	256,366	127,297
34,809	-4,742	256,087	127,304
35,823	-4,674	255,974	127,297
36,838	-4,932	255,668	126,906
37,853	-5,018	255,434	126,703
38,867	-4,966	255,218	126,630
39,882	-4,930	255,165	126,624
40,896	-4,916	254,815	126,451
41,911	-4,856	254,637	126,405
42,926	-4,644	254,253	126,388
43,940	-4,961	253,939	125,943
44,955	-4,935	253,812	125,892
45,969	-4,734	253,597	125,949
46,984	-5,257	253,328	125,349
47,999	-5,351	253,057	125,122
49,013	-5,491	252,909	124,915
50,028	-5,518	252,724	124,789
51,042	-5,588	252,391	124,554
52,057	-5,636	252,183	124,398
53,071	-5,517	252,000	124,400
54,086	-5,471	251,772	124,316
55,101	-5,190	251,485	124,406
56,115	-5,135	251,493	124,447
57,130	-4,850	251,447	124,659
58,144	-4,570	251,233	124,784
59,159	-4,507	251,015	124,719
60,174	-4,538	250,882	124,615
61,188	-4,627	250,622	124,398
62,203	-4,649	250,577	124,345
63,217	-4,647	250,317	124,207
64,232	-4,657	250,038	124,049
65,247	-4,732	249,832	123,872
66,261	-4,798	249,738	123,757
67,276	-5,042	249,371	123,356
68,290	-5,126	249,044	123,111
69,305	-5,265	248,958	122,939
70,320	-5,225	248,675	122,822
71,334	-4,899	248,484	122,995
72,349	-4,613	248,335	123,154
73,363	-4,457	248,273	123,245
74,378	-4,575	248,014	123,004
75,393	-4,588	247,797	122,875
76,407	-4,758	247,635	122,640
77,422	-4,781	247,446	122,516
78,436	-4,787	247,184	122,370
79,451	-4,674	246,899	122,314
80,466	-4,621	246,645	122,221
81,480	-5,107	246,593	121,773
82,495	-4,902	246,381	121,832
83,509	-4,792	246,246	121,847
84,524	-5,088	245,973	121,451
85,539	-5,059	245,616	121,289
86,553	-4,917	245,502	121,341
87,568	-5,180	245,408	121,062
88,582	-5,047	245,203	121,062
89,597	-4,931	244,955	121,026
90,611	-4,857	244,887	121,044
91,626	-4,610	244,776	121,185
92,641	-4,920	244,604	120,830
93,655	-4,824	244,429	120,813
94,670	-4,858	244,169	120,645
95,684	-4,736	243,878	120,593
96,699	-5,050	243,845	120,303
97,714	-4,845	243,566	120,326
98,728	-4,946	243,283	120,092
99,743	-4,932	242,992	119,949
100,757	-5,121	242,988	119,778
101,772	-5,155	242,810	119,652
102,787	-4,973	242,520	119,650
103,801	-4,921	242,376	119,611
104,816	-4,726	242,296	119,722
105,830	-4,817	242,236	119,607
106,845	-4,506	241,950	119,712
107,860	-4,711	241,825	119,470
108,874	-4,924	241,591	119,168
109,889	-4,951	241,400	119,041
110,903	-4,995	241,218	118,904
111,918	-5,051	241,004	118,742
112,933	-4,863	240,867	118,819
113,947	-4,831	240,801	118,802
114,962	-4,893	240,558	118,620
115,976	-4,761	240,264	118,573
116,991	-4,855	240,203	118,455
118,006	-4,696	240,028	118,488
119,020	-4,879	239,872	118,251
120,035	-4,887	239,828	118,213
121,049	-4,500	239,574	118,394
122,064	-4,761	239,360	118,064
123,079	-4,841	239,193	117,906
124,093	-5,012	239,020	117,670
125,108	-4,846	238,682	117,629
126,122	-5,047	238,376	117,303
127,137	-5,228	238,301	117,108
128,151	-5,171	238,191	117,091
129,166	-5,313	238,108	116,924
130,181	-5,047	237,837	116,996
131,195	-5,163	237,705	116,827
132,210	-5,178	237,692	116,798
133,224	-4,824	237,441	116,951
134,239	-4,760	237,249	116,898
135,254	-4,853	237,046	116,712
136,268	-4,789	236,848	116,657
137,283	-5,213	236,630	116,196
138,297	-5,347	236,369	115,950
139,312	-5,125	236,219	116,044
140,327	-5,088	236,185	116,047
141,341	-4,423	236,151	116,556
142,356	-4,645	236,049	116,316
143,370	-4,504	235,744	116,269
144,385	-4,306	235,582	116,338
145,400	-4,300	235,464	116,274
146,414	-4,312	235,412	116,228
147,429	-4,599	235,192	115,879
148,443	-4,440	234,862	115,834
149,458	-4,536	234,912	115,771
150,473	-4,682	234,748	115,564
151,487	-4,706	234,499	115,411
152,502	-4,693	234,359	115,342
153,516	-4,423	234,156	115,447
154,531	-4,559	234,024	115,264
155,546	-4,719	233,668	114,951
156,560	-4,574	233,650	115,047
157,575	-4,789	233,500	114,791
158,589	-4,704	233,323	114,762
159,604	-4,367	233,184	114,951
160,619	-4,459	233,049	114,802
161,633	-4,436	232,804	114,689
162,648	-4,710	232,848	114,483
163,662	-4,392	232,596	114,601
164,677	-4,703	232,533	114,313
165,692	-4,456	232,211	114,340
166,706	-4,575	232,138	114,200
167,721	-4,402	231,962	114,240
168,735	-4,383	231,829	114,179
169,750	-4,197	231,522	114,164
170,764	-4,562	231,501	113,856
171,779	-4,424	231,347	113,879
172,794	-4,315	231,259	113,911
173,808	-4,647	230,914	113,470
174,823	-4,989	230,587	113,031
175,837	-5,090	230,462	112,880
176,852	-4,678	230,453	113,189
177,867	-4,738	230,435	113,123
178,881	-4,256	230,073	113,313
179,896	-4,474	230,124	113,157
180,910	-4,324	229,914	113,161
181,925	-4,387	229,731	113,012
182,940	-4,566	229,635	112,814
183,954	-4,340	229,511	112,920
184,969	-4,297	229,559	112,967
185,983	-4,209	229,206	112,851
186,998	-4,385	229,022	112,614
188,013	-4,247	228,862	112,633
189,027	-4,141	228,749	112,649
190,042	-4,259	228,606	112,477
191,056	-4,144	228,381	112,445
192,071	-4,020	228,247	112,466
193,086	-4,281	228,105	112,184
194,100	-4,492	227,933	111,926
195,115	-4,630	227,677	111,683
196,129	-5,508	227,227	110,775
197,144	-2,411	228,379	113,728
198,159	2,395	229,668	118,097
199,173	4,389	230,069	119,842
200,188	4,394	229,982	119,790
201,202	4,424	229,798	119,706
202,217	4,395	229,775	119,661
203,232	4,853	229,594	119,911
204,246	4,612	229,429	119,628
205,261	4,998	229,254	119,825
206,275	5,114	229,162	119,855
207,290	4,783	229,119	119,567
208,304	5,095	228,840	119,651
209,319	5,006	228,640	119,467
210,334	4,940	228,463	119,312
211,348	4,646	228,299	118,990
212,363	4,192	228,143	118,549
213,377	4,002	227,886	118,259
214,392	4,099	227,814	118,286
215,407	4,335	227,387	118,234
216,421	4,344	227,386	118,231
217,436	4,051	227,254	117,927
218,450	4,118	226,854	117,760
219,465	3,767	226,841	117,474
220,480	3,786	226,807	117,461
221,494	4,002	226,427	117,418
222,509	4,033	226,447	117,442
223,523	4,051	226,223	117,329
224,538	3,808	226,047	117,042
225,553	3,947	226,048	117,138
226,567	4,323	225,863	117,318
227,582	4,353	225,884	117,341
228,596	4,408	225,623	117,237
229,611	4,216	225,497	117,014
230,626	3,932	225,227	116,649
231,640	4,089	225,210	116,749
232,655	4,334	225,061	116,847
233,669	4,719	225,091	117,144
234,684	4,797	224,954	117,120
235,699	4,424	224,672	116,681
236,713	4,313	224,539	116,519
237,728	4,081	224,330	116,224
238,742	3,871	224,102	115,937
239,757	4,087	223,999	116,037
240,772	4,181	223,707	115,946
241,786	4,210	223,613	115,909
242,801	4,152	223,561	115,827
243,815	4,261	223,692	115,967
244,830	4,428	223,507	115,986
245,844	3,939	223,235	115,468
246,859	4,049	223,106	115,474
247,874	4,588	223,018	115,822
248,888	4,534	222,666	115,589
249,903	3,956	222,629	115,126
250,917	3,994	222,403	115,027
251,932	4,013	222,290	114,973
252,947	4,024	222,011	114,826
253,961	4,077	221,892	114,794
254,976	4,151	221,867	114,826
255,990	4,360	221,830	114,952
257,005	4,320	221,557	114,772
258,020	4,343	221,443	114,718
259,034	4,506	221,344	114,779
260,049	4,419	221,226	114,643
261,063	4,488	220,897	114,513
262,078	4,442	220,954	114,498
263,093	4,646	220,819	114,570
264,107	4,212	220,568	114,108
265,122	4,408	220,438	114,175
266,136	4,707	220,427	114,381
267,151	4,675	220,211	114,234
268,166	4,167	220,044	113,762
269,180	4,038	219,734	113,497
270,195	3,940	219,623	113,357
271,209	3,859	219,558	113,254
272,224	4,092	219,341	113,303
273,239	4,104	219,398	113,332
274,253	4,061	219,204	113,190
275,268	3,980	218,856	112,941
276,282	3,648	218,730	112,622
277,297	3,774	218,682	112,679
278,312	3,878	218,582	112,694
279,326	3,954	218,468	112,680
280,341	4,051	218,365	112,689
281,355	4,129	218,252	112,677
282,370	4,172	218,020	112,579
283,384	3,792	217,736	112,145
284,399	3,715	217,590	112,004
285,414	3,720	217,497	111,950
286,428	4,147	217,509	112,257
287,443	4,308	217,432	112,324
288,457	4,394	217,249	112,282
289,472	4,246	216,935	112,003
290,487	3,525	216,776	111,387
291,501	3,596	216,642	111,360
292,516	3,801	216,641	111,498
293,530	3,958	216,435	111,495
294,545	4,000	216,156	111,372
295,560	3,880	216,293	111,347
296,574	3,938	216,128	111,293
297,589	3,902	215,922	111,151
298,603	4,055	215,888	111,234
299,618	4,016	215,747	111,124
300,633	4,061	215,580	111,060
301,647	4,407	215,397	111,206
302,662	4,460	215,233	111,149
303,676	4,340	215,166	111,018
304,691	4,139	215,130	110,845
305,706	4,436	214,908	110,934
306,720	4,564	214,722	110,920
307,735	4,127	214,600	110,533
308,749	3,937	214,434	110,302
309,764	4,365	214,328	110,544
310,779	4,451	214,103	110,480
311,793	4,228	214,094	110,306
312,808	4,241	213,799	110,154
313,822	4,028	213,667	109,924
314,837	4,224	213,586	110,012
315,852	4,011	213,398	109,753
316,866	4,170	213,225	109,768
317,881	4,426	213,156	109,905
318,895	4,501	213,022	109,879
319,910	4,080	213,013	109,565
320,925	3,696	212,728	109,136
321,939	3,684	212,506	109,004
322,954	3,854	212,334	109,026
323,968	4,037	212,428	109,195
324,983	4,349	212,168	109,272
325,997	4,168	212,226	109,165
327,012	4,166	212,020	109,048
328,027	4,230	211,865	109,004
329,041	4,503	211,877	109,193
330,056	4,907	211,660	109,357
331,070	4,262	211,418	108,766
332,085	3,772	211,281	108,341
333,100	3,759	211,138	108,249
334,114	4,247	211,032	108,529
335,129	4,127	210,731	108,280
336,143	3,816	210,684	108,027
337,158	4,050	210,559	108,118
338,173	4,036	210,407	108,020
339,187	3,858	210,269	107,815
340,202	3,679	210,058	107,572
341,216	3,588	210,001	107,469
342,231	4,047	209,867	107,712
343,246	3,799	209,715	107,452
344,260	3,972	209,645	107,527
345,275	3,920	209,645	107,481
346,289	4,110	209,434	107,496
347,304	3,943	209,451	107,378
348,319	4,128	209,117	107,327
349,333	4,162	209,077	107,320
350,348	4,076	208,919	107,169
351,362	4,206	208,906	107,244
352,377	4,294	208,725	107,203
353,392	4,149	208,406	106,929
354,406	4,157	208,438	106,941
355,421	193,245	1345,395	1431,973
356,435	154,164	1484,012	1432,095
