DTS Sentinel unit serial number:	SN410029Multiplexer serial number:	ORYXHardware model number:	OX2-SRSoftware version number:	ORYX F/W v4,00 Oryx Data Collector v3.7.2.0data status	okinstallation	B6 Nyhavnadifferential loss correction	single-endedforward channel	channel 2reverse channel	N/Adate	2023/12/07time	20:35:08forward acquisition time	300,00reverse acquisition time	0,00gamma	499,1914k internal	0,3165k external	0,3165temperature offset calibration	1,0000default loss term (dB/km)	0,3820temperature slope calibration	1,0000multiplexer offset coefficient	1,0000multiplexer slope coefficient	1,0000fibre end	0,00T internal ref (°C)	13,81T ext. ref 1 (°C)	-3,12T ext. ref 2 (°C)	-3,12length (m)	temperature (°C)	Stokes	anti-Stokes-744,400	-139,529	0,115	-0,009
-743,385	-86,617	-0,290	0,065
-742,371	23,794	0,116	-0,070
-741,356	-173,717	-0,387	-0,008
-740,342	-38,172	0,075	0,029
-739,327	-133,971	-0,482	0,043
-738,312	297,672	-0,058	-0,078
-737,298	-49,639	-0,291	-0,101
-736,283	800,000	0,029	0,065
-735,269	-144,907	-0,088	-0,006
-734,254	537,038	0,039	0,069
-733,239	-41,583	-0,519	-0,195
-732,225	-147,460	0,133	0,008
-731,210	800,000	0,030	0,085
-730,196	80,060	-0,079	-0,062
-729,181	-71,336	-0,109	0,030
-728,167	800,000	0,027	-0,070
-727,152	-200,000	-0,014	0,144
-726,137	-200,000	0,003	0,159
-725,123	-200,000	-0,056	-0,197
-724,108	800,000	0,032	-0,090
-723,094	-73,848	-0,111	-0,029
-722,079	-200,000	-0,008	-0,112
-721,064	800,000	-0,081	-0,173
-720,050	434,564	0,038	-0,061
-719,035	13,877	-0,158	-0,090
-718,021	-200,000	-0,015	-0,068
-717,006	623,047	-0,081	-0,151
-715,991	-43,274	-0,047	-0,017
-714,977	547,876	0,040	-0,071
-713,962	-200,000	0,023	0,086
-712,948	-200,000	0,001	0,042
-711,933	236,829	0,009	0,011
-710,918	564,054	0,040	0,071
-709,904	-23,665	-0,072	-0,031
-708,889	191,329	-0,077	-0,086
-707,875	-126,260	0,089	-0,010
-706,860	326,630	0,070	-0,099
-705,845	-46,468	-0,162	0,058
-704,831	-200,000	0,031	-0,115
-703,816	-200,000	-0,002	0,055
-702,802	-67,669	-0,053	0,015
-701,787	-200,000	0,005	-0,039
-700,772	-67,090	-0,088	0,025
-699,758	800,000	-0,029	0,075
-698,743	581,652	0,103	0,186
-697,729	-24,140	0,097	0,042
-696,714	325,904	-0,044	-0,062
-695,699	28,591	0,026	-0,016
-694,685	-200,000	-0,021	-0,136
-693,670	714,336	-0,054	-0,106
-692,656	162,053	-0,074	0,077
-691,641	-200,000	-0,018	0,059
-690,627	-40,278	-0,028	0,011
-689,612	171,055	-0,023	0,024
-688,597	800,000	0,022	-0,058
-687,583	-200,000	0,006	-0,117
-686,568	-88,914	-0,079	-0,017
-685,554	-200,000	0,004	-0,099
-684,539	-82,682	0,142	0,034
-683,524	107,543	0,047	-0,041
-682,510	-200,000	-0,023	-0,076
-681,495	246,370	0,059	0,073
-680,481	119,610	0,123	-0,112
-679,466	450,296	-0,066	-0,108
-678,451	744,008	-0,097	-0,193
-677,437	139,801	-0,069	-0,067
-676,422	258,683	-0,057	-0,073
-675,408	30,764	-0,010	-0,007
-674,393	-200,000	-0,008	0,056
-673,378	38,693	-0,068	0,045
-672,364	403,110	-0,116	-0,180
-671,349	-200,000	-0,027	-0,153
-670,335	800,000	-0,022	-0,058
-669,320	800,000	0,075	0,187
-668,305	-103,803	0,064	-0,011
-667,291	40,557	0,086	-0,057
-666,276	270,044	-0,069	-0,089
-665,262	800,000	-0,065	-0,139
-664,247	182,559	0,108	-0,117
-663,232	-200,000	0,005	-0,114
-662,218	783,428	0,029	0,059
-661,203	-161,411	0,045	0,002
-660,189	-112,217	0,083	0,012
-659,174	800,000	0,025	0,075
-658,159	279,255	0,066	-0,086
-657,145	19,616	-0,141	-0,083
-656,130	423,051	0,067	0,105
-655,116	-200,000	0,003	0,206
-654,101	-2,313	0,058	0,030
-653,086	132,164	-0,074	-0,070
-652,072	-7,416	0,175	-0,087
-651,057	-24,724	-0,118	-0,051
-650,043	-50,050	-0,028	-0,010
-649,028	541,381	-0,081	-0,142
-648,014	800,000	-0,006	0,018
-646,999	-29,457	0,016	0,007
-645,984	-95,363	0,056	-0,011
-644,970	45,065	0,054	-0,036
-643,955	-144,884	-0,151	0,010
-642,941	800,000	-0,016	-0,045
-641,926	-200,000	-0,042	0,161
-640,911	-55,439	0,035	-0,011
-639,897	800,000	-0,060	0,132
-638,882	153,126	-0,081	0,082
-637,868	-28,271	0,085	0,036
-636,853	185,088	-0,106	0,115
-635,838	469,306	0,012	-0,020
-634,824	-157,165	-0,060	-0,003
-633,809	-4,396	-0,040	0,020
-632,795	-120,588	-0,110	-0,014
-631,780	254,642	-0,034	0,043
-630,765	181,292	0,061	-0,065
-629,751	35,338	0,122	0,078
-628,736	-200,000	0,020	-0,075
-627,722	800,000	0,027	-0,071
-626,707	23,509	-0,107	0,064
-625,692	-200,000	0,006	-0,088
-624,678	621,095	0,009	-0,017
-623,663	-200,000	-0,031	0,108
-622,649	-195,835	0,119	0,001
-621,634	-200,000	0,014	-0,061
-620,619	26,499	-0,100	-0,061
-619,605	275,368	0,024	-0,031
-618,590	278,246	-0,075	0,098
-617,576	51,973	0,018	0,012
-616,561	-89,318	-0,091	0,020
-615,546	-200,000	0,010	-0,082
-614,532	-59,160	-0,118	0,037
-613,517	800,000	-0,035	-0,089
-612,503	-140,161	-0,039	0,003
-611,488	800,000	0,042	0,095
-610,474	-200,000	0,023	0,086
-609,459	-33,309	-0,069	-0,028
-608,444	-200,000	-0,033	-0,195
-607,430	-186,351	0,034	0,000
-606,415	-19,881	-0,076	0,034
-605,401	319,287	0,055	-0,077
-604,386	165,795	0,006	0,006
-603,371	111,532	0,118	0,104
-602,357	-200,000	0,016	-0,127
-601,342	8,291	0,111	-0,061
-600,328	800,000	-0,022	-0,050
-599,313	225,413	0,074	-0,088
-598,298	-117,325	-0,089	-0,012
-597,284	116,554	0,110	0,099
-596,269	-200,000	-0,010	-0,060
-595,255	122,661	-0,092	-0,084
-594,240	800,000	-0,028	-0,073
-593,225	11,433	-0,057	0,032
-592,211	-98,179	-0,198	0,037
-591,196	354,658	0,020	0,030
-590,182	105,836	0,121	-0,105
-589,167	800,000	-0,031	-0,093
-588,152	-31,265	-0,044	-0,018
-587,138	-200,000	-0,006	0,056
-586,123	39,117	-0,073	-0,048
-585,109	86,995	0,098	0,080
-584,094	-200,000	0,008	-0,112
-583,079	34,593	0,089	-0,056
-582,065	-166,508	0,095	-0,003
-581,050	-119,780	-0,030	0,004
-580,036	-20,857	0,080	0,036
-579,021	-200,000	0,006	-0,029
-578,006	-49,106	-0,110	-0,038
-576,992	6,105	0,103	-0,056
-575,977	800,000	0,022	0,050
-574,963	670,164	0,017	0,033
-573,948	800,000	0,032	0,072
-572,934	707,449	0,043	0,083
-571,919	-200,000	0,018	0,132
-570,904	180,004	-0,139	-0,149
-569,890	28,906	0,105	-0,065
-568,875	-200,000	-0,011	0,000
-567,861	-200,000	0,010	0,097
-566,846	800,000	-0,048	0,114
-565,831	16,396	-0,098	-0,056
-564,817	-32,556	-0,141	-0,057
-563,802	-19,158	0,047	0,021
-562,788	800,000	0,034	-0,080
-561,773	-111,640	0,023	0,003
-560,758	118,937	-0,071	-0,064
-559,744	-200,000	0,005	0,160
-558,729	39,867	0,128	0,084
-557,715	127,640	-0,030	-0,028
-556,700	-200,000	-0,003	0,088
-555,685	-115,803	0,127	-0,017
-554,671	-200,000	0,011	0,065
-553,656	-144,662	-0,089	-0,006
-552,642	-144,635	0,126	0,008
-551,627	-116,719	-0,044	-0,006
-550,612	142,064	0,034	0,033
-549,598	90,245	-0,085	-0,069
-548,583	129,765	0,046	-0,043
-547,569	74,034	0,028	-0,021
-546,554	-131,962	-0,073	-0,007
-545,539	-128,045	-0,089	0,009
-544,525	714,373	0,008	0,015
-543,510	-26,260	-0,101	-0,043
-542,496	223,375	-0,023	-0,028
-541,481	-147,272	-0,081	0,005
-540,466	202,395	-0,096	-0,108
-539,452	-200,000	-0,004	0,027
-538,437	-44,040	0,105	-0,038
-537,423	9,092	0,045	-0,025
-536,408	-151,407	-0,073	0,004
-535,393	345,203	-0,075	0,107
-534,379	-34,044	0,083	-0,033
-533,364	-87,829	0,079	-0,017
-532,350	800,000	-0,019	-0,050
-531,335	-75,823	0,105	-0,027
-530,321	-57,388	-0,074	0,023
-529,306	800,000	0,052	0,155
-528,291	-48,332	-0,156	0,055
-527,277	70,312	-0,097	-0,073
-526,262	588,537	-0,015	0,027
-525,248	-35,054	0,082	-0,032
-524,233	142,327	0,082	0,079
-523,218	77,474	0,068	0,053
-522,204	-105,835	0,111	0,018
-521,189	-14,494	-0,139	0,065
-520,175	-121,453	-0,052	-0,006
-519,160	800,000	-0,044	-0,135
-518,145	151,837	-0,034	0,033
-517,131	114,811	0,060	0,054
-516,116	531,186	-0,016	0,027
-515,102	-200,000	-0,022	0,100
-514,087	783,079	-0,016	-0,032
-513,072	55,095	0,067	0,047
-512,058	800,000	-0,066	-0,182
-511,043	95,488	-0,010	0,008
-510,029	116,931	0,079	0,071
-509,014	-58,860	0,028	0,009
-507,999	-200,000	0,015	-0,064
-506,985	260,103	-0,060	-0,076
-505,970	-12,567	0,057	0,027
-504,956	-68,478	-0,127	-0,036
-503,941	-200,000	0,011	-0,035
-502,926	800,000	0,009	-0,023
-501,912	-200,000	-0,025	0,145
-500,897	21,584	-0,112	0,066
-499,883	-200,000	-0,003	0,022
-498,868	-200,000	-0,021	0,115
-497,853	-200,000	-0,056	0,000
-496,839	800,000	0,067	-0,137
-495,824	478,754	0,057	0,095
-494,810	152,546	0,026	0,026
-493,795	47,276	0,035	0,024
-492,781	-142,557	0,045	0,003
-491,766	88,943	-0,083	-0,067
-490,751	-200,000	0,010	-0,161
-489,737	-24,557	-0,053	0,023
-488,722	91,904	-0,118	0,097
-487,708	-0,080	-0,015	0,008
-486,693	-110,067	0,094	0,014
-485,678	-48,728	-0,077	0,027
-484,664	270,948	-0,061	0,079
-483,649	800,000	0,050	0,103
-482,635	488,331	-0,027	0,046
-481,620	235,522	0,093	0,112
-480,605	50,423	-0,099	0,068
-479,591	-200,000	-0,001	0,123
-478,576	240,707	0,075	0,091
-477,562	-200,000	0,031	-0,102
-476,547	447,294	0,029	-0,046
-475,532	36,718	-0,176	0,113
-474,518	44,363	0,165	0,110
-473,503	-80,839	0,153	-0,037
-472,489	-200,000	-0,013	-0,075
-471,474	144,364	-0,100	0,097
-470,459	37,826	0,104	0,067
-469,445	495,243	0,052	-0,088
-468,430	-80,466	-0,029	-0,007
-467,416	205,557	-0,025	0,028
-466,401	212,368	0,085	0,098
-465,386	-46,923	0,065	0,023
-464,372	-98,201	-0,126	-0,023
-463,357	-102,075	0,014	-0,002
-462,343	67,843	-0,069	-0,051
-461,328	-39,297	-0,060	0,023
-460,313	-97,042	0,099	0,019
-459,299	-125,426	0,132	-0,014
-458,284	-5,027	0,090	0,045
-457,270	30,893	-0,033	0,021
-456,255	80,631	-0,119	-0,093
-455,241	-103,289	-0,155	-0,026
-454,226	217,127	0,050	-0,058
-453,211	800,000	0,041	-0,101
-452,197	800,000	-0,044	0,133
-451,182	-200,000	0,050	0,163
-450,168	86,824	0,013	0,011
-449,153	139,673	0,006	-0,006
-448,138	-200,000	0,013	0,047
-447,124	412,654	0,015	0,023
-446,109	-64,167	0,067	-0,020
-445,095	491,443	-0,034	0,057
-444,080	28,920	-0,052	-0,032
-443,065	800,000	-0,040	0,095
-442,051	-46,686	0,069	0,025
-441,036	350,139	-0,072	-0,104
-440,022	800,000	-0,044	0,101
-439,007	82,412	0,047	0,037
-437,992	-104,317	0,076	-0,013
-436,978	708,362	-0,069	0,133
-435,963	13,867	-0,067	0,038
-434,949	46,538	-0,110	-0,074
-433,934	127,519	-0,065	-0,060
-432,919	-200,000	-0,046	-0,173
-431,905	800,000	-0,006	-0,017
-430,890	800,000	0,029	0,086
-429,876	-85,591	0,181	0,040
-428,861	114,394	0,029	0,026
-427,846	46,794	0,064	-0,043
-426,832	22,736	0,073	-0,044
-425,817	-99,181	-0,153	-0,028
-424,803	-143,640	0,063	-0,004
-423,788	15,309	-0,138	0,078
-422,773	-100,521	0,084	-0,015
-421,759	-27,412	-0,115	0,048
-420,744	-128,740	0,126	0,013
-419,730	-41,143	-0,173	-0,065
-418,715	-22,401	0,062	0,027
-417,701	-53,342	-0,055	0,018
-416,686	-21,830	0,115	-0,051
-415,671	-63,333	0,109	0,032
-414,657	125,211	-0,033	0,030
-413,642	800,000	0,049	0,140
-412,628	521,281	0,043	0,073
-411,613	-200,000	-0,027	0,129
-410,598	82,220	-0,088	0,069
-409,584	20,947	0,008	-0,005
-408,569	117,751	0,094	-0,084
-407,555	-200,000	0,001	0,124
-406,540	-63,049	-0,122	-0,036
-405,525	68,884	0,107	0,079
-404,511	-80,320	0,178	-0,043
-403,496	-74,974	0,082	0,021
-402,482	-76,370	0,097	0,025
-401,467	-151,489	0,074	-0,004
-400,452	-117,025	0,036	0,005
-399,438	-200,000	-0,014	-0,172
-398,423	30,346	-0,173	0,107
-397,409	284,855	-0,089	0,116
-396,394	-49,849	-0,140	-0,048
-395,379	280,341	0,077	0,100
-394,365	30,538	0,206	0,127
-393,350	16,158	0,048	-0,028
-392,336	-40,001	-0,134	0,050
-391,321	800,000	0,024	0,050
-390,306	800,000	0,033	0,100
-389,292	16,189	-0,143	-0,081
-388,277	-200,000	-0,009	0,041
-387,263	273,420	-0,054	0,070
-386,248	-200,000	0,039	0,192
-385,233	1,612	-0,038	-0,020
-384,219	-18,882	-0,088	0,040
-383,204	160,833	-0,063	-0,064
-382,190	270,019	-0,039	-0,050
-381,175	-90,775	0,051	0,011
-380,160	249,170	-0,035	-0,044
-379,146	-167,172	0,118	-0,003
-378,131	-200,000	-0,029	0,151
-377,117	50,560	0,052	0,036
-376,102	274,938	-0,070	-0,090
-375,088	322,649	-0,030	0,042
-374,073	-49,497	-0,191	-0,066
-373,058	-33,227	0,086	-0,034
-372,044	786,139	0,061	0,123
-371,029	-200,000	0,009	-0,052
-370,015	-200,000	-0,010	-0,110
-369,000	87,994	-0,065	0,052
-367,985	403,954	-0,032	0,050
-366,971	-200,000	-0,000	-0,104
-365,956	-24,592	0,080	-0,034
-364,942	-71,104	0,055	0,015
-363,927	-81,207	0,067	-0,016
-362,912	-200,000	0,006	0,122
-361,898	89,896	0,089	-0,072
-360,883	-200,000	0,066	-0,260
-359,869	0,653	-0,021	0,011
-358,854	225,455	0,108	0,127
-357,839	-86,053	-0,088	0,019
-356,825	367,275	-0,090	-0,132
-355,810	-200,000	0,020	0,100
-354,796	297,525	-0,104	-0,139
-353,781	-200,000	0,000	-0,093
-352,766	42,400	-0,054	-0,035
-351,752	165,091	-0,067	-0,069
-350,737	-200,000	-0,008	0,066
-349,723	-4,559	0,062	-0,031
-348,708	-170,968	-0,096	0,002
-347,693	800,000	-0,067	0,160
-346,679	-200,000	0,012	-0,045
-345,664	-60,337	-0,063	0,019
-344,650	-200,000	-0,003	-0,086
-343,635	33,703	0,041	-0,025
-342,620	800,000	-0,048	-0,109
-341,606	800,000	0,029	0,062
-340,591	238,912	-0,076	0,092
-339,577	307,088	-0,150	-0,203
-338,562	19,918	0,092	-0,053
-337,548	800,000	0,036	0,089
-336,533	-200,000	-0,044	-0,177
-335,518	800,000	-0,047	0,095
-334,504	216,958	0,071	0,082
-333,489	27,309	0,018	0,011
-332,475	175,280	0,084	-0,088
-331,460	374,988	0,071	-0,105
-330,445	-65,961	-0,085	0,024
-329,431	209,052	0,097	-0,110
-328,416	-200,000	0,002	0,106
-327,402	-200,000	-0,006	-0,037
-326,387	-200,000	0,012	0,052
-325,372	-200,000	0,052	0,199
-324,358	-168,248	-0,167	-0,005
-323,343	800,000	0,021	0,061
-322,329	800,000	0,017	0,050
-321,314	229,838	-0,069	0,081
-320,299	-200,000	-0,018	-0,075
-319,285	216,016	0,111	-0,128
-318,270	75,180	-0,085	0,065
-317,256	-151,694	-0,061	-0,003
-316,241	14,819	0,081	0,046
-315,226	476,551	0,071	-0,117
-314,212	-114,569	0,013	-0,002
-313,197	153,681	0,070	-0,069
-312,183	16,391	0,022	-0,012
-311,168	128,574	-0,075	-0,069
-310,153	-94,877	0,084	-0,016
-309,139	162,532	0,015	0,015
-308,124	-39,692	0,083	-0,031
-307,110	800,000	-0,019	0,042
-306,095	-200,000	-0,004	0,152
-305,080	800,000	0,055	-0,127
-304,066	-18,009	-0,052	0,024
-303,051	28,672	0,087	-0,053
-302,037	94,714	-0,081	-0,066
-301,022	491,313	-0,041	0,068
-300,008	154,348	0,081	-0,080
-298,993	744,021	-0,086	0,168
-297,978	41,673	0,077	0,050
-296,964	-32,230	-0,144	-0,058
-295,949	-28,426	0,087	-0,036
-294,935	152,784	-0,143	-0,142
-293,920	-200,000	0,012	0,148
-292,905	66,341	-0,032	-0,024
-291,891	14,218	0,099	0,056
-290,876	257,148	0,050	0,063
-289,862	-200,000	0,005	-0,053
-288,847	-200,000	0,023	-0,150
-287,832	212,205	-0,097	0,110
-286,818	-200,000	0,005	-0,095
-285,803	-200,000	-0,023	0,076
-284,789	86,630	-0,088	-0,070
-283,774	70,315	0,029	0,022
-282,759	-78,540	0,088	0,022
-281,745	42,381	-0,036	0,024
-280,730	-200,000	-0,007	-0,155
-279,716	0,448	0,169	-0,087
-278,701	-200,000	0,013	0,047
-277,686	-73,087	0,091	-0,024
-276,672	-98,696	-0,032	0,006
-275,657	800,000	0,005	0,013
-274,643	-66,586	0,059	0,017
-273,628	748,987	-0,008	-0,016
-272,613	-69,573	-0,109	-0,030
-271,599	800,000	0,064	0,138
-270,584	-38,305	0,192	0,073
-269,570	-200,000	-0,005	0,079
-268,555	15,166	-0,135	0,076
-267,540	-112,744	-0,101	0,014
-266,526	-200,000	0,020	-0,125
-265,511	-125,953	-0,010	0,001
-264,497	-200,000	-0,013	-0,051
-263,482	32,861	0,020	-0,013
-262,467	53,740	0,109	-0,075
-261,453	19,725	-0,046	0,027
-260,438	149,726	-0,101	0,099
-259,424	507,925	0,056	-0,095
-258,409	52,251	-0,068	0,047
-257,395	470,536	0,071	0,115
-256,380	-156,947	0,124	-0,005
-255,365	-200,000	-0,007	0,062
-254,351	132,547	0,049	-0,046
-253,336	436,950	0,055	-0,087
-252,322	-117,973	-0,155	0,020
-251,307	-200,000	0,001	-0,020
-250,292	800,000	0,022	-0,050
-249,278	-144,821	0,173	0,011
-248,263	-65,717	0,034	-0,010
-247,249	51,415	0,083	0,057
-246,234	-111,815	-0,080	0,012
-245,219	580,660	-0,040	0,072
-244,205	800,000	-0,028	-0,060
-243,190	188,004	-0,099	0,107
-242,176	-143,109	0,063	-0,004
-241,161	-200,000	0,023	0,143
-240,146	-110,357	-0,054	-0,008
-239,132	151,933	-0,087	0,086
-238,117	-10,695	-0,097	0,046
-237,103	34,294	-0,105	-0,066
-236,088	481,080	0,048	-0,080
-235,073	-27,409	0,159	-0,066
-234,059	567,760	-0,068	0,120
-233,044	-17,217	0,075	-0,034
-232,030	55,071	0,086	-0,060
-231,015	-107,928	-0,006	0,001
-230,000	-135,942	-0,183	0,015
-228,986	-200,000	0,003	-0,065
-227,971	800,000	-0,017	0,051
-226,957	62,720	0,032	0,023
-225,942	613,911	0,062	-0,113
-224,927	-147,036	0,154	0,009
-223,913	-200,000	-0,008	0,028
-222,898	-39,584	-0,130	0,049
-221,884	108,507	0,022	-0,019
-220,869	800,000	0,043	-0,093
-219,855	234,429	0,012	0,014
-218,840	-200,000	0,007	0,041
-217,825	-200,000	0,025	-0,087
-216,811	-200,000	0,024	-0,171
-215,796	34,044	-0,022	0,014
-214,782	235,958	-0,011	-0,013
-213,767	-27,505	-0,113	0,047
-212,752	-200,000	0,025	0,126
-211,738	-146,974	-0,025	0,002
-210,723	165,685	0,064	-0,065
-209,709	54,138	0,075	-0,052
-208,694	800,000	-0,027	-0,065
-207,679	800,000	0,034	0,106
-206,665	800,000	-0,024	0,050
-205,650	-200,000	0,032	0,122
-204,636	-134,534	-0,145	0,013
-203,621	68,558	0,106	0,078
-202,606	-86,137	-0,081	0,018
-201,592	-200,000	0,033	-0,185
-200,577	19,094	0,079	-0,045
-199,563	92,525	-0,070	0,057
-198,548	-189,822	0,089	0,001
-197,533	-28,910	0,126	0,052
-196,519	119,522	0,113	-0,101
-195,504	-36,992	0,099	-0,038
-194,490	-200,000	-0,009	-0,076
-193,475	800,000	-0,023	-0,055
-192,460	379,568	-0,025	-0,036
-191,446	295,289	-0,017	0,022
-190,431	426,171	-0,030	0,047
-189,417	-200,000	0,001	0,012
-188,402	72,669	0,052	-0,039
-187,387	-17,531	-0,075	-0,034
-186,373	150,456	-0,102	0,100
-185,358	20,590	-0,037	-0,022
-184,344	800,000	0,093	-0,219
-183,329	-92,537	-0,058	-0,012
-182,315	219,166	0,023	-0,027
-181,300	-200,000	-0,006	-0,084
-180,285	119,585	-0,091	-0,081
-179,271	-200,000	-0,010	0,047
-178,256	-9,217	0,065	-0,031
-177,242	-200,000	-0,015	-0,104
-176,227	-81,289	-0,041	-0,010
-175,212	229,873	-0,035	-0,041
-174,198	-18,101	0,065	0,029
-173,183	64,327	0,056	-0,040
-172,169	800,000	-0,060	-0,125
-171,154	800,000	-0,075	-0,211
-170,139	-77,585	0,041	-0,010
-169,125	-42,885	0,040	-0,014
-168,110	-200,000	0,006	-0,029
-167,096	-35,705	-0,078	0,030
-166,081	-161,414	0,058	-0,002
-165,066	-95,051	-0,083	0,016
-164,052	677,090	0,054	-0,101
-163,037	78,142	-0,033	-0,025
-162,023	-200,000	0,019	-0,103
-161,008	100,185	0,002	-0,002
-159,993	-200,000	-0,001	0,118
-158,979	-81,375	0,103	0,024
-157,964	-200,000	-0,022	-0,188
-156,950	-200,000	0,022	-0,137
-155,935	-1,471	0,171	-0,086
-154,920	20,009	0,046	0,026
-153,906	-163,785	0,064	0,002
-152,891	238,987	0,024	-0,029
-151,877	175,837	0,036	-0,038
-150,862	-91,428	-0,111	-0,023
-149,847	253,631	-0,069	0,085
-148,833	269,098	0,114	-0,144
-147,818	690,174	0,052	0,098
-146,804	58,280	0,044	-0,031
-145,789	-200,000	0,012	0,082
-144,775	508,539	-0,090	-0,151
-143,760	42,656	-0,053	0,035
-142,745	-200,000	-0,032	0,108
-141,731	-87,197	0,108	0,023
-140,716	31,997	-0,151	0,094
-139,702	-113,909	0,113	0,016
-138,687	79,656	0,058	0,045
-137,672	185,524	-0,108	0,115
-136,658	-200,000	-0,016	0,075
-135,643	800,000	0,030	-0,081
-134,629	339,327	0,017	-0,024
-133,614	-200,000	-0,017	0,088
-132,599	-200,000	0,021	0,122
-131,585	-20,597	0,040	0,018
-130,570	9,586	0,102	-0,055
-129,556	-126,938	-0,163	0,017
-128,541	-200,000	0,011	-0,101
-127,526	800,000	0,019	-0,049
-126,512	-11,355	-0,163	0,077
-125,497	-200,000	0,018	0,067
-124,483	583,455	-0,013	0,023
-123,468	-70,463	-0,161	0,044
-122,453	800,000	-0,042	-0,089
-121,439	378,761	-0,029	0,043
-120,424	181,927	0,072	0,077
-119,410	331,394	0,024	-0,034
-118,395	757,424	0,054	-0,105
-117,380	-56,449	0,115	-0,036
-116,366	-109,852	0,058	-0,009
-115,351	231,432	-0,073	0,086
-114,337	58,733	0,028	-0,020
-113,322	800,000	-0,039	-0,092
-112,307	-33,630	0,056	0,022
-111,293	-39,100	-0,017	0,006
-110,278	800,000	-0,025	0,068
-109,264	-25,613	-0,073	-0,031
-108,249	86,280	-0,039	-0,031
-107,234	-200,000	-0,017	-0,070
-106,220	-200,000	-0,007	0,029
-105,205	9,724	-0,111	-0,060
-104,191	-54,383	-0,055	0,018
-103,176	-126,248	0,039	-0,004
-102,162	-86,501	0,067	-0,015
-101,147	-109,597	-0,119	-0,018
-100,132	800,000	-0,068	0,213
-99,118	96,323	-0,074	0,061
-98,103	-200,000	0,014	-0,079
-97,089	-200,000	0,006	0,152
-96,074	43,275	0,097	0,063
-95,059	473,234	0,017	0,028
-94,045	-200,000	0,002	-0,060
-93,030	-200,000	0,054	-0,173
-92,016	-100,020	-0,068	-0,012
-91,001	126,764	-0,061	-0,056
-89,986	683,085	0,025	-0,047
-88,972	800,000	-0,043	0,090
-87,957	8,419	0,074	-0,040
-86,943	413,553	-0,039	0,060
-85,928	203,524	-0,045	-0,050
-84,913	-200,000	-0,069	-0,232
-83,899	12,751	0,068	-0,037
-82,884	370,660	0,067	0,098
-81,870	510,945	-0,125	0,209
-80,855	800,000	0,018	-0,046
-79,840	-56,823	0,117	-0,037
-78,826	727,567	-0,025	-0,049
-77,811	515,837	-0,070	-0,118
-76,797	-200,000	-0,005	0,055
-75,782	-60,039	-0,048	-0,014
-74,767	256,211	-0,047	0,057
-73,753	-89,679	0,178	0,037
-72,738	-134,460	-0,138	0,012
-71,724	800,000	0,040	0,110
-70,709	-200,000	-0,003	-0,019
-69,694	-200,000	0,008	-0,049
-68,680	-200,000	0,003	0,059
-67,665	453,029	0,028	-0,045
-66,651	-200,000	-0,114	0,000
-65,636	421,317	-0,009	0,014
-64,622	284,181	-0,060	-0,077
-63,607	-200,000	0,029	-0,242
-62,592	800,000	-0,004	-0,008
-61,578	-200,000	0,025	0,130
-60,563	246,540	0,091	0,111
-59,549	-200,000	0,009	0,038
-58,534	32,924	-2,188	-1,354
-57,519	-200,000	-0,066	-0,774
-56,505	-200,000	-1,387	-5,031
-55,490	133,802	0,914	0,848
-54,476	800,000	5,310	12,039
-53,461	-200,000	18,491	303,612
-52,446	800,000	736,226	2265,547
-51,432	535,030	1649,390	2811,515
-50,417	108,200	1635,283	1396,204
-49,403	71,899	1286,045	956,723
-48,388	29,854	1027,341	625,236
-47,373	19,786	989,284	568,905
-46,359	17,475	976,951	554,231
-45,344	14,212	973,016	541,315
-44,330	14,500	971,664	541,484
-43,315	13,835	969,905	538,313
-42,300	13,802	968,708	537,518
-41,286	13,780	967,987	537,024
-40,271	13,838	966,842	536,559
-39,257	13,814	966,078	536,033
-38,242	13,803	965,216	535,497
-37,227	13,840	964,410	535,150
-36,213	13,820	963,582	534,606
-35,198	13,795	962,495	533,900
-34,184	13,874	961,962	533,839
-33,169	13,837	960,889	533,104
-32,154	13,854	960,030	532,660
-31,140	13,837	958,913	531,964
-30,125	13,835	958,438	531,672
-29,111	13,863	957,569	531,261
-28,096	13,895	956,766	530,898
-27,082	13,810	956,207	530,291
-26,067	13,846	955,480	529,985
-25,052	13,861	954,571	529,505
-24,038	13,859	953,975	529,148
-23,023	13,774	953,412	528,542
-22,009	13,891	952,622	528,459
-20,994	13,842	952,103	527,992
-19,979	13,849	951,505	527,663
-18,965	13,872	950,781	527,314
-17,950	13,814	950,209	526,791
-16,936	13,819	949,563	526,427
-15,921	13,777	948,776	525,837
-14,906	13,707	948,148	525,242
-13,892	13,766	947,500	525,052
-12,877	13,677	946,928	524,429
-11,863	13,691	946,390	524,158
-10,848	13,674	945,858	523,786
-9,833	13,809	945,273	523,869
-8,819	13,784	944,587	523,389
-7,804	13,790	943,987	523,058
-6,790	13,776	943,345	522,637
-5,775	13,800	942,848	522,415
-4,760	13,756	942,276	521,939
-3,746	13,796	941,698	521,723
-2,731	13,642	940,711	520,670
-1,717	13,618	940,179	520,278
-0,702	13,570	939,768	519,880
0,313	13,406	938,987	519,715
1,327	16,863	936,670	529,262
2,342	26,055	788,514	469,701
3,356	22,420	443,220	258,632
4,371	-7,226	295,638	142,893
5,386	-11,075	277,363	130,403
6,400	-12,340	271,613	126,514
7,415	-12,474	269,372	125,336
8,429	-12,696	267,979	124,473
9,444	-12,568	266,898	124,077
10,459	-12,626	266,303	123,737
11,473	-12,967	265,806	123,185
12,488	-12,913	265,062	122,878
13,502	-12,987	264,562	122,568
14,517	-12,983	264,161	122,375
15,531	-12,861	263,699	122,261
16,546	-12,662	263,288	122,238
17,561	-12,581	262,932	122,134
18,575	-12,714	262,695	121,894
19,590	-12,854	262,436	121,637
20,604	-12,787	262,125	121,542
21,619	-12,918	261,788	121,258
22,634	-12,881	261,438	121,119
23,648	-13,024	261,104	120,826
24,663	-12,981	260,829	120,725
25,677	-12,895	260,668	120,716
26,692	-12,795	260,245	120,599
27,707	-12,958	260,012	120,335
28,721	-12,887	259,641	120,216
29,736	-12,858	259,353	120,097
30,750	-12,889	259,064	119,925
31,765	-13,104	258,955	119,675
32,780	-12,988	258,769	119,681
33,794	-13,050	258,450	119,467
34,809	-12,905	258,185	119,462
35,823	-12,857	257,919	119,370
36,838	-12,909	257,622	119,177
37,853	-13,115	257,289	118,832
38,867	-13,011	257,223	118,882
39,882	-13,169	256,945	118,604
40,896	-13,002	256,691	118,622
41,911	-13,099	256,537	118,455
42,926	-13,006	256,294	118,414
43,940	-12,912	255,942	118,323
44,955	-13,064	255,861	118,143
45,969	-13,069	255,559	117,988
46,984	-13,242	255,259	117,689
47,999	-13,444	254,882	117,329
49,013	-13,686	254,891	117,112
50,028	-13,788	254,533	116,849
51,042	-13,796	254,275	116,714
52,057	-13,815	253,957	116,541
53,071	-13,759	253,847	116,528
54,086	-13,665	253,582	116,477
55,101	-13,468	253,524	116,610
56,115	-13,475	253,440	116,555
57,130	-12,915	253,235	116,933
58,144	-12,721	252,987	116,975
59,159	-12,719	252,842	116,900
60,174	-12,909	252,493	116,564
61,188	-12,680	252,267	116,647
62,203	-12,589	252,150	116,660
63,217	-12,793	251,920	116,369
64,232	-12,939	251,759	116,159
65,247	-12,825	251,589	116,167
66,261	-12,935	251,291	115,926
67,276	-13,052	251,007	115,684
68,290	-13,168	250,701	115,434
69,305	-13,179	250,493	115,319
70,320	-13,184	250,278	115,205
71,334	-12,902	250,187	115,392
72,349	-12,857	250,089	115,376
73,363	-12,688	249,820	115,385
74,378	-12,811	249,576	115,157
75,393	-12,851	249,488	115,072
76,407	-13,050	249,248	114,783
77,422	-13,001	249,112	114,752
78,436	-13,001	248,805	114,599
79,451	-12,888	248,542	114,564
80,466	-13,085	248,417	114,330
81,480	-12,996	248,010	114,207
82,495	-13,098	247,977	114,096
83,509	-13,092	247,682	113,955
84,524	-13,189	247,634	113,841
85,539	-13,341	247,345	113,571
86,553	-13,257	247,073	113,506
87,568	-13,006	246,910	113,632
88,582	-13,196	246,758	113,392
89,597	-13,298	246,692	113,267
90,611	-12,974	246,325	113,359
91,626	-12,992	246,336	113,339
92,641	-12,917	246,015	113,244
93,655	-12,892	245,827	113,168
94,670	-13,125	245,616	112,866
95,684	-12,694	245,379	113,106
96,699	-12,902	245,332	112,901
97,714	-13,331	245,165	112,458
98,728	-13,082	244,858	112,513
99,743	-13,335	244,730	112,235
100,757	-13,373	244,513	112,094
101,772	-13,052	244,112	112,166
102,787	-13,095	243,954	112,048
103,801	-13,099	243,925	112,021
104,816	-13,044	243,731	111,967
105,830	-13,052	243,686	111,930
106,845	-13,015	243,526	111,877
107,860	-12,938	243,160	111,763
108,874	-13,133	243,022	111,529
109,889	-13,044	242,803	111,491
110,903	-12,986	242,407	111,347
111,918	-13,248	242,465	111,148
112,933	-12,979	242,309	111,287
113,947	-12,966	242,046	111,168
114,962	-12,969	241,824	111,053
115,976	-12,960	241,882	111,078
116,991	-12,836	241,549	111,016
118,006	-12,964	241,391	110,829
119,020	-13,009	241,288	110,735
120,035	-13,037	241,278	110,698
121,049	-13,022	240,913	110,533
122,064	-13,025	240,805	110,471
123,079	-12,935	240,560	110,422
124,093	-12,643	240,196	110,483
125,108	-13,112	239,982	109,993
126,122	-13,348	239,797	109,707
127,137	-13,382	239,566	109,564
128,151	-13,312	239,572	109,614
129,166	-13,229	239,348	109,569
130,181	-13,185	239,053	109,459
131,195	-13,252	238,976	109,361
132,210	-13,070	238,751	109,394
133,224	-13,008	238,729	109,425
134,239	-13,041	238,471	109,270
135,254	-12,962	238,307	109,249
136,268	-13,125	238,070	108,999
137,283	-13,385	237,918	108,710
138,297	-13,443	237,564	108,493
139,312	-13,465	237,323	108,356
140,327	-12,964	237,302	108,738
141,341	-12,764	237,333	108,903
142,356	-12,900	237,188	108,717
143,370	-12,737	236,936	108,723
144,385	-12,821	236,874	108,617
145,400	-12,703	236,547	108,552
146,414	-12,753	236,461	108,463
147,429	-12,815	236,342	108,349
148,443	-12,811	236,152	108,256
149,458	-12,945	235,908	108,027
150,473	-12,680	235,750	108,156
151,487	-12,735	235,360	107,924
152,502	-12,588	235,192	107,954
153,516	-12,660	235,273	107,924
154,531	-12,687	235,049	107,791
155,546	-12,733	234,792	107,627
156,560	-12,733	234,611	107,534
157,575	-12,603	234,294	107,482
158,589	-13,014	234,380	107,187
159,604	-12,859	234,199	107,218
160,619	-12,592	234,030	107,341
161,633	-12,575	233,845	107,260
162,648	-12,447	233,696	107,283
163,662	-12,871	233,566	106,879
164,677	-12,763	233,303	106,835
165,692	-12,660	233,176	106,848
166,706	-12,702	233,070	106,757
167,721	-12,695	232,986	106,715
168,735	-12,576	232,879	106,749
169,750	-12,647	232,686	106,596
170,764	-12,503	232,329	106,535
171,779	-12,751	232,386	106,358
172,794	-12,610	232,272	106,407
173,808	-12,786	231,886	106,083
174,823	-13,093	231,601	105,703
175,837	-13,088	231,398	105,605
176,852	-12,865	231,437	105,788
177,867	-12,697	231,421	105,902
178,881	-12,798	231,237	105,729
179,896	-12,661	231,122	105,774
180,910	-12,647	231,040	105,737
181,925	-12,888	230,755	105,411
182,940	-12,603	230,493	105,503
183,954	-12,777	230,564	105,391
184,969	-12,601	230,353	105,422
185,983	-12,447	230,248	105,483
186,998	-12,387	230,079	105,443
188,013	-12,437	229,775	105,255
189,027	-12,412	229,718	105,239
190,042	-12,661	229,539	104,956
191,056	-12,711	229,493	104,887
192,071	-12,469	229,261	104,958
193,086	-12,581	229,022	104,753
194,100	-12,392	228,941	104,852
195,115	-12,852	228,364	104,225
196,129	-12,794	228,718	104,422
197,144	-6,887	230,470	109,784
198,159	-1,547	232,006	114,655
199,173	1,823	233,012	117,765
200,188	2,327	233,071	118,177
201,202	2,293	232,761	117,982
202,217	2,287	232,615	117,893
203,232	2,393	232,621	117,968
204,246	2,490	232,439	117,941
205,261	2,472	232,286	117,839
206,275	2,820	232,167	118,037
207,290	2,916	231,994	118,013
208,304	2,864	231,811	117,869
209,319	2,806	231,536	117,674
210,334	2,653	231,422	117,488
211,348	2,334	231,344	117,191
212,363	2,147	230,923	116,823
213,377	1,861	230,930	116,597
214,392	1,903	230,738	116,522
215,407	2,087	230,675	116,621
216,421	1,987	230,509	116,450
217,436	2,006	230,379	116,388
218,450	1,880	230,108	116,145
219,465	1,761	229,809	115,892
220,480	1,695	229,720	115,786
221,494	1,689	229,699	115,761
222,509	2,078	229,494	115,945
223,523	2,146	229,385	115,931
224,538	2,170	229,219	115,855
225,553	2,037	229,067	115,666
226,567	1,961	228,900	115,514
227,582	2,414	228,723	115,759
228,596	2,573	228,657	115,836
229,611	2,036	228,587	115,382
230,626	1,850	228,317	115,094
231,640	1,770	228,058	114,893
232,655	2,322	228,092	115,318
233,669	2,315	228,022	115,267
234,684	2,621	227,776	115,365
235,699	2,206	227,791	115,047
236,713	2,133	227,482	114,827
237,728	2,059	227,312	114,674
238,742	1,959	227,030	114,446
239,757	1,902	226,875	114,315
240,772	1,944	226,825	114,311
241,786	2,000	226,682	114,271
242,801	2,109	226,581	114,292
243,815	2,618	226,542	114,645
244,830	2,582	226,339	114,505
245,844	1,987	226,031	113,892
246,859	1,930	225,826	113,736
247,874	2,267	225,837	113,985
248,888	2,411	225,663	113,994
249,903	2,186	225,582	113,775
250,917	2,076	225,335	113,558
251,932	2,005	225,231	113,442
252,947	2,061	224,935	113,324
253,961	1,925	224,802	113,146
254,976	1,858	224,630	112,999
255,990	2,195	224,695	113,274
257,005	2,182	224,590	113,201
258,020	2,216	224,350	113,095
259,034	2,455	224,157	113,166
260,049	2,103	224,177	112,904
261,063	2,204	224,014	112,887
262,078	2,485	223,873	113,014
263,093	2,681	223,648	113,036
264,107	2,520	223,583	112,873
265,122	2,376	223,421	112,675
266,136	2,683	223,344	112,853
267,151	2,474	223,195	112,613
268,166	2,219	222,868	112,250
269,180	1,814	222,678	111,845
270,195	2,293	222,484	112,090
271,209	2,087	222,419	111,896
272,224	1,991	222,389	111,800
273,239	2,194	222,227	111,859
274,253	2,171	221,995	111,715
275,268	1,788	221,661	111,256
276,282	1,938	221,687	111,369
277,297	1,805	221,627	111,231
278,312	1,895	221,519	111,233
279,326	1,976	221,318	111,181
280,341	2,226	221,232	111,312
281,355	2,194	221,182	111,253
282,370	2,364	220,799	111,175
283,384	2,141	220,514	110,859
284,399	2,090	220,372	110,740
285,414	2,023	220,216	110,603
286,428	2,160	220,329	110,750
287,443	2,492	220,231	110,933
288,457	2,359	220,205	110,813
289,472	2,177	219,755	110,444
290,487	1,764	219,672	110,092
291,501	1,389	219,447	109,697
292,516	1,774	219,419	109,953
293,530	1,881	219,155	109,889
294,545	1,724	219,276	109,826
295,560	2,020	219,049	109,917
296,574	2,062	218,810	109,817
297,589	2,143	218,780	109,851
298,603	2,080	218,795	109,803
299,618	2,128	218,598	109,729
300,633	2,369	218,341	109,765
301,647	2,259	218,357	109,683
302,662	2,550	218,189	109,800
303,676	2,291	218,057	109,536
304,691	2,214	217,998	109,441
305,706	2,285	217,782	109,374
306,720	2,338	217,575	109,299
307,735	2,103	217,491	109,077
308,749	1,863	217,296	108,798
309,764	2,352	217,012	108,997
310,779	2,113	217,145	108,882
311,793	2,253	216,827	108,813
312,808	2,350	216,737	108,828
313,822	2,195	216,703	108,690
314,837	2,034	216,384	108,405
315,852	1,927	216,308	108,281
316,866	2,075	216,194	108,320
317,881	2,301	216,025	108,387
318,895	2,349	215,815	108,306
319,910	2,241	215,582	108,103
320,925	1,742	215,545	107,719
321,939	1,663	215,178	107,470
322,954	1,954	215,207	107,682
323,968	1,972	215,362	107,762
324,983	2,164	215,147	107,782
325,997	2,510	214,999	107,943
327,012	2,343	214,833	107,732
328,027	2,127	214,809	107,557
329,041	2,676	214,529	107,796
330,056	2,370	214,551	107,581
331,070	2,290	214,157	107,318
332,085	2,129	213,918	107,074
333,100	2,229	213,857	107,105
334,114	2,116	213,772	106,973
335,129	2,187	213,776	107,016
336,143	1,970	213,533	106,732
337,158	2,101	213,239	106,668
338,173	2,141	213,156	106,644
339,187	1,991	213,114	106,509
340,202	1,819	212,751	106,197
341,216	1,937	212,605	106,197
342,231	2,195	212,799	106,466
343,246	2,013	212,767	106,313
344,260	2,249	212,497	106,333
345,275	2,399	212,416	106,388
346,289	2,703	212,178	106,472
347,304	2,461	211,979	106,194
348,319	2,264	211,802	105,958
349,333	2,305	211,793	105,972
350,348	2,229	211,725	105,877
351,362	2,305	211,623	105,869
352,377	2,639	211,399	105,980
353,392	2,288	211,335	105,695
354,406	2,278	211,150	105,585
355,421	196,918	1314,775	1392,348
356,435	157,469	1449,184	1392,292
