DTS Sentinel unit serial number:	SN410029Multiplexer serial number:	ORYXHardware model number:	OX2-SRSoftware version number:	ORYX F/W v4,00 Oryx Data Collector v3.7.2.0data status	okinstallation	B6 Nyhavnadifferential loss correction	single-endedforward channel	channel 2reverse channel	N/Adate	2023/12/10time	13:30:08forward acquisition time	300,00reverse acquisition time	0,00gamma	499,1914k internal	0,3122k external	0,3122temperature offset calibration	1,0000default loss term (dB/km)	0,3820temperature slope calibration	1,0000multiplexer offset coefficient	1,0000multiplexer slope coefficient	1,0000fibre end	0,00T internal ref (°C)	22,77T ext. ref 1 (°C)	6,34T ext. ref 2 (°C)	6,35length (m)	temperature (°C)	Stokes	anti-Stokes-744,400	275,459	0,055	-0,073
-743,385	33,568	-0,233	0,151
-742,371	-200,000	-0,017	0,086
-741,356	-120,085	-0,153	0,019
-740,342	43,867	-0,093	0,064
-739,327	-115,489	-0,139	0,019
-738,312	800,000	0,023	0,051
-737,298	7,441	-0,173	0,096
-736,283	137,762	-0,046	-0,045
-735,269	119,732	-0,127	0,118
-734,254	-200,000	-0,019	0,073
-733,239	-133,025	-0,368	0,034
-732,225	174,204	0,078	-0,085
-731,210	-103,585	0,161	-0,028
-730,196	44,695	-0,116	-0,080
-729,181	800,000	-0,037	0,122
-728,167	-200,000	0,001	0,102
-727,152	-31,461	-0,133	-0,055
-726,137	800,000	0,041	-0,118
-725,123	201,936	-0,120	-0,138
-724,108	238,803	-0,041	-0,051
-723,094	329,098	-0,084	-0,121
-722,079	-155,840	-0,131	0,006
-721,064	156,872	0,017	0,018
-720,050	-96,549	-0,116	-0,023
-719,035	-130,056	-0,060	-0,006
-718,021	-200,000	-0,007	-0,031
-717,006	11,470	-0,120	-0,068
-715,991	-200,000	-0,044	-0,174
-714,977	-73,827	-0,063	-0,017
-713,962	-90,260	-0,088	0,019
-712,948	-200,000	-0,007	-0,123
-711,933	197,205	-0,082	0,093
-710,918	386,558	-0,089	0,137
-709,904	-106,528	-0,149	0,025
-708,889	225,614	-0,067	-0,081
-707,875	180,190	-0,048	-0,052
-706,860	800,000	0,026	-0,084
-705,845	800,000	0,024	-0,064
-704,831	8,042	-0,054	0,030
-703,816	-38,883	0,030	0,012
-702,802	-154,648	-0,185	-0,009
-701,787	800,000	0,028	-0,080
-700,772	800,000	-0,065	-0,141
-699,758	39,648	-0,032	-0,021
-698,743	379,608	0,053	-0,082
-697,729	157,954	-0,030	-0,031
-696,714	-16,731	-0,129	-0,061
-695,699	800,000	0,023	0,051
-694,685	749,810	0,040	-0,081
-693,670	-114,291	-0,153	0,022
-692,656	247,645	-0,050	0,063
-691,641	-200,000	0,000	-0,114
-690,627	-200,000	0,011	0,046
-689,612	-144,547	-0,106	0,007
-688,597	63,239	-0,099	-0,074
-687,583	-200,000	0,005	0,105
-686,568	83,718	-0,091	-0,074
-685,554	236,533	0,058	-0,072
-684,539	-101,799	0,092	-0,016
-683,524	-24,725	0,029	0,013
-682,510	-200,000	0,017	-0,072
-681,495	42,541	-0,068	0,046
-680,481	800,000	-0,015	-0,037
-679,466	800,000	-0,039	0,091
-678,451	-37,884	0,017	0,007
-677,437	-117,098	0,124	-0,017
-676,422	800,000	0,025	0,071
-675,408	-200,000	0,006	-0,076
-674,393	-200,000	-0,011	-0,072
-673,378	739,034	-0,016	-0,033
-672,364	-57,109	0,119	0,039
-671,349	-10,836	0,009	-0,004
-670,335	39,346	-0,017	-0,011
-669,320	98,628	0,046	-0,040
-668,305	-50,539	-0,136	0,047
-667,291	-71,780	0,021	-0,006
-666,276	161,185	-0,057	-0,059
-665,262	41,709	-0,086	-0,058
-664,247	108,768	0,126	-0,111
-663,232	-200,000	-0,006	-0,075
-662,218	-167,708	0,061	0,002
-661,203	105,376	-0,073	0,064
-660,189	-84,506	0,013	-0,003
-659,174	-85,082	-0,106	-0,025
-658,159	800,000	-0,047	-0,104
-657,145	-58,793	-0,170	0,054
-656,130	-64,350	0,084	0,025
-655,116	-18,882	-0,076	-0,035
-654,101	172,766	0,083	0,089
-653,086	-158,753	-0,115	0,005
-652,072	800,000	0,066	-0,143
-651,057	-41,759	0,074	-0,028
-650,043	38,495	-0,088	0,058
-649,028	-190,815	-0,049	-0,000
-648,014	-200,000	0,003	-0,033
-646,999	143,965	0,086	0,085
-645,984	255,551	0,032	0,041
-644,970	-65,661	-0,088	-0,026
-643,955	-172,907	0,099	-0,002
-642,941	105,354	-0,133	-0,117
-641,926	214,672	-0,096	-0,113
-640,911	800,000	0,015	0,035
-639,897	-200,000	-0,008	0,185
-638,882	-102,718	-0,125	0,022
-637,868	-200,000	-0,018	-0,064
-636,853	-200,000	-0,001	-0,146
-635,838	-142,910	0,088	-0,006
-634,824	-47,627	-0,061	0,022
-633,809	-200,000	-0,024	-0,122
-632,795	141,002	-0,041	0,040
-631,780	378,412	-0,011	-0,017
-630,765	-200,000	-0,021	-0,071
-629,751	-200,000	-0,016	-0,082
-628,736	88,384	-0,123	-0,101
-627,722	291,512	-0,022	0,030
-626,707	0,956	0,145	0,077
-625,692	140,325	-0,037	-0,036
-624,678	-123,112	0,076	0,009
-623,663	800,000	0,027	-0,060
-622,649	32,938	-0,059	-0,038
-621,634	-35,166	-0,099	0,040
-620,619	-200,000	-0,019	0,108
-619,605	-169,281	-0,055	-0,001
-618,590	800,000	0,059	0,132
-617,576	-200,000	-0,013	0,089
-616,561	-200,000	0,007	0,041
-615,546	800,000	0,026	-0,054
-614,532	329,482	-0,048	-0,068
-613,517	29,484	0,111	0,070
-612,503	181,097	0,058	-0,063
-611,488	70,739	0,093	-0,071
-610,474	-26,549	0,073	-0,032
-609,459	318,128	-0,014	-0,020
-608,444	51,749	-0,144	-0,101
-607,430	800,000	-0,068	-0,192
-606,415	-34,842	-0,073	-0,030
-605,401	11,127	-0,142	-0,080
-604,386	121,526	0,027	-0,025
-603,371	-22,587	-0,017	0,007
-602,357	-200,000	0,011	0,058
-601,342	-200,000	-0,009	-0,031
-600,328	-120,729	-0,232	-0,029
-599,313	-64,230	0,083	-0,025
-598,298	117,571	-0,041	-0,037
-597,284	-152,983	-0,095	0,005
-596,269	99,796	-0,038	-0,033
-595,255	-200,000	-0,041	-0,146
-594,240	571,322	-0,025	0,046
-593,225	800,000	0,014	-0,038
-592,211	-27,875	-0,093	-0,040
-591,196	-200,000	-0,039	-0,157
-590,182	94,605	-0,099	0,083
-589,167	-200,000	-0,022	-0,135
-588,152	-90,520	-0,115	-0,025
-587,138	64,771	-0,058	0,044
-586,123	-200,000	0,047	-0,183
-585,109	-4,148	-0,097	-0,050
-584,094	-98,002	-0,098	-0,019
-583,079	-180,461	0,154	0,002
-582,065	27,320	0,041	-0,026
-581,050	326,640	0,053	0,075
-580,036	-45,183	-0,087	-0,032
-579,021	800,000	0,014	-0,043
-578,006	336,910	-0,004	-0,006
-576,992	-200,000	0,018	-0,065
-575,977	195,925	0,088	0,099
-574,963	-22,968	-0,043	0,019
-573,948	181,446	-0,017	0,018
-572,934	25,743	-0,043	0,026
-571,919	-190,693	0,049	-0,000
-570,904	-72,532	-0,101	-0,027
-569,890	135,583	0,067	0,064
-568,875	-200,000	0,019	0,194
-567,861	121,032	0,081	0,075
-566,846	-35,927	-0,078	-0,031
-565,831	-87,313	-0,173	0,038
-564,817	-200,000	0,015	-0,109
-563,802	555,951	0,044	-0,079
-562,788	-80,400	0,030	-0,007
-561,773	-74,563	-0,056	-0,015
-560,758	653,159	0,084	-0,161
-559,744	76,115	0,135	-0,106
-558,729	406,460	-0,031	0,048
-557,715	-9,234	-0,042	-0,021
-556,700	-36,895	-0,135	-0,054
-555,685	-120,667	-0,033	0,004
-554,671	-200,000	0,027	-0,153
-553,656	-200,000	0,019	0,069
-552,642	416,863	-0,060	0,095
-551,627	-56,682	-0,047	-0,015
-550,612	-17,568	0,076	-0,035
-549,598	800,000	-0,036	-0,076
-548,583	-200,000	-0,012	-0,152
-547,569	461,467	0,074	-0,122
-546,554	-86,444	0,043	0,010
-545,539	-200,000	-0,014	0,053
-544,525	-12,141	0,060	-0,029
-543,510	-39,391	-0,070	0,027
-542,496	-55,662	-0,140	-0,046
-541,481	-200,000	-0,024	-0,118
-540,466	-101,063	0,108	0,019
-539,452	-75,929	0,044	-0,011
-538,437	-168,756	-0,037	0,001
-537,423	-13,440	0,128	0,061
-536,408	800,000	0,005	0,012
-535,393	393,058	-0,032	-0,049
-534,379	21,637	-0,033	-0,020
-533,364	-141,140	0,108	0,008
-532,350	-12,254	0,064	-0,031
-531,335	-200,000	-0,003	0,025
-530,321	800,000	-0,012	0,035
-529,306	-79,308	-0,136	0,034
-528,291	-200,000	-0,017	-0,068
-527,277	-175,897	-0,120	-0,002
-526,262	-200,000	-0,041	0,156
-525,248	136,210	-0,069	0,066
-524,233	-75,117	0,186	-0,049
-523,218	25,631	0,072	0,044
-522,204	-37,118	-0,086	-0,034
-521,189	79,968	0,061	-0,049
-520,175	-200,000	-0,008	0,101
-519,160	-200,000	0,017	0,101
-518,145	242,644	-0,062	0,077
-517,131	309,430	-0,063	0,087
-516,116	94,495	-0,106	0,089
-515,102	-138,371	-0,091	0,007
-514,087	-200,000	-0,024	-0,171
-513,072	-200,000	-0,012	-0,139
-512,058	-96,843	-0,077	0,015
-511,043	-200,000	-0,007	0,067
-510,029	438,599	0,110	0,179
-509,014	-67,221	0,201	0,058
-507,999	-31,443	-0,112	0,046
-506,985	179,531	-0,094	0,102
-505,970	-200,000	-0,012	0,069
-504,956	-139,415	-0,049	0,004
-503,941	-0,416	-0,113	0,059
-502,926	82,079	0,048	0,038
-501,912	-200,000	0,009	0,089
-500,897	544,738	0,066	-0,117
-499,883	-17,984	0,122	0,056
-498,868	-102,393	-0,156	-0,027
-497,853	800,000	-0,016	0,033
-496,839	-54,327	0,041	-0,014
-495,824	800,000	-0,023	-0,055
-494,810	-25,771	0,076	0,033
-493,795	2,664	0,081	0,043
-492,781	-30,472	-0,072	-0,030
-491,766	426,019	0,029	0,046
-490,751	800,000	-0,018	0,043
-489,737	478,297	0,059	-0,099
-488,722	-200,000	-0,004	0,167
-487,708	195,492	0,122	0,137
-486,693	151,348	0,094	0,095
-485,678	183,466	0,054	-0,059
-484,664	438,762	0,069	-0,112
-483,649	270,241	-0,056	-0,073
-482,635	800,000	-0,032	-0,097
-481,620	800,000	-0,026	-0,069
-480,605	84,882	0,045	0,036
-479,591	787,406	-0,036	0,072
-478,576	-200,000	-0,006	-0,120
-477,562	52,534	-0,136	0,096
-476,547	-200,000	0,018	-0,102
-475,532	-63,257	-0,205	-0,062
-474,518	25,784	-0,056	0,034
-473,503	467,525	0,010	0,017
-472,489	-200,000	-0,014	-0,141
-471,474	273,806	0,073	0,096
-470,459	-200,000	-0,055	-0,193
-469,445	664,265	-0,051	-0,097
-468,430	-200,000	0,009	-0,141
-467,416	-168,125	0,075	0,002
-466,401	-69,227	0,104	0,029
-465,386	-84,567	-0,070	0,016
-464,372	-16,270	0,080	0,037
-463,357	-63,997	-0,021	-0,006
-462,343	-200,000	-0,030	-0,154
-461,328	-200,000	-0,017	-0,130
-460,313	-105,627	0,192	0,032
-459,299	-43,495	0,154	0,057
-458,284	-67,927	-0,108	-0,031
-457,270	335,005	-0,060	-0,086
-456,255	-200,000	0,020	0,082
-455,241	109,245	0,058	-0,051
-454,226	-190,480	-0,201	-0,002
-453,211	-200,000	0,039	0,254
-452,197	313,754	0,069	-0,095
-451,182	-41,393	0,077	-0,029
-450,168	46,571	-0,112	0,076
-449,153	-126,831	-0,064	-0,007
-448,138	-200,000	-0,001	-0,056
-447,124	-200,000	-0,020	-0,111
-446,109	-200,000	0,021	0,070
-445,095	-77,523	0,022	0,006
-444,080	-89,429	0,085	0,018
-443,065	381,210	0,053	0,080
-442,051	800,000	-0,004	-0,008
-441,036	-108,879	-0,056	0,009
-440,022	-166,531	0,016	0,000
-439,007	800,000	0,039	-0,083
-437,992	26,685	0,198	0,122
-436,978	3,636	-0,054	-0,029
-435,963	-119,818	0,021	0,003
-434,949	52,663	0,113	0,080
-433,934	-200,000	0,024	-0,145
-432,919	-78,238	-0,004	0,001
-431,905	-27,122	0,097	0,041
-430,890	800,000	0,011	0,030
-429,876	-200,000	-0,023	0,175
-428,861	-3,298	0,150	-0,077
-427,846	11,749	-0,080	-0,045
-426,832	114,360	-0,058	-0,052
-425,817	225,500	0,075	-0,089
-424,803	-49,739	0,026	0,009
-423,788	800,000	-0,056	0,178
-422,773	287,349	0,067	0,089
-421,759	-200,000	-0,017	0,079
-420,744	78,206	0,033	-0,026
-419,730	43,794	-0,067	-0,045
-418,715	-200,000	-0,007	0,064
-417,701	-147,516	0,036	-0,002
-416,686	477,627	0,065	0,108
-415,671	-38,593	0,081	-0,031
-414,657	-3,703	0,190	0,097
-413,642	-22,953	-0,118	-0,052
-412,628	26,766	0,091	-0,056
-411,613	176,518	0,030	0,032
-410,598	-200,000	0,004	0,039
-409,584	-189,738	0,047	0,000
-408,569	47,076	-0,036	-0,025
-407,555	-100,386	0,177	0,032
-406,540	800,000	0,017	0,051
-405,525	304,673	-0,035	-0,048
-404,511	-105,442	-0,131	-0,022
-403,496	164,311	-0,046	-0,048
-402,482	180,029	0,097	0,105
-401,467	800,000	0,041	0,102
-400,452	-124,856	-0,106	-0,012
-399,438	-200,000	-0,016	0,063
-398,423	-186,993	-0,116	-0,001
-397,409	35,261	0,108	-0,069
-396,394	51,086	-0,167	0,116
-395,379	-92,108	0,039	0,008
-394,365	800,000	-0,035	0,076
-393,350	-116,111	-0,078	0,011
-392,336	800,000	-0,017	-0,049
-391,321	414,354	-0,077	0,121
-390,306	-180,495	-0,076	0,001
-389,292	-200,000	-0,001	-0,044
-388,277	43,253	-0,093	0,062
-387,263	800,000	0,035	0,107
-386,248	-200,000	-0,013	0,165
-385,233	-200,000	0,037	-0,127
-384,219	-200,000	0,027	-0,088
-383,204	-200,000	0,002	0,073
-382,190	-200,000	-0,019	0,158
-381,175	-181,452	-0,104	-0,001
-380,160	-104,078	-0,034	-0,006
-379,146	77,156	0,116	0,090
-378,131	-200,000	0,022	0,071
-377,117	-200,000	0,024	-0,152
-376,102	306,575	-0,100	-0,138
-375,088	70,595	-0,011	-0,008
-374,073	-33,627	0,074	0,030
-373,058	-65,647	0,020	-0,006
-372,044	-7,411	-0,073	0,036
-371,029	75,402	0,046	-0,035
-370,015	-92,771	-0,015	-0,003
-369,000	-30,425	0,055	-0,023
-367,985	-64,165	-0,196	0,058
-366,971	-200,000	0,001	-0,086
-365,956	280,498	0,079	-0,105
-364,942	800,000	0,065	0,134
-363,927	-103,393	0,096	-0,016
-362,912	-200,000	-0,020	-0,077
-361,898	494,903	-0,062	-0,104
-360,883	19,174	-0,035	0,020
-359,869	757,683	-0,027	0,054
-358,854	115,142	0,024	0,022
-357,839	355,284	0,053	0,078
-356,825	-94,149	0,088	-0,018
-355,810	172,034	-0,101	0,107
-354,796	800,000	0,016	-0,041
-353,781	800,000	-0,002	0,005
-352,766	-42,021	0,063	0,023
-351,752	-86,400	0,083	-0,019
-350,737	-24,987	0,058	-0,025
-349,723	425,278	-0,089	0,141
-348,708	-33,090	0,064	0,026
-347,693	-200,000	-0,046	-0,195
-346,679	426,147	-0,036	-0,057
-345,664	-66,873	-0,064	-0,018
-344,650	135,311	-0,047	0,045
-343,635	-159,223	-0,111	-0,004
-342,620	417,496	-0,034	0,053
-341,606	-58,002	0,101	-0,032
-340,591	377,223	0,064	-0,096
-339,577	-111,377	0,166	0,025
-338,562	-111,673	-0,044	0,006
-337,548	-107,965	-0,047	0,007
-336,533	800,000	-0,050	0,105
-335,518	-91,236	0,099	0,021
-334,504	286,366	-0,043	0,057
-333,489	-104,052	-0,106	0,018
-332,475	800,000	-0,043	0,132
-331,460	800,000	0,014	-0,036
-330,445	591,126	-0,041	-0,074
-329,431	-72,787	-0,129	-0,035
-328,416	-200,000	-0,037	0,156
-327,402	62,579	0,162	-0,119
-326,387	-200,000	-0,005	0,069
-325,372	-136,276	0,170	-0,014
-324,358	10,666	-0,143	-0,080
-323,343	-200,000	0,000	0,121
-322,329	304,194	0,049	0,067
-321,314	-200,000	-0,006	0,158
-320,299	76,217	0,033	-0,026
-319,285	47,975	0,090	-0,061
-318,270	366,360	-0,040	-0,059
-317,256	127,194	-0,040	0,038
-316,241	1,328	0,144	0,076
-315,226	748,460	0,020	-0,040
-314,212	-82,584	0,081	0,019
-313,197	-109,795	0,014	-0,002
-312,183	712,521	-0,022	-0,044
-311,168	48,934	0,094	-0,065
-310,153	287,071	-0,125	-0,166
-309,139	-200,000	0,014	-0,188
-308,124	450,802	-0,066	-0,107
-307,110	266,789	0,023	0,029
-306,095	-76,913	0,054	0,014
-305,080	-84,044	-0,069	0,016
-304,066	-33,091	-0,110	0,044
-303,051	65,317	-0,072	0,054
-302,037	62,733	0,018	-0,013
-301,022	800,000	-0,037	0,116
-300,008	800,000	0,047	-0,132
-298,993	564,729	0,020	-0,035
-297,978	800,000	0,037	-0,086
-296,964	466,405	-0,039	0,064
-295,949	800,000	0,033	0,084
-294,935	-200,000	0,030	-0,166
-293,920	459,164	-0,095	-0,155
-292,905	9,857	0,155	0,086
-291,891	800,000	0,046	0,102
-290,876	-163,838	0,018	-0,001
-289,862	800,000	-0,056	0,144
-288,847	800,000	-0,027	0,060
-287,832	300,260	-0,011	0,015
-286,818	-20,309	-0,072	-0,032
-285,803	98,358	0,117	0,099
-284,789	6,884	0,128	0,070
-283,774	-113,077	0,122	0,017
-282,759	-154,501	-0,131	-0,006
-281,745	337,728	0,042	-0,060
-280,730	-200,000	0,011	-0,037
-279,716	-200,000	0,011	-0,115
-278,701	-22,310	0,135	0,060
-277,686	201,907	-0,071	0,080
-276,672	-200,000	0,006	0,062
-275,657	-197,224	-0,109	0,000
-274,643	800,000	0,062	-0,146
-273,628	-124,001	-0,117	-0,013
-272,613	800,000	-0,026	-0,056
-271,599	48,874	0,028	-0,019
-270,584	-166,980	0,046	0,001
-269,570	107,247	0,036	0,031
-268,555	45,610	0,013	0,009
-267,540	74,850	0,130	-0,100
-266,526	-200,000	-0,000	-0,141
-265,511	-164,474	-0,074	0,002
-264,497	-200,000	-0,034	0,118
-263,482	158,703	0,126	0,128
-262,467	434,617	-0,097	0,155
-261,453	-200,000	0,019	-0,086
-260,438	142,368	0,103	-0,100
-259,424	800,000	0,037	0,081
-258,409	-200,000	-0,117	-0,000
-257,395	173,007	0,047	-0,049
-256,380	178,539	0,073	-0,078
-255,365	127,009	-0,131	0,122
-254,351	-67,290	0,108	0,031
-253,336	-200,000	-0,006	-0,037
-252,322	24,915	-0,063	0,038
-251,307	106,632	-0,068	-0,059
-250,292	285,397	-0,062	-0,082
-249,278	88,789	0,051	0,042
-248,263	185,994	0,052	0,057
-247,249	-68,972	-0,120	0,034
-246,234	86,265	-0,090	-0,073
-245,219	88,997	0,025	-0,020
-244,205	19,115	0,019	0,011
-243,190	-93,831	0,134	0,027
-242,176	165,693	0,043	-0,045
-241,161	-153,132	0,033	-0,002
-240,146	-200,000	0,000	0,016
-239,132	-53,660	0,085	0,028
-238,117	327,126	0,028	-0,040
-237,103	443,707	0,105	-0,169
-236,088	-63,509	0,144	-0,043
-235,073	158,171	0,081	-0,082
-234,059	-105,296	-0,049	-0,008
-233,044	683,879	0,069	0,132
-232,030	-200,000	0,024	0,116
-231,015	-84,997	-0,072	0,016
-230,000	800,000	-0,007	0,016
-228,986	-200,000	-0,037	0,152
-227,971	-86,671	0,173	0,038
-226,957	-41,772	0,080	0,030
-225,942	210,428	0,017	0,020
-224,927	61,792	-0,102	-0,074
-223,913	-200,000	0,065	-0,000
-222,898	-81,097	0,047	-0,011
-221,884	202,288	-0,040	0,045
-220,869	284,619	0,107	-0,140
-219,855	-78,292	-0,093	0,023
-218,840	800,000	-0,037	0,080
-217,825	149,180	-0,059	0,059
-216,811	-200,000	-0,005	-0,051
-215,796	-200,000	0,009	-0,057
-214,782	195,491	0,051	-0,057
-213,767	-35,005	-0,107	0,042
-212,752	-200,000	0,017	0,063
-211,738	343,446	0,050	0,072
-210,723	-192,387	0,041	0,000
-209,709	121,029	-0,128	0,116
-208,694	637,650	0,012	0,023
-207,679	800,000	0,056	-0,174
-206,665	569,614	0,074	-0,132
-205,650	179,913	0,094	-0,101
-204,636	547,255	-0,043	0,075
-203,621	410,056	-0,073	0,113
-202,606	59,344	-0,074	0,053
-201,592	94,493	0,065	-0,054
-200,577	-200,000	0,008	-0,038
-199,563	200,025	-0,080	0,090
-198,548	255,800	-0,105	0,131
-197,533	800,000	0,040	0,100
-196,519	-26,076	0,039	0,017
-195,504	28,420	0,081	-0,050
-194,490	-200,000	-0,026	-0,099
-193,475	393,579	0,066	-0,101
-192,460	-157,123	0,128	0,006
-191,446	2,291	-0,037	-0,019
-190,431	60,985	-0,085	0,061
-189,417	-83,052	0,103	0,024
-188,402	124,185	-0,030	0,027
-187,387	800,000	-0,051	-0,115
-186,373	297,953	0,087	0,117
-185,358	-200,000	0,022	0,081
-184,344	-200,000	-0,018	0,076
-183,329	-114,214	-0,174	-0,024
-182,315	440,241	-0,057	-0,091
-181,300	-200,000	0,008	0,067
-180,285	800,000	-0,027	-0,058
-179,271	527,995	0,028	-0,048
-178,256	434,009	0,031	-0,050
-177,242	-200,000	0,011	-0,055
-176,227	459,921	0,031	0,050
-175,212	471,454	-0,017	-0,028
-174,198	800,000	0,028	-0,066
-173,183	-85,658	-0,106	-0,024
-172,169	-52,483	0,014	-0,005
-171,154	65,581	0,055	-0,040
-170,139	92,517	-0,025	-0,021
-169,125	126,742	-0,010	-0,009
-168,110	102,622	-0,195	0,166
-167,096	-200,000	0,023	0,076
-166,081	23,908	-0,020	0,012
-165,066	-76,237	0,074	0,019
-164,052	86,321	-0,090	0,072
-163,037	-97,423	0,165	-0,031
-162,023	-132,719	0,083	0,008
-161,008	-200,000	-0,024	0,135
-159,993	-200,000	0,007	0,092
-158,979	-200,000	-0,013	-0,127
-157,964	-115,542	-0,077	0,010
-156,950	152,948	-0,038	0,037
-155,935	-28,492	0,188	0,079
-154,920	-127,863	0,043	-0,004
-153,906	528,794	-0,029	-0,051
-152,891	-200,000	0,021	0,118
-151,877	172,466	-0,081	-0,085
-150,862	-92,138	-0,126	-0,026
-149,847	76,800	0,072	0,056
-148,833	-200,000	-0,027	-0,135
-147,818	88,032	0,054	-0,044
-146,804	131,313	0,053	0,049
-145,789	-74,132	0,081	0,021
-144,775	800,000	-0,055	-0,153
-143,760	259,566	-0,034	0,042
-142,745	-123,105	-0,022	-0,003
-141,731	176,379	-0,071	0,076
-140,716	413,096	0,053	0,083
-139,702	-29,221	-0,044	-0,018
-138,687	-200,000	-0,029	-0,114
-137,672	-79,453	-0,067	0,016
-136,658	22,424	0,066	-0,039
-135,643	-12,494	0,063	0,030
-134,629	745,559	0,020	-0,039
-133,614	-175,558	0,120	-0,002
-132,599	800,000	-0,061	-0,191
-131,585	-200,000	-0,013	-0,080
-130,570	-200,000	-0,026	-0,156
-129,556	800,000	0,071	-0,149
-128,541	-200,000	-0,013	-0,129
-127,526	800,000	0,034	-0,086
-126,512	-200,000	-0,001	-0,011
-125,497	89,810	-0,027	0,022
-124,483	21,411	0,013	0,007
-123,468	-200,000	-0,019	-0,085
-122,453	-200,000	-0,012	0,112
-121,439	-200,000	0,001	0,068
-120,424	-139,568	0,040	-0,003
-119,410	800,000	-0,026	0,078
-118,395	-200,000	-0,005	0,225
-117,380	-32,201	0,019	-0,007
-116,366	-200,000	-0,003	0,065
-115,351	-200,000	-0,007	-0,086
-114,337	-65,008	-0,088	-0,026
-113,322	-56,466	-0,040	-0,013
-112,307	12,975	0,074	0,042
-111,293	36,678	0,059	-0,038
-110,278	3,828	-0,081	-0,043
-109,264	-116,335	0,078	-0,010
-108,249	284,708	0,004	0,005
-107,234	-200,000	-0,007	-0,102
-106,220	-108,369	0,024	0,004
-105,205	-41,302	-0,094	0,035
-104,191	98,483	0,059	0,049
-103,176	432,722	0,023	-0,036
-102,162	661,260	-0,037	-0,069
-101,147	511,426	-0,049	-0,084
-100,132	-186,273	-0,036	0,000
-99,118	125,468	0,076	-0,070
-98,103	-117,432	-0,100	0,013
-97,089	-1,735	0,034	0,017
-96,074	-89,432	-0,003	-0,001
-95,059	13,235	-0,030	-0,017
-94,045	-79,740	0,027	0,007
-93,030	-200,000	0,003	-0,142
-92,016	-99,412	-0,118	-0,021
-91,001	49,249	0,026	-0,017
-89,986	1,207	-0,031	-0,016
-88,972	4,898	-0,031	0,016
-87,957	18,806	0,118	0,069
-86,943	1,165	-0,156	0,081
-85,928	-76,858	-0,109	0,028
-84,913	-125,992	0,041	0,004
-83,899	-18,742	-0,076	0,034
-82,884	-86,507	0,085	0,019
-81,870	794,013	-0,018	0,036
-80,855	-200,000	0,011	0,079
-79,840	-174,999	-0,084	0,002
-78,826	93,188	-0,102	0,084
-77,811	169,101	0,052	-0,054
-76,797	-77,012	-0,061	0,015
-75,782	82,032	-0,135	0,106
-74,767	800,000	0,051	0,118
-73,753	21,989	-0,044	0,026
-72,738	667,574	0,025	0,048
-71,724	-55,315	-0,127	0,041
-70,709	207,731	0,040	-0,046
-69,694	800,000	-0,038	-0,101
-68,680	253,740	0,018	-0,022
-67,665	104,707	0,146	0,125
-66,651	-200,000	0,002	0,024
-65,636	397,343	-0,038	-0,058
-64,622	-114,502	-0,217	-0,030
-63,607	800,000	-0,039	-0,113
-62,592	-15,716	-0,095	0,044
-61,578	-200,000	0,000	-0,011
-60,563	-200,000	0,023	0,077
-59,549	-177,199	-0,077	-0,001
-58,534	-144,826	-1,342	-0,088
-57,519	800,000	-0,701	-1,579
-56,505	-200,000	-0,894	-4,456
-55,490	93,883	0,587	-0,483
-54,476	800,000	5,034	12,028
-53,461	-200,000	13,216	252,905
-52,446	-200,000	688,493	2274,230
-51,432	599,690	1623,186	2935,801
-50,417	121,224	1637,117	1479,379
-49,403	73,500	1291,340	980,259
-48,388	38,544	1025,920	662,610
-47,373	24,685	983,236	589,414
-46,359	23,872	973,138	580,667
-45,344	22,971	968,993	575,221
-44,330	22,906	967,482	574,091
-43,315	22,849	965,823	572,896
-42,300	22,778	964,983	572,145
-41,286	22,742	964,098	571,480
-40,271	22,804	962,994	571,004
-39,257	22,770	962,133	570,359
-38,242	22,823	961,215	569,965
-37,227	22,774	960,210	569,187
-36,213	22,746	959,501	568,654
-35,198	22,698	958,601	567,942
-34,184	22,845	958,015	568,051
-33,169	22,762	957,039	567,180
-32,154	22,832	956,192	566,880
-31,140	22,841	955,229	566,318
-30,125	22,782	954,459	565,648
-29,111	22,819	953,669	565,275
-28,096	22,757	952,953	564,631
-27,082	22,823	952,133	564,334
-26,067	22,862	951,403	564,003
-25,052	22,776	950,858	563,382
-24,038	22,838	950,080	563,098
-23,023	22,813	949,547	562,680
-22,009	22,788	948,929	562,211
-20,994	22,821	948,382	561,971
-19,979	22,842	947,636	561,573
-18,965	22,841	947,008	561,176
-17,950	22,874	946,195	560,777
-16,936	22,752	945,783	560,122
-15,921	22,744	944,997	559,608
-14,906	22,679	944,465	559,063
-13,892	22,706	943,476	558,541
-12,877	22,664	942,956	558,078
-11,863	22,664	942,206	557,611
-10,848	22,654	941,952	557,408
-9,833	22,769	941,397	557,421
-8,819	22,736	940,940	557,026
-7,804	22,773	939,969	556,545
-6,790	22,660	939,617	555,955
-5,775	22,775	938,948	555,903
-4,760	22,710	938,340	555,314
-3,746	22,638	937,753	554,718
-2,731	22,531	937,000	553,911
-1,717	22,528	936,210	553,412
-0,702	22,536	935,420	552,950
0,313	22,278	934,996	552,721
1,327	25,488	932,885	561,528
2,342	35,300	797,591	506,266
3,356	33,432	452,016	284,074
4,371	2,190	293,376	153,259
5,386	-2,377	274,121	138,875
6,400	-3,938	268,384	134,511
7,415	-4,471	265,857	132,743
8,429	-3,868	264,580	132,645
9,444	-4,178	263,812	131,965
10,459	-4,147	263,172	131,662
11,473	-4,231	262,609	131,292
12,488	-4,289	262,099	130,973
13,502	-4,472	261,524	130,509
14,517	-4,329	261,231	130,481
15,531	-4,335	260,771	130,233
16,546	-4,265	260,527	130,163
17,561	-4,306	260,161	129,931
18,575	-4,136	259,845	129,915
19,590	-4,211	259,466	129,646
20,604	-4,228	259,187	129,480
21,619	-4,188	258,947	129,385
22,634	-4,267	258,466	129,062
23,648	-4,333	258,240	128,879
24,663	-4,432	257,849	128,584
25,677	-4,396	257,650	128,506
26,692	-4,311	257,316	128,403
27,707	-4,339	257,200	128,309
28,721	-4,147	256,898	128,316
29,736	-4,178	256,477	128,068
30,750	-4,296	256,321	127,874
31,765	-4,234	256,299	127,907
32,780	-4,444	256,047	127,584
33,794	-4,321	255,722	127,519
34,809	-4,470	255,588	127,310
35,823	-4,363	255,298	127,248
36,838	-4,297	255,006	127,149
37,853	-4,289	254,689	126,987
38,867	-4,424	254,483	126,754
39,882	-4,481	254,416	126,659
40,896	-4,562	254,105	126,423
41,911	-4,474	253,851	126,362
42,926	-4,331	253,601	126,351
43,940	-4,318	253,422	126,262
44,955	-4,449	253,108	125,980
45,969	-4,736	253,108	125,719
46,984	-4,710	252,637	125,496
47,999	-4,756	252,342	125,299
49,013	-5,057	252,292	125,001
50,028	-4,857	251,865	124,953
51,042	-5,247	251,684	124,514
52,057	-4,988	251,422	124,596
53,071	-5,151	251,427	124,447
54,086	-5,078	251,250	124,412
55,101	-5,096	251,071	124,297
56,115	-4,649	250,894	124,583
57,130	-4,357	250,799	124,777
58,144	-4,184	250,555	124,793
59,159	-3,975	250,280	124,825
60,174	-4,223	250,180	124,550
61,188	-4,405	249,984	124,286
62,203	-4,085	249,886	124,501
63,217	-4,200	249,601	124,248
64,232	-4,127	249,277	124,139
65,247	-4,223	249,101	123,958
66,261	-4,343	248,876	123,732
67,276	-4,619	248,664	123,380
68,290	-4,740	248,508	123,189
69,305	-4,740	248,169	123,009
70,320	-4,593	247,950	123,015
71,334	-4,457	247,905	123,098
72,349	-4,271	247,836	123,211
73,363	-4,282	247,693	123,119
74,378	-4,172	247,434	123,073
75,393	-4,250	247,159	122,859
76,407	-4,188	247,002	122,822
77,422	-4,464	246,681	122,418
78,436	-4,206	246,577	122,575
79,451	-4,190	246,347	122,462
80,466	-4,377	246,158	122,199
81,480	-4,458	245,840	121,963
82,495	-4,671	245,769	121,737
83,509	-4,458	245,541	121,792
84,524	-4,626	245,452	121,596
85,539	-4,713	245,093	121,335
86,553	-4,686	244,969	121,285
87,568	-4,490	244,788	121,349
88,582	-4,672	244,610	121,098
89,597	-4,575	244,243	120,986
90,611	-4,360	244,328	121,197
91,626	-4,372	244,208	121,117
92,641	-4,337	244,026	121,045
93,655	-4,490	243,801	120,795
94,670	-4,297	243,440	120,766
95,684	-4,440	243,187	120,511
96,699	-4,457	243,218	120,502
97,714	-4,627	242,994	120,238
98,728	-4,854	242,773	119,929
99,743	-4,755	242,575	119,903
100,757	-4,680	242,344	119,840
101,772	-4,774	242,168	119,665
102,787	-4,488	242,017	119,816
103,801	-4,573	241,957	119,706
104,816	-4,425	241,774	119,727
105,830	-4,281	241,594	119,746
106,845	-4,161	241,378	119,728
107,860	-4,318	241,256	119,527
108,874	-4,350	241,023	119,374
109,889	-4,502	240,739	119,098
110,903	-4,494	240,630	119,040
111,918	-4,463	240,356	118,919
112,933	-4,550	240,190	118,755
113,947	-4,570	240,116	118,691
114,962	-4,405	239,987	118,752
115,976	-4,467	239,777	118,587
116,991	-4,401	239,617	118,552
118,006	-4,465	239,327	118,345
119,020	-4,414	239,368	118,396
120,035	-4,393	239,174	118,307
121,049	-4,366	239,085	118,275
122,064	-4,297	238,856	118,207
123,079	-4,552	238,795	117,958
124,093	-4,463	238,379	117,815
125,108	-4,575	238,207	117,628
126,122	-4,761	238,046	117,387
127,137	-4,919	237,755	117,104
128,151	-4,696	237,654	117,225
129,166	-4,688	237,652	117,221
130,181	-4,590	237,375	117,153
131,195	-4,653	237,038	116,925
132,210	-4,498	236,945	116,994
133,224	-4,254	236,810	117,114
134,239	-4,601	236,728	116,783
135,254	-4,266	236,464	116,913
136,268	-4,637	236,359	116,551
137,283	-4,777	235,986	116,244
138,297	-4,930	235,828	116,032
139,312	-4,909	235,630	115,941
140,327	-4,608	235,673	116,194
141,341	-4,083	235,529	116,535
142,356	-4,045	235,387	116,485
143,370	-4,164	235,410	116,391
144,385	-4,180	235,164	116,246
145,400	-4,008	234,961	116,272
146,414	-4,036	234,696	116,109
147,429	-4,203	234,467	115,851
148,443	-4,040	234,440	115,958
149,458	-3,884	234,250	115,978
150,473	-4,160	234,059	115,654
151,487	-4,320	233,978	115,475
152,502	-4,159	233,796	115,504
153,516	-4,068	233,555	115,447
154,531	-4,056	233,209	115,275
155,546	-4,125	233,198	115,204
156,560	-4,140	232,962	115,066
157,575	-4,290	232,790	114,851
158,589	-4,138	232,483	114,810
159,604	-4,184	232,655	114,849
160,619	-4,135	232,440	114,771
161,633	-3,876	232,228	114,861
162,648	-4,119	232,089	114,590
163,662	-4,102	232,005	114,552
164,677	-4,279	231,736	114,268
165,692	-4,183	231,734	114,333
166,706	-3,885	231,554	114,469
167,721	-3,975	231,397	114,310
168,735	-3,937	231,305	114,285
169,750	-4,028	231,018	114,061
170,764	-4,044	230,977	114,018
171,779	-4,071	230,857	113,927
172,794	-3,982	230,559	113,840
173,808	-3,929	230,220	113,704
174,823	-4,690	230,064	113,021
175,837	-4,702	229,966	112,954
176,852	-4,211	229,807	113,250
177,867	-4,205	229,822	113,251
178,881	-3,903	229,638	113,386
179,896	-3,831	229,501	113,365
180,910	-3,959	229,366	113,188
181,925	-4,077	229,407	113,106
182,940	-3,970	228,988	112,973
183,954	-4,107	229,007	112,865
184,969	-3,859	228,863	112,977
185,983	-3,778	228,530	112,866
186,998	-3,820	228,467	112,792
188,013	-3,816	228,367	112,736
189,027	-3,878	228,202	112,596
190,042	-3,862	227,872	112,435
191,056	-3,732	227,828	112,505
192,071	-3,984	227,715	112,244
193,086	-3,878	227,554	112,236
194,100	-4,115	227,471	112,002
195,115	-4,316	226,939	111,576
196,129	-5,377	226,650	110,607
197,144	-2,145	227,716	113,615
198,159	1,987	228,893	117,395
199,173	4,072	229,295	119,207
200,188	4,260	229,057	119,217
201,202	4,112	228,939	119,031
202,217	4,420	228,899	119,238
203,232	4,675	228,851	119,399
204,246	4,733	228,730	119,370
205,261	4,712	228,674	119,314
206,275	5,094	228,362	119,435
207,290	4,959	228,262	119,268
208,304	4,928	228,204	119,203
209,319	4,914	228,132	119,144
210,334	4,674	227,846	118,799
211,348	4,718	227,485	118,634
212,363	4,162	227,363	118,134
213,377	3,963	227,164	117,868
214,392	3,987	226,956	117,768
215,407	4,151	226,911	117,859
216,421	4,222	226,685	117,785
217,436	3,999	226,492	117,504
218,450	3,967	226,320	117,381
219,465	3,604	226,200	117,031
220,480	3,793	226,114	117,120
221,494	3,704	225,954	116,959
222,509	3,973	225,761	117,053
223,523	4,171	225,626	117,123
224,538	4,031	225,462	116,921
225,553	3,999	225,340	116,823
226,567	4,228	225,256	116,943
227,582	4,352	225,088	116,940
228,596	4,601	225,020	117,082
229,611	4,065	224,883	116,594
230,626	3,931	224,559	116,315
231,640	3,931	224,439	116,242
232,655	4,429	224,383	116,579
233,669	4,737	224,343	116,781
234,684	4,558	224,327	116,627
235,699	4,766	223,819	116,509
236,713	4,316	223,791	116,145
237,728	4,034	223,568	115,807
238,742	4,032	223,297	115,655
239,757	3,869	223,214	115,479
240,772	3,913	223,121	115,454
241,786	3,957	223,087	115,459
242,801	4,121	223,014	115,533
243,815	4,452	222,819	115,671
244,830	4,459	222,620	115,562
245,844	4,078	222,469	115,188
246,859	4,080	222,327	115,106
247,874	4,261	222,229	115,181
248,888	4,321	222,004	115,098
249,903	4,439	221,803	115,071
250,917	4,162	221,734	114,819
251,932	3,932	221,570	114,553
252,947	4,023	221,320	114,481
253,961	3,807	221,251	114,275
254,976	4,012	221,152	114,365
255,990	4,289	221,065	114,516
257,005	4,316	220,853	114,416
258,020	4,129	220,897	114,290
259,034	4,562	220,637	114,466
260,049	4,578	220,402	114,346
261,063	4,404	220,284	114,146
262,078	4,462	220,296	114,184
263,093	4,324	220,139	113,991
264,107	4,448	219,941	113,970
265,122	4,350	219,932	113,883
266,136	4,578	219,659	113,899
267,151	4,613	219,493	113,829
268,166	4,280	219,279	113,463
269,180	3,744	219,083	112,957
270,195	4,078	218,923	113,110
271,209	3,933	218,779	112,919
272,224	3,891	218,637	112,805
273,239	4,240	218,587	113,025
274,253	4,108	218,379	112,810
275,268	3,868	218,165	112,515
276,282	3,774	217,951	112,325
277,297	3,752	217,858	112,251
278,312	3,825	217,790	112,260
279,326	4,031	217,784	112,397
280,341	3,922	217,657	112,241
281,355	3,991	217,445	112,173
282,370	4,007	217,209	112,053
283,384	4,103	217,050	112,030
284,399	3,746	216,938	111,703
285,414	3,844	216,758	111,671
286,428	4,029	216,708	111,770
287,443	4,298	216,578	111,888
288,457	4,275	216,614	111,880
289,472	4,339	216,273	111,740
290,487	3,446	216,216	111,054
291,501	3,560	215,924	110,977
292,516	3,719	215,903	111,071
293,530	3,757	215,707	110,988
294,545	3,453	215,604	110,705
295,560	3,919	215,458	110,957
296,574	4,015	215,364	110,968
297,589	4,050	215,167	110,881
298,603	4,205	215,132	110,966
299,618	4,151	214,949	110,822
300,633	4,300	214,782	110,833
301,647	4,204	214,790	110,758
302,662	4,464	214,722	110,900
303,676	4,371	214,575	110,748
304,691	4,177	214,273	110,443
305,706	4,161	214,262	110,415
306,720	4,329	214,159	110,473
307,735	4,172	214,038	110,288
308,749	4,024	213,658	109,977
309,764	4,021	213,708	109,991
310,779	4,527	213,430	110,200
311,793	4,309	213,289	109,961
312,808	4,025	213,219	109,713
313,822	4,338	213,020	109,824
314,837	4,149	212,884	109,609
315,852	3,861	212,625	109,262
316,866	4,028	212,569	109,342
317,881	4,441	212,538	109,609
318,895	4,408	212,351	109,480
319,910	4,173	212,242	109,247
320,925	3,899	212,057	108,948
321,939	3,550	211,755	108,536
322,954	3,617	211,729	108,560
323,968	4,069	211,662	108,836
324,983	4,133	211,607	108,844
325,997	4,486	211,466	109,010
327,012	4,093	211,242	108,608
328,027	4,214	211,098	108,610
329,041	4,363	211,141	108,727
330,056	4,576	210,915	108,751
331,070	4,053	210,802	108,315
332,085	3,667	210,568	107,914
333,100	3,844	210,453	107,970
334,114	4,051	210,426	108,091
335,129	4,051	210,184	107,958
336,143	3,929	210,075	107,806
337,158	4,022	209,781	107,710
338,173	4,068	209,865	107,777
339,187	3,902	209,558	107,493
340,202	3,860	209,284	107,314
341,216	3,539	209,338	107,108
342,231	3,798	209,191	107,204
343,246	3,893	209,108	107,218
344,260	4,166	209,019	107,352
345,275	3,890	209,005	107,144
346,289	4,230	208,799	107,265
347,304	4,089	208,666	107,089
348,319	4,291	208,472	107,120
349,333	4,054	208,276	106,845
350,348	4,024	208,219	106,786
351,362	4,216	208,168	106,884
352,377	4,392	208,119	106,971
353,392	4,059	207,877	106,606
354,406	4,236	207,588	106,571
355,421	194,207	1344,487	1434,322
356,435	154,946	1483,119	1434,449
