DTS Sentinel unit serial number:	SN410029Multiplexer serial number:	ORYXHardware model number:	OX2-SRSoftware version number:	ORYX F/W v4,00 Oryx Data Collector v3.7.2.0data status	okinstallation	B6 Nyhavnadifferential loss correction	single-endedforward channel	channel 2reverse channel	N/Adate	2023/12/10time	22:45:08forward acquisition time	300,00reverse acquisition time	0,00gamma	499,1914k internal	0,3122k external	0,3122temperature offset calibration	1,0000default loss term (dB/km)	0,3820temperature slope calibration	1,0000multiplexer offset coefficient	1,0000multiplexer slope coefficient	1,0000fibre end	0,00T internal ref (°C)	22,37T ext. ref 1 (°C)	6,14T ext. ref 2 (°C)	6,15length (m)	temperature (°C)	Stokes	anti-Stokes-744,400	23,596	-0,130	-0,080
-743,385	6,674	-0,269	0,149
-742,371	-66,661	0,120	0,035
-741,356	-56,091	-0,311	0,103
-740,342	9,548	0,061	0,034
-739,327	97,180	-0,167	0,143
-738,312	665,538	0,108	-0,209
-737,298	-101,730	-0,174	0,031
-736,283	-200,000	0,032	-0,120
-735,269	-70,029	-0,263	0,074
-734,254	800,000	0,011	0,024
-733,239	-99,931	-0,346	0,064
-732,225	-124,358	0,071	-0,008
-731,210	-191,936	0,048	-0,000
-730,196	-200,000	0,016	-0,100
-729,181	54,848	-0,023	-0,016
-728,167	-200,000	0,004	0,077
-727,152	147,566	0,088	-0,088
-726,137	-160,838	-0,104	-0,004
-725,123	-200,000	0,003	-0,106
-724,108	194,245	-0,108	-0,122
-723,094	341,372	-0,045	-0,065
-722,079	575,989	0,020	-0,036
-721,064	234,467	0,061	-0,075
-720,050	2,418	-0,113	-0,061
-719,035	-33,345	0,056	-0,023
-718,021	-200,000	-0,003	-0,042
-717,006	-200,000	-0,032	-0,112
-715,991	-70,943	-0,049	0,014
-714,977	-200,000	-0,007	-0,065
-713,962	-65,087	-0,120	-0,036
-712,948	111,985	0,015	0,013
-711,933	420,793	-0,030	0,048
-710,918	800,000	0,009	0,023
-709,904	-1,969	-0,065	0,034
-708,889	20,540	-0,067	-0,040
-707,875	800,000	0,027	0,065
-706,860	800,000	0,038	0,109
-705,845	328,237	-0,061	-0,088
-704,831	-25,173	-0,054	0,024
-703,816	-200,000	0,011	0,044
-702,802	-33,619	0,049	-0,020
-701,787	342,004	-0,034	-0,050
-700,772	-135,096	0,160	0,014
-699,758	776,984	-0,028	0,058
-698,743	48,028	0,109	-0,075
-697,729	457,768	-0,081	-0,134
-696,714	-163,063	0,187	-0,007
-695,699	-46,721	-0,056	-0,020
-694,685	-200,000	-0,011	-0,059
-693,670	670,287	-0,025	0,048
-692,656	-200,000	-0,004	-0,082
-691,641	202,382	-0,026	0,030
-690,627	-200,000	0,007	0,029
-689,612	786,959	-0,040	0,083
-688,597	191,346	-0,125	0,140
-687,583	-112,779	-0,064	-0,009
-686,568	478,172	0,006	0,010
-685,554	-61,696	-0,132	-0,041
-684,539	-152,003	-0,032	0,002
-683,524	133,413	0,132	0,127
-682,510	351,326	0,069	0,102
-681,495	-137,667	-0,118	-0,010
-680,481	659,368	-0,014	0,027
-679,466	-173,165	-0,160	0,004
-678,451	-97,600	-0,038	-0,007
-677,437	-65,809	0,020	-0,006
-676,422	800,000	0,015	0,036
-675,408	177,077	0,031	-0,033
-674,393	65,169	0,100	-0,075
-673,378	-200,000	-0,019	-0,199
-672,364	29,478	0,119	-0,075
-671,349	-200,000	0,002	-0,050
-670,335	-200,000	0,030	-0,117
-669,320	45,743	0,068	-0,047
-668,305	-73,294	-0,028	-0,008
-667,291	-93,356	-0,076	-0,016
-666,276	-200,000	0,008	-0,224
-665,262	78,624	-0,161	-0,128
-664,247	-200,000	-0,009	-0,081
-663,232	90,238	0,080	0,066
-662,218	-114,518	0,117	0,017
-661,203	-200,000	0,005	-0,090
-660,189	-65,717	-0,134	0,040
-659,174	472,717	0,030	-0,050
-658,159	800,000	-0,091	-0,229
-657,145	-112,756	-0,169	-0,025
-656,130	30,970	0,100	0,064
-655,116	-200,000	0,017	0,075
-654,101	62,576	-0,106	0,079
-653,086	-115,598	0,111	-0,015
-652,072	-200,000	0,007	-0,031
-651,057	502,218	-0,102	-0,176
-650,043	800,000	-0,030	-0,076
-649,028	-82,121	-0,109	-0,026
-648,014	87,923	0,047	0,039
-646,999	800,000	-0,028	-0,085
-645,984	-20,395	-0,061	-0,028
-644,970	800,000	0,029	-0,085
-643,955	-200,000	0,007	-0,160
-642,941	-200,000	0,010	-0,043
-641,926	800,000	-0,036	0,107
-640,911	-100,699	0,151	0,027
-639,897	294,598	0,117	0,160
-638,882	420,410	-0,058	0,093
-637,868	-48,979	0,046	0,016
-636,853	20,173	-0,036	0,022
-635,838	-200,000	0,018	-0,099
-634,824	524,135	-0,023	-0,040
-633,809	800,000	0,023	0,072
-632,795	-200,000	0,017	0,134
-631,780	167,452	0,071	-0,075
-630,765	-165,796	-0,086	-0,003
-629,751	-200,000	-0,044	-0,195
-628,736	606,592	-0,048	-0,089
-627,722	233,000	-0,056	-0,069
-626,707	-200,000	0,035	0,137
-625,692	313,322	0,050	-0,070
-624,678	272,736	0,053	-0,069
-623,663	-200,000	-0,005	0,043
-622,649	-200,000	0,001	0,055
-621,634	-54,840	-0,089	-0,030
-620,619	-5,177	-0,057	0,029
-619,605	82,319	0,090	-0,072
-618,590	-96,286	-0,115	-0,022
-617,576	-200,000	-0,001	0,158
-616,561	800,000	-0,074	0,175
-615,546	437,188	-0,007	-0,011
-614,532	65,439	0,084	-0,063
-613,517	-200,000	-0,011	0,075
-612,503	-34,825	-0,109	-0,044
-611,488	-200,000	-0,009	0,058
-610,474	-200,000	0,003	-0,122
-609,459	-200,000	-0,001	-0,026
-608,444	136,378	-0,100	-0,097
-607,430	171,414	0,085	-0,091
-606,415	321,497	-0,023	-0,033
-605,401	-200,000	0,174	0,000
-604,386	131,307	0,097	0,092
-603,371	-10,733	-0,112	0,055
-602,357	-46,224	0,028	-0,010
-601,342	203,375	0,078	-0,090
-600,328	-200,000	0,016	-0,162
-599,313	133,948	0,042	-0,041
-598,298	273,749	-0,021	0,028
-597,284	142,770	-0,063	-0,062
-596,269	-200,000	-0,006	0,099
-595,255	-139,026	0,139	0,011
-594,240	800,000	0,022	-0,063
-593,225	29,232	-0,058	-0,037
-592,211	-200,000	-0,052	0,229
-591,196	-183,166	-0,067	0,001
-590,182	22,434	0,111	0,067
-589,167	128,871	0,045	0,042
-588,152	456,121	-0,029	0,048
-587,138	-200,000	0,001	-0,071
-586,123	168,022	-0,096	-0,101
-585,109	51,155	0,064	-0,045
-584,094	45,183	-0,102	-0,070
-583,079	-200,000	-0,004	0,089
-582,065	-40,239	0,165	-0,063
-581,050	64,637	0,052	-0,039
-580,036	96,685	0,108	0,091
-579,021	199,913	-0,024	0,027
-578,006	387,685	0,018	-0,028
-576,992	52,955	-0,099	-0,070
-575,977	41,741	0,089	0,060
-574,963	89,998	-0,086	-0,072
-573,948	-186,138	-0,103	-0,001
-572,934	-108,894	0,069	-0,011
-571,919	-200,000	-0,037	0,157
-570,904	277,589	0,063	0,084
-569,890	-200,000	-0,003	-0,029
-568,875	396,908	0,050	-0,078
-567,861	174,750	-0,055	0,059
-566,846	-59,789	0,108	0,034
-565,831	-126,358	0,034	-0,004
-564,817	304,598	-0,072	0,099
-563,802	7,472	-0,092	-0,051
-562,788	-200,000	0,030	-0,156
-561,773	800,000	0,023	-0,057
-560,758	17,572	-0,058	-0,034
-559,744	-4,768	-0,092	0,047
-558,729	641,383	-0,048	-0,092
-557,715	78,855	-0,087	0,069
-556,700	188,174	-0,128	-0,142
-555,685	208,242	-0,063	0,073
-554,671	-200,000	0,046	-0,186
-553,656	498,118	-0,020	-0,035
-552,642	-88,888	-0,102	0,022
-551,627	303,873	-0,052	0,072
-550,612	-200,000	-0,032	0,108
-549,598	-99,157	-0,094	-0,017
-548,583	-110,466	-0,097	0,015
-547,569	209,529	0,027	-0,032
-546,554	-200,000	0,011	-0,108
-545,539	123,675	-0,057	0,053
-544,525	349,137	-0,033	0,048
-543,510	-200,000	0,054	-0,000
-542,496	-104,267	0,121	-0,021
-541,481	-33,595	-0,110	0,045
-540,466	125,162	0,079	-0,074
-539,452	-200,000	0,045	-0,186
-538,437	175,305	-0,034	-0,036
-537,423	686,945	0,069	-0,134
-536,408	249,199	-0,029	0,037
-535,393	-153,434	-0,178	0,009
-534,379	-200,000	-0,008	0,030
-533,364	-200,000	0,013	-0,082
-532,350	19,301	0,015	0,009
-531,335	-200,000	0,009	-0,056
-530,321	-200,000	0,032	0,149
-529,306	723,735	0,027	0,054
-528,291	-200,000	-0,104	0,000
-527,277	-146,739	0,036	0,002
-526,262	110,008	0,140	0,124
-525,248	346,610	-0,071	0,104
-524,233	-200,000	0,013	0,130
-523,218	-52,768	0,090	0,030
-522,204	115,049	0,073	-0,066
-521,189	149,679	0,042	-0,042
-520,175	-200,000	-0,066	-0,230
-519,160	218,349	-0,071	-0,084
-518,145	722,848	-0,041	-0,081
-517,131	-200,000	0,022	-0,110
-516,116	-200,000	-0,000	0,061
-515,102	227,873	0,087	-0,105
-514,087	80,288	-0,041	-0,032
-513,072	-200,000	-0,018	-0,138
-512,058	800,000	-0,021	0,048
-511,043	800,000	-0,035	-0,074
-510,029	44,005	0,016	-0,011
-509,014	-1,649	0,026	-0,013
-507,999	-114,194	0,040	0,006
-506,985	-95,386	0,082	0,016
-505,970	-129,951	-0,097	-0,010
-504,956	-200,000	0,001	0,065
-503,941	242,120	0,041	-0,050
-502,926	326,247	0,037	0,052
-501,912	119,130	0,119	-0,109
-500,897	-54,589	0,139	0,046
-499,883	9,251	-0,092	-0,051
-498,868	273,822	-0,073	-0,096
-497,853	-200,000	0,017	-0,121
-496,839	177,064	0,129	-0,139
-495,824	-200,000	-0,002	-0,164
-494,810	-21,920	0,106	-0,047
-493,795	-124,966	-0,056	0,006
-492,781	-120,885	0,098	0,012
-491,766	-43,939	-0,076	-0,028
-490,751	-102,684	-0,108	0,019
-489,737	800,000	0,046	0,114
-488,722	-42,574	-0,129	-0,048
-487,708	-27,989	-0,075	0,032
-486,693	53,573	0,081	0,057
-485,678	-200,000	-0,000	0,011
-484,664	-47,666	-0,097	-0,034
-483,649	-200,000	-0,016	-0,068
-482,635	-200,000	-0,000	-0,132
-481,620	-107,985	-0,001	0,000
-480,605	-200,000	-0,009	0,118
-479,591	800,000	-0,059	-0,130
-478,576	23,930	-0,131	-0,079
-477,562	-22,044	-0,122	-0,054
-476,547	800,000	-0,031	-0,074
-475,532	-127,044	-0,039	0,004
-474,518	463,782	0,048	0,079
-473,503	800,000	0,045	0,139
-472,489	154,661	-0,031	0,032
-471,474	0,694	0,078	-0,041
-470,459	436,930	0,036	-0,058
-469,445	438,472	-0,048	-0,077
-468,430	-157,604	0,062	-0,003
-467,416	800,000	-0,010	0,020
-466,401	-25,789	0,106	0,046
-465,386	361,163	0,052	0,077
-464,372	459,932	0,027	0,045
-463,357	-109,760	0,037	0,006
-462,343	364,908	0,057	0,085
-461,328	-27,007	-0,036	0,015
-460,313	239,027	0,093	0,114
-459,299	-200,000	0,005	0,081
-458,284	-200,000	0,012	-0,103
-457,270	-20,440	-0,029	0,013
-456,255	411,597	0,057	0,090
-455,241	-200,000	0,002	-0,089
-454,226	-200,000	-0,011	0,040
-453,211	759,461	-0,049	-0,098
-452,197	-30,295	0,136	-0,056
-451,182	431,586	-0,030	0,047
-450,168	521,929	0,029	-0,051
-449,153	17,117	0,028	-0,016
-448,138	-37,982	-0,031	0,012
-447,124	800,000	-0,020	0,064
-446,109	641,222	-0,036	0,069
-445,095	-167,573	-0,068	-0,002
-444,080	284,814	-0,048	0,064
-443,065	39,551	0,057	-0,038
-442,051	-164,094	-0,123	0,004
-441,036	800,000	-0,025	-0,079
-440,022	-200,000	-0,023	-0,077
-439,007	-200,000	-0,006	0,046
-437,992	387,215	-0,042	0,064
-436,978	167,819	0,052	0,054
-435,963	308,168	-0,093	-0,128
-434,949	-200,000	-0,001	0,062
-433,934	259,220	-0,038	0,048
-432,919	531,775	-0,056	-0,098
-431,905	347,794	-0,055	-0,080
-430,890	-75,203	-0,048	0,013
-429,876	-200,000	-0,049	0,180
-428,861	-150,839	0,047	0,003
-427,846	119,406	0,037	-0,034
-426,832	-74,393	-0,127	0,033
-425,817	185,534	-0,096	-0,105
-424,803	77,201	0,099	0,077
-423,788	611,306	0,046	0,085
-422,773	30,528	0,204	0,128
-421,759	-0,349	-0,141	-0,073
-420,744	17,857	-0,078	-0,045
-419,730	-109,850	0,033	0,005
-418,715	-91,251	0,158	0,033
-417,701	-13,114	-0,030	0,014
-416,686	-137,601	-0,210	-0,017
-415,671	-111,590	-0,093	-0,014
-414,657	-130,626	0,191	-0,019
-413,642	127,516	0,019	0,017
-412,628	364,292	0,098	0,145
-411,613	553,409	0,054	0,096
-410,598	7,556	-0,076	0,042
-409,584	-71,809	0,089	0,024
-408,569	73,394	0,037	-0,029
-407,555	-113,036	0,059	0,008
-406,540	272,338	-0,046	-0,060
-405,525	73,361	-0,019	-0,015
-404,511	184,978	0,075	0,082
-403,496	-159,628	0,049	0,002
-402,482	54,725	-0,119	-0,085
-401,467	165,154	-0,028	-0,029
-400,452	469,678	-0,058	0,096
-399,438	235,288	-0,040	-0,049
-398,423	191,055	-0,081	-0,089
-397,409	73,128	0,071	0,055
-396,394	-9,137	-0,076	0,037
-395,379	664,313	0,086	-0,164
-394,365	227,849	-0,084	-0,101
-393,350	469,001	-0,027	-0,045
-392,336	-200,000	0,002	0,010
-391,321	800,000	0,015	0,040
-390,306	-123,884	0,042	0,005
-389,292	-68,123	-0,049	0,014
-388,277	800,000	0,035	-0,110
-387,263	-66,851	-0,043	-0,013
-386,248	81,509	-0,033	0,027
-385,233	648,186	0,033	-0,063
-384,219	-74,488	0,173	-0,046
-383,204	800,000	-0,046	-0,102
-382,190	800,000	0,055	-0,120
-381,175	192,348	-0,087	-0,097
-380,160	61,128	0,165	0,120
-379,146	753,931	-0,049	0,098
-378,131	158,517	0,048	0,049
-377,117	-200,000	0,025	-0,178
-376,102	-65,781	-0,085	-0,025
-375,088	21,151	-0,054	-0,032
-374,073	-13,185	0,042	0,020
-373,058	355,610	-0,079	0,116
-372,044	456,459	-0,066	0,108
-371,029	89,121	0,034	0,028
-370,015	-44,656	-0,055	0,020
-369,000	-145,659	-0,077	0,005
-367,985	397,330	0,026	-0,040
-366,971	631,277	0,022	-0,040
-365,956	-64,588	0,075	-0,022
-364,942	-200,000	-0,027	0,098
-363,927	-200,000	-0,021	0,143
-362,912	-25,195	-0,069	-0,030
-361,898	-200,000	0,005	-0,037
-360,883	357,834	0,014	0,020
-359,869	-200,000	-0,022	-0,074
-358,854	74,422	-0,070	0,054
-357,839	-127,118	-0,119	-0,013
-356,825	-143,662	0,005	0,000
-355,810	37,034	-0,108	0,070
-354,796	-200,000	-0,011	0,094
-353,781	-200,000	-0,007	0,026
-352,766	800,000	-0,004	0,011
-351,752	-195,131	0,137	0,001
-350,737	40,506	-0,070	0,046
-349,723	-68,132	0,055	0,016
-348,708	40,027	0,059	0,039
-347,693	707,811	-0,006	0,012
-346,679	-200,000	-0,003	0,037
-345,664	737,300	-0,086	-0,170
-344,650	800,000	0,007	-0,015
-343,635	179,563	-0,077	0,083
-342,620	441,120	0,045	0,073
-341,606	269,204	0,079	0,102
-340,591	528,666	-0,019	0,034
-339,577	97,607	0,026	-0,022
-338,562	37,810	0,141	-0,092
-337,548	-200,000	0,014	-0,067
-336,533	-200,000	0,033	-0,199
-335,518	-139,220	0,094	0,007
-334,504	452,384	0,073	0,119
-333,489	741,690	-0,057	0,113
-332,475	800,000	0,031	0,092
-331,460	-111,150	-0,100	-0,015
-330,445	-194,782	-0,174	0,001
-329,431	-103,331	0,095	0,016
-328,416	-200,000	0,000	-0,088
-327,402	-37,493	-0,038	0,015
-326,387	8,589	0,023	-0,013
-325,372	-150,205	0,019	0,001
-324,358	133,488	0,057	0,055
-323,343	800,000	-0,074	-0,185
-322,329	-197,242	0,073	-0,000
-321,314	-86,936	0,095	-0,021
-320,299	-8,966	0,093	0,045
-319,285	800,000	-0,019	0,055
-318,270	800,000	0,011	-0,028
-317,256	-37,032	-0,195	-0,076
-316,241	-200,000	0,036	-0,183
-315,226	-7,150	0,098	0,048
-314,212	-200,000	0,015	0,132
-313,197	-200,000	-0,029	0,150
-312,183	-110,699	-0,058	-0,009
-311,168	-77,451	-0,086	-0,022
-310,153	800,000	-0,056	-0,180
-309,139	-37,523	-0,052	0,020
-308,124	800,000	0,015	0,032
-307,110	297,385	0,123	0,166
-306,095	457,820	0,039	0,064
-305,080	-17,860	0,112	0,051
-304,066	-200,000	0,001	0,008
-303,051	-200,000	-0,000	-0,044
-302,037	82,735	0,040	0,032
-301,022	-35,099	-0,035	-0,014
-300,008	-97,809	0,063	-0,012
-298,993	800,000	0,014	-0,035
-297,978	-140,304	0,144	0,011
-296,964	-155,721	-0,072	0,003
-295,949	800,000	-0,042	-0,105
-294,935	365,802	-0,050	0,074
-293,920	-130,496	0,167	-0,016
-292,905	-128,104	0,048	-0,005
-291,891	576,829	0,003	-0,005
-290,876	-36,235	-0,111	0,044
-289,862	-9,105	-0,059	-0,029
-288,847	14,490	-0,074	-0,042
-287,832	-171,647	-0,105	0,002
-286,818	-41,184	0,031	0,012
-285,803	800,000	-0,006	0,020
-284,789	225,356	0,068	-0,080
-283,774	-91,682	0,132	-0,027
-282,759	180,732	-0,033	0,036
-281,745	84,735	-0,089	-0,071
-280,730	-200,000	0,022	-0,175
-279,716	-200,000	0,010	0,042
-278,701	-22,293	-0,129	0,057
-277,686	131,661	-0,028	-0,026
-276,672	-172,995	0,059	-0,001
-275,657	7,560	0,062	0,034
-274,643	800,000	-0,029	-0,086
-273,628	-111,328	0,047	-0,007
-272,613	-200,000	-0,008	0,059
-271,599	-7,821	-0,164	0,081
-270,584	-200,000	0,019	0,092
-269,570	289,206	-0,026	-0,034
-268,555	-81,513	0,082	-0,020
-267,540	-31,056	0,024	0,010
-266,526	235,377	0,065	-0,079
-265,511	-115,716	-0,119	0,016
-264,497	800,000	-0,016	0,036
-263,482	28,194	0,095	-0,059
-262,467	-200,000	0,033	0,148
-261,453	-200,000	0,013	0,175
-260,438	-42,912	-0,136	-0,050
-259,424	-200,000	-0,014	0,046
-258,409	-200,000	0,008	0,112
-257,395	-200,000	-0,004	-0,018
-256,380	800,000	0,053	0,120
-255,365	-10,154	0,118	-0,057
-254,351	110,005	0,094	0,083
-253,336	-200,000	-0,021	-0,086
-252,322	-4,249	0,014	0,007
-251,307	800,000	-0,019	0,049
-250,292	771,803	0,067	0,135
-249,278	145,543	0,110	0,108
-248,263	-20,122	0,043	0,019
-247,249	-200,000	-0,029	0,105
-246,234	548,979	-0,089	0,156
-245,219	364,488	0,086	-0,126
-244,205	670,171	-0,062	0,117
-243,190	800,000	0,012	-0,025
-242,176	800,000	0,037	0,109
-241,161	-50,155	0,123	-0,042
-240,146	-105,783	-0,112	-0,018
-239,132	48,896	-0,046	-0,031
-238,117	-54,210	-0,023	-0,007
-237,103	800,000	0,054	-0,143
-236,088	800,000	-0,051	-0,111
-235,073	229,535	0,035	0,041
-234,059	-101,568	-0,019	0,003
-233,044	469,205	-0,056	0,093
-232,030	572,467	0,040	0,071
-231,015	-122,542	-0,170	0,020
-230,000	800,000	0,039	-0,100
-228,986	-8,188	-0,078	0,038
-227,971	66,099	-0,066	-0,049
-226,957	-134,816	0,122	-0,011
-225,942	96,386	-0,079	0,066
-224,927	800,000	-0,048	-0,106
-223,913	-176,344	0,088	-0,002
-222,898	-59,619	0,040	0,012
-221,884	-17,071	0,058	0,027
-220,869	33,862	0,127	-0,080
-219,855	198,195	0,067	0,075
-218,840	147,913	0,061	0,060
-217,825	-170,106	-0,119	0,003
-216,811	800,000	0,031	0,074
-215,796	186,042	-0,091	-0,099
-214,782	145,094	0,097	-0,095
-213,767	16,962	0,115	0,066
-212,752	151,088	-0,071	0,071
-211,738	-200,000	-0,073	0,272
-210,723	129,686	0,049	0,046
-209,709	-165,391	-0,056	-0,002
-208,694	-4,533	-0,122	0,061
-207,679	-63,424	-0,055	0,017
-206,665	350,416	0,059	-0,086
-205,650	-200,000	0,007	-0,048
-204,636	94,469	0,161	0,133
-203,621	-200,000	0,002	0,037
-202,606	79,507	-0,073	-0,057
-201,592	79,844	-0,028	0,022
-200,577	-200,000	0,016	0,054
-199,563	-146,992	-0,079	-0,005
-198,548	488,164	0,035	0,059
-197,533	449,149	0,012	-0,019
-196,519	745,879	-0,066	0,131
-195,504	-97,289	0,179	-0,034
-194,490	-200,000	-0,010	0,045
-193,475	800,000	-0,027	-0,076
-192,460	-103,627	0,098	0,017
-191,446	-46,426	0,117	-0,042
-190,431	-200,000	0,012	0,157
-189,417	-40,973	-0,159	-0,060
-188,402	-19,714	0,063	0,028
-187,387	-15,247	-0,076	-0,035
-186,373	-125,465	-0,076	0,008
-185,358	-141,429	0,092	-0,007
-184,344	173,652	0,012	-0,012
-183,329	-113,255	-0,023	0,003
-182,315	404,362	-0,064	0,099
-181,300	175,134	0,040	-0,043
-180,285	-10,453	0,056	0,027
-179,271	-200,000	-0,001	-0,184
-178,256	55,163	-0,166	-0,117
-177,242	-143,132	0,038	-0,003
-176,227	385,778	-0,054	0,081
-175,212	-83,080	0,077	-0,018
-174,198	-200,000	0,010	0,041
-173,183	305,186	0,092	0,125
-172,169	800,000	0,018	0,039
-171,154	413,741	-0,071	-0,110
-170,139	-81,935	0,115	-0,027
-169,125	-72,396	-0,021	-0,006
-168,110	-200,000	0,013	0,060
-167,096	-200,000	0,023	0,211
-166,081	10,660	-0,115	0,064
-165,066	-31,433	0,074	-0,030
-164,052	800,000	0,024	-0,052
-163,037	259,621	0,085	0,108
-162,023	-200,000	0,008	-0,065
-161,008	-200,000	0,022	0,092
-159,993	374,292	0,062	-0,093
-158,979	319,920	-0,107	0,148
-157,964	800,000	0,031	-0,064
-156,950	215,517	-0,068	-0,079
-155,935	-200,000	-0,018	-0,094
-154,920	800,000	0,060	-0,134
-153,906	800,000	-0,030	0,074
-152,891	29,375	0,102	-0,063
-151,877	-200,000	-0,011	0,052
-150,862	333,670	-0,026	-0,037
-149,847	28,289	-0,050	-0,031
-148,833	-132,662	0,049	0,005
-147,818	-200,000	0,005	0,028
-146,804	-200,000	0,028	0,149
-145,789	152,681	-0,128	0,127
-144,775	-200,000	-0,009	0,090
-143,760	16,964	0,052	-0,030
-142,745	244,827	-0,069	-0,085
-141,731	-200,000	-0,009	-0,046
-140,716	54,555	-0,088	0,062
-139,702	800,000	0,090	0,204
-138,687	219,125	-0,087	0,101
-137,672	242,867	0,048	0,059
-136,658	286,357	-0,104	-0,137
-135,643	148,575	-0,102	0,100
-134,629	61,923	-0,059	0,043
-133,614	116,468	0,078	0,069
-132,599	60,985	0,017	0,013
-131,585	84,038	0,067	0,053
-130,570	-144,074	-0,072	0,005
-129,556	572,714	-0,020	-0,036
-128,541	-174,594	0,026	0,001
-127,526	311,771	0,049	0,067
-126,512	134,078	-0,024	0,023
-125,497	166,488	0,083	0,085
-124,483	800,000	0,024	0,050
-123,468	76,974	-0,128	0,099
-122,453	106,253	0,078	-0,067
-121,439	-48,919	-0,153	-0,053
-120,424	-5,657	0,098	-0,048
-119,410	429,905	-0,024	0,038
-118,395	328,569	-0,042	-0,058
-117,380	-65,704	0,044	-0,013
-116,366	247,923	-0,076	0,094
-115,351	-200,000	-0,003	0,025
-114,337	476,587	0,034	0,056
-113,322	26,657	0,086	0,052
-112,307	-19,627	0,077	-0,034
-111,293	-34,820	0,072	-0,028
-110,278	800,000	0,022	0,044
-109,264	545,982	0,067	-0,117
-108,249	492,603	0,036	-0,060
-107,234	744,256	-0,034	0,067
-106,220	-90,414	-0,059	0,012
-105,205	800,000	0,026	-0,054
-104,191	149,395	-0,039	-0,038
-103,176	-200,000	-0,020	-0,122
-102,162	-200,000	-0,012	-0,087
-101,147	363,535	0,062	-0,091
-100,132	-200,000	-0,004	-0,070
-99,118	154,517	-0,094	-0,094
-98,103	330,102	-0,038	-0,053
-97,089	-104,915	0,199	-0,033
-96,074	-147,499	0,075	-0,005
-95,059	-104,548	-0,116	0,019
-94,045	-113,278	0,038	-0,005
-93,030	-200,000	-0,001	-0,104
-92,016	800,000	-0,024	0,058
-91,001	451,243	-0,067	-0,109
-89,986	800,000	-0,015	0,039
-88,972	-137,662	-0,070	0,006
-87,957	-200,000	-0,012	-0,046
-86,943	182,342	-0,102	-0,109
-85,928	800,000	0,036	0,089
-84,913	-200,000	-0,011	-0,169
-83,899	-156,547	-0,047	-0,002
-82,884	-200,000	0,003	0,052
-81,870	240,157	-0,109	0,132
-80,855	-200,000	0,019	0,204
-79,840	800,000	-0,004	-0,012
-78,826	6,333	-0,053	-0,029
-77,811	-200,000	0,008	0,031
-76,797	-83,063	-0,057	-0,013
-75,782	800,000	0,038	-0,078
-74,767	-200,000	-0,025	0,120
-73,753	-200,000	-0,004	-0,092
-72,738	-81,194	0,075	0,018
-71,724	66,307	0,064	-0,047
-70,709	-63,321	-0,154	0,046
-69,694	800,000	0,034	0,070
-68,680	-20,786	0,135	0,060
-67,665	800,000	-0,049	0,154
-66,651	226,415	-0,075	0,088
-65,636	-118,629	-0,121	-0,015
-64,622	-120,934	-0,035	0,004
-63,607	498,873	-0,087	-0,146
-62,592	-200,000	-0,020	0,072
-61,578	-8,348	-0,051	0,025
-60,563	-101,051	0,026	-0,005
-59,549	286,427	0,067	0,087
-58,534	-179,390	-1,362	-0,021
-57,519	583,703	-0,795	-1,423
-56,505	-200,000	-0,784	-4,523
-55,490	98,315	0,543	-0,454
-54,476	800,000	5,090	11,952
-53,461	-200,000	13,540	252,907
-52,446	-200,000	689,478	2260,167
-51,432	591,975	1622,345	2919,214
-50,417	119,460	1635,154	1469,155
-49,403	73,273	1289,282	977,729
-48,388	38,044	1024,317	659,844
-47,373	24,288	981,782	587,199
-46,359	23,530	971,459	578,516
-45,344	22,561	967,289	572,843
-44,330	22,581	965,777	571,990
-43,315	22,406	964,350	570,552
-42,300	22,389	963,505	569,973
-41,286	22,388	962,537	569,376
-40,271	22,389	961,411	568,689
-39,257	22,394	960,414	568,093
-38,242	22,359	959,434	567,379
-37,227	22,384	958,653	566,975
-36,213	22,381	957,848	566,467
-35,198	22,390	956,925	565,926
-34,184	22,436	956,316	565,694
-33,169	22,370	955,437	564,936
-32,154	22,415	954,581	564,554
-31,140	22,414	953,569	563,930
-30,125	22,413	952,937	563,530
-29,111	22,392	951,989	562,879
-28,096	22,445	951,332	562,641
-27,082	22,437	950,582	562,148
-26,067	22,437	949,798	561,664
-25,052	22,449	949,171	561,307
-24,038	22,412	948,701	560,888
-23,023	22,418	947,881	560,401
-22,009	22,447	947,250	560,100
-20,994	22,457	946,659	559,758
-19,979	22,438	946,070	559,327
-18,965	22,408	945,547	558,900
-17,950	22,461	944,765	558,585
-16,936	22,393	944,117	557,962
-15,921	22,336	943,440	557,360
-14,906	22,295	942,786	556,821
-13,892	22,268	942,121	556,319
-12,877	22,300	941,457	556,008
-11,863	22,269	940,755	555,473
-10,848	22,200	940,364	554,999
-9,833	22,373	939,771	555,178
-8,819	22,355	939,296	554,816
-7,804	22,352	938,456	554,288
-6,790	22,311	937,867	553,790
-5,775	22,310	937,268	553,412
-4,760	22,276	936,769	552,986
-3,746	22,273	936,155	552,594
-2,731	22,183	935,525	551,916
-1,717	22,053	934,750	551,024
-0,702	22,047	934,125	550,615
0,313	21,909	933,399	550,584
1,327	25,039	931,462	559,235
2,342	34,767	796,052	503,852
3,356	32,856	451,657	282,965
4,371	1,719	293,717	152,954
5,386	-2,665	274,798	138,938
6,400	-4,320	268,835	134,376
7,415	-4,729	266,286	132,714
8,429	-4,540	265,047	132,258
9,444	-4,403	264,218	131,957
10,459	-4,374	263,565	131,646
11,473	-4,724	263,053	131,060
12,488	-4,605	262,541	130,901
13,502	-4,874	262,161	130,457
14,517	-4,811	261,615	130,231
15,531	-4,578	261,107	130,176
16,546	-4,524	260,781	130,050
17,561	-4,572	260,518	129,865
18,575	-4,479	260,142	129,749
19,590	-4,569	259,879	129,526
20,604	-4,538	259,540	129,373
21,619	-4,510	259,179	129,207
22,634	-4,499	258,792	129,012
23,648	-4,807	258,660	128,660
24,663	-4,717	258,404	128,601
25,677	-4,856	258,143	128,337
26,692	-4,832	257,899	128,225
27,707	-4,686	257,555	128,172
28,721	-4,841	257,316	127,904
29,736	-4,882	257,095	127,746
30,750	-4,618	256,671	127,757
31,765	-4,776	256,503	127,523
32,780	-4,679	256,135	127,415
33,794	-4,740	256,110	127,337
34,809	-4,715	255,794	127,190
35,823	-4,616	255,431	127,086
36,838	-4,653	255,354	127,003
37,853	-4,623	255,084	126,884
38,867	-4,825	254,759	126,534
39,882	-4,858	254,749	126,489
40,896	-4,962	254,543	126,284
41,911	-4,851	254,189	126,194
42,926	-4,738	254,031	126,204
43,940	-4,882	253,705	125,905
44,955	-4,839	253,577	125,867
45,969	-5,040	253,363	125,574
46,984	-5,105	253,123	125,388
47,999	-5,404	252,868	124,990
49,013	-5,393	252,436	124,776
50,028	-5,487	252,159	124,546
51,042	-5,537	252,007	124,415
52,057	-5,701	251,795	124,158
53,071	-5,532	251,468	124,132
54,086	-5,546	251,400	124,075
55,101	-5,390	251,281	124,140
56,115	-5,243	251,248	124,240
57,130	-4,662	251,158	124,685
58,144	-4,502	250,944	124,707
59,159	-4,495	250,689	124,575
60,174	-4,567	250,590	124,453
61,188	-4,587	250,379	124,319
62,203	-4,613	250,129	124,162
63,217	-4,708	249,874	123,942
64,232	-4,672	249,747	123,900
65,247	-4,594	249,530	123,847
66,261	-4,639	249,213	123,641
67,276	-4,893	249,017	123,315
68,290	-5,238	248,846	122,924
69,305	-5,151	248,461	122,798
70,320	-5,217	248,350	122,676
71,334	-4,907	248,317	122,913
72,349	-4,669	248,219	123,056
73,363	-4,699	247,898	122,861
74,378	-4,484	247,690	122,930
75,393	-4,722	247,446	122,595
76,407	-4,712	247,232	122,486
77,422	-4,714	247,148	122,432
78,436	-4,658	246,957	122,374
79,451	-4,612	246,704	122,277
80,466	-4,732	246,390	122,009
81,480	-4,859	246,252	121,822
82,495	-4,890	245,975	121,649
83,509	-4,996	245,941	121,532
84,524	-5,035	245,588	121,313
85,539	-5,190	245,498	121,127
86,553	-5,012	245,182	121,110
87,568	-4,934	245,026	121,088
88,582	-4,884	244,819	121,017
89,597	-4,894	244,650	120,914
90,611	-4,920	244,567	120,840
91,626	-4,989	244,431	120,705
92,641	-4,683	244,092	120,783
93,655	-4,698	243,992	120,710
94,670	-5,013	243,838	120,360
95,684	-4,859	243,665	120,392
96,699	-4,990	243,308	120,096
97,714	-4,952	243,165	120,046
98,728	-4,891	242,888	119,949
99,743	-5,147	242,837	119,701
100,757	-4,975	242,526	119,679
101,772	-5,198	242,422	119,432
102,787	-4,923	242,343	119,611
103,801	-5,043	242,244	119,452
104,816	-4,852	242,103	119,530
105,830	-4,801	242,009	119,515
106,845	-4,747	241,853	119,472
107,860	-4,797	241,549	119,270
108,874	-5,061	241,373	118,954
109,889	-5,024	241,143	118,861
110,903	-5,122	241,009	118,703
111,918	-4,911	240,734	118,732
112,933	-4,865	240,617	118,701
113,947	-4,755	240,343	118,646
114,962	-4,805	240,343	118,594
115,976	-4,771	240,042	118,463
116,991	-4,660	239,979	118,513
118,006	-4,867	239,852	118,269
119,020	-4,718	239,702	118,307
120,035	-4,509	239,441	118,338
121,049	-4,518	239,349	118,275
122,064	-4,827	239,159	117,919
123,079	-4,893	238,991	117,771
124,093	-5,109	238,815	117,497
125,108	-5,005	238,515	117,424
126,122	-5,259	238,274	117,088
127,137	-5,235	238,113	117,018
128,151	-5,014	237,926	117,095
129,166	-5,198	237,851	116,899
130,181	-5,008	237,602	116,920
131,195	-4,989	237,314	116,783
132,210	-4,934	237,307	116,813
133,224	-5,025	237,240	116,697
134,239	-4,908	236,952	116,639
135,254	-4,681	236,964	116,819
136,268	-4,889	236,589	116,455
137,283	-5,207	236,393	116,092
138,297	-5,106	236,058	115,998
139,312	-5,360	235,881	115,697
140,327	-4,887	235,919	116,086
141,341	-4,424	235,874	116,426
142,356	-4,505	235,732	116,280
143,370	-4,348	235,614	116,338
144,385	-4,288	235,450	116,294
145,400	-4,356	235,251	116,131
146,414	-4,498	235,088	115,927
147,429	-4,472	234,906	115,847
148,443	-4,544	234,803	115,728
149,458	-4,529	234,508	115,585
150,473	-4,332	234,354	115,656
151,487	-4,597	234,207	115,362
152,502	-4,450	234,044	115,389
153,516	-4,523	234,129	115,362
154,531	-4,276	233,603	115,289
155,546	-4,591	233,364	114,910
156,560	-4,536	233,288	114,906
157,575	-4,614	233,041	114,712
158,589	-4,685	232,941	114,596
159,604	-4,264	232,815	114,858
160,619	-4,285	232,734	114,791
161,633	-4,436	232,575	114,583
162,648	-4,316	232,461	114,612
163,662	-4,484	232,264	114,372
164,677	-4,483	232,069	114,266
165,692	-4,676	232,218	114,177
166,706	-4,352	231,789	114,211
167,721	-4,180	231,668	114,277
168,735	-4,462	231,608	114,015
169,750	-4,284	231,374	114,030
170,764	-4,376	231,205	113,864
171,779	-4,370	231,232	113,872
172,794	-4,490	231,034	113,670
173,808	-4,523	230,866	113,551
174,823	-5,005	230,327	112,898
175,837	-4,991	230,084	112,780
176,852	-4,636	230,073	113,042
177,867	-4,606	230,141	113,089
178,881	-4,365	230,022	113,209
179,896	-4,464	229,899	113,061
180,910	-4,266	229,777	113,146
181,925	-4,375	229,435	112,882
182,940	-4,302	229,289	112,857
183,954	-4,292	229,227	112,825
184,969	-4,318	229,056	112,710
185,983	-4,158	229,078	112,835
186,998	-4,208	228,842	112,670
188,013	-4,300	228,679	112,508
189,027	-4,149	228,607	112,580
190,042	-4,326	228,431	112,346
191,056	-4,178	228,125	112,300
192,071	-4,121	227,917	112,232
193,086	-4,302	227,715	111,983
194,100	-4,164	227,678	112,061
195,115	-4,468	227,349	111,654
196,129	-5,299	227,029	110,846
197,144	-2,086	228,075	113,834
198,159	2,138	229,256	117,693
199,173	4,078	229,642	119,386
200,188	4,346	229,540	119,529
201,202	4,422	229,557	119,587
202,217	4,576	229,385	119,606
203,232	4,440	229,463	119,531
204,246	4,854	229,184	119,695
205,261	4,895	229,090	119,666
206,275	5,031	228,929	119,677
207,290	4,900	228,848	119,523
208,304	4,966	228,606	119,437
209,319	4,966	228,417	119,327
210,334	4,976	228,253	119,239
211,348	4,582	227,990	118,788
212,363	4,370	227,820	118,526
213,377	3,782	227,630	117,965
214,392	4,015	227,484	118,057
215,407	4,310	227,392	118,225
216,421	4,162	227,136	117,968
217,436	4,050	227,001	117,802
218,450	4,058	226,830	117,709
219,465	4,095	226,507	117,559
220,480	3,884	226,460	117,363
221,494	3,822	226,374	117,261
222,509	3,865	226,232	117,210
223,523	4,078	226,123	117,305
224,538	3,926	226,122	117,178
225,553	4,085	225,831	117,138
226,567	4,256	225,656	117,166
227,582	4,576	225,542	117,340
228,596	4,384	225,572	117,199
229,611	4,297	225,234	116,947
230,626	4,123	224,862	116,612
231,640	4,253	224,779	116,657
232,655	4,253	224,840	116,678
233,669	4,906	224,706	117,092
234,684	4,718	224,724	116,948
235,699	4,671	224,369	116,718
236,713	4,103	224,346	116,267
237,728	4,012	224,113	116,067
238,742	4,213	223,794	116,043
239,757	4,312	223,652	116,033
240,772	3,964	223,510	115,688
241,786	4,071	223,394	115,698
242,801	4,191	223,352	115,756
243,815	4,358	223,336	115,863
244,830	4,409	223,184	115,812
245,844	4,200	222,891	115,493
246,859	4,196	222,872	115,470
247,874	4,311	222,648	115,429
248,888	4,310	222,564	115,374
249,903	4,243	222,432	115,246
250,917	4,019	222,209	114,953
251,932	4,123	221,933	114,877
252,947	3,976	221,947	114,765
253,961	4,138	221,648	114,721
254,976	3,793	221,615	114,436
255,990	4,162	221,514	114,649
257,005	4,237	221,396	114,633
258,020	4,434	221,258	114,698
259,034	4,624	221,010	114,700
260,049	4,403	220,857	114,447
261,063	4,340	220,838	114,380
262,078	4,543	220,625	114,409
263,093	4,681	220,481	114,427
264,107	4,334	220,380	114,107
265,122	4,263	220,375	114,043
266,136	4,578	220,248	114,200
267,151	4,581	219,981	114,052
268,166	4,279	219,696	113,672
269,180	3,668	219,536	113,130
270,195	4,017	219,320	113,265
271,209	3,976	219,122	113,123
272,224	4,223	219,018	113,240
273,239	4,252	219,034	113,260
274,253	4,067	218,869	113,028
275,268	3,916	218,751	112,846
276,282	3,952	218,580	112,774
277,297	3,750	218,447	112,547
278,312	3,976	218,299	112,627
279,326	4,089	218,181	112,639
280,341	4,163	217,993	112,586
281,355	4,000	217,989	112,455
282,370	4,218	217,662	112,435
283,384	4,226	217,537	112,366
284,399	3,843	217,445	112,029
285,414	3,893	217,265	111,963
286,428	3,973	217,097	111,925
287,443	4,100	217,105	112,011
288,457	4,252	217,046	112,081
289,472	4,096	216,832	111,847
290,487	3,869	216,543	111,524
291,501	3,822	216,383	111,397
292,516	3,932	216,328	111,439
293,530	3,909	216,140	111,316
294,545	3,845	216,051	111,213
295,560	3,865	216,050	111,217
296,574	4,115	215,699	111,207
297,589	4,065	215,650	111,136
298,603	4,280	215,632	111,272
299,618	4,256	215,354	111,101
300,633	4,193	215,392	111,066
301,647	4,530	215,165	111,181
302,662	4,538	215,118	111,152
303,676	4,493	214,983	111,041
304,691	4,288	214,747	110,761
305,706	4,295	214,657	110,710
306,720	4,363	214,461	110,648
307,735	4,390	214,388	110,620
308,749	4,039	214,191	110,257
309,764	4,233	214,113	110,345
310,779	4,487	213,909	110,413
311,793	4,308	213,931	110,286
312,808	4,325	213,663	110,150
313,822	4,133	213,547	109,944
314,837	4,309	213,348	109,957
315,852	3,918	213,180	109,582
316,866	4,034	213,050	109,588
317,881	4,199	213,004	109,672
318,895	4,268	212,831	109,622
319,910	4,187	212,620	109,446
320,925	3,981	212,419	109,187
321,939	3,789	212,285	108,972
322,954	3,915	212,098	108,955
323,968	4,176	212,080	109,121
324,983	4,255	211,977	109,115
325,997	4,350	211,848	109,106
327,012	4,178	211,724	108,910
328,027	4,226	211,657	108,901
329,041	4,349	211,646	108,972
330,056	4,643	211,456	109,072
331,070	4,134	211,320	108,633
332,085	3,620	210,982	108,088
333,100	3,965	210,875	108,266
334,114	4,109	210,630	108,231
335,129	3,989	210,543	108,093
336,143	3,805	210,374	107,867
337,158	4,048	210,186	107,932
338,173	3,975	210,150	107,853
339,187	3,977	209,999	107,767
340,202	3,584	209,920	107,442
341,216	3,659	209,862	107,454
342,231	3,684	209,703	107,382
343,246	3,943	209,544	107,471
344,260	3,946	209,561	107,472
345,275	4,149	209,261	107,450
346,289	4,097	209,214	107,381
347,304	4,292	208,971	107,382
348,319	3,743	209,037	107,024
349,333	3,991	208,792	107,061
350,348	4,001	208,642	106,982
351,362	4,176	208,632	107,089
352,377	4,117	208,597	107,021
353,392	4,150	208,219	106,840
354,406	3,926	208,232	106,681
355,421	193,581	1345,037	1432,786
356,435	154,436	1483,649	1432,900
