DTS Sentinel unit serial number:	SN410029Multiplexer serial number:	ORYXHardware model number:	OX2-SRSoftware version number:	ORYX F/W v4,00 Oryx Data Collector v3.7.2.0data status	okinstallation	B6 Nyhavnadifferential loss correction	single-endedforward channel	channel 2reverse channel	N/Adate	2023/12/11time	02:45:08forward acquisition time	300,00reverse acquisition time	0,00gamma	499,1914k internal	0,3123k external	0,3123temperature offset calibration	1,0000default loss term (dB/km)	0,3820temperature slope calibration	1,0000multiplexer offset coefficient	1,0000multiplexer slope coefficient	1,0000fibre end	0,00T internal ref (°C)	21,59T ext. ref 1 (°C)	4,42T ext. ref 2 (°C)	4,44length (m)	temperature (°C)	Stokes	anti-Stokes-744,400	-8,057	0,130	-0,065
-743,385	-13,897	-0,103	0,050
-742,371	506,875	0,041	-0,071
-741,356	-8,107	-0,162	0,081
-740,342	318,459	0,044	-0,063
-739,327	310,512	-0,121	0,169
-738,312	505,188	-0,047	0,081
-737,298	119,458	-0,182	0,168
-736,283	314,694	0,034	0,048
-735,269	25,255	-0,187	0,115
-734,254	-200,000	-0,017	-0,075
-733,239	-96,955	-0,390	-0,076
-732,225	-200,000	0,005	0,043
-731,210	800,000	0,033	0,077
-730,196	-200,000	-0,001	-0,040
-729,181	164,584	0,073	-0,077
-728,167	-21,291	-0,001	0,000
-727,152	-200,000	-0,004	-0,057
-726,137	-133,127	-0,232	-0,022
-725,123	12,845	-0,095	-0,054
-724,108	-177,728	-0,146	-0,003
-723,094	-76,692	0,101	-0,026
-722,079	-139,912	-0,118	-0,009
-721,064	800,000	0,005	0,012
-720,050	202,243	0,091	-0,105
-719,035	216,875	-0,084	-0,099
-718,021	12,442	-0,040	-0,023
-717,006	-94,463	0,047	-0,010
-715,991	122,326	-0,111	-0,104
-714,977	173,719	0,013	-0,014
-713,962	223,618	0,039	-0,047
-712,948	800,000	0,073	0,164
-711,933	197,704	0,023	-0,027
-710,918	475,870	0,045	-0,075
-709,904	-68,114	-0,169	-0,049
-708,889	-87,058	-0,037	0,008
-707,875	-86,909	0,076	0,017
-706,860	800,000	0,041	0,117
-705,845	231,763	-0,040	0,049
-704,831	-200,000	0,009	0,045
-703,816	5,762	-0,028	-0,015
-702,802	9,170	-0,110	-0,062
-701,787	15,412	-0,150	-0,087
-700,772	-200,000	0,017	-0,099
-699,758	262,197	0,035	-0,045
-698,743	800,000	-0,011	0,023
-697,729	-200,000	0,007	0,035
-696,714	118,439	0,079	0,073
-695,699	4,712	-0,049	-0,027
-694,685	153,750	-0,032	-0,032
-693,670	-200,000	-0,005	0,097
-692,656	110,425	-0,058	0,052
-691,641	236,193	-0,009	-0,011
-690,627	403,635	-0,022	0,034
-689,612	79,839	0,090	0,072
-688,597	39,364	-0,139	-0,092
-687,583	74,127	0,011	-0,008
-686,568	131,565	-0,057	-0,055
-685,554	-200,000	-0,004	0,083
-684,539	204,924	0,066	-0,076
-683,524	-135,317	-0,085	-0,007
-682,510	8,612	-0,032	-0,018
-681,495	-200,000	0,013	-0,088
-680,481	-41,812	-0,105	-0,040
-679,466	129,163	-0,123	-0,117
-678,451	420,520	0,071	-0,114
-677,437	-23,169	0,096	0,043
-676,422	-54,200	-0,074	0,025
-675,408	124,680	-0,055	-0,051
-674,393	-22,523	-0,089	-0,040
-673,378	56,185	-0,041	-0,029
-672,364	661,414	0,014	-0,026
-671,349	-71,672	0,106	0,029
-670,335	-200,000	-0,010	0,099
-669,320	-174,714	0,048	0,001
-668,305	-149,621	0,074	0,004
-667,291	17,143	0,097	-0,057
-666,276	-83,215	-0,141	0,034
-665,262	800,000	-0,008	0,025
-664,247	-89,673	-0,081	0,018
-663,232	33,558	0,037	0,024
-662,218	-20,693	-0,048	0,022
-661,203	-200,000	0,009	0,076
-660,189	57,384	0,176	0,128
-659,174	116,253	0,083	-0,076
-658,159	-32,699	-0,136	-0,056
-657,145	800,000	0,029	-0,082
-656,130	800,000	0,032	-0,069
-655,116	800,000	0,043	-0,131
-654,101	-0,419	0,034	0,018
-653,086	-39,424	-0,023	0,009
-652,072	-200,000	-0,046	-0,202
-651,057	-200,000	0,008	-0,159
-650,043	-184,061	-0,041	0,000
-649,028	800,000	-0,019	-0,041
-648,014	485,796	0,089	0,152
-646,999	-100,726	0,016	-0,003
-645,984	-200,000	-0,017	0,210
-644,970	84,216	-0,023	0,019
-643,955	186,486	-0,053	-0,058
-642,941	14,571	-0,091	-0,053
-641,926	-200,000	-0,016	-0,102
-640,911	131,245	-0,085	0,081
-639,897	134,017	0,017	0,016
-638,882	800,000	0,026	-0,055
-637,868	-200,000	-0,034	-0,225
-636,853	-74,725	-0,032	0,008
-635,838	-200,000	0,005	-0,042
-634,824	-135,267	-0,161	0,014
-633,809	662,923	-0,016	-0,031
-632,795	-139,630	0,074	0,006
-631,780	-144,780	-0,030	0,002
-630,765	-82,527	0,069	-0,017
-629,751	0,783	-0,077	-0,041
-628,736	-200,000	0,005	-0,138
-627,722	532,277	-0,043	0,075
-626,707	800,000	-0,044	-0,125
-625,692	-0,496	0,063	0,033
-624,678	-200,000	-0,013	0,076
-623,663	-200,000	-0,009	0,068
-622,649	71,170	0,092	0,071
-621,634	3,749	-0,083	0,045
-620,619	599,465	0,014	-0,026
-619,605	-200,000	0,014	-0,102
-618,590	207,279	-0,035	0,040
-617,576	142,994	-0,050	-0,050
-616,561	-63,182	0,097	0,029
-615,546	-99,850	-0,151	0,028
-614,532	152,430	-0,068	-0,069
-613,517	-169,238	0,018	0,000
-612,503	348,572	-0,006	0,008
-611,488	127,311	-0,087	0,082
-610,474	-200,000	-0,003	0,028
-609,459	264,811	0,033	0,043
-608,444	-150,797	0,055	0,003
-607,430	800,000	-0,057	0,180
-606,415	-79,362	-0,043	0,011
-605,401	120,500	-0,074	0,068
-604,386	-200,000	0,014	0,082
-603,371	10,764	0,106	0,060
-602,357	351,857	-0,061	0,089
-601,342	679,730	0,098	-0,190
-600,328	800,000	0,053	-0,148
-599,313	450,300	-0,064	-0,105
-598,298	-200,000	-0,026	-0,100
-597,284	-29,943	-0,040	-0,017
-596,269	800,000	-0,031	0,097
-595,255	447,063	-0,045	0,074
-594,240	177,682	-0,096	-0,104
-593,225	124,270	-0,013	0,012
-592,211	235,776	-0,006	-0,008
-591,196	209,001	-0,057	-0,066
-590,182	232,406	-0,065	0,079
-589,167	-200,000	-0,002	0,128
-588,152	55,679	-0,080	-0,057
-587,138	-58,152	0,056	-0,018
-586,123	522,653	0,067	0,117
-585,109	221,728	-0,080	-0,095
-584,094	-200,000	-0,015	-0,054
-583,079	800,000	0,003	-0,009
-582,065	-53,184	-0,003	0,001
-581,050	47,733	-0,118	0,082
-580,036	-170,628	0,033	-0,001
-579,021	15,640	0,055	-0,032
-578,006	139,068	0,040	0,039
-576,992	-32,224	-0,073	-0,030
-575,977	800,000	0,047	0,104
-574,963	-200,000	-0,010	0,194
-573,948	168,551	0,066	0,070
-572,934	800,000	-0,021	0,066
-571,919	800,000	-0,110	-0,254
-570,904	49,517	-0,065	0,045
-569,890	800,000	-0,024	-0,054
-568,875	-88,518	0,080	-0,017
-567,861	-47,396	0,127	-0,045
-566,846	136,855	-0,063	-0,061
-565,831	-27,846	0,052	-0,022
-564,817	-73,454	0,076	0,020
-563,802	-35,654	0,067	-0,027
-562,788	177,935	0,048	-0,052
-561,773	59,937	-0,059	0,043
-560,758	52,518	0,117	0,082
-559,744	-200,000	-0,023	0,116
-558,729	800,000	0,053	-0,121
-557,715	-37,188	-0,078	-0,031
-556,700	-9,596	0,153	-0,075
-555,685	800,000	0,016	-0,047
-554,671	800,000	0,037	0,082
-553,656	295,199	-0,039	0,053
-552,642	-200,000	0,000	0,035
-551,627	-200,000	0,022	-0,100
-550,612	129,155	-0,053	-0,050
-549,598	-44,115	-0,130	0,048
-548,583	65,402	0,057	-0,043
-547,569	-16,283	0,054	-0,025
-546,554	146,949	-0,144	-0,143
-545,539	176,694	0,057	0,061
-544,525	441,222	-0,022	-0,036
-543,510	555,965	-0,023	-0,041
-542,496	294,160	-0,100	0,136
-541,481	-200,000	-0,004	-0,092
-540,466	66,733	-0,078	-0,059
-539,452	-200,000	0,010	0,064
-538,437	800,000	-0,022	-0,070
-537,423	-53,475	-0,015	0,005
-536,408	-177,251	0,076	0,001
-535,393	-23,799	0,059	-0,026
-534,379	352,755	-0,053	-0,077
-533,364	-22,946	-0,035	0,015
-532,350	-200,000	0,012	-0,101
-531,335	101,556	0,044	-0,038
-530,321	-30,129	-0,082	-0,034
-529,306	-101,529	-0,147	0,026
-528,291	-51,956	0,012	-0,004
-527,277	215,167	-0,061	0,072
-526,262	47,971	0,102	-0,071
-525,248	-59,813	-0,074	0,023
-524,233	287,196	0,008	-0,011
-523,218	168,672	-0,072	-0,076
-522,204	667,661	-0,048	-0,092
-521,189	-71,261	-0,108	0,030
-520,175	-182,335	0,133	-0,002
-519,160	73,272	-0,095	0,074
-518,145	-200,000	-0,001	-0,061
-517,131	-200,000	0,031	0,105
-516,116	-136,598	-0,047	0,004
-515,102	800,000	-0,013	0,027
-514,087	-141,125	-0,107	-0,008
-513,072	-200,000	-0,009	-0,122
-512,058	-200,000	0,001	0,061
-511,043	-200,000	-0,015	0,119
-510,029	472,368	0,046	0,077
-509,014	35,581	0,083	-0,054
-507,999	800,000	0,015	-0,044
-506,985	153,291	0,079	0,080
-505,970	78,697	-0,085	0,067
-504,956	-87,039	-0,018	0,004
-503,941	213,366	0,072	0,084
-502,926	-200,000	-0,009	0,094
-501,912	247,026	0,090	0,113
-500,897	66,439	0,019	0,014
-499,883	37,904	-0,095	-0,063
-498,868	-178,615	-0,090	-0,001
-497,853	11,078	0,047	-0,027
-496,839	-27,760	0,108	0,046
-495,824	227,788	-0,067	0,080
-494,810	800,000	0,025	0,078
-493,795	-200,000	0,003	-0,025
-492,781	578,185	-0,010	-0,018
-491,766	800,000	0,042	0,106
-490,751	-3,411	0,057	0,029
-489,737	-129,248	-0,156	-0,016
-488,722	-200,000	0,042	-0,165
-487,708	-200,000	-0,027	-0,130
-486,693	-12,974	-0,020	0,009
-485,678	-200,000	0,000	0,066
-484,664	-33,574	0,210	0,085
-483,649	48,447	-0,091	-0,063
-482,635	-127,516	-0,163	0,017
-481,620	218,453	0,081	0,096
-480,605	-200,000	0,037	0,154
-479,591	-64,401	0,052	-0,016
-478,576	558,074	-0,068	-0,121
-477,562	208,335	0,027	0,031
-476,547	800,000	-0,025	-0,054
-475,532	-200,000	-0,005	0,059
-474,518	-51,551	0,004	0,001
-473,503	305,865	0,099	-0,136
-472,489	-94,771	0,113	0,022
-471,474	36,447	-0,105	0,068
-470,459	-15,831	0,026	-0,012
-469,445	-160,776	0,122	-0,005
-468,430	340,276	-0,081	-0,117
-467,416	265,778	0,087	0,112
-466,401	800,000	0,019	0,044
-465,386	62,341	0,096	-0,070
-464,372	-71,776	0,144	-0,039
-463,357	226,447	0,015	-0,018
-462,343	83,870	-0,094	-0,075
-461,328	291,659	-0,099	0,133
-460,313	-17,308	-0,047	-0,022
-459,299	-46,787	0,100	-0,036
-458,284	-0,509	-0,075	0,039
-457,270	303,698	0,086	0,118
-456,255	44,347	0,017	0,012
-455,241	800,000	0,036	0,078
-454,226	-0,309	0,055	0,029
-453,211	-200,000	-0,012	-0,057
-452,197	-101,539	0,063	-0,011
-451,182	-200,000	0,007	-0,089
-450,168	800,000	0,034	0,079
-449,153	400,791	-0,094	-0,145
-448,138	-200,000	0,022	-0,079
-447,124	-200,000	0,011	-0,094
-446,109	800,000	-0,045	-0,141
-445,095	-135,513	0,140	0,012
-444,080	800,000	0,066	0,193
-443,065	-56,906	-0,050	0,016
-442,051	130,361	-0,005	-0,005
-441,036	-124,591	-0,062	-0,007
-440,022	-200,000	-0,027	0,116
-439,007	166,148	-0,022	0,023
-437,992	189,452	-0,011	0,012
-436,978	-200,000	0,005	0,060
-435,963	800,000	0,031	0,085
-434,949	-160,169	-0,156	0,006
-433,934	-200,000	-0,021	0,237
-432,919	-200,000	-0,002	-0,027
-431,905	514,821	-0,060	0,103
-430,890	800,000	0,019	0,050
-429,876	-107,265	0,073	0,012
-428,861	800,000	-0,042	-0,087
-427,846	-200,000	0,005	-0,068
-426,832	29,905	-0,060	-0,038
-425,817	193,655	0,071	-0,079
-424,803	-82,219	-0,135	0,032
-423,788	-200,000	-0,023	0,092
-422,773	-65,300	0,155	-0,046
-421,759	277,121	-0,122	-0,160
-420,744	-137,286	-0,032	-0,003
-419,730	92,857	0,099	-0,082
-418,715	-34,715	-0,145	0,058
-417,701	800,000	0,013	0,030
-416,686	244,902	-0,050	-0,062
-415,671	168,507	0,022	-0,023
-414,657	-46,116	0,098	0,035
-413,642	194,033	-0,064	-0,072
-412,628	-65,189	-0,034	0,010
-411,613	-45,637	0,074	-0,027
-410,598	-161,248	-0,068	0,003
-409,584	11,265	0,159	0,089
-408,569	-200,000	0,010	0,090
-407,555	46,262	0,141	0,096
-406,540	-143,923	0,238	-0,016
-405,525	-132,615	-0,032	0,003
-404,511	-37,235	0,077	0,030
-403,496	76,868	0,048	0,037
-402,482	150,348	0,165	0,165
-401,467	800,000	0,038	0,078
-400,452	102,162	0,083	0,072
-399,438	-200,000	0,000	0,094
-398,423	-33,361	-0,021	0,008
-397,409	-88,150	-0,105	0,023
-396,394	-200,000	-0,022	0,251
-395,379	-200,000	0,001	0,029
-394,365	442,619	0,060	0,098
-393,350	800,000	-0,032	0,093
-392,336	-200,000	0,034	0,117
-391,321	-200,000	-0,004	0,030
-390,306	800,000	-0,034	-0,099
-389,292	800,000	-0,012	-0,034
-388,277	800,000	0,024	0,068
-387,263	-41,953	0,080	-0,030
-386,248	-163,205	-0,086	0,003
-385,233	800,000	-0,050	-0,109
-384,219	800,000	-0,033	-0,083
-383,204	-55,648	-0,153	-0,050
-382,190	-134,253	0,107	0,010
-381,175	-200,000	0,009	0,062
-380,160	-154,537	0,073	-0,004
-379,146	-18,289	0,201	0,092
-378,131	-135,655	-0,047	-0,004
-377,117	800,000	0,047	-0,102
-376,102	800,000	0,059	-0,149
-375,088	800,000	-0,042	-0,102
-374,073	65,175	-0,011	0,008
-373,058	-90,064	0,060	-0,013
-372,044	-200,000	0,012	-0,086
-371,029	154,275	-0,047	0,047
-370,015	-200,000	-0,020	-0,098
-369,000	-200,000	0,029	-0,110
-367,985	229,540	0,041	-0,049
-366,971	-55,441	-0,099	-0,032
-365,956	242,102	0,063	0,078
-364,942	-85,581	0,057	-0,013
-363,927	86,184	0,083	0,067
-362,912	792,552	0,016	-0,032
-361,898	-200,000	-0,003	0,035
-360,883	170,576	0,031	-0,032
-359,869	17,207	-0,061	-0,035
-358,854	-31,438	-0,090	-0,037
-357,839	-116,049	0,069	-0,009
-356,825	-41,865	0,039	0,015
-355,810	13,432	-0,107	-0,061
-354,796	-105,160	0,163	0,027
-353,781	-200,000	-0,001	-0,105
-352,766	-200,000	0,035	-0,167
-351,752	800,000	0,045	-0,107
-350,737	655,148	0,022	0,042
-349,723	197,845	0,061	0,069
-348,708	-200,000	0,005	0,061
-347,693	-68,029	-0,064	-0,018
-346,679	-68,358	-0,221	-0,063
-345,664	498,216	0,051	-0,087
-344,650	-52,377	0,029	-0,010
-343,635	-40,695	0,133	0,050
-342,620	88,497	0,039	0,032
-341,606	421,336	-0,023	-0,037
-340,591	3,592	0,062	-0,033
-339,577	651,804	0,109	-0,206
-338,562	162,049	-0,074	0,076
-337,548	33,858	0,033	-0,021
-336,533	-200,000	0,011	0,147
-335,518	-200,000	0,024	0,098
-334,504	337,637	0,026	-0,037
-333,489	-200,000	-0,003	0,150
-332,475	800,000	0,044	-0,121
-331,460	800,000	-0,040	-0,103
-330,445	619,477	-0,052	-0,095
-329,431	561,748	0,119	0,211
-328,416	800,000	0,075	0,176
-327,402	-116,265	-0,074	0,010
-326,387	-177,712	-0,148	-0,003
-325,372	800,000	-0,032	0,082
-324,358	385,021	-0,089	-0,135
-323,343	295,996	-0,046	-0,062
-322,329	800,000	-0,063	0,141
-321,314	192,846	0,105	0,116
-320,299	-200,000	0,031	0,145
-319,285	171,033	-0,095	0,100
-318,270	-95,362	-0,053	-0,010
-317,256	-200,000	-0,011	-0,055
-316,241	-173,249	0,090	0,002
-315,226	546,224	0,036	0,063
-314,212	-28,066	-0,021	-0,009
-313,197	574,274	-0,040	0,073
-312,183	-200,000	-0,010	-0,050
-311,168	148,431	-0,080	-0,079
-310,153	-51,036	-0,237	-0,081
-309,139	-200,000	0,013	0,103
-308,124	-48,961	-0,023	-0,008
-307,110	-99,692	-0,087	-0,016
-306,095	-107,234	0,094	0,015
-305,080	-175,095	0,165	-0,003
-304,066	-200,000	-0,019	-0,077
-303,051	800,000	-0,063	-0,168
-302,037	396,494	0,051	-0,079
-301,022	800,000	-0,027	-0,075
-300,008	101,090	0,043	0,037
-298,993	606,333	0,050	0,091
-297,978	-200,000	0,003	0,093
-296,964	152,630	-0,067	-0,067
-295,949	-61,460	-0,128	-0,039
-294,935	-108,171	0,077	-0,012
-293,920	800,000	0,007	0,023
-292,905	105,058	-0,064	0,056
-291,891	310,717	-0,039	0,053
-290,876	-200,000	-0,005	-0,041
-289,862	302,150	-0,049	0,066
-288,847	-62,405	-0,125	-0,038
-287,832	-110,245	-0,109	0,016
-286,818	-153,726	0,056	0,003
-285,803	800,000	0,043	0,113
-284,789	151,367	-0,046	-0,046
-283,774	-19,403	0,113	0,051
-282,759	-200,000	-0,016	-0,074
-281,745	345,398	-0,036	-0,052
-280,730	-200,000	0,012	-0,057
-279,716	129,861	0,025	0,023
-278,701	-109,914	-0,008	0,001
-277,686	308,224	0,164	0,225
-276,672	800,000	0,017	0,048
-275,657	-200,000	-0,004	0,015
-274,643	-133,103	-0,174	0,016
-273,628	-200,000	-0,003	0,059
-272,613	-200,000	-0,003	-0,042
-271,599	96,754	-0,038	-0,032
-270,584	39,254	0,037	0,024
-269,570	800,000	0,036	0,087
-268,555	587,443	-0,030	0,054
-267,540	-200,000	-0,007	0,061
-266,526	79,013	-0,025	-0,019
-265,511	-200,000	-0,007	0,027
-264,497	-73,444	-0,158	-0,042
-263,482	-54,261	-0,078	0,026
-262,467	-66,799	0,085	0,024
-261,453	-200,000	-0,000	-0,082
-260,438	-133,103	0,028	0,003
-259,424	-113,438	-0,028	-0,004
-258,409	-55,494	0,035	-0,011
-257,395	-200,000	0,007	-0,116
-256,380	613,451	-0,080	0,146
-255,365	-200,000	-0,015	0,050
-254,351	-200,000	0,014	-0,048
-253,336	-200,000	0,001	0,026
-252,322	14,644	0,032	0,018
-251,307	250,726	0,048	0,060
-250,292	23,550	0,162	0,097
-249,278	-23,123	0,060	-0,026
-248,263	-158,005	0,060	-0,003
-247,249	-200,000	0,002	-0,061
-246,234	188,747	0,061	-0,067
-245,219	-5,803	-0,090	-0,045
-244,205	-59,958	0,035	-0,011
-243,190	-200,000	0,023	-0,114
-242,176	-22,089	0,097	-0,043
-241,161	-44,388	0,080	0,029
-240,146	-200,000	-0,015	-0,085
-239,132	607,373	-0,030	0,054
-238,117	93,401	0,049	-0,041
-237,103	119,013	-0,082	-0,074
-236,088	351,857	-0,070	-0,102
-235,073	467,885	0,084	0,138
-234,059	800,000	-0,041	0,098
-233,044	-200,000	0,015	-0,144
-232,030	800,000	-0,023	0,056
-231,015	-14,807	-0,150	0,070
-230,000	-200,000	0,004	-0,116
-228,986	800,000	0,032	-0,088
-227,971	75,111	0,028	-0,022
-226,957	389,449	-0,053	0,081
-225,942	-76,619	-0,090	0,023
-224,927	329,348	-0,047	-0,066
-223,913	144,283	0,053	0,052
-222,898	11,008	0,077	0,043
-221,884	-63,707	-0,064	0,019
-220,869	75,344	-0,058	-0,045
-219,855	51,595	0,052	0,036
-218,840	800,000	-0,010	0,031
-217,825	-200,000	0,008	-0,032
-216,811	33,359	0,096	-0,061
-215,796	271,065	-0,008	0,011
-214,782	800,000	0,016	-0,047
-213,767	12,509	-0,060	-0,034
-212,752	-149,873	-0,034	-0,002
-211,738	-61,309	-0,075	0,023
-210,723	721,604	0,046	-0,090
-209,709	322,115	-0,106	-0,148
-208,694	57,640	-0,093	-0,067
-207,679	-78,205	0,064	0,016
-206,665	296,610	-0,033	-0,044
-205,650	-33,834	-0,055	0,022
-204,636	800,000	-0,013	0,038
-203,621	-128,490	0,072	-0,007
-202,606	325,504	-0,081	-0,113
-201,592	261,319	-0,055	-0,069
-200,577	148,697	0,098	-0,097
-199,563	-82,108	0,109	-0,026
-198,548	629,977	-0,048	-0,089
-197,533	566,431	0,036	-0,064
-196,519	-62,097	0,052	-0,016
-195,504	-199,371	-0,103	0,000
-194,490	97,101	-0,111	0,093
-193,475	88,147	-0,096	0,078
-192,460	-200,000	0,005	-0,087
-191,446	-4,067	-0,077	0,039
-190,431	-140,994	0,129	0,010
-189,417	313,211	0,090	0,124
-188,402	-74,232	0,078	0,020
-187,387	-200,000	0,026	-0,172
-186,373	192,070	0,035	0,038
-185,358	109,056	-0,031	0,027
-184,344	75,823	0,066	0,051
-183,329	-5,293	0,046	0,023
-182,315	402,886	0,057	0,088
-181,300	327,098	-0,028	0,039
-180,285	17,740	-0,117	-0,067
-179,271	124,432	0,069	-0,064
-178,256	-168,230	-0,095	0,003
-177,242	43,594	0,145	0,097
-176,227	-1,673	0,076	0,039
-175,212	404,267	0,067	0,103
-174,198	664,278	-0,026	0,049
-173,183	-200,000	-0,043	-0,155
-172,169	18,227	0,050	-0,029
-171,154	-16,623	-0,066	0,031
-170,139	130,665	0,024	0,022
-169,125	641,602	0,040	0,074
-168,110	-79,128	-0,014	-0,003
-167,096	65,332	-0,091	-0,067
-166,081	800,000	-0,070	-0,176
-165,066	-200,000	0,003	-0,149
-164,052	46,243	-0,103	-0,070
-163,037	-94,134	0,060	0,012
-162,023	202,649	0,131	-0,148
-161,008	87,742	-0,056	0,045
-159,993	-103,778	0,104	0,018
-158,979	800,000	-0,020	-0,057
-157,964	-200,000	0,022	-0,157
-156,950	-200,000	-0,001	-0,054
-155,935	-167,766	0,208	0,006
-154,920	285,588	0,068	-0,089
-153,906	-200,000	-0,023	0,089
-152,891	-200,000	-0,012	0,177
-151,877	81,618	-0,040	0,032
-150,862	-164,815	-0,146	-0,005
-149,847	172,424	-0,016	-0,017
-148,833	12,176	-0,089	0,050
-147,818	76,788	0,022	0,017
-146,804	800,000	-0,020	-0,048
-145,789	581,829	0,074	0,132
-144,775	-114,281	0,133	-0,019
-143,760	144,065	0,073	-0,071
-142,745	287,674	0,085	-0,112
-141,731	62,854	-0,079	0,057
-140,716	195,285	0,045	0,050
-139,702	157,202	0,062	0,063
-138,687	352,285	0,088	0,128
-137,672	109,635	-0,038	-0,033
-136,658	-30,087	-0,139	-0,057
-135,643	75,300	0,053	-0,041
-134,629	-200,000	0,009	0,040
-133,614	-35,360	0,065	-0,026
-132,599	682,865	-0,030	-0,056
-131,585	800,000	-0,046	0,145
-130,570	31,164	-0,089	0,055
-129,556	800,000	-0,028	0,064
-128,541	441,568	0,062	-0,099
-127,526	-200,000	0,031	0,108
-126,512	267,586	0,051	-0,065
-125,497	152,807	0,011	0,011
-124,483	213,872	0,063	0,073
-123,468	343,741	0,072	0,103
-122,453	33,902	-0,155	-0,098
-121,439	800,000	0,058	0,176
-120,424	-200,000	0,034	0,126
-119,410	-200,000	-0,010	0,134
-118,395	-114,066	0,216	-0,030
-117,380	218,646	-0,054	0,063
-116,366	-200,000	0,010	-0,095
-115,351	-111,136	-0,041	-0,006
-114,337	-102,909	-0,070	-0,012
-113,322	525,864	-0,032	-0,055
-112,307	-200,000	0,001	-0,006
-111,293	211,211	0,053	0,061
-110,278	-200,000	0,000	-0,080
-109,264	-53,906	0,028	0,009
-108,249	-50,091	-0,070	-0,024
-107,234	500,099	0,023	-0,039
-106,220	-5,246	-0,041	0,020
-105,205	-114,628	0,213	0,029
-104,191	153,759	-0,072	0,072
-103,176	800,000	-0,051	0,116
-102,162	-200,000	0,027	0,136
-101,147	-67,421	-0,075	-0,021
-100,132	325,987	-0,073	-0,103
-99,118	-200,000	0,032	0,134
-98,103	-200,000	0,020	0,076
-97,089	384,599	0,010	-0,015
-96,074	800,000	0,074	0,180
-95,059	-200,000	-0,037	0,196
-94,045	800,000	0,044	0,114
-93,030	-20,451	-0,159	0,071
-92,016	800,000	-0,064	-0,181
-91,001	217,762	-0,051	0,059
-89,986	-81,854	0,079	-0,019
-88,972	-200,000	0,018	-0,112
-87,957	-70,989	-0,123	0,034
-86,943	-200,000	0,009	0,060
-85,928	800,000	-0,037	0,087
-84,913	-35,011	-0,071	-0,028
-83,899	330,266	0,124	0,174
-82,884	29,785	-0,147	0,091
-81,870	101,215	0,112	0,095
-80,855	800,000	-0,025	0,063
-79,840	-200,000	0,002	-0,009
-78,826	84,081	-0,075	-0,059
-77,811	-0,011	-0,080	-0,042
-76,797	-12,797	0,040	0,019
-75,782	19,193	0,038	0,022
-74,767	53,116	0,099	0,069
-73,753	-200,000	0,004	-0,037
-72,738	-75,236	0,093	-0,024
-71,724	-88,987	0,183	-0,039
-70,709	135,230	-0,079	-0,074
-69,694	465,199	0,040	-0,066
-68,680	-102,016	-0,061	0,011
-67,665	442,139	0,042	-0,066
-66,651	-149,973	-0,069	-0,004
-65,636	624,319	0,033	0,061
-64,622	-200,000	0,012	0,063
-63,607	-11,679	-0,096	0,046
-62,592	207,104	-0,013	-0,015
-61,578	-6,303	-0,013	-0,007
-60,563	800,000	-0,027	-0,070
-59,549	125,880	0,054	-0,049
-58,534	-117,979	-1,336	-0,172
-57,519	598,138	-0,778	-1,407
-56,505	-200,000	-0,982	-4,560
-55,490	-28,785	0,561	-0,233
-54,476	800,000	5,100	11,871
-53,461	-200,000	14,344	258,845
-52,446	-200,000	695,992	2260,976
-51,432	582,772	1624,826	2905,304
-50,417	117,941	1633,295	1460,109
-49,403	74,517	1287,307	981,176
-48,388	37,660	1024,718	658,731
-47,373	23,664	983,371	586,018
-46,359	22,904	972,567	577,062
-45,344	21,780	968,532	570,964
-44,330	21,731	966,985	569,868
-43,315	21,599	965,433	568,498
-42,300	21,619	964,494	567,989
-41,286	21,603	963,428	567,286
-40,271	21,620	962,312	566,664
-39,257	21,606	961,374	566,043
-38,242	21,575	960,643	565,488
-37,227	21,557	959,836	564,932
-36,213	21,562	958,726	564,274
-35,198	21,559	957,893	563,751
-34,184	21,579	957,262	563,422
-33,169	21,543	956,437	562,798
-32,154	21,671	955,320	562,532
-31,140	21,679	954,508	562,057
-30,125	21,640	953,721	561,445
-29,111	21,595	952,989	560,847
-28,096	21,674	952,215	560,624
-27,082	21,615	951,774	560,154
-26,067	21,629	950,671	559,525
-25,052	21,660	950,125	559,283
-24,038	21,593	949,394	558,615
-23,023	21,671	948,878	558,540
-22,009	21,650	948,010	557,940
-20,994	21,652	947,372	557,547
-19,979	21,643	947,074	557,322
-18,965	21,644	946,245	556,815
-17,950	21,628	945,652	556,393
-16,936	21,576	945,086	555,871
-15,921	21,602	944,243	555,437
-14,906	21,557	943,372	554,758
-13,892	21,494	942,971	554,299
-12,877	21,496	942,300	553,889
-11,863	21,487	941,733	553,506
-10,848	21,490	941,217	553,189
-9,833	21,619	940,706	553,278
-8,819	21,598	940,101	552,832
-7,804	21,538	939,319	552,159
-6,790	21,506	938,799	551,731
-5,775	21,547	938,227	551,504
-4,760	21,530	937,526	551,015
-3,746	21,500	937,052	550,621
-2,731	21,386	936,190	549,730
-1,717	21,320	935,522	549,110
-0,702	21,318	935,048	548,801
0,313	21,132	934,244	548,572
1,327	24,186	932,330	557,019
2,342	33,393	795,633	499,891
3,356	30,910	451,685	280,017
4,371	0,147	295,080	152,052
5,386	-4,413	276,146	137,940
6,400	-5,830	270,185	133,628
7,415	-6,347	267,865	131,991
8,429	-5,930	266,639	131,759
9,444	-5,872	265,831	131,401
10,459	-5,538	265,023	131,296
11,473	-5,739	264,562	130,872
12,488	-5,816	264,046	130,535
13,502	-5,972	263,481	130,102
14,517	-5,686	263,118	130,172
15,531	-5,588	262,710	130,046
16,546	-5,615	262,554	129,933
17,561	-5,115	261,930	130,064
18,575	-5,207	261,733	129,872
19,590	-5,551	261,259	129,316
20,604	-5,391	261,028	129,334
21,619	-5,660	260,928	129,031
22,634	-5,450	260,487	128,989
23,648	-5,346	260,137	128,899
24,663	-5,408	259,884	128,706
25,677	-5,594	259,663	128,418
26,692	-5,461	259,261	128,326
27,707	-5,394	259,172	128,331
28,721	-5,475	258,847	128,087
29,736	-5,632	258,555	127,791
30,750	-5,598	258,377	127,721
31,765	-5,673	258,110	127,512
32,780	-5,310	257,867	127,702
33,794	-5,501	257,731	127,455
34,809	-5,377	257,415	127,396
35,823	-5,634	257,357	127,128
36,838	-5,635	256,976	126,928
37,853	-5,437	256,591	126,902
38,867	-5,547	256,339	126,669
39,882	-5,477	256,201	126,651
40,896	-5,767	256,060	126,314
41,911	-5,579	255,790	126,335
42,926	-5,655	255,475	126,102
43,940	-5,622	255,242	126,004
44,955	-5,613	255,077	125,920
45,969	-5,623	254,768	125,747
46,984	-5,918	254,545	125,367
47,999	-6,233	254,392	125,005
49,013	-6,225	254,208	124,911
50,028	-6,179	253,789	124,734
51,042	-6,343	253,586	124,480
52,057	-6,320	253,393	124,394
53,071	-6,343	253,300	124,316
54,086	-6,140	253,008	124,339
55,101	-6,190	252,857	124,210
56,115	-5,971	252,800	124,362
57,130	-5,511	252,690	124,697
58,144	-5,412	252,414	124,635
59,159	-5,410	252,319	124,579
60,174	-5,389	252,036	124,446
61,188	-5,454	251,883	124,303
62,203	-5,630	251,536	123,968
63,217	-5,545	251,353	123,941
64,232	-5,471	251,170	123,903
65,247	-5,519	250,890	123,713
66,261	-5,605	250,775	123,571
67,276	-5,734	250,600	123,362
68,290	-5,752	250,334	123,205
69,305	-6,186	250,166	122,739
70,320	-5,918	249,927	122,840
71,334	-5,633	249,748	122,986
72,349	-5,337	249,671	123,192
73,363	-5,380	249,510	123,064
74,378	-5,445	249,026	122,759
75,393	-5,638	248,806	122,474
76,407	-5,620	248,789	122,470
77,422	-5,483	248,458	122,413
78,436	-5,500	248,386	122,352
79,451	-5,390	248,117	122,303
80,466	-5,695	247,835	121,893
81,480	-5,767	247,602	121,707
82,495	-5,764	247,430	121,613
83,509	-5,785	247,427	121,584
84,524	-5,690	247,097	121,492
85,539	-5,761	246,868	121,308
86,553	-5,880	246,759	121,143
87,568	-5,667	246,582	121,225
88,582	-5,814	246,362	120,982
89,597	-5,726	246,001	120,868
90,611	-5,672	246,071	120,937
91,626	-5,600	245,792	120,850
92,641	-5,551	245,642	120,807
93,655	-5,530	245,439	120,713
94,670	-5,572	245,119	120,510
95,684	-5,589	245,050	120,452
96,699	-5,662	244,904	120,308
97,714	-5,882	244,731	120,028
98,728	-5,712	244,654	120,121
99,743	-5,909	244,300	119,772
100,757	-5,886	243,928	119,598
101,772	-6,029	243,877	119,443
102,787	-5,995	243,842	119,444
103,801	-5,721	243,593	119,539
104,816	-5,828	243,451	119,370
105,830	-5,700	243,372	119,427
106,845	-5,679	243,177	119,339
107,860	-5,603	242,942	119,276
108,874	-5,703	242,879	119,151
109,889	-5,711	242,372	118,885
110,903	-5,696	242,325	118,864
111,918	-6,133	242,202	118,430
112,933	-5,938	242,070	118,517
113,947	-5,615	241,818	118,650
114,962	-5,570	241,629	118,585
115,976	-5,553	241,476	118,513
116,991	-5,799	241,364	118,244
118,006	-5,624	241,115	118,256
119,020	-5,815	241,089	118,075
120,035	-5,522	240,928	118,227
121,049	-5,626	240,773	118,054
122,064	-5,678	240,570	117,902
123,079	-5,641	240,278	117,779
124,093	-5,796	240,186	117,596
125,108	-5,913	239,860	117,330
126,122	-5,845	239,611	117,253
127,137	-5,920	239,388	117,072
128,151	-5,966	239,383	117,022
129,166	-5,773	239,148	117,055
130,181	-5,809	238,882	116,884
131,195	-6,036	238,790	116,643
132,210	-5,965	238,791	116,692
133,224	-5,633	238,458	116,789
134,239	-5,820	238,326	116,562
135,254	-5,743	238,249	116,576
136,268	-5,827	237,855	116,305
137,283	-6,145	237,751	115,985
138,297	-6,099	237,567	115,922
139,312	-5,965	237,366	115,922
140,327	-5,979	237,190	115,815
141,341	-5,612	237,345	116,178
142,356	-5,536	237,018	116,069
143,370	-5,475	237,120	116,158
144,385	-5,272	236,665	116,088
145,400	-5,407	236,627	115,950
146,414	-5,380	236,247	115,776
147,429	-5,393	236,192	115,728
148,443	-5,450	236,107	115,630
149,458	-5,293	235,722	115,558
150,473	-5,383	235,754	115,491
151,487	-5,606	235,519	115,187
152,502	-5,442	235,343	115,221
153,516	-5,404	235,203	115,173
154,531	-5,421	235,092	115,095
155,546	-5,484	234,899	114,939
156,560	-5,440	234,634	114,834
157,575	-5,828	234,488	114,443
158,589	-5,657	234,123	114,391
159,604	-5,276	234,131	114,689
160,619	-5,177	234,030	114,708
161,633	-5,172	233,780	114,579
162,648	-5,131	233,815	114,619
163,662	-5,320	233,602	114,354
164,677	-5,611	233,346	113,987
165,692	-5,338	233,288	114,165
166,706	-5,254	233,184	114,171
167,721	-5,082	232,872	114,144
168,735	-5,361	233,036	113,993
169,750	-5,385	232,736	113,817
170,764	-5,248	232,385	113,744
171,779	-5,521	232,481	113,565
172,794	-5,220	232,145	113,628
173,808	-5,348	231,988	113,440
174,823	-5,870	231,676	112,866
175,837	-5,737	231,420	112,836
176,852	-5,457	231,454	113,063
177,867	-5,572	231,419	112,945
178,881	-5,448	231,254	112,952
179,896	-5,329	231,093	112,957
180,910	-5,139	231,042	113,071
181,925	-5,205	230,550	112,769
182,940	-5,423	230,621	112,622
183,954	-5,336	230,457	112,600
184,969	-5,121	230,258	112,662
185,983	-5,206	230,192	112,553
186,998	-5,285	230,047	112,410
188,013	-5,071	229,796	112,444
189,027	-5,197	229,746	112,311
190,042	-5,341	229,670	112,152
191,056	-5,171	229,348	112,117
192,071	-5,208	229,139	111,976
193,086	-5,412	228,933	111,707
194,100	-5,554	228,803	111,524
195,115	-6,074	228,406	110,916
196,129	-6,966	228,061	110,048
197,144	-3,641	229,205	113,178
198,159	1,232	230,557	117,643
199,173	4,161	231,269	120,284
200,188	4,505	231,280	120,547
201,202	4,500	231,034	120,405
202,217	4,771	230,929	120,551
203,232	4,932	230,784	120,589
204,246	5,090	230,647	120,630
205,261	4,905	230,669	120,487
206,275	5,071	230,477	120,505
207,290	5,076	230,255	120,382
208,304	5,181	230,311	120,482
209,319	4,942	230,160	120,207
210,334	5,042	229,798	120,084
211,348	4,849	229,509	119,774
212,363	4,414	229,285	119,310
213,377	4,195	229,035	119,000
214,392	4,201	228,938	118,944
215,407	4,367	228,860	119,020
216,421	4,241	228,739	118,850
217,436	4,245	228,503	118,720
218,450	4,039	228,251	118,420
219,465	3,965	228,094	118,271
220,480	4,001	228,044	118,263
221,494	3,963	227,789	118,090
222,509	4,117	227,666	118,133
223,523	3,935	227,685	117,994
224,538	4,048	227,621	118,037
225,553	4,109	227,271	117,892
226,567	4,382	227,170	118,037
227,582	4,575	227,159	118,168
228,596	4,586	227,089	118,130
229,611	4,544	226,744	117,908
230,626	4,057	226,550	117,425
231,640	3,891	226,434	117,228
232,655	4,293	226,422	117,518
233,669	4,939	226,228	117,898
234,684	4,635	226,186	117,635
235,699	4,688	225,902	117,517
236,713	4,543	225,809	117,348
237,728	4,243	225,498	116,949
238,742	4,169	225,308	116,783
239,757	4,083	225,208	116,656
240,772	4,073	225,108	116,586
241,786	3,896	225,036	116,404
242,801	4,571	224,929	116,849
243,815	4,565	224,786	116,759
244,830	4,602	224,580	116,670
245,844	4,382	224,341	116,370
246,859	4,444	224,183	116,324
247,874	4,448	224,142	116,295
248,888	4,568	223,965	116,284
249,903	4,571	223,893	116,238
250,917	4,254	223,706	115,893
251,932	4,211	223,553	115,770
252,947	4,151	223,245	115,555
253,961	4,158	223,197	115,525
254,976	3,918	223,112	115,291
255,990	4,544	222,907	115,644
257,005	4,479	222,742	115,500
258,020	4,364	222,740	115,402
259,034	4,631	222,632	115,536
260,049	4,419	222,437	115,266
261,063	4,515	222,285	115,248
262,078	4,582	222,204	115,246
263,093	4,546	222,051	115,129
264,107	4,621	221,838	115,065
265,122	4,664	221,716	115,023
266,136	4,633	221,536	114,896
267,151	4,710	221,566	114,959
268,166	4,270	221,287	114,477
269,180	4,006	220,905	114,074
270,195	4,081	220,794	114,062
271,209	3,894	220,798	113,915
272,224	3,937	220,700	113,886
273,239	4,223	220,602	114,037
274,253	4,199	220,294	113,850
275,268	4,032	220,130	113,632
276,282	3,949	219,889	113,436
277,297	3,840	219,748	113,273
278,312	3,953	219,688	113,315
279,326	4,114	219,643	113,400
280,341	4,078	219,450	113,264
281,355	3,947	219,406	113,135
282,370	4,009	219,272	113,101
283,384	4,277	218,935	113,114
284,399	3,781	218,961	112,754
285,414	3,855	218,817	112,724
286,428	4,087	218,806	112,878
287,443	4,346	218,485	112,892
288,457	4,363	218,458	112,880
289,472	4,108	218,196	112,549
290,487	3,862	217,891	112,202
291,501	3,729	217,876	112,087
292,516	3,882	217,721	112,108
293,530	3,874	217,638	112,050
294,545	3,861	217,460	111,939
295,560	4,103	217,362	112,055
296,574	4,027	217,301	111,958
297,589	4,008	217,041	111,800
298,603	4,251	217,039	111,966
299,618	4,155	216,824	111,776
300,633	3,998	216,834	111,656
301,647	4,370	216,664	111,829
302,662	4,387	216,417	111,704
303,676	4,410	216,304	111,652
304,691	4,365	216,207	111,559
305,706	4,459	216,170	111,598
306,720	4,439	215,991	111,481
307,735	4,269	215,732	111,215
308,749	4,015	215,548	110,927
309,764	4,120	215,542	110,990
310,779	4,216	215,369	110,960
311,793	4,269	215,225	110,914
312,808	4,259	215,107	110,836
313,822	4,312	214,898	110,757
314,837	4,203	214,736	110,585
315,852	4,072	214,622	110,423
316,866	4,221	214,425	110,418
317,881	4,292	214,348	110,420
318,895	4,485	214,086	110,413
319,910	4,173	214,088	110,181
320,925	3,928	213,692	109,792
321,939	3,736	213,677	109,638
322,954	3,919	213,520	109,678
323,968	4,271	213,593	109,957
324,983	4,340	213,472	109,934
325,997	4,712	213,258	110,078
327,012	4,096	213,158	109,579
328,027	4,152	212,978	109,516
329,041	4,438	213,032	109,738
330,056	4,621	212,954	109,818
331,070	4,244	212,599	109,357
332,085	3,865	212,576	109,067
333,100	4,408	212,206	109,252
334,114	4,242	212,022	109,030
335,129	4,293	211,940	109,014
336,143	3,857	211,838	108,644
337,158	4,203	211,728	108,822
338,173	4,222	211,516	108,717
339,187	3,887	211,476	108,450
340,202	3,828	211,281	108,299
341,216	3,913	211,108	108,261
342,231	4,110	211,033	108,351
343,246	3,901	210,834	108,093
344,260	3,896	210,816	108,070
345,275	3,967	210,632	108,016
346,289	4,202	210,677	108,194
347,304	4,322	210,559	108,208
348,319	3,859	210,404	107,794
349,333	4,325	210,097	107,953
350,348	4,411	210,045	107,977
351,362	4,515	209,939	107,986
352,377	4,299	209,952	107,832
353,392	4,145	209,815	107,645
354,406	4,207	209,583	107,559
355,421	193,810	1344,540	1432,866
356,435	154,674	1482,916	1432,977
