DTS Sentinel unit serial number:	SN410029Multiplexer serial number:	ORYXHardware model number:	OX2-SRSoftware version number:	ORYX F/W v4,00 Oryx Data Collector v3.7.2.0data status	okinstallation	B6 Nyhavnadifferential loss correction	single-endedforward channel	channel 2reverse channel	N/Adate	2023/12/08time	04:15:08forward acquisition time	300,00reverse acquisition time	0,00gamma	499,1914k internal	0,3165k external	0,3165temperature offset calibration	1,0000default loss term (dB/km)	0,3820temperature slope calibration	1,0000multiplexer offset coefficient	1,0000multiplexer slope coefficient	1,0000fibre end	0,00T internal ref (°C)	13,06T ext. ref 1 (°C)	-3,80T ext. ref 2 (°C)	-3,80length (m)	temperature (°C)	Stokes	anti-Stokes-744,400	683,996	0,030	0,058
-743,385	-101,598	-0,418	-0,074
-742,371	-114,473	0,302	0,042
-741,356	-92,301	-0,290	0,060
-740,342	-200,000	-0,011	0,083
-739,327	-112,846	-0,357	-0,051
-738,312	178,010	0,092	0,099
-737,298	-104,438	-0,420	-0,071
-736,283	-38,098	0,166	0,064
-735,269	-65,182	-0,265	0,078
-734,254	-83,708	0,024	0,006
-733,239	-49,199	-0,449	-0,157
-732,225	-37,587	0,205	0,080
-731,210	800,000	0,017	0,040
-730,196	-200,000	-0,010	0,088
-729,181	-200,000	-0,125	-0,000
-728,167	-200,000	-0,019	-0,079
-727,152	-200,000	0,047	-0,201
-726,137	-200,000	0,009	0,100
-725,123	-200,000	-0,025	-0,127
-724,108	372,687	0,058	-0,088
-723,094	-200,000	0,005	-0,073
-722,079	-55,215	0,080	-0,026
-721,064	5,850	0,074	0,040
-720,050	109,900	0,092	0,081
-719,035	-60,433	-0,133	0,041
-718,021	53,539	-0,090	0,063
-717,006	36,972	-0,048	0,031
-715,991	9,321	-0,197	-0,109
-714,977	447,973	-0,035	0,057
-713,962	410,584	-0,073	-0,114
-712,948	-200,000	-0,005	-0,032
-711,933	81,550	-0,017	-0,013
-710,918	800,000	-0,020	0,043
-709,904	169,373	-0,107	0,113
-708,889	-200,000	-0,028	0,140
-707,875	-200,000	-0,012	-0,064
-706,860	-113,333	-0,153	0,022
-705,845	343,759	-0,088	0,128
-704,831	-156,322	0,185	-0,008
-703,816	406,450	0,061	0,095
-702,802	196,662	-0,064	-0,072
-701,787	-148,360	0,153	0,009
-700,772	-200,000	0,024	-0,126
-699,758	-169,200	-0,111	0,003
-698,743	-200,000	0,049	0,166
-697,729	-200,000	0,011	-0,101
-696,714	427,073	0,065	0,104
-695,699	-200,000	-0,001	-0,103
-694,685	-200,000	-0,009	-0,079
-693,670	-4,348	-0,077	0,039
-692,656	800,000	0,004	0,012
-691,641	-200,000	0,019	0,065
-690,627	-124,217	0,079	-0,009
-689,612	757,044	0,002	0,003
-688,597	-11,251	-0,055	-0,027
-687,583	115,722	-0,117	0,105
-686,568	132,097	0,081	-0,076
-685,554	-200,000	-0,020	-0,065
-684,539	-62,202	0,221	-0,067
-683,524	31,760	0,026	0,017
-682,510	800,000	-0,013	0,031
-681,495	-130,462	-0,125	-0,012
-680,481	-73,881	-0,076	0,020
-679,466	-200,000	-0,013	-0,145
-678,451	-159,293	0,146	-0,006
-677,437	152,542	-0,056	0,057
-676,422	-200,000	-0,019	0,063
-675,408	136,943	-0,088	0,085
-674,393	-99,926	-0,105	-0,019
-673,378	-200,000	-0,026	-0,119
-672,364	-200,000	-0,003	0,044
-671,349	-165,846	-0,097	-0,003
-670,335	-200,000	0,002	-0,037
-669,320	418,667	0,106	0,167
-668,305	-99,461	0,052	0,009
-667,291	73,768	-0,032	-0,025
-666,276	-200,000	-0,004	0,035
-665,262	195,974	-0,044	-0,049
-664,247	105,714	0,043	-0,037
-663,232	-200,000	-0,002	0,195
-662,218	67,036	-0,061	0,046
-661,203	136,196	0,021	-0,020
-660,189	-160,921	0,147	0,006
-659,174	-200,000	-0,037	-0,124
-658,159	66,286	-0,023	0,017
-657,145	20,237	-0,064	0,038
-656,130	-119,354	-0,038	0,005
-655,116	412,076	0,024	0,038
-654,101	800,000	0,025	0,078
-653,086	445,934	0,050	0,081
-652,072	360,596	-0,057	0,083
-651,057	31,731	-0,153	-0,096
-650,043	528,935	-0,082	-0,143
-649,028	-200,000	0,003	-0,156
-648,014	800,000	-0,024	0,062
-646,999	87,591	-0,087	0,071
-645,984	65,832	0,184	0,137
-644,970	219,822	0,035	0,041
-643,955	55,216	-0,050	0,036
-642,941	506,283	-0,057	0,097
-641,926	228,572	0,059	-0,071
-640,911	-106,454	-0,088	0,014
-639,897	-7,750	0,058	0,028
-638,882	1,529	-0,074	-0,039
-637,868	513,332	0,093	0,160
-636,853	-200,000	-0,010	0,073
-635,838	15,797	-0,053	0,030
-634,824	-80,575	0,120	0,029
-633,809	12,726	0,059	0,033
-632,795	225,162	0,050	-0,060
-631,780	-29,754	-0,013	-0,005
-630,765	317,285	0,025	-0,034
-629,751	-68,020	-0,092	0,026
-628,736	115,223	-0,050	-0,045
-627,722	-173,714	-0,063	-0,001
-626,707	-52,031	0,105	-0,035
-625,692	800,000	0,050	0,110
-624,678	104,933	0,070	0,061
-623,663	419,435	-0,034	-0,054
-622,649	60,507	-0,048	0,035
-621,634	521,758	-0,021	0,036
-620,619	-200,000	0,018	0,074
-619,605	-200,000	-0,009	0,106
-618,590	-200,000	-0,029	0,096
-617,576	800,000	0,022	-0,062
-616,561	-200,000	-0,013	0,117
-615,546	70,623	0,002	-0,001
-614,532	-18,668	0,053	-0,024
-613,517	-200,000	-0,002	-0,101
-612,503	-196,594	-0,130	-0,001
-611,488	-200,000	-0,026	-0,124
-610,474	-89,761	-0,102	0,022
-609,459	200,829	0,044	0,049
-608,444	655,507	-0,051	0,097
-607,430	363,944	-0,056	-0,082
-606,415	-17,204	-0,056	-0,026
-605,401	414,853	0,077	-0,120
-604,386	-51,845	0,094	0,032
-603,371	-200,000	0,007	-0,150
-602,357	800,000	0,049	0,112
-601,342	800,000	0,050	-0,107
-600,328	800,000	0,020	0,061
-599,313	296,472	-0,084	-0,112
-598,298	-200,000	0,008	-0,130
-597,284	-67,977	0,171	0,048
-596,269	-141,053	0,031	0,002
-595,255	800,000	0,064	0,158
-594,240	-56,182	0,049	0,016
-593,225	-26,637	0,030	0,013
-592,211	223,749	-0,043	0,051
-591,196	32,085	0,082	-0,052
-590,182	-132,726	-0,136	0,013
-589,167	244,142	0,066	0,082
-588,152	-177,693	0,036	-0,001
-587,138	-200,000	0,017	-0,116
-586,123	569,080	0,020	-0,036
-585,109	-200,000	-0,005	0,051
-584,094	700,566	-0,006	-0,012
-583,079	500,899	0,052	0,089
-582,065	341,116	-0,055	-0,079
-581,050	10,374	-0,062	-0,035
-580,036	-200,000	-0,012	0,062
-579,021	800,000	-0,040	-0,099
-578,006	800,000	0,050	-0,103
-576,992	-108,560	0,066	-0,010
-575,977	-200,000	0,019	-0,097
-574,963	259,593	-0,025	0,032
-573,948	155,572	-0,029	-0,030
-572,934	277,945	-0,051	0,067
-571,919	302,190	-0,137	0,186
-570,904	-102,740	-0,107	0,019
-569,890	113,258	-0,087	-0,077
-568,875	-200,000	-0,021	0,093
-567,861	192,235	0,090	-0,100
-566,846	-43,449	0,040	-0,015
-565,831	608,662	-0,046	-0,084
-564,817	-77,883	0,075	0,019
-563,802	76,244	0,056	0,044
-562,788	-76,422	-0,076	0,019
-561,773	344,288	-0,013	-0,018
-560,758	166,374	0,089	-0,092
-559,744	41,262	-0,054	-0,036
-558,729	-158,536	0,051	-0,002
-557,715	38,480	-0,160	-0,104
-556,700	-168,034	-0,033	0,001
-555,685	-94,927	-0,092	0,018
-554,671	-78,480	0,146	-0,036
-553,656	-200,000	-0,012	-0,051
-552,642	-3,410	0,065	-0,033
-551,627	-112,112	-0,104	0,015
-550,612	57,894	0,010	-0,007
-549,598	132,420	-0,105	-0,099
-548,583	133,371	-0,151	-0,142
-547,569	-21,685	0,057	0,025
-546,554	89,730	0,077	0,063
-545,539	76,843	0,047	-0,036
-544,525	147,761	-0,050	0,049
-543,510	-189,993	0,071	0,001
-542,496	-200,000	-0,005	0,045
-541,481	9,466	-0,149	-0,082
-540,466	800,000	-0,087	-0,218
-539,452	-18,910	0,064	0,029
-538,437	142,355	0,086	0,084
-537,423	652,352	-0,081	0,153
-536,408	239,630	0,093	0,113
-535,393	-200,000	-0,001	0,062
-534,379	-200,000	-0,006	-0,084
-533,364	606,095	-0,056	0,102
-532,350	-53,116	-0,099	0,033
-531,335	-200,000	-0,002	-0,045
-530,321	348,736	0,004	0,005
-529,306	-200,000	-0,022	-0,174
-528,291	702,264	-0,045	-0,087
-527,277	138,791	-0,068	-0,065
-526,262	202,854	0,025	0,029
-525,248	-174,018	-0,032	0,001
-524,233	-200,000	0,011	0,158
-523,218	-33,576	0,094	-0,038
-522,204	-200,000	-0,016	0,097
-521,189	224,930	0,034	0,040
-520,175	-200,000	0,010	0,069
-519,160	446,802	-0,069	0,110
-518,145	69,805	0,029	0,022
-517,131	-77,385	0,096	-0,024
-516,116	-62,413	0,074	-0,022
-515,102	229,943	-0,038	0,046
-514,087	800,000	-0,002	-0,006
-513,072	-89,011	-0,112	0,024
-512,058	5,454	-0,081	-0,043
-511,043	312,254	0,066	0,090
-510,029	800,000	0,015	0,045
-509,014	-79,685	0,044	-0,011
-507,999	33,130	0,071	0,045
-506,985	-26,886	-0,136	0,058
-505,970	52,913	0,050	-0,035
-504,956	18,120	-0,126	-0,073
-503,941	800,000	0,027	0,072
-502,926	-107,821	0,067	-0,011
-501,912	26,945	0,135	-0,082
-500,897	-73,458	0,049	-0,013
-499,883	85,848	0,005	0,004
-498,868	800,000	-0,024	0,051
-497,853	-123,161	-0,041	0,005
-496,839	9,982	-0,064	0,036
-495,824	446,663	-0,081	0,130
-494,810	-25,607	0,109	-0,047
-493,795	-21,976	-0,169	-0,075
-492,781	574,240	-0,032	-0,056
-491,766	-200,000	0,003	-0,085
-490,751	246,480	-0,049	-0,060
-489,737	-200,000	0,015	-0,076
-488,722	-50,328	0,165	0,056
-487,708	-77,827	-0,112	-0,028
-486,693	-11,848	0,022	0,010
-485,678	800,000	-0,020	-0,042
-484,664	651,927	0,024	-0,044
-483,649	-43,245	0,110	-0,040
-482,635	325,547	0,063	-0,088
-481,620	97,789	0,032	0,027
-480,605	-200,000	0,007	0,065
-479,591	-200,000	0,016	0,177
-478,576	84,943	-0,079	-0,063
-477,562	-84,513	0,028	-0,006
-476,547	139,468	-0,074	0,071
-475,532	-27,224	0,048	-0,020
-474,518	-68,614	0,113	0,032
-473,503	318,673	-0,107	0,148
-472,489	-89,835	0,037	0,008
-471,474	282,006	0,055	-0,072
-470,459	723,237	0,034	-0,066
-469,445	663,378	-0,065	0,123
-468,430	800,000	-0,016	-0,041
-467,416	599,797	-0,099	-0,179
-466,401	86,023	0,112	0,090
-465,386	-134,411	-0,109	0,010
-464,372	-200,000	0,015	-0,124
-463,357	-58,557	0,071	0,022
-462,343	117,972	0,062	0,056
-461,328	648,673	0,066	-0,123
-460,313	348,277	-0,082	-0,119
-459,299	-200,000	0,016	0,090
-458,284	437,452	0,013	-0,021
-457,270	114,722	0,028	-0,025
-456,255	-6,625	-0,077	0,038
-455,241	-121,627	-0,076	0,009
-454,226	-92,512	-0,106	0,022
-453,211	-106,911	0,025	-0,004
-452,197	-200,000	-0,011	0,038
-451,182	448,338	0,044	0,071
-450,168	-200,000	-0,002	-0,023
-449,153	38,344	0,102	-0,066
-448,138	-76,329	-0,099	0,025
-447,124	401,329	-0,039	0,060
-446,109	136,621	-0,120	-0,114
-445,095	-133,841	-0,038	-0,003
-444,080	418,890	-0,034	0,053
-443,065	252,973	-0,077	-0,096
-442,051	-143,666	0,094	0,006
-441,036	-93,103	0,017	-0,003
-440,022	-49,721	0,028	-0,010
-439,007	800,000	-0,028	-0,071
-437,992	-200,000	0,020	0,110
-436,978	366,080	0,080	0,117
-435,963	800,000	-0,059	0,142
-434,949	-63,580	-0,092	-0,027
-433,934	-22,268	-0,073	-0,032
-432,919	-200,000	-0,002	-0,108
-431,905	163,429	0,110	0,113
-430,890	800,000	-0,028	0,058
-429,876	626,522	0,069	-0,127
-428,861	673,968	0,018	-0,035
-427,846	26,860	0,111	0,068
-426,832	-200,000	0,010	-0,056
-425,817	55,110	-0,070	0,049
-424,803	-127,912	0,172	-0,018
-423,788	-160,582	-0,025	-0,001
-422,773	-122,035	-0,126	-0,015
-421,759	-115,625	0,083	0,011
-420,744	89,667	-0,069	0,056
-419,730	-200,000	-0,006	-0,099
-418,715	603,043	0,028	-0,052
-417,701	531,759	0,014	-0,024
-416,686	-72,680	0,066	-0,018
-415,671	800,000	-0,007	-0,019
-414,657	80,694	0,148	-0,116
-413,642	800,000	0,032	-0,069
-412,628	-105,835	0,035	0,006
-411,613	153,465	-0,033	0,033
-410,598	197,267	0,078	-0,087
-409,584	-200,000	0,008	0,086
-408,569	-200,000	0,036	0,145
-407,555	800,000	0,073	0,180
-406,540	320,115	0,040	0,055
-405,525	-98,162	-0,110	-0,020
-404,511	-90,787	-0,072	-0,015
-403,496	42,609	0,123	0,081
-402,482	-200,000	0,009	0,031
-401,467	800,000	0,017	0,035
-400,452	800,000	-0,010	0,028
-399,438	-200,000	0,003	0,069
-398,423	129,365	-0,067	0,062
-397,409	505,807	-0,094	-0,159
-396,394	-200,000	-0,040	-0,133
-395,379	-94,409	0,096	0,019
-394,365	800,000	0,063	0,132
-393,350	-200,000	-0,001	-0,036
-392,336	323,609	0,061	0,085
-391,321	-200,000	-0,003	0,015
-390,306	-71,113	-0,064	-0,017
-389,292	378,182	-0,009	-0,014
-388,277	-200,000	-0,006	0,119
-387,263	42,877	0,105	0,069
-386,248	800,000	0,048	0,116
-385,233	319,504	0,025	-0,035
-384,219	-200,000	0,003	-0,183
-383,204	-200,000	-0,015	-0,139
-382,190	-200,000	0,036	-0,148
-381,175	-151,044	0,064	-0,003
-380,160	-36,225	-0,085	-0,033
-379,146	264,524	0,089	-0,113
-378,131	110,857	0,069	-0,060
-377,117	-68,371	-0,074	0,021
-376,102	-33,001	-0,104	-0,042
-375,088	-159,681	0,049	-0,002
-374,073	-117,024	-0,134	0,018
-373,058	-200,000	0,049	0,187
-372,044	800,000	-0,024	0,066
-371,029	800,000	0,017	0,037
-370,015	-200,000	-0,059	0,000
-369,000	34,069	0,113	-0,071
-367,985	-18,737	-0,147	-0,066
-366,971	800,000	-0,017	0,039
-365,956	800,000	-0,027	0,064
-364,942	136,942	0,132	-0,125
-363,927	367,424	0,067	0,098
-362,912	278,802	0,104	0,134
-361,898	-200,000	0,008	0,072
-360,883	151,793	-0,056	-0,056
-359,869	-128,196	0,055	0,006
-358,854	-77,628	-0,079	-0,020
-357,839	270,708	-0,086	0,110
-356,825	-200,000	-0,040	0,168
-355,810	-12,017	0,035	0,016
-354,796	162,264	0,057	-0,058
-353,781	-200,000	0,002	-0,139
-352,766	-200,000	-0,009	0,060
-351,752	171,695	0,155	0,161
-350,737	290,118	0,044	-0,058
-349,723	-72,378	-0,054	0,014
-348,708	602,955	0,049	-0,089
-347,693	-119,967	-0,253	-0,031
-346,679	524,647	-0,090	-0,154
-345,664	800,000	-0,066	-0,164
-344,650	-71,072	0,086	0,023
-343,635	800,000	-0,057	0,119
-342,620	3,979	-0,032	0,017
-341,606	-141,944	-0,131	-0,009
-340,591	93,177	-0,046	-0,038
-339,577	62,843	-0,092	-0,066
-338,562	-29,998	0,059	0,024
-337,548	-173,941	0,070	-0,001
-336,533	800,000	0,024	-0,057
-335,518	134,363	0,053	0,049
-334,504	178,071	-0,105	0,111
-333,489	-25,675	-0,132	0,056
-332,475	243,663	0,088	0,107
-331,460	-200,000	-0,002	-0,073
-330,445	60,820	-0,092	-0,066
-329,431	-37,149	-0,047	-0,018
-328,416	105,236	-0,047	-0,040
-327,402	562,560	-0,035	0,061
-326,387	-45,772	-0,132	0,047
-325,372	399,151	-0,071	-0,107
-324,358	-160,789	-0,097	-0,004
-323,343	787,697	-0,023	-0,045
-322,329	-63,930	0,101	0,030
-321,314	-22,215	0,058	0,025
-320,299	-200,000	-0,012	-0,041
-319,285	-78,172	-0,039	-0,010
-318,270	-200,000	0,006	-0,021
-317,256	291,788	-0,080	0,105
-316,241	391,496	-0,092	-0,138
-315,226	800,000	0,052	0,107
-314,212	-60,053	-0,088	0,027
-313,197	69,635	0,096	0,072
-312,183	689,454	-0,022	-0,041
-311,168	-42,019	-0,102	0,038
-310,153	-200,000	0,016	-0,119
-309,139	12,840	-0,116	0,065
-308,124	-92,926	0,028	0,006
-307,110	-176,594	-0,110	0,002
-306,095	-21,854	0,150	0,066
-305,080	-106,359	-0,105	-0,017
-304,066	-200,000	-0,034	-0,111
-303,051	-200,000	-0,026	-0,175
-302,037	-200,000	-0,033	-0,229
-301,022	79,776	0,080	-0,062
-300,008	800,000	-0,056	0,117
-298,993	487,995	-0,022	0,037
-297,978	-200,000	-0,011	0,075
-296,964	-96,310	0,140	0,027
-295,949	556,299	-0,044	-0,077
-294,935	-103,621	0,063	0,011
-293,920	-93,910	-0,054	0,011
-292,905	-164,307	0,065	0,002
-291,891	216,556	0,067	-0,078
-290,876	-58,908	-0,058	-0,018
-289,862	800,000	-0,024	0,075
-288,847	65,379	-0,085	-0,062
-287,832	122,356	0,048	0,043
-286,818	75,686	0,050	-0,038
-285,803	-200,000	-0,023	-0,099
-284,789	21,329	0,043	0,025
-283,774	154,378	-0,008	0,008
-282,759	-30,317	-0,101	0,041
-281,745	-35,536	-0,193	0,075
-280,730	-200,000	0,008	0,031
-279,716	221,745	-0,098	0,114
-278,701	299,839	0,041	0,054
-277,686	800,000	0,010	0,024
-276,672	336,540	0,050	0,070
-275,657	-200,000	-0,016	-0,062
-274,643	45,901	0,101	0,068
-273,628	55,983	-0,050	-0,035
-272,613	-200,000	0,005	-0,060
-271,599	-200,000	0,017	-0,071
-270,584	150,433	-0,121	-0,119
-269,570	420,568	0,041	0,064
-268,555	30,236	-0,024	0,015
-267,540	-50,309	-0,078	0,026
-266,526	109,310	0,017	0,014
-265,511	-200,000	-0,017	-0,092
-264,497	121,103	0,043	0,039
-263,482	-34,726	0,098	0,039
-262,467	-10,114	0,093	-0,044
-261,453	-200,000	-0,015	-0,058
-260,438	50,923	0,113	-0,077
-259,424	517,288	0,041	-0,069
-258,409	730,145	0,035	0,067
-257,395	800,000	0,024	-0,052
-256,380	-6,827	0,128	-0,062
-255,365	12,866	0,115	-0,064
-254,351	401,391	0,094	0,144
-253,336	-200,000	-0,010	0,085
-252,322	270,382	0,077	-0,098
-251,307	606,514	0,064	-0,116
-250,292	387,550	0,044	0,065
-249,278	-180,559	0,128	0,002
-248,263	-93,124	0,044	0,009
-247,249	238,893	0,061	0,073
-246,234	-200,000	0,027	0,136
-245,219	-200,000	-0,005	-0,090
-244,205	-141,908	0,122	0,009
-243,190	-200,000	-0,010	-0,042
-242,176	71,335	-0,039	0,030
-241,161	800,000	-0,012	-0,032
-240,146	-6,006	0,064	-0,032
-239,132	800,000	-0,041	0,126
-238,117	91,997	-0,088	-0,072
-237,103	104,130	0,091	-0,077
-236,088	63,921	-0,070	-0,050
-235,073	-200,000	-0,030	0,216
-234,059	-200,000	-0,021	-0,069
-233,044	35,898	0,109	0,069
-232,030	158,235	0,041	-0,041
-231,015	126,846	-0,068	-0,062
-230,000	97,090	-0,156	-0,129
-228,986	18,720	0,156	0,090
-227,971	-83,168	0,061	0,014
-226,957	2,890	0,168	-0,087
-225,942	275,679	-0,058	0,075
-224,927	212,614	-0,019	0,022
-223,913	-200,000	-0,025	-0,081
-222,898	177,325	0,024	0,025
-221,884	316,216	-0,058	-0,079
-220,869	-200,000	0,005	-0,078
-219,855	123,683	0,077	0,069
-218,840	-200,000	0,023	0,117
-217,825	10,719	-0,056	0,031
-216,811	-99,381	-0,069	-0,012
-215,796	-175,024	-0,079	0,002
-214,782	800,000	0,053	-0,138
-213,767	-200,000	0,025	-0,123
-212,752	-83,619	-0,067	0,015
-211,738	191,590	0,045	-0,049
-210,723	800,000	-0,016	0,050
-209,709	204,634	-0,103	-0,115
-208,694	80,085	0,100	-0,077
-207,679	45,862	-0,042	-0,028
-206,665	44,273	-0,029	-0,019
-205,650	-18,751	-0,054	0,024
-204,636	606,372	-0,022	0,039
-203,621	570,341	-0,053	0,094
-202,606	-101,937	-0,102	-0,018
-201,592	800,000	-0,028	-0,062
-200,577	-64,137	-0,008	0,002
-199,563	108,580	0,125	0,108
-198,548	50,726	0,058	0,039
-197,533	19,937	0,138	-0,080
-196,519	-200,000	-0,023	0,080
-195,504	287,473	-0,083	0,108
-194,490	125,790	0,084	-0,076
-193,475	-83,068	0,166	0,038
-192,460	-200,000	0,012	0,278
-191,446	-28,227	0,143	0,059
-190,431	-200,000	0,009	-0,033
-189,417	-123,140	-0,035	0,004
-188,402	-27,284	0,085	0,036
-187,387	800,000	-0,020	0,047
-186,373	-111,057	-0,006	-0,001
-185,358	35,753	-0,051	0,032
-184,344	-200,000	-0,009	0,070
-183,329	-132,581	0,071	-0,006
-182,315	54,284	-0,032	0,022
-181,300	-100,844	-0,032	-0,006
-180,285	52,444	0,064	-0,044
-179,271	19,438	-0,026	-0,015
-178,256	-130,933	-0,095	-0,009
-177,242	-129,803	0,103	0,010
-176,227	9,082	0,087	0,047
-175,212	3,223	0,036	0,019
-174,198	255,473	0,081	-0,100
-173,183	112,295	-0,014	0,012
-172,169	-200,000	-0,004	-0,040
-171,154	-91,545	-0,162	0,033
-170,139	-200,000	0,007	0,032
-169,125	151,658	-0,029	-0,028
-168,110	27,514	0,077	0,047
-167,096	-200,000	-0,030	-0,109
-166,081	-200,000	0,008	-0,027
-165,066	360,027	-0,057	-0,083
-164,052	68,377	-0,044	-0,032
-163,037	800,000	-0,062	0,146
-162,023	-200,000	-0,017	0,095
-161,008	175,407	0,086	-0,089
-159,993	-41,750	-0,064	0,023
-158,979	-75,760	-0,139	0,035
-157,964	800,000	0,018	0,044
-156,950	800,000	-0,070	-0,143
-155,935	800,000	0,047	-0,118
-154,920	-123,979	0,034	0,004
-153,906	-129,680	-0,041	0,004
-152,891	-200,000	0,014	-0,065
-151,877	153,775	-0,113	-0,112
-150,862	130,023	0,064	-0,059
-149,847	18,386	-0,059	0,033
-148,833	800,000	0,049	-0,103
-147,818	100,528	-0,047	0,039
-146,804	338,802	0,068	0,095
-145,789	589,067	0,026	0,046
-144,775	-200,000	-0,006	-0,109
-143,760	-48,801	-0,118	0,040
-142,745	0,212	0,049	-0,025
-141,731	-200,000	0,002	0,064
-140,716	-168,574	0,139	0,004
-139,702	-144,597	0,052	-0,003
-138,687	289,152	-0,088	-0,115
-137,672	-142,331	0,095	-0,007
-136,658	227,081	0,134	-0,157
-135,643	-110,900	-0,137	0,020
-134,629	493,039	-0,067	0,110
-133,614	93,041	0,084	-0,068
-132,599	-93,619	0,077	0,015
-131,585	-200,000	0,002	0,093
-130,570	-186,430	0,017	-0,000
-129,556	43,499	-0,089	0,058
-128,541	516,694	-0,025	0,042
-127,526	36,536	-0,074	0,047
-126,512	213,453	0,071	-0,080
-125,497	86,307	0,070	0,055
-124,483	-188,132	-0,091	-0,001
-123,468	-163,013	-0,078	-0,003
-122,453	-129,173	-0,190	0,019
-121,439	-200,000	-0,012	-0,066
-120,424	800,000	0,040	-0,118
-119,410	-8,506	0,035	-0,017
-118,395	-200,000	0,025	0,082
-117,380	280,119	-0,035	-0,045
-116,366	-193,553	-0,062	0,000
-115,351	-173,021	-0,083	-0,002
-114,337	0,420	-0,139	-0,071
-113,322	35,393	0,053	-0,033
-112,307	-200,000	-0,015	-0,056
-111,293	26,547	0,061	-0,036
-110,278	-31,922	0,158	-0,063
-109,264	59,936	-0,106	0,075
-108,249	-200,000	-0,001	0,027
-107,234	103,047	-0,113	-0,095
-106,220	44,728	-0,099	-0,065
-105,205	800,000	-0,029	-0,074
-104,191	337,848	0,085	-0,119
-103,176	800,000	-0,039	-0,081
-102,162	278,219	-0,062	-0,079
-101,147	718,477	-0,049	-0,094
-100,132	-86,973	-0,072	0,016
-99,118	234,305	-0,106	0,125
-98,103	190,984	0,011	-0,012
-97,089	800,000	-0,080	0,196
-96,074	-200,000	-0,005	-0,094
-95,059	-200,000	-0,010	-0,085
-94,045	800,000	0,012	-0,034
-93,030	-200,000	0,002	0,187
-92,016	5,525	0,112	0,059
-91,001	205,861	-0,046	0,051
-89,986	89,072	0,075	-0,060
-88,972	66,580	-0,072	-0,052
-87,957	800,000	0,035	-0,092
-86,943	-21,951	-0,075	-0,032
-85,928	173,227	-0,037	-0,038
-84,913	31,717	-0,150	-0,092
-83,899	800,000	-0,049	0,118
-82,884	-200,000	0,006	-0,026
-81,870	-94,811	0,047	0,009
-80,855	-167,326	-0,075	-0,002
-79,840	221,674	-0,018	-0,021
-78,826	-107,604	-0,149	-0,023
-77,811	-200,000	0,006	-0,101
-76,797	800,000	0,016	-0,047
-75,782	66,648	0,022	-0,016
-74,767	85,619	0,134	0,106
-73,753	451,417	-0,050	0,079
-72,738	-200,000	-0,020	0,133
-71,724	-200,000	-0,013	-0,064
-70,709	-200,000	0,010	-0,133
-69,694	470,959	-0,080	-0,130
-68,680	406,139	0,055	0,083
-67,665	800,000	-0,018	0,052
-66,651	-14,983	0,039	-0,018
-65,636	22,290	-0,091	-0,053
-64,622	-200,000	0,011	-0,041
-63,607	378,993	0,057	-0,084
-62,592	-200,000	0,021	-0,072
-61,578	800,000	-0,014	-0,036
-60,563	-23,988	0,060	-0,026
-59,549	-175,129	-0,164	0,003
-58,534	59,031	-2,134	-1,502
-57,519	-200,000	-0,156	-0,823
-56,505	-200,000	-1,431	-5,177
-55,490	142,132	0,826	0,785
-54,476	800,000	5,384	11,938
-53,461	-200,000	18,782	320,035
-52,446	800,000	741,706	2324,098
-51,432	548,521	1654,528	2848,621
-50,417	109,688	1637,284	1404,844
-49,403	73,245	1287,817	963,306
-48,388	29,390	1029,637	624,962
-47,373	19,539	992,454	569,829
-46,359	16,923	980,079	554,113
-45,344	13,427	976,501	540,598
-44,330	13,765	974,906	540,803
-43,315	13,146	972,971	537,681
-42,300	13,076	972,001	536,894
-41,286	13,004	971,029	536,103
-40,271	13,089	969,884	535,727
-39,257	13,033	969,237	535,164
-38,242	13,063	968,390	534,773
-37,227	13,121	967,359	534,372
-36,213	13,054	966,638	533,734
-35,198	13,053	965,639	533,159
-34,184	13,139	964,733	532,916
-33,169	13,014	964,140	532,163
-32,154	13,123	962,920	531,819
-31,140	13,082	962,050	531,187
-30,125	13,091	961,355	530,810
-29,111	13,084	960,567	530,334
-28,096	13,114	959,769	529,967
-27,082	13,066	959,205	529,480
-26,067	13,112	958,467	529,199
-25,052	13,156	957,646	528,866
-24,038	13,072	957,059	528,253
-23,023	13,080	956,598	528,001
-22,009	13,086	955,806	527,562
-20,994	13,175	955,039	527,403
-19,979	13,122	954,580	526,960
-18,965	13,074	954,106	526,524
-17,950	13,083	953,492	526,192
-16,936	13,057	952,762	525,686
-15,921	13,039	952,085	525,233
-14,906	12,988	951,255	524,592
-13,892	13,009	950,737	524,351
-12,877	12,983	950,185	523,945
-11,863	12,933	949,540	523,409
-10,848	13,015	948,993	523,349
-9,833	13,031	948,356	523,027
-8,819	13,054	947,631	522,679
-7,804	13,035	946,995	522,248
-6,790	13,010	946,279	521,752
-5,775	13,011	946,046	521,606
-4,760	12,991	945,393	521,161
-3,746	12,980	944,640	520,689
-2,731	12,870	943,946	519,939
-1,717	12,757	943,428	519,275
-0,702	12,810	942,668	519,003
0,313	12,573	942,274	518,818
1,327	16,140	939,782	528,667
2,342	25,373	790,401	468,968
3,356	21,295	445,418	258,206
4,371	-7,995	298,843	143,638
5,386	-11,719	280,917	131,437
6,400	-13,076	275,086	127,422
7,415	-12,939	272,779	126,470
8,429	-13,106	271,037	125,496
9,444	-13,156	270,351	125,121
10,459	-13,242	269,762	124,759
11,473	-13,421	269,013	124,236
12,488	-13,327	268,469	124,060
13,502	-13,576	268,065	123,634
14,517	-13,525	267,518	123,418
15,531	-13,463	267,123	123,281
16,546	-13,351	266,682	123,168
17,561	-13,327	266,341	123,022
18,575	-13,199	266,109	123,020
19,590	-13,196	265,567	122,761
20,604	-13,259	265,233	122,539
21,619	-13,473	264,990	122,222
22,634	-13,388	264,610	122,112
23,648	-13,481	264,373	121,908
24,663	-13,303	264,178	121,968
25,677	-13,578	263,834	121,550
26,692	-13,185	263,368	121,678
27,707	-13,344	263,286	121,487
28,721	-13,547	262,897	121,114
29,736	-13,453	262,669	121,083
30,750	-13,480	262,375	120,912
31,765	-13,554	262,167	120,740
32,780	-13,389	261,897	120,752
33,794	-13,560	261,681	120,489
34,809	-13,363	261,563	120,599
35,823	-13,521	261,216	120,288
36,838	-13,410	260,827	120,197
37,853	-13,693	260,610	119,835
38,867	-13,456	260,516	119,992
39,882	-13,461	260,185	119,824
40,896	-13,535	260,079	119,698
41,911	-13,697	259,786	119,409
42,926	-13,696	259,583	119,307
43,940	-13,708	259,398	119,200
44,955	-13,503	258,970	119,174
45,969	-13,710	258,858	118,929
46,984	-13,877	258,493	118,604
47,999	-14,022	258,208	118,334
49,013	-14,284	258,177	118,080
50,028	-14,419	257,791	117,774
51,042	-14,514	257,373	117,489
52,057	-14,445	257,147	117,436
53,071	-14,425	256,975	117,365
54,086	-14,247	256,855	117,455
55,101	-14,107	256,716	117,503
56,115	-13,845	256,506	117,626
57,130	-13,498	256,525	117,927
58,144	-13,329	256,348	117,982
59,159	-13,326	256,004	117,816
60,174	-13,297	255,958	117,810
61,188	-13,422	255,628	117,539
62,203	-13,474	255,450	117,401
63,217	-13,364	255,243	117,391
64,232	-13,391	254,918	117,208
65,247	-13,457	254,754	117,064
66,261	-13,539	254,599	116,912
67,276	-13,605	254,153	116,639
68,290	-13,820	254,013	116,380
69,305	-14,018	253,866	116,131
70,320	-13,838	253,523	116,118
71,334	-13,594	253,463	116,291
72,349	-13,370	253,105	116,309
73,363	-13,259	253,160	116,419
74,378	-13,314	252,817	116,204
75,393	-13,437	252,587	115,983
76,407	-13,527	252,516	115,862
77,422	-13,423	252,343	115,862
78,436	-13,374	252,009	115,740
79,451	-13,349	251,809	115,659
80,466	-13,504	251,352	115,306
81,480	-13,803	251,240	114,990
82,495	-13,640	251,164	115,084
83,509	-13,824	250,938	114,813
84,524	-13,788	250,612	114,685
85,539	-13,770	250,471	114,625
86,553	-14,005	250,211	114,296
87,568	-13,963	250,088	114,266
88,582	-13,850	250,010	114,315
89,597	-13,825	249,705	114,187
90,611	-13,682	249,523	114,215
91,626	-13,409	249,348	114,356
92,641	-13,382	249,074	114,242
93,655	-13,557	249,000	114,050
94,670	-13,621	248,811	113,899
95,684	-13,661	248,636	113,776
96,699	-13,619	248,430	113,707
97,714	-13,794	248,099	113,397
98,728	-13,822	247,956	113,299
99,743	-13,872	247,648	113,106
100,757	-13,922	247,551	113,010
101,772	-13,853	247,339	112,961
102,787	-13,849	247,169	112,877
103,801	-13,655	247,044	112,971
104,816	-13,528	246,795	112,954
105,830	-13,601	246,772	112,872
106,845	-13,525	246,609	112,851
107,860	-13,403	246,271	112,788
108,874	-13,784	246,128	112,395
109,889	-13,830	245,929	112,255
110,903	-13,629	245,614	112,270
111,918	-13,785	245,354	112,011
112,933	-13,784	245,372	112,010
113,947	-13,520	245,210	112,145
114,962	-13,496	244,995	112,056
115,976	-13,524	244,831	111,949
116,991	-13,597	244,710	111,823
118,006	-13,616	244,409	111,660
119,020	-13,633	244,395	111,629
120,035	-13,396	244,076	111,669
121,049	-13,502	243,958	111,517
122,064	-13,530	243,953	111,482
123,079	-13,558	243,583	111,280
124,093	-13,599	243,312	111,113
125,108	-13,838	243,153	110,833
126,122	-13,982	242,835	110,560
127,137	-13,990	242,600	110,437
128,151	-14,087	242,560	110,329
129,166	-14,023	242,296	110,252
130,181	-13,945	242,211	110,267
131,195	-13,922	242,050	110,203
132,210	-13,611	241,684	110,280
133,224	-13,692	241,652	110,190
134,239	-13,656	241,477	110,130
135,254	-13,372	241,303	110,273
136,268	-13,662	241,113	109,939
137,283	-13,954	240,856	109,574
138,297	-14,193	240,588	109,248
139,312	-13,957	240,285	109,293
140,327	-13,760	240,389	109,491
141,341	-13,333	240,236	109,757
142,356	-13,178	240,126	109,823
143,370	-13,246	240,077	109,736
144,385	-13,249	239,870	109,629
145,400	-13,119	239,636	109,618
146,414	-13,280	239,506	109,418
147,429	-13,200	239,218	109,342
148,443	-13,238	239,136	109,264
149,458	-13,190	238,863	109,168
150,473	-13,283	238,833	109,069
151,487	-13,407	238,478	108,798
152,502	-13,355	238,528	108,853
153,516	-13,275	238,160	108,739
154,531	-13,016	238,141	108,929
155,546	-13,350	237,956	108,567
156,560	-13,318	237,745	108,486
157,575	-13,299	237,434	108,350
158,589	-13,210	237,289	108,345
159,604	-13,083	237,179	108,387
160,619	-13,158	237,114	108,288
161,633	-13,229	236,923	108,134
162,648	-13,058	236,663	108,142
163,662	-13,173	236,581	108,003
164,677	-13,388	236,412	107,745
165,692	-13,292	236,191	107,711
166,706	-13,036	236,090	107,859
167,721	-13,099	235,873	107,701
168,735	-13,051	235,917	107,749
169,750	-13,198	235,571	107,465
170,764	-13,331	235,541	107,336
171,779	-13,125	235,357	107,406
172,794	-13,047	235,141	107,360
173,808	-13,459	234,971	106,946
174,823	-13,808	234,706	106,540
175,837	-14,015	234,298	106,182
176,852	-13,594	234,469	106,583
177,867	-13,216	234,340	106,813
178,881	-13,036	234,220	106,891
179,896	-13,127	234,073	106,742
180,910	-13,065	233,814	106,663
181,925	-13,144	233,564	106,478
182,940	-13,036	233,577	106,559
183,954	-13,185	233,384	106,344
184,969	-13,272	233,389	106,268
185,983	-13,121	233,198	106,291
186,998	-12,871	232,890	106,337
188,013	-12,948	232,748	106,202
189,027	-13,061	232,580	106,028
190,042	-12,994	232,470	106,020
191,056	-13,261	232,448	105,793
192,071	-13,197	232,169	105,706
193,086	-12,982	232,001	105,788
194,100	-13,079	231,932	105,671
195,115	-13,426	231,374	105,137
196,129	-13,004	231,699	105,604
197,144	-7,464	233,406	110,716
198,159	-1,999	235,056	115,791
199,173	2,381	236,366	119,884
200,188	2,959	236,432	120,362
201,202	2,996	236,220	120,273
202,217	2,927	236,080	120,136
203,232	3,132	235,920	120,205
204,246	3,194	235,800	120,182
205,261	3,249	235,606	120,116
206,275	3,670	235,502	120,382
207,290	3,579	235,342	120,219
208,304	3,110	235,343	119,841
209,319	3,354	235,138	119,917
210,334	3,203	234,818	119,625
211,348	3,207	234,650	119,531
212,363	2,671	234,342	118,946
213,377	2,612	234,067	118,749
214,392	2,507	234,120	118,685
215,407	2,602	233,973	118,673
216,421	2,502	233,859	118,527
217,436	2,583	233,659	118,477
218,450	2,480	233,375	118,243
219,465	2,444	233,255	118,144
220,480	2,544	233,014	118,089
221,494	2,497	232,920	117,994
222,509	2,702	232,797	118,080
223,523	2,741	232,763	118,082
224,538	2,548	232,471	117,774
225,553	2,553	232,402	117,734
226,567	2,688	232,339	117,795
227,582	2,911	232,222	117,898
228,596	3,065	232,023	117,904
229,611	2,782	231,925	117,626
230,626	2,608	231,507	117,269
231,640	2,650	231,319	117,196
232,655	2,859	231,228	117,300
233,669	3,162	231,292	117,556
234,684	3,114	231,015	117,367
235,699	3,018	230,971	117,261
236,713	2,713	230,625	116,841
237,728	2,653	230,657	116,800
238,742	2,386	230,361	116,435
239,757	2,679	230,253	116,595
240,772	2,702	230,203	116,578
241,786	2,510	230,009	116,322
242,801	2,858	229,832	116,488
243,815	3,228	229,816	116,751
244,830	3,083	229,594	116,517
245,844	2,798	229,342	116,162
246,859	2,796	229,193	116,075
247,874	2,986	229,130	116,177
248,888	2,835	229,028	116,001
249,903	2,909	228,782	115,922
250,917	2,629	228,651	115,632
251,932	2,692	228,513	115,600
252,947	2,763	228,196	115,483
253,961	2,435	228,137	115,195
254,976	2,405	227,945	115,065
255,990	2,956	227,936	115,467
257,005	2,924	227,846	115,386
258,020	3,117	227,570	115,382
259,034	2,929	227,457	115,173
260,049	2,976	227,390	115,164
261,063	3,019	227,259	115,120
262,078	3,131	227,220	115,174
263,093	3,070	226,946	114,979
264,107	2,893	226,831	114,778
265,122	3,023	226,600	114,748
266,136	3,425	226,546	115,012
267,151	3,216	226,402	114,772
268,166	2,832	226,199	114,371
269,180	2,267	225,941	113,808
270,195	2,585	225,540	113,833
271,209	2,523	225,637	113,826
272,224	2,745	225,685	114,005
273,239	2,641	225,528	113,838
274,253	2,498	225,242	113,577
275,268	2,400	224,967	113,355
276,282	2,371	224,770	113,224
277,297	2,358	224,653	113,145
278,312	2,568	224,647	113,289
279,326	2,863	224,529	113,439
280,341	2,799	224,308	113,269
281,355	2,839	224,339	113,304
282,370	2,657	224,044	113,010
283,384	2,292	224,037	112,727
284,399	2,540	223,853	112,807
285,414	2,315	223,665	112,536
286,428	2,811	223,603	112,861
287,443	2,784	223,479	112,769
288,457	2,665	223,291	112,576
289,472	2,559	223,115	112,399
290,487	2,512	222,655	112,123
291,501	2,209	222,669	111,896
292,516	2,403	222,576	111,982
293,530	2,340	222,489	111,882
294,545	2,522	222,321	111,922
295,560	2,595	222,219	111,914
296,574	2,588	222,155	111,867
297,589	2,661	221,920	111,792
298,603	2,689	221,834	111,760
299,618	2,520	221,663	111,539
300,633	2,949	221,638	111,831
301,647	3,043	221,416	111,778
302,662	3,083	221,256	111,717
303,676	3,059	221,150	111,636
304,691	3,041	220,988	111,530
305,706	2,991	220,842	111,410
306,720	3,135	220,659	111,413
307,735	2,878	220,447	111,109
308,749	2,587	220,451	110,889
309,764	2,680	220,337	110,890
310,779	3,036	220,135	111,037
311,793	2,978	219,975	110,904
312,808	2,782	219,943	110,736
313,822	2,972	219,748	110,766
314,837	2,700	219,600	110,484
315,852	2,384	219,358	110,124
316,866	2,732	219,253	110,313
317,881	2,687	219,300	110,294
318,895	2,811	218,929	110,187
319,910	2,666	218,737	109,976
320,925	2,400	218,642	109,727
321,939	2,125	218,365	109,380
322,954	2,350	218,474	109,587
323,968	2,872	218,409	109,920
324,983	2,838	218,271	109,816
325,997	3,002	218,115	109,846
327,012	2,859	217,968	109,660
328,027	2,779	217,834	109,525
329,041	3,107	217,880	109,774
330,056	3,160	217,683	109,703
331,070	2,708	217,472	109,263
332,085	2,698	217,081	109,050
333,100	2,792	216,909	109,021
334,114	2,923	216,825	109,062
335,129	2,811	216,604	108,862
336,143	2,640	216,503	108,679
337,158	2,333	216,487	108,442
338,173	2,444	216,349	108,442
339,187	2,664	216,312	108,571
340,202	2,651	216,127	108,460
341,216	2,671	215,880	108,340
342,231	2,628	215,802	108,261
343,246	2,786	215,533	108,228
344,260	2,489	215,617	108,050
345,275	2,805	215,649	108,281
346,289	3,018	215,313	108,253
347,304	2,843	215,146	108,036
348,319	2,644	215,103	107,864
349,333	2,889	214,846	107,898
350,348	2,868	214,724	107,812
351,362	2,934	214,598	107,786
352,377	2,806	214,505	107,639
353,392	2,744	214,368	107,518
354,406	2,906	214,199	107,537
355,421	196,379	1314,574	1390,244
356,435	157,111	1448,587	1390,179
