DTS Sentinel unit serial number:	SN410029Multiplexer serial number:	ORYXHardware model number:	OX2-SRSoftware version number:	ORYX F/W v4,00 Oryx Data Collector v3.7.2.0data status	okinstallation	B6 Nyhavnadifferential loss correction	single-endedforward channel	channel 2reverse channel	N/Adate	2023/12/10time	22:30:08forward acquisition time	300,00reverse acquisition time	0,00gamma	499,1914k internal	0,3123k external	0,3123temperature offset calibration	1,0000default loss term (dB/km)	0,3820temperature slope calibration	1,0000multiplexer offset coefficient	1,0000multiplexer slope coefficient	1,0000fibre end	0,00T internal ref (°C)	22,37T ext. ref 1 (°C)	6,16T ext. ref 2 (°C)	6,15length (m)	temperature (°C)	Stokes	anti-Stokes-744,400	228,225	0,029	-0,035
-743,385	-94,368	-0,158	0,032
-742,371	800,000	0,044	0,102
-741,356	225,159	-0,133	0,161
-740,342	-96,280	0,035	0,007
-739,327	-133,526	-0,175	-0,016
-738,312	-12,731	-0,088	-0,043
-737,298	139,055	-0,154	0,151
-736,283	33,421	0,054	-0,035
-735,269	-106,889	-0,234	0,038
-734,254	631,928	0,042	0,080
-733,239	-92,744	-0,489	-0,101
-732,225	-18,142	0,145	0,067
-731,210	-117,107	0,165	-0,022
-730,196	-200,000	-0,014	-0,072
-729,181	-175,930	-0,116	-0,002
-728,167	3,723	-0,118	0,064
-727,152	-200,000	-0,007	0,041
-726,137	510,972	-0,098	-0,171
-725,123	159,641	-0,093	-0,096
-724,108	427,072	0,033	-0,053
-723,094	-44,930	-0,119	0,044
-722,079	-25,989	-0,201	0,088
-721,064	-200,000	-0,022	-0,122
-720,050	67,735	-0,047	0,036
-719,035	-200,000	-0,012	0,083
-718,021	-85,459	0,077	0,018
-717,006	800,000	-0,051	-0,112
-715,991	223,175	-0,081	-0,098
-714,977	-18,554	0,066	-0,030
-713,962	-172,393	-0,105	0,002
-712,948	-200,000	0,015	0,106
-711,933	800,000	-0,026	-0,065
-710,918	800,000	-0,070	-0,156
-709,904	-105,459	-0,132	0,022
-708,889	800,000	-0,037	-0,087
-707,875	800,000	-0,051	-0,147
-706,860	800,000	-0,011	-0,028
-705,845	-177,865	0,004	0,000
-704,831	-48,235	-0,121	-0,043
-703,816	-134,250	-0,034	-0,003
-702,802	82,515	0,054	-0,044
-701,787	-200,000	-0,007	-0,054
-700,772	-200,000	-0,002	0,035
-699,758	-31,930	0,022	0,009
-698,743	143,120	0,045	-0,044
-697,729	800,000	0,003	0,008
-696,714	163,394	0,080	-0,084
-695,699	-46,872	0,069	0,025
-694,685	800,000	0,035	0,103
-693,670	289,838	0,109	-0,147
-692,656	486,545	0,042	-0,072
-691,641	345,315	0,094	0,138
-690,627	-34,392	0,146	0,059
-689,612	100,830	-0,081	0,070
-688,597	59,106	-0,100	0,073
-687,583	-102,788	-0,104	0,018
-686,568	75,386	-0,042	-0,033
-685,554	-200,000	-0,003	-0,027
-684,539	7,166	0,105	0,058
-683,524	389,716	0,022	-0,034
-682,510	-32,237	-0,071	0,029
-681,495	-67,137	0,115	0,034
-680,481	98,451	0,057	-0,048
-679,466	68,657	-0,086	-0,066
-678,451	-200,000	-0,001	-0,027
-677,437	-95,562	0,068	0,013
-676,422	524,045	-0,057	0,101
-675,408	-39,740	0,068	-0,026
-674,393	-85,955	0,036	-0,008
-673,378	-33,351	-0,114	0,047
-672,364	68,081	0,055	0,042
-671,349	800,000	0,016	-0,040
-670,335	509,792	0,019	0,033
-669,320	-200,000	-0,016	-0,061
-668,305	800,000	-0,053	0,130
-667,291	67,982	0,072	-0,055
-666,276	-200,000	-0,006	0,078
-665,262	-200,000	0,010	-0,113
-664,247	244,081	-0,043	-0,054
-663,232	800,000	0,033	-0,078
-662,218	800,000	-0,047	-0,103
-661,203	-51,219	0,273	0,095
-660,189	190,640	0,063	-0,070
-659,174	-0,410	-0,082	0,043
-658,159	-170,470	-0,093	-0,002
-657,145	-137,780	-0,123	-0,010
-656,130	-18,634	-0,093	-0,043
-655,116	-191,454	0,139	-0,001
-654,101	53,784	-0,068	0,048
-653,086	-48,386	0,118	0,042
-652,072	800,000	-0,031	-0,099
-651,057	562,704	0,023	0,042
-650,043	92,356	0,146	-0,122
-649,028	-95,411	-0,034	0,007
-648,014	-23,523	0,110	-0,049
-646,999	-200,000	0,003	0,120
-645,984	-118,972	-0,175	0,023
-644,970	179,543	-0,064	-0,070
-643,955	800,000	-0,072	-0,223
-642,941	118,728	-0,182	-0,167
-641,926	189,078	-0,115	0,128
-640,911	43,437	-0,058	0,039
-639,897	343,580	0,054	-0,079
-638,882	-200,000	-0,002	-0,033
-637,868	7,457	-0,019	0,011
-636,853	-200,000	0,000	-0,072
-635,838	-126,540	-0,032	-0,003
-634,824	-68,757	0,111	-0,032
-633,809	287,540	0,064	0,086
-632,795	-39,060	0,099	-0,038
-631,780	-200,000	0,007	0,092
-630,765	-129,996	-0,161	0,016
-629,751	89,179	-0,024	-0,020
-628,736	800,000	-0,034	-0,092
-627,722	353,852	0,029	0,043
-626,707	800,000	0,030	0,067
-625,692	232,933	0,060	0,073
-624,678	-200,000	-0,003	0,053
-623,663	-200,000	0,015	0,076
-622,649	-168,770	0,034	0,001
-621,634	59,725	-0,065	0,047
-620,619	34,167	-0,183	0,118
-619,605	800,000	0,017	-0,048
-618,590	-25,147	-0,085	0,037
-617,576	-200,000	-0,001	0,071
-616,561	26,231	-0,093	-0,058
-615,546	-200,000	-0,026	0,149
-614,532	40,373	-0,072	-0,048
-613,517	53,247	-0,136	-0,096
-612,503	-143,746	-0,051	-0,003
-611,488	370,676	0,067	0,101
-610,474	-152,708	0,053	0,003
-609,459	-125,755	0,142	-0,016
-608,444	12,849	-0,037	0,021
-607,430	-200,000	-0,038	0,132
-606,415	-116,932	-0,100	0,013
-605,401	591,311	-0,083	-0,152
-604,386	-200,000	0,002	0,027
-603,371	61,073	-0,036	0,027
-602,357	97,970	0,116	0,099
-601,342	800,000	0,043	0,095
-600,328	138,362	-0,166	-0,162
-599,313	207,589	-0,059	-0,068
-598,298	-116,008	0,127	-0,017
-597,284	-109,083	0,061	0,010
-596,269	-28,827	0,050	0,021
-595,255	109,953	-0,029	0,026
-594,240	482,685	-0,048	-0,082
-593,225	-200,000	0,039	-0,130
-592,211	110,388	0,122	-0,109
-591,196	480,134	-0,067	0,113
-590,182	351,880	0,036	0,052
-589,167	-97,255	0,091	0,018
-588,152	166,346	-0,070	0,073
-587,138	794,336	0,012	-0,024
-586,123	171,584	-0,076	0,081
-585,109	-82,629	0,042	-0,010
-584,094	-57,323	-0,074	-0,024
-583,079	188,371	-0,035	-0,039
-582,065	463,891	0,078	-0,130
-581,050	120,594	0,071	0,066
-580,036	782,534	0,036	-0,074
-579,021	-7,692	0,063	0,031
-578,006	-59,602	-0,065	-0,021
-576,992	158,827	0,011	-0,011
-575,977	800,000	-0,018	-0,050
-574,963	-64,511	0,142	-0,043
-573,948	-200,000	-0,086	0,000
-572,934	28,296	0,056	-0,035
-571,919	800,000	-0,033	-0,087
-570,904	-200,000	-0,005	-0,045
-569,890	194,340	0,073	-0,082
-568,875	152,854	-0,134	0,136
-567,861	800,000	-0,046	0,130
-566,846	-47,584	-0,066	-0,024
-565,831	123,464	-0,031	-0,029
-564,817	94,941	0,033	0,028
-563,802	559,603	-0,031	-0,055
-562,788	-200,000	0,000	0,024
-561,773	800,000	-0,017	0,056
-560,758	489,117	-0,036	0,061
-559,744	0,934	-0,033	0,017
-558,729	250,647	0,043	0,054
-557,715	-200,000	-0,039	0,251
-556,700	-7,797	-0,125	-0,062
-555,685	59,683	0,033	0,024
-554,671	-200,000	0,001	-0,049
-553,656	-135,655	-0,033	0,003
-552,642	800,000	0,027	-0,081
-551,627	-200,000	-0,011	-0,157
-550,612	157,726	0,068	-0,069
-549,598	361,091	0,045	-0,067
-548,583	-200,000	-0,010	-0,075
-547,569	800,000	0,028	-0,061
-546,554	198,084	0,032	0,036
-545,539	362,406	0,099	-0,148
-544,525	122,404	-0,069	0,064
-543,510	-135,839	-0,077	0,007
-542,496	-200,000	0,006	-0,024
-541,481	555,855	-0,081	-0,144
-540,466	564,981	0,022	0,040
-539,452	-200,000	-0,016	0,095
-538,437	9,508	0,059	0,033
-537,423	-45,885	0,017	-0,006
-536,408	-200,000	0,001	-0,007
-535,393	-50,031	-0,045	0,016
-534,379	279,128	-0,028	-0,037
-533,364	-63,503	0,023	-0,007
-532,350	-77,363	0,089	-0,023
-531,335	-94,864	0,080	-0,016
-530,321	-200,000	0,005	-0,128
-529,306	-69,714	-0,154	0,043
-528,291	87,894	0,039	0,032
-527,277	800,000	-0,045	-0,110
-526,262	17,856	0,039	-0,023
-525,248	247,347	-0,090	0,112
-524,233	330,027	0,068	0,097
-523,218	-74,142	0,144	-0,038
-522,204	-200,000	0,007	0,052
-521,189	450,573	0,070	0,114
-520,175	516,506	-0,065	-0,113
-519,160	-200,000	-0,032	-0,181
-518,145	143,367	0,059	0,058
-517,131	-113,410	0,137	0,020
-516,116	-0,445	-0,061	0,032
-515,102	103,829	-0,076	0,066
-514,087	-200,000	0,005	-0,035
-513,072	-80,455	-0,072	-0,018
-512,058	-200,000	0,003	0,028
-511,043	713,898	-0,026	0,051
-510,029	800,000	0,043	-0,129
-509,014	-200,000	-0,016	0,059
-507,999	65,601	-0,024	-0,018
-506,985	-200,000	0,015	-0,156
-505,970	800,000	0,039	-0,099
-504,956	800,000	0,090	0,239
-503,941	288,753	0,006	-0,009
-502,926	192,368	-0,093	0,104
-501,912	800,000	-0,006	0,017
-500,897	-76,214	-0,088	0,023
-499,883	-96,061	-0,040	-0,008
-498,868	746,672	-0,081	-0,161
-497,853	83,592	-0,082	-0,066
-496,839	162,481	-0,090	-0,094
-495,824	-200,000	0,001	-0,093
-494,810	-117,829	0,049	0,006
-493,795	121,017	-0,095	-0,087
-492,781	-200,000	-0,004	0,117
-491,766	26,787	-0,062	-0,039
-490,751	82,247	-0,067	0,054
-489,737	-200,000	-0,010	-0,090
-488,722	800,000	0,030	-0,083
-487,708	201,350	0,035	0,040
-486,693	146,022	0,109	0,107
-485,678	159,249	-0,032	0,032
-484,664	-110,797	-0,144	0,022
-483,649	449,523	-0,057	0,094
-482,635	-200,000	-0,006	0,077
-481,620	-200,000	0,012	0,082
-480,605	39,617	0,066	0,043
-479,591	-51,763	0,064	0,022
-478,576	568,365	-0,064	0,115
-477,562	23,849	-0,085	0,052
-476,547	233,388	0,061	-0,074
-475,532	254,974	0,083	-0,105
-474,518	69,209	0,078	-0,059
-473,503	800,000	-0,025	0,078
-472,489	213,153	0,048	0,056
-471,474	-199,203	-0,165	-0,001
-470,459	74,129	0,024	-0,018
-469,445	800,000	-0,023	-0,069
-468,430	-200,000	-0,026	-0,123
-467,416	-90,721	0,061	-0,013
-466,401	-200,000	0,026	-0,099
-465,386	131,880	-0,024	0,022
-464,372	-134,999	0,089	-0,008
-463,357	-161,205	-0,049	0,002
-462,343	-160,077	-0,144	0,006
-461,328	-200,000	-0,016	0,077
-460,313	-47,383	0,021	-0,008
-459,299	364,219	-0,066	0,098
-458,284	120,979	0,036	0,033
-457,270	307,503	0,078	0,108
-456,255	-16,312	-0,143	-0,067
-455,241	-200,000	0,014	0,081
-454,226	-87,230	-0,092	-0,020
-453,211	109,520	0,149	-0,132
-452,197	231,331	0,034	-0,041
-451,182	576,124	-0,057	-0,103
-450,168	-101,707	-0,188	-0,033
-449,153	-68,093	0,037	0,010
-448,138	-52,359	-0,019	0,007
-447,124	800,000	-0,027	-0,080
-446,109	14,959	0,030	-0,018
-445,095	559,432	-0,062	0,110
-444,080	176,279	0,044	-0,047
-443,065	607,207	0,033	-0,060
-442,051	296,748	0,092	0,125
-441,036	-200,000	0,026	-0,108
-440,022	-100,640	-0,066	0,012
-439,007	123,695	-0,109	-0,101
-437,992	-12,227	0,106	0,051
-436,978	-61,852	0,107	0,033
-435,963	800,000	0,056	-0,162
-434,949	283,387	-0,043	0,057
-433,934	800,000	-0,041	-0,114
-432,919	-200,000	0,022	-0,076
-431,905	26,715	0,091	-0,056
-430,890	-19,111	0,169	0,077
-429,876	-8,046	0,126	-0,063
-428,861	-161,904	-0,038	-0,001
-427,846	-39,494	-0,039	-0,015
-426,832	-17,193	-0,201	-0,093
-425,817	150,431	0,033	-0,033
-424,803	-25,387	-0,141	-0,061
-423,788	800,000	0,091	0,197
-422,773	-87,914	-0,022	0,005
-421,759	129,800	0,112	0,106
-420,744	-19,319	-0,179	0,081
-419,730	-157,916	-0,042	0,002
-418,715	-200,000	0,007	-0,081
-417,701	219,601	0,065	0,077
-416,686	-85,556	-0,088	-0,020
-415,671	220,863	0,041	-0,049
-414,657	-131,465	0,052	0,005
-413,642	-39,652	-0,053	0,020
-412,628	-8,960	-0,017	0,009
-411,613	-98,705	-0,051	0,009
-410,598	-200,000	-0,041	-0,139
-409,584	448,472	0,027	0,044
-408,569	187,143	-0,094	0,104
-407,555	-200,000	0,000	0,063
-406,540	66,137	0,104	0,077
-405,525	-92,213	0,076	-0,016
-404,511	800,000	0,043	-0,126
-403,496	-200,000	0,026	-0,086
-402,482	303,773	0,062	0,085
-401,467	800,000	-0,030	-0,096
-400,452	-90,733	-0,095	-0,020
-399,438	416,321	0,021	-0,033
-398,423	-200,000	0,004	-0,040
-397,409	113,065	0,037	-0,033
-396,394	-200,000	0,036	-0,142
-395,379	-200,000	-0,015	-0,067
-394,365	800,000	0,051	-0,109
-393,350	800,000	-0,010	-0,030
-392,336	800,000	-0,017	0,038
-391,321	52,090	-0,111	-0,078
-390,306	123,869	-0,092	-0,085
-389,292	134,527	-0,058	-0,055
-388,277	-157,485	0,117	-0,005
-387,263	153,083	-0,015	0,015
-386,248	439,892	0,088	0,142
-385,233	-200,000	0,050	0,188
-384,219	-78,397	-0,260	-0,065
-383,204	74,825	0,024	-0,019
-382,190	-156,535	0,058	0,003
-381,175	-200,000	-0,010	0,134
-380,160	123,357	0,059	-0,054
-379,146	133,505	0,039	-0,037
-378,131	-126,522	0,069	0,007
-377,117	583,552	-0,078	-0,141
-376,102	632,975	-0,046	-0,087
-375,088	-112,506	-0,061	0,009
-374,073	-44,612	0,038	0,014
-373,058	800,000	-0,026	0,060
-372,044	-180,581	0,043	-0,001
-371,029	-23,604	-0,024	0,011
-370,015	800,000	-0,050	0,147
-369,000	-9,427	-0,059	0,029
-367,985	-69,791	-0,093	-0,026
-366,971	-13,117	-0,079	0,037
-365,956	-136,289	0,205	-0,017
-364,942	227,662	0,032	-0,039
-363,927	-200,000	0,002	0,020
-362,912	800,000	0,064	0,170
-361,898	28,279	-0,029	0,018
-360,883	92,570	-0,032	0,026
-359,869	-116,011	-0,112	0,015
-358,854	123,232	0,127	0,117
-357,839	31,425	0,096	0,060
-356,825	127,654	-0,078	0,073
-355,810	11,696	0,063	0,036
-354,796	-200,000	-0,014	-0,064
-353,781	220,420	-0,094	-0,111
-352,766	187,154	0,018	-0,020
-351,752	800,000	0,030	0,082
-350,737	-200,000	0,028	0,235
-349,723	418,852	0,042	-0,067
-348,708	78,723	0,020	0,016
-347,693	800,000	-0,012	0,033
-346,679	113,224	-0,129	-0,115
-345,664	503,129	0,047	0,081
-344,650	158,413	0,042	0,042
-343,635	-200,000	0,109	0,000
-342,620	670,054	0,009	0,018
-341,606	396,716	-0,022	0,034
-340,591	202,317	-0,015	0,017
-339,577	659,633	-0,053	-0,101
-338,562	528,933	-0,045	0,079
-337,548	129,364	-0,129	0,121
-336,533	-60,211	0,158	-0,049
-335,518	87,421	0,089	0,072
-334,504	-200,000	-0,016	-0,133
-333,489	-118,482	-0,067	0,009
-332,475	634,479	-0,012	0,023
-331,460	-200,000	0,012	0,094
-330,445	-200,000	-0,014	-0,058
-329,431	800,000	0,031	-0,072
-328,416	125,519	0,082	0,076
-327,402	-200,000	-0,006	0,100
-326,387	20,469	-0,138	0,081
-325,372	-200,000	-0,050	0,182
-324,358	-97,943	0,185	-0,035
-323,343	-40,056	-0,146	-0,055
-322,329	-32,167	0,023	-0,009
-321,314	122,286	-0,027	0,025
-320,299	800,000	-0,056	0,123
-319,285	-158,532	-0,033	-0,001
-318,270	742,533	-0,056	-0,111
-317,256	219,608	0,077	-0,090
-316,241	338,731	0,062	-0,088
-315,226	-38,958	0,096	-0,037
-314,212	-113,685	0,128	-0,018
-313,197	16,597	0,043	0,025
-312,183	-200,000	0,013	0,058
-311,168	695,761	-0,051	-0,099
-310,153	20,676	-0,086	-0,051
-309,139	-200,000	0,009	-0,035
-308,124	406,698	0,045	0,069
-307,110	800,000	-0,036	-0,107
-306,095	489,195	0,032	0,054
-305,080	-129,713	-0,099	-0,010
-304,066	317,777	-0,051	0,071
-303,051	277,706	-0,089	-0,116
-302,037	398,890	-0,039	-0,060
-301,022	-200,000	0,002	0,042
-300,008	89,832	-0,021	0,017
-298,993	368,606	0,034	-0,050
-297,978	800,000	-0,023	-0,063
-296,964	-200,000	0,004	-0,122
-295,949	97,754	0,075	-0,063
-294,935	-16,763	0,131	-0,060
-293,920	-12,124	0,079	-0,038
-292,905	-200,000	-0,013	0,127
-291,891	-84,305	0,024	0,005
-290,876	800,000	0,056	0,139
-289,862	-20,765	-0,109	-0,049
-288,847	-200,000	0,006	0,128
-287,832	701,467	-0,078	-0,151
-286,818	-200,000	-0,045	-0,157
-285,803	-129,162	0,109	0,011
-284,789	-120,255	0,155	-0,019
-283,774	563,568	0,059	0,105
-282,759	800,000	0,046	-0,147
-281,745	-130,669	0,038	0,004
-280,730	207,476	-0,101	0,116
-279,716	-128,509	-0,090	-0,009
-278,701	115,873	0,152	-0,136
-277,686	-58,350	0,062	-0,020
-276,672	-200,000	-0,009	0,100
-275,657	179,805	-0,158	-0,169
-274,643	-37,703	-0,029	-0,011
-273,628	-200,000	0,009	-0,045
-272,613	-200,000	-0,026	0,147
-271,599	800,000	0,047	0,121
-270,584	-102,982	0,213	0,037
-269,570	-200,000	0,035	0,115
-268,555	18,610	-0,038	-0,022
-267,540	-137,368	-0,131	-0,011
-266,526	-69,939	-0,095	-0,026
-265,511	800,000	-0,010	0,027
-264,497	645,490	0,035	-0,067
-263,482	-97,020	-0,116	0,022
-262,467	-200,000	-0,003	0,036
-261,453	-171,207	0,100	-0,002
-260,438	-117,225	0,075	-0,010
-259,424	800,000	-0,030	0,061
-258,409	366,805	0,033	0,049
-257,395	-88,212	0,083	0,018
-256,380	-200,000	-0,003	0,076
-255,365	-102,253	0,125	-0,022
-254,351	800,000	-0,027	-0,062
-253,336	-70,484	0,096	0,027
-252,322	800,000	-0,020	-0,058
-251,307	87,901	0,082	-0,067
-250,292	800,000	-0,065	-0,144
-249,278	47,379	0,105	-0,072
-248,263	-58,637	0,030	0,009
-247,249	-44,346	-0,158	-0,058
-246,234	233,427	0,058	-0,070
-245,219	15,700	-0,051	-0,030
-244,205	323,305	0,052	-0,073
-243,190	59,178	0,092	0,066
-242,176	-25,339	0,149	-0,064
-241,161	-200,000	-0,015	0,153
-240,146	8,493	0,044	-0,024
-239,132	-27,799	-0,053	0,022
-238,117	359,012	-0,076	-0,111
-237,103	14,565	0,052	0,029
-236,088	-149,383	-0,121	-0,007
-235,073	-151,691	-0,028	0,001
-234,059	16,868	0,099	0,057
-233,044	-130,851	0,163	-0,016
-232,030	-165,894	-0,078	0,002
-231,015	227,752	0,023	-0,027
-230,000	-200,000	-0,000	0,045
-228,986	243,202	0,083	0,102
-227,971	27,635	-0,077	0,047
-226,957	5,844	0,193	0,104
-225,942	-16,465	0,041	-0,019
-224,927	189,282	0,095	0,104
-223,913	319,369	0,047	-0,066
-222,898	-200,000	-0,017	-0,098
-221,884	144,124	0,011	0,011
-220,869	135,380	-0,037	0,035
-219,855	-200,000	-0,005	0,121
-218,840	741,059	-0,056	0,110
-217,825	368,403	0,062	-0,091
-216,811	-16,995	-0,091	0,042
-215,796	-61,477	0,023	0,007
-214,782	800,000	0,026	-0,055
-213,767	-200,000	0,018	-0,141
-212,752	-110,872	0,132	-0,020
-211,738	208,629	0,048	0,055
-210,723	77,394	0,019	0,014
-209,709	508,066	0,096	-0,163
-208,694	138,407	-0,128	-0,123
-207,679	-148,594	0,041	0,002
-206,665	186,428	0,015	-0,016
-205,650	358,242	0,075	0,109
-204,636	222,079	-0,018	0,021
-203,621	-200,000	-0,009	0,117
-202,606	222,822	-0,050	0,059
-201,592	-200,000	0,017	-0,063
-200,577	37,455	0,077	-0,050
-199,563	661,755	-0,008	-0,016
-198,548	104,287	0,113	0,097
-197,533	-2,337	-0,125	0,064
-196,519	66,395	0,105	-0,078
-195,504	-200,000	-0,000	-0,122
-194,490	-21,580	0,062	0,028
-193,475	17,895	-0,023	0,013
-192,460	-200,000	0,026	0,086
-191,446	518,020	0,096	0,165
-190,431	800,000	-0,016	0,043
-189,417	118,112	0,076	0,068
-188,402	-86,673	-0,074	-0,016
-187,387	638,418	-0,060	-0,112
-186,373	-150,951	-0,057	0,003
-185,358	-5,361	-0,065	0,033
-184,344	106,960	0,068	-0,059
-183,329	-75,534	-0,027	0,007
-182,315	102,955	-0,138	0,118
-181,300	299,078	0,036	0,048
-180,285	50,857	-0,082	-0,056
-179,271	177,297	0,056	0,059
-178,256	-11,171	-0,080	-0,038
-177,242	800,000	0,058	0,144
-176,227	-153,309	0,040	-0,002
-175,212	-7,221	-0,087	0,043
-174,198	-200,000	0,028	0,110
-173,183	459,472	-0,024	0,039
-172,169	-38,916	0,113	-0,043
-171,154	-119,953	0,078	-0,010
-170,139	-53,072	0,042	0,014
-169,125	5,366	0,165	0,089
-168,110	-25,105	0,037	-0,016
-167,096	-129,552	-0,091	-0,009
-166,081	-200,000	-0,004	-0,145
-165,066	-200,000	-0,024	0,076
-164,052	21,948	0,061	0,036
-163,037	-47,391	-0,114	-0,040
-162,023	-34,648	0,075	0,030
-161,008	163,378	0,078	0,080
-159,993	-200,000	-0,000	-0,015
-158,979	43,325	-0,095	0,063
-157,964	-77,077	-0,105	-0,026
-156,950	-48,501	0,020	-0,007
-155,935	408,337	0,036	-0,056
-154,920	-63,844	-0,108	0,032
-153,906	-63,765	0,105	0,031
-152,891	172,030	-0,087	0,092
-151,877	-46,608	0,081	-0,029
-150,862	-134,480	-0,049	0,004
-149,847	800,000	0,022	0,070
-148,833	297,964	-0,024	0,032
-147,818	-24,128	0,096	0,042
-146,804	-109,863	0,092	0,014
-145,789	-84,179	-0,053	-0,012
-144,775	800,000	-0,006	0,015
-143,760	248,181	-0,103	-0,127
-142,745	-82,343	-0,168	0,039
-141,731	800,000	-0,014	-0,030
-140,716	-136,620	-0,060	0,005
-139,702	-14,461	0,097	0,045
-138,687	187,171	0,147	0,160
-137,672	270,062	0,057	0,073
-136,658	578,364	0,045	-0,080
-135,643	215,835	0,108	0,125
-134,629	-11,700	-0,093	0,044
-133,614	-68,033	-0,134	-0,038
-132,599	123,058	0,152	0,139
-131,585	-200,000	-0,009	0,194
-130,570	479,213	-0,065	0,107
-129,556	248,848	0,050	-0,061
-128,541	-140,748	0,091	0,007
-127,526	-94,220	0,173	0,034
-126,512	457,274	0,012	-0,019
-125,497	800,000	0,039	-0,112
-124,483	-68,637	0,143	-0,040
-123,468	616,520	0,039	0,071
-122,453	-51,315	-0,050	-0,017
-121,439	-65,398	-0,132	-0,038
-120,424	800,000	0,025	-0,066
-119,410	231,460	0,068	-0,082
-118,395	690,393	-0,034	-0,066
-117,380	-200,000	-0,010	0,093
-116,366	-200,000	0,009	-0,168
-115,351	-200,000	-0,012	-0,135
-114,337	519,013	-0,021	0,036
-113,322	22,930	-0,137	0,082
-112,307	42,205	0,090	0,060
-111,293	307,331	-0,062	0,084
-110,278	-200,000	-0,031	0,150
-109,264	800,000	-0,026	0,067
-108,249	800,000	0,033	0,087
-107,234	-30,940	-0,165	-0,067
-106,220	-200,000	-0,029	-0,095
-105,205	-200,000	-0,002	0,011
-104,191	-80,065	-0,069	0,017
-103,176	-100,205	0,146	0,026
-102,162	-95,946	-0,155	-0,030
-101,147	778,394	-0,041	-0,081
-100,132	-58,449	-0,184	-0,058
-99,118	-63,598	0,027	-0,008
-98,103	-200,000	0,012	0,097
-97,089	218,845	0,113	0,131
-96,074	-200,000	0,019	0,073
-95,059	-200,000	-0,024	0,119
-94,045	190,449	0,115	0,126
-93,030	92,286	-0,145	0,119
-92,016	-145,199	-0,014	0,001
-91,001	-113,471	-0,032	0,004
-89,986	800,000	0,042	0,100
-88,972	-200,000	-0,000	0,061
-87,957	800,000	-0,002	-0,004
-86,943	510,855	-0,080	0,136
-85,928	-200,000	-0,027	0,130
-84,913	800,000	0,038	-0,078
-83,899	-69,598	0,059	-0,016
-82,884	212,878	0,046	0,053
-81,870	-151,164	0,191	-0,010
-80,855	262,081	-0,117	0,148
-79,840	-200,000	-0,022	-0,086
-78,826	30,506	-0,020	0,012
-77,811	-200,000	0,007	0,025
-76,797	-52,079	0,052	-0,018
-75,782	-134,985	0,108	-0,009
-74,767	-200,000	0,027	0,100
-73,753	-200,000	0,024	0,115
-72,738	-200,000	-0,032	-0,135
-71,724	-103,220	-0,087	-0,015
-70,709	-101,702	0,062	0,011
-69,694	-46,378	-0,078	-0,028
-68,680	-135,200	0,165	0,014
-67,665	257,774	-0,146	0,182
-66,651	205,103	0,032	-0,036
-65,636	-55,665	0,029	-0,009
-64,622	-109,499	0,091	-0,014
-63,607	57,120	-0,061	-0,043
-62,592	-200,000	-0,012	-0,098
-61,578	332,249	0,037	-0,052
-60,563	131,489	0,092	0,085
-59,549	800,000	0,044	0,119
-58,534	-166,331	-1,278	-0,038
-57,519	458,481	-0,931	-1,508
-56,505	-200,000	-0,891	-4,301
-55,490	2,032	0,739	-0,386
-54,476	800,000	4,993	11,911
-53,461	-200,000	13,644	253,154
-52,446	-200,000	689,893	2259,974
-51,432	591,764	1622,524	2918,668
-50,417	119,342	1634,943	1468,174
-49,403	73,291	1289,052	977,475
-48,388	38,057	1024,235	659,733
-47,373	24,347	981,857	587,347
-46,359	23,552	971,533	578,544
-45,344	22,551	967,292	572,721
-44,330	22,578	965,730	571,862
-43,315	22,426	964,391	570,551
-42,300	22,398	963,254	569,766
-41,286	22,382	962,452	569,217
-40,271	22,451	961,238	568,701
-39,257	22,409	960,411	568,052
-38,242	22,371	959,694	567,481
-37,227	22,416	958,627	566,975
-36,213	22,319	957,814	566,157
-35,198	22,309	956,950	565,593
-34,184	22,345	956,544	565,447
-33,169	22,301	955,564	564,702
-32,154	22,480	954,501	564,628
-31,140	22,467	953,599	564,030
-30,125	22,386	952,949	563,364
-29,111	22,433	952,010	562,935
-28,096	22,421	951,372	562,499
-27,082	22,354	950,720	561,874
-26,067	22,386	950,072	561,574
-25,052	22,449	949,128	561,193
-24,038	22,378	948,703	560,692
-23,023	22,390	948,050	560,323
-22,009	22,449	947,272	560,030
-20,994	22,506	946,640	559,816
-19,979	22,459	946,059	559,300
-18,965	22,382	945,547	558,729
-17,950	22,466	944,828	558,553
-16,936	22,354	944,080	557,729
-15,921	22,303	943,516	557,210
-14,906	22,260	942,861	556,664
-13,892	22,339	942,010	556,394
-12,877	22,323	941,338	555,923
-11,863	22,254	940,806	555,367
-10,848	22,306	940,133	555,112
-9,833	22,389	939,937	555,239
-8,819	22,388	939,083	554,709
-7,804	22,320	938,569	554,170
-6,790	22,297	937,797	553,616
-5,775	22,297	937,336	553,324
-4,760	22,308	936,797	553,017
-3,746	22,288	936,074	552,506
-2,731	22,183	935,304	551,696
-1,717	22,141	934,735	551,208
-0,702	22,088	933,992	550,581
0,313	21,892	933,547	550,532
1,327	25,087	931,510	559,327
2,342	34,870	796,156	504,112
3,356	32,929	451,819	283,134
4,371	1,767	293,866	153,056
5,386	-2,649	274,979	139,023
6,400	-3,940	268,864	134,722
7,415	-4,582	266,480	132,925
8,429	-4,302	265,217	132,539
9,444	-4,545	264,652	132,023
10,459	-4,287	263,629	131,736
11,473	-4,594	263,300	131,281
12,488	-4,641	262,711	130,933
13,502	-4,690	262,122	130,584
14,517	-4,854	261,801	130,264
15,531	-4,581	261,300	130,249
16,546	-4,660	261,024	130,029
17,561	-4,659	260,559	129,786
18,575	-4,534	260,199	129,707
19,590	-4,576	259,876	129,498
20,604	-4,707	259,726	129,294
21,619	-4,589	259,279	129,166
22,634	-4,452	258,845	129,060
23,648	-4,711	258,833	128,811
24,663	-4,785	258,466	128,551
25,677	-4,673	258,217	128,516
26,692	-4,759	257,905	128,273
27,707	-4,597	257,651	128,279
28,721	-4,603	257,357	128,115
29,736	-4,730	257,112	127,870
30,750	-4,778	256,773	127,647
31,765	-4,755	256,664	127,602
32,780	-4,634	256,328	127,530
33,794	-4,798	256,290	127,355
34,809	-4,822	256,040	127,198
35,823	-4,691	255,619	127,093
36,838	-4,673	255,280	126,929
37,853	-4,771	255,432	126,908
38,867	-4,875	255,075	126,628
39,882	-4,757	254,800	126,583
40,896	-4,672	254,535	126,515
41,911	-4,650	254,491	126,501
42,926	-4,866	254,182	126,147
43,940	-4,774	253,880	126,066
44,955	-4,929	253,644	125,802
45,969	-5,051	253,496	125,611
46,984	-5,195	253,235	125,345
47,999	-5,393	252,862	124,977
49,013	-5,555	252,744	124,767
50,028	-5,526	252,363	124,592
51,042	-5,655	252,210	124,394
52,057	-5,700	251,910	124,196
53,071	-5,724	251,818	124,119
54,086	-5,649	251,570	124,050
55,101	-5,550	251,518	124,099
56,115	-5,169	251,315	124,317
57,130	-4,799	251,353	124,645
58,144	-4,461	250,971	124,736
59,159	-4,510	250,948	124,671
60,174	-4,550	250,623	124,464
61,188	-4,450	250,380	124,418
62,203	-4,484	250,172	124,275
63,217	-4,606	250,028	124,087
64,232	-4,455	249,798	124,092
65,247	-4,571	249,688	123,927
66,261	-4,620	249,429	123,745
67,276	-5,016	249,218	123,290
68,290	-4,978	248,914	123,161
69,305	-5,147	248,714	122,907
70,320	-5,068	248,546	122,880
71,334	-5,005	248,360	122,831
72,349	-4,664	248,163	123,014
73,363	-4,676	248,103	122,962
74,378	-4,597	247,835	122,886
75,393	-4,454	247,584	122,872
76,407	-4,633	247,450	122,643
77,422	-4,677	247,120	122,431
78,436	-4,570	246,995	122,449
79,451	-4,637	246,759	122,264
80,466	-4,735	246,702	122,142
81,480	-4,801	246,315	121,883
82,495	-4,981	246,190	121,659
83,509	-4,832	245,902	121,631
84,524	-5,089	245,868	121,387
85,539	-5,160	245,610	121,189
86,553	-4,858	245,188	121,224
87,568	-4,990	245,101	121,059
88,582	-5,041	245,028	120,969
89,597	-4,940	244,877	120,969
90,611	-5,046	244,654	120,759
91,626	-4,686	244,545	120,996
92,641	-4,727	244,381	120,870
93,655	-4,912	244,122	120,576
94,670	-5,075	244,100	120,418
95,684	-4,762	243,692	120,468
96,699	-4,853	243,580	120,326
97,714	-4,897	243,313	120,146
98,728	-4,934	243,242	120,070
99,743	-5,256	242,992	119,668
100,757	-5,141	242,690	119,604
101,772	-5,289	242,521	119,387
102,787	-4,964	242,382	119,577
103,801	-4,915	242,402	119,617
104,816	-5,050	242,271	119,430
105,830	-4,825	241,957	119,451
106,845	-4,838	241,927	119,414
107,860	-4,876	241,571	119,198
108,874	-4,903	241,388	119,074
109,889	-4,733	241,042	119,033
110,903	-5,054	241,080	118,776
111,918	-5,111	240,871	118,615
112,933	-5,158	240,844	118,553
113,947	-4,699	240,574	118,787
114,962	-4,886	240,455	118,564
115,976	-4,741	240,188	118,541
116,991	-4,849	240,032	118,365
118,006	-4,945	239,796	118,159
119,020	-4,819	239,774	118,241
120,035	-4,888	239,698	118,136
121,049	-4,773	239,524	118,134
122,064	-4,690	239,081	117,974
123,079	-4,894	239,040	117,776
124,093	-4,969	238,862	117,616
125,108	-4,888	238,609	117,547
126,122	-5,133	238,415	117,242
127,137	-5,183	238,194	117,082
128,151	-5,007	237,881	117,060
129,166	-5,196	237,875	116,893
130,181	-5,015	237,632	116,910
131,195	-5,114	237,459	116,735
132,210	-5,096	237,514	116,766
133,224	-4,852	237,266	116,831
134,239	-4,639	237,105	116,915
135,254	-4,794	236,921	116,687
136,268	-5,050	236,775	116,399
137,283	-5,193	236,539	116,157
138,297	-5,342	236,167	115,843
139,312	-5,195	236,134	115,935
140,327	-5,001	236,177	116,103
141,341	-4,088	235,914	116,698
142,356	-4,492	235,882	116,346
143,370	-4,397	235,824	116,384
144,385	-4,345	235,561	116,286
145,400	-4,477	235,300	116,040
146,414	-4,421	235,186	116,019
147,429	-4,425	235,067	115,946
148,443	-4,431	234,831	115,814
149,458	-4,522	234,742	115,688
150,473	-4,329	234,432	115,679
151,487	-4,640	234,369	115,389
152,502	-4,602	234,274	115,362
153,516	-4,308	233,922	115,413
154,531	-4,632	233,761	115,065
155,546	-4,397	233,561	115,143
156,560	-4,427	233,379	115,020
157,575	-4,614	233,271	114,808
158,589	-4,617	233,051	114,687
159,604	-4,302	232,931	114,867
160,619	-4,415	232,901	114,753
161,633	-4,299	232,651	114,711
162,648	-4,242	232,554	114,698
163,662	-4,323	232,253	114,475
164,677	-4,531	232,214	114,282
165,692	-4,492	232,147	114,270
166,706	-4,357	231,947	114,267
167,721	-4,458	231,697	114,054
168,735	-4,418	231,746	114,100
169,750	-4,469	231,550	113,953
170,764	-4,399	231,258	113,854
171,779	-4,245	231,050	113,862
172,794	-4,261	230,967	113,799
173,808	-4,360	230,908	113,682
174,823	-4,973	230,557	113,018
175,837	-5,084	230,320	112,805
176,852	-4,657	230,336	113,137
177,867	-4,422	230,261	113,275
178,881	-4,252	230,265	113,399
179,896	-4,314	230,061	113,240
180,910	-4,329	229,733	113,057
181,925	-4,357	229,695	113,006
182,940	-4,204	229,438	112,990
183,954	-4,191	229,280	112,911
184,969	-4,248	229,283	112,859
185,983	-4,177	229,167	112,847
186,998	-4,160	228,895	112,716
188,013	-4,106	228,779	112,691
189,027	-4,530	228,687	112,306
190,042	-4,191	228,392	112,414
191,056	-4,117	228,268	112,400
192,071	-4,124	228,025	112,265
193,086	-4,283	227,952	112,096
194,100	-4,342	227,927	112,029
195,115	-4,452	227,387	111,668
196,129	-5,399	227,155	110,813
197,144	-2,146	228,241	113,852
198,159	2,189	229,564	117,872
199,173	4,088	229,873	119,495
200,188	4,310	229,671	119,551
201,202	4,504	229,502	119,603
202,217	4,481	229,496	119,571
203,232	4,734	229,357	119,684
204,246	4,812	229,218	119,661
205,261	5,041	229,067	119,749
206,275	5,100	229,100	119,800
207,290	4,993	229,006	119,658
208,304	5,042	228,766	119,560
209,319	4,954	228,488	119,336
210,334	4,991	228,356	119,285
211,348	4,591	228,197	118,884
212,363	4,393	227,829	118,530
213,377	4,001	227,720	118,162
214,392	3,941	227,510	117,995
215,407	4,252	227,424	118,179
216,421	4,375	227,215	118,154
217,436	4,090	226,942	117,784
218,450	4,127	226,887	117,773
219,465	3,770	226,701	117,393
220,480	3,945	226,548	117,437
221,494	3,912	226,441	117,346
222,509	4,056	226,211	117,326
223,523	4,069	226,223	117,332
224,538	4,044	225,922	117,146
225,553	3,966	225,913	117,071
226,567	4,215	225,725	117,153
227,582	4,296	225,787	117,236
228,596	4,434	225,694	117,282
229,611	4,206	225,446	116,970
230,626	3,854	225,109	116,517
231,640	4,095	225,028	116,648
232,655	4,328	224,829	116,711
233,669	4,766	224,879	117,058
234,684	4,945	224,756	117,119
235,699	4,389	224,564	116,588
236,713	4,221	224,323	116,326
237,728	4,097	224,141	116,128
238,742	4,073	223,922	115,986
239,757	3,880	223,768	115,750
240,772	4,217	223,691	115,953
241,786	4,026	223,494	115,697
242,801	4,224	223,521	115,850
243,815	4,528	223,306	115,957
244,830	4,491	223,308	115,920
245,844	4,268	222,978	115,571
246,859	4,242	222,868	115,484
247,874	4,200	222,770	115,392
248,888	4,450	222,654	115,508
249,903	4,295	222,487	115,295
250,917	4,019	222,312	114,988
251,932	3,903	222,209	114,838
252,947	4,061	222,054	114,865
253,961	4,060	221,877	114,763
254,976	4,223	221,587	114,724
255,990	4,521	221,467	114,873
257,005	4,511	221,340	114,790
258,020	4,322	221,369	114,654
259,034	4,332	221,350	114,642
260,049	4,459	220,962	114,524
261,063	4,387	220,907	114,432
262,078	4,499	220,784	114,442
263,093	4,503	220,614	114,346
264,107	4,542	220,476	114,294
265,122	4,365	220,466	114,147
266,136	4,730	220,194	114,266
267,151	4,691	220,150	114,204
268,166	4,354	219,816	113,772
269,180	3,941	219,641	113,367
270,195	4,193	219,523	113,481
271,209	4,120	219,242	113,273
272,224	4,130	219,281	113,290
273,239	4,115	219,281	113,268
274,253	3,857	219,142	112,997
275,268	3,811	218,859	112,807
276,282	3,964	218,546	112,748
277,297	3,792	218,471	112,573
278,312	3,869	218,375	112,570
279,326	4,123	218,206	112,659
280,341	4,071	218,116	112,564
281,355	4,334	217,966	112,669
282,370	4,181	217,838	112,481
283,384	3,863	217,829	112,234
284,399	3,865	217,508	112,060
285,414	3,994	217,392	112,085
286,428	3,984	217,269	112,004
287,443	4,442	217,162	112,272
288,457	4,240	217,114	112,090
289,472	4,060	216,945	111,862
290,487	3,483	216,646	111,280
291,501	3,758	216,368	111,326
292,516	3,938	216,352	111,438
293,530	3,982	216,272	111,419
294,545	3,896	216,130	111,273
295,560	4,049	216,029	111,322
296,574	4,100	215,854	111,259
297,589	4,286	215,733	111,321
298,603	4,123	215,643	111,147
299,618	4,265	215,496	111,164
300,633	4,074	215,378	110,955
301,647	4,288	215,377	111,099
302,662	4,348	215,214	111,048
303,676	4,268	214,999	110,870
304,691	4,469	214,872	110,939
305,706	4,458	214,792	110,879
306,720	4,540	214,608	110,834
307,735	4,335	214,410	110,575
308,749	4,036	214,181	110,233
309,764	4,190	214,247	110,367
310,779	4,391	214,173	110,463
311,793	4,279	213,950	110,258
312,808	4,269	213,625	110,073
313,822	4,383	213,525	110,094
314,837	4,429	213,273	109,987
315,852	3,934	213,340	109,659
316,866	4,200	213,072	109,700
317,881	4,368	213,018	109,782
318,895	4,381	212,964	109,754
319,910	4,278	212,763	109,567
320,925	4,031	212,512	109,253
321,939	3,593	212,215	108,780
322,954	3,647	212,294	108,849
323,968	3,918	212,276	109,022
324,983	4,375	212,100	109,246
325,997	4,493	211,976	109,256
327,012	4,003	211,889	108,855
328,027	4,320	211,690	108,967
329,041	4,246	211,743	108,932
330,056	4,724	211,449	109,108
331,070	4,247	211,292	108,681
332,085	3,898	211,076	108,315
333,100	4,068	210,877	108,322
334,114	4,056	210,810	108,270
335,129	3,877	210,660	108,058
336,143	3,851	210,483	107,939
337,158	3,952	210,468	107,992
338,173	4,078	210,207	107,937
339,187	3,907	210,007	107,705
340,202	3,876	209,914	107,626
341,216	3,740	209,867	107,497
342,231	3,751	209,877	107,500
343,246	3,881	209,684	107,483
344,260	3,924	209,503	107,411
345,275	3,968	209,441	107,400
346,289	4,385	209,238	107,577
347,304	4,286	209,231	107,495
348,319	4,170	208,971	107,271
349,333	4,246	208,796	107,224
350,348	4,076	208,847	107,123
351,362	4,280	208,665	107,161
352,377	4,457	208,535	107,208
353,392	4,141	208,411	106,915
354,406	4,260	208,305	106,934
355,421	194,484	1346,654	1437,250
356,435	155,193	1485,457	1437,381
