DTS Sentinel unit serial number:	SN410029Multiplexer serial number:	ORYXHardware model number:	OX2-SRSoftware version number:	ORYX F/W v4,00 Oryx Data Collector v3.7.2.0data status	okinstallation	B6 Nyhavnadifferential loss correction	single-endedforward channel	channel 2reverse channel	N/Adate	2023/12/11time	00:50:08forward acquisition time	300,00reverse acquisition time	0,00gamma	499,1914k internal	0,3122k external	0,3122temperature offset calibration	1,0000default loss term (dB/km)	0,3820temperature slope calibration	1,0000multiplexer offset coefficient	1,0000multiplexer slope coefficient	1,0000fibre end	0,00T internal ref (°C)	22,26T ext. ref 1 (°C)	5,66T ext. ref 2 (°C)	5,69length (m)	temperature (°C)	Stokes	anti-Stokes-744,400	-200,000	0,024	-0,203
-743,385	60,681	-0,206	0,152
-742,371	92,690	0,064	0,053
-741,356	92,155	-0,220	0,185
-740,342	590,088	0,067	-0,124
-739,327	-75,858	-0,374	0,098
-738,312	-97,375	-0,109	-0,021
-737,298	113,426	-0,150	0,136
-736,283	800,000	0,031	-0,074
-735,269	-101,679	-0,342	0,061
-734,254	-52,441	-0,150	0,051
-733,239	-117,990	-0,306	0,040
-732,225	-200,000	0,162	0,000
-731,210	-200,000	0,029	-0,106
-730,196	111,745	0,030	0,027
-729,181	-200,000	-0,005	-0,092
-728,167	69,271	0,049	0,038
-727,152	-120,134	-0,089	-0,011
-726,137	-49,545	-0,016	-0,006
-725,123	-79,543	-0,060	-0,015
-724,108	407,002	-0,108	-0,171
-723,094	-55,100	-0,030	-0,010
-722,079	46,807	-0,163	-0,112
-721,064	32,027	0,117	-0,075
-720,050	127,447	-0,095	-0,090
-719,035	800,000	-0,071	-0,180
-718,021	705,884	0,045	0,089
-717,006	-200,000	-0,032	-0,137
-715,991	190,751	-0,083	0,093
-714,977	800,000	-0,030	-0,083
-713,962	-82,977	-0,106	-0,025
-712,948	73,129	0,062	-0,048
-711,933	151,164	-0,089	-0,090
-710,918	19,550	-0,128	-0,076
-709,904	639,277	-0,057	0,108
-708,889	95,084	-0,051	-0,043
-707,875	2,548	-0,171	-0,092
-706,860	-82,243	0,160	-0,038
-705,845	156,006	-0,002	-0,002
-704,831	142,767	-0,093	-0,092
-703,816	-113,065	0,062	-0,009
-702,802	-31,015	-0,056	-0,024
-701,787	-200,000	-0,019	0,068
-700,772	-1,506	-0,085	0,044
-699,758	-200,000	-0,008	-0,080
-698,743	-128,675	0,186	-0,019
-697,729	-64,067	-0,058	0,017
-696,714	73,582	-0,025	-0,019
-695,699	-200,000	0,016	0,076
-694,685	246,536	-0,068	0,085
-693,670	-200,000	-0,010	-0,051
-692,656	23,904	-0,028	0,017
-691,641	-200,000	0,014	-0,081
-690,627	304,215	0,039	0,054
-689,612	260,252	-0,051	0,066
-688,597	183,570	0,048	-0,053
-687,583	800,000	-0,026	-0,064
-686,568	389,728	0,067	0,103
-685,554	-148,828	-0,037	0,002
-684,539	-200,000	-0,000	-0,023
-683,524	439,080	-0,040	-0,065
-682,510	-45,928	0,050	0,018
-681,495	-200,000	0,019	-0,072
-680,481	800,000	0,026	-0,084
-679,466	-200,000	0,029	-0,156
-678,451	358,110	0,023	-0,034
-677,437	-200,000	0,030	-0,166
-676,422	488,160	0,051	-0,087
-675,408	147,169	-0,087	0,087
-674,393	-200,000	0,004	-0,075
-673,378	20,777	-0,052	-0,031
-672,364	65,997	-0,073	-0,055
-671,349	-17,709	-0,088	-0,041
-670,335	-14,697	0,037	-0,017
-669,320	-32,725	-0,074	-0,031
-668,305	800,000	-0,039	0,110
-667,291	-97,318	-0,080	-0,015
-666,276	800,000	-0,057	-0,147
-665,262	-200,000	0,001	0,053
-664,247	188,956	-0,009	-0,010
-663,232	35,617	0,047	0,031
-662,218	-133,560	-0,068	0,006
-661,203	800,000	0,013	-0,029
-660,189	210,690	-0,033	-0,038
-659,174	408,759	-0,074	-0,117
-658,159	266,574	-0,019	0,025
-657,145	247,208	-0,074	-0,093
-656,130	-41,478	-0,119	-0,045
-655,116	428,679	0,059	0,095
-654,101	379,945	0,093	-0,141
-653,086	-200,000	-0,010	0,035
-652,072	422,639	-0,068	-0,109
-651,057	641,166	-0,125	-0,238
-650,043	-200,000	0,011	0,037
-649,028	268,589	-0,022	0,029
-648,014	-188,194	-0,078	0,001
-646,999	-58,017	0,068	0,022
-645,984	800,000	-0,040	-0,106
-644,970	-11,996	-0,175	-0,085
-643,955	64,498	-0,109	0,082
-642,941	-200,000	-0,007	-0,081
-641,926	-97,098	0,163	0,031
-640,911	-13,488	-0,047	-0,023
-639,897	800,000	0,015	-0,038
-638,882	-200,000	0,008	0,052
-637,868	83,120	-0,031	-0,025
-636,853	-95,399	-0,072	-0,014
-635,838	36,004	-0,055	-0,036
-634,824	800,000	-0,003	-0,007
-633,809	-200,000	0,010	0,184
-632,795	-43,973	-0,176	-0,065
-631,780	-105,454	-0,100	0,017
-630,765	35,647	-0,056	-0,036
-629,751	18,337	0,031	-0,018
-628,736	2,365	0,062	0,033
-627,722	-55,538	-0,117	0,039
-626,707	-200,000	-0,013	-0,049
-625,692	654,360	0,055	0,106
-624,678	289,402	-0,108	0,146
-623,663	-21,082	0,142	0,064
-622,649	-200,000	-0,003	-0,052
-621,634	-102,408	0,076	0,013
-620,619	-200,000	0,020	-0,152
-619,605	-200,000	0,004	0,092
-618,590	800,000	-0,041	0,116
-617,576	-137,225	-0,098	0,008
-616,561	116,092	-0,049	-0,045
-615,546	131,867	-0,076	-0,073
-614,532	-200,000	-0,007	-0,094
-613,517	-108,400	0,071	0,011
-612,503	382,064	-0,041	-0,062
-611,488	379,536	0,038	0,058
-610,474	-200,000	-0,004	-0,063
-609,459	150,285	-0,054	0,054
-608,444	311,947	-0,065	-0,091
-607,430	-108,930	-0,074	-0,012
-606,415	275,888	-0,086	-0,114
-605,401	136,075	-0,110	-0,106
-604,386	182,157	-0,017	0,019
-603,371	74,749	0,075	-0,059
-602,357	800,000	0,065	0,169
-601,342	-200,000	-0,045	0,156
-600,328	-200,000	-0,009	0,113
-599,313	179,414	0,067	-0,072
-598,298	5,945	0,043	-0,024
-597,284	14,731	0,048	0,028
-596,269	-200,000	-0,005	0,033
-595,255	-96,335	0,115	-0,022
-594,240	-200,000	0,004	0,064
-593,225	470,537	0,022	0,037
-592,211	-15,737	0,098	0,046
-591,196	378,975	-0,058	-0,088
-590,182	-200,000	-0,021	-0,086
-589,167	739,468	-0,059	-0,118
-588,152	78,909	0,064	0,051
-587,138	-200,000	-0,009	0,060
-586,123	-128,547	-0,077	-0,008
-585,109	452,248	-0,077	0,126
-584,094	800,000	0,053	0,131
-583,079	203,506	-0,101	0,116
-582,065	77,492	0,064	0,050
-581,050	-53,646	-0,178	-0,060
-580,036	-156,870	0,103	-0,005
-579,021	-200,000	-0,004	0,066
-578,006	284,688	-0,030	0,041
-576,992	767,294	-0,028	-0,057
-575,977	800,000	-0,023	0,050
-574,963	800,000	-0,020	0,062
-573,948	800,000	-0,048	0,122
-572,934	-72,426	-0,043	-0,012
-571,919	-22,458	-0,062	-0,028
-570,904	-6,935	-0,176	-0,088
-569,890	-112,704	0,210	-0,031
-568,875	675,542	0,099	0,192
-567,861	211,197	0,029	-0,034
-566,846	69,474	-0,129	0,098
-565,831	800,000	-0,060	-0,135
-564,817	741,773	-0,086	-0,171
-563,802	132,313	0,018	0,017
-562,788	517,869	0,050	-0,088
-561,773	-136,090	0,147	0,013
-560,758	129,268	0,068	0,064
-559,744	-142,103	-0,126	0,009
-558,729	800,000	-0,048	0,123
-557,715	-36,641	-0,114	0,045
-556,700	800,000	0,020	-0,044
-555,685	-146,842	-0,166	0,010
-554,671	93,331	0,081	-0,068
-553,656	242,923	-0,039	-0,048
-552,642	132,948	-0,082	0,078
-551,627	-200,000	-0,030	0,123
-550,612	-50,539	0,110	-0,038
-549,598	-57,853	-0,129	-0,041
-548,583	-200,000	-0,008	-0,052
-547,569	114,858	0,034	0,030
-546,554	58,301	0,047	-0,034
-545,539	-200,000	0,021	-0,078
-544,525	-3,513	-0,061	-0,031
-543,510	-93,234	-0,180	-0,037
-542,496	-126,348	-0,156	0,017
-541,481	442,677	-0,042	0,069
-540,466	-136,545	-0,061	0,005
-539,452	800,000	0,033	0,089
-538,437	-200,000	0,000	0,122
-537,423	800,000	0,020	0,047
-536,408	23,878	0,094	0,057
-535,393	3,433	0,172	-0,093
-534,379	729,806	0,054	0,107
-533,364	-200,000	0,008	0,075
-532,350	74,674	0,038	0,030
-531,335	232,365	-0,047	-0,057
-530,321	800,000	-0,030	0,074
-529,306	219,566	-0,022	0,026
-528,291	800,000	0,049	-0,111
-527,277	526,390	-0,071	-0,124
-526,262	-169,547	0,158	0,004
-525,248	384,406	-0,031	0,047
-524,233	148,507	0,048	0,048
-523,218	-200,000	-0,003	0,145
-522,204	294,243	-0,030	-0,040
-521,189	529,354	0,042	-0,074
-520,175	-200,000	-0,007	0,024
-519,160	-33,423	-0,006	0,003
-518,145	8,515	0,105	-0,058
-517,131	800,000	-0,046	0,137
-516,116	800,000	0,011	-0,025
-515,102	-14,991	0,078	-0,037
-514,087	-95,550	-0,027	0,005
-513,072	8,191	0,024	0,013
-512,058	621,214	-0,032	-0,060
-511,043	109,637	0,045	-0,040
-510,029	469,617	0,064	0,106
-509,014	-51,930	0,032	-0,011
-507,999	137,533	-0,110	0,107
-506,985	800,000	0,049	-0,117
-505,970	-57,009	0,165	-0,053
-504,956	173,186	-0,034	0,037
-503,941	-129,831	-0,110	0,011
-502,926	-115,618	-0,120	0,016
-501,912	-125,982	0,061	-0,007
-500,897	-200,000	0,004	0,098
-499,883	205,871	-0,076	-0,088
-498,868	-97,030	-0,143	-0,027
-497,853	-200,000	0,028	-0,096
-496,839	-200,000	0,003	0,051
-495,824	-200,000	0,009	0,146
-494,810	-5,608	0,079	0,040
-493,795	-164,798	0,087	-0,003
-492,781	96,399	0,076	-0,065
-491,766	187,068	0,087	-0,096
-490,751	61,335	-0,049	-0,036
-489,737	-200,000	-0,028	0,128
-488,722	282,651	0,054	0,071
-487,708	-200,000	0,005	-0,057
-486,693	800,000	-0,029	0,089
-485,678	-12,734	0,009	-0,004
-484,664	-125,319	0,040	-0,005
-483,649	32,738	0,114	0,073
-482,635	-51,467	0,151	0,052
-481,620	377,667	0,037	0,056
-480,605	245,522	-0,056	0,070
-479,591	-200,000	-0,006	0,066
-478,576	-69,323	0,175	0,049
-477,562	70,084	0,082	-0,062
-476,547	-45,363	-0,024	0,009
-475,532	84,980	0,047	0,038
-474,518	162,662	0,018	-0,018
-473,503	-100,891	0,123	-0,022
-472,489	-200,000	-0,046	-0,159
-471,474	-200,000	0,002	-0,020
-470,459	-200,000	-0,019	-0,144
-469,445	800,000	0,017	-0,035
-468,430	318,989	-0,023	-0,033
-467,416	800,000	0,017	-0,053
-466,401	-200,000	-0,011	-0,100
-465,386	44,162	0,140	0,094
-464,372	428,951	0,126	0,202
-463,357	336,406	0,033	0,047
-462,343	800,000	0,001	-0,002
-461,328	15,039	0,075	0,043
-460,313	80,433	0,046	0,036
-459,299	209,791	0,024	-0,028
-458,284	123,501	0,110	0,102
-457,270	82,126	0,050	0,040
-456,255	173,398	-0,111	-0,119
-455,241	800,000	0,038	-0,087
-454,226	-200,000	-0,031	-0,103
-453,211	77,506	-0,145	-0,114
-452,197	363,289	0,052	0,077
-451,182	-191,998	0,083	-0,001
-450,168	800,000	0,040	0,084
-449,153	214,439	-0,067	0,078
-448,138	135,833	0,049	-0,047
-447,124	-200,000	0,041	0,161
-446,109	-200,000	0,039	0,197
-445,095	90,334	0,081	0,066
-444,080	-200,000	0,020	0,136
-443,065	800,000	0,035	0,077
-442,051	-200,000	0,001	-0,020
-441,036	204,662	-0,045	0,052
-440,022	-37,343	-0,052	-0,020
-439,007	-200,000	0,001	0,024
-437,992	98,327	0,164	-0,139
-436,978	800,000	0,018	0,058
-435,963	-40,112	0,079	-0,030
-434,949	108,810	0,023	-0,020
-433,934	-8,348	0,019	0,010
-432,919	357,674	-0,036	-0,053
-431,905	-200,000	-0,008	-0,122
-430,890	795,853	0,038	0,077
-429,876	178,321	0,088	0,095
-428,861	162,877	0,054	0,056
-427,846	-129,537	-0,138	0,014
-426,832	-134,170	-0,130	0,012
-425,817	-200,000	0,029	0,153
-424,803	800,000	0,039	-0,091
-423,788	753,613	-0,043	0,085
-422,773	-200,000	-0,002	0,109
-421,759	254,306	-0,100	0,126
-420,744	8,632	0,056	-0,031
-419,730	800,000	-0,031	-0,075
-418,715	432,600	0,070	-0,113
-417,701	-22,374	-0,048	0,021
-416,686	748,551	0,033	-0,065
-415,671	87,285	0,059	0,048
-414,657	-14,160	-0,071	0,034
-413,642	56,994	-0,067	0,048
-412,628	-200,000	-0,037	-0,135
-411,613	-15,444	-0,044	0,021
-410,598	76,463	-0,055	0,043
-409,584	-7,921	0,097	-0,048
-408,569	800,000	-0,018	0,057
-407,555	-94,577	-0,084	0,017
-406,540	133,840	0,103	-0,098
-405,525	-200,000	0,001	-0,040
-404,511	800,000	0,041	-0,128
-403,496	9,527	-0,052	0,029
-402,482	90,241	0,098	0,081
-401,467	-83,594	-0,035	-0,008
-400,452	50,428	0,043	0,030
-399,438	-200,000	-0,013	0,138
-398,423	-12,378	0,048	0,023
-397,409	-27,088	0,058	0,025
-396,394	-200,000	-0,041	-0,167
-395,379	-100,449	-0,094	-0,017
-394,365	74,181	0,102	0,079
-393,350	800,000	0,045	0,121
-392,336	-200,000	0,001	-0,154
-391,321	-179,951	-0,087	0,001
-390,306	26,326	0,065	-0,040
-389,292	-200,000	-0,002	-0,009
-388,277	31,184	0,038	0,024
-387,263	-131,156	-0,029	0,003
-386,248	800,000	-0,033	0,099
-385,233	-55,919	0,118	-0,039
-384,219	-60,944	-0,126	0,039
-383,204	25,705	0,071	0,044
-382,190	800,000	-0,039	-0,104
-381,175	-180,391	-0,034	-0,001
-380,160	-200,000	0,007	-0,031
-379,146	-200,000	-0,019	-0,062
-378,131	800,000	-0,030	0,090
-377,117	-149,088	-0,144	0,008
-376,102	769,581	0,043	-0,086
-375,088	301,029	-0,044	-0,060
-374,073	-200,000	-0,003	-0,173
-373,058	0,953	-0,071	-0,037
-372,044	-24,875	0,067	0,029
-371,029	-122,634	0,016	0,002
-370,015	640,415	-0,040	0,076
-369,000	800,000	-0,035	-0,081
-367,985	-200,000	0,022	-0,082
-366,971	103,624	-0,026	-0,022
-365,956	-200,000	0,014	0,083
-364,942	800,000	0,073	0,150
-363,927	800,000	-0,046	0,136
-362,912	190,424	-0,136	-0,151
-361,898	-68,534	-0,097	0,027
-360,883	5,316	0,111	-0,060
-359,869	-135,088	0,106	0,009
-358,854	-200,000	0,053	0,179
-357,839	337,424	-0,051	-0,073
-356,825	-200,000	0,012	-0,068
-355,810	-100,582	-0,097	0,017
-354,796	-200,000	-0,015	-0,146
-353,781	-58,471	-0,077	0,024
-352,766	337,008	0,072	0,103
-351,752	-200,000	0,010	0,073
-350,737	-200,000	0,006	0,121
-349,723	800,000	0,042	-0,091
-348,708	33,277	-0,129	-0,082
-347,693	526,932	-0,112	-0,194
-346,679	800,000	-0,023	-0,072
-345,664	-43,335	-0,108	0,040
-344,650	-136,729	0,161	0,013
-343,635	-125,830	-0,149	0,016
-342,620	134,567	0,019	0,018
-341,606	-200,000	0,007	-0,036
-340,591	-46,796	0,044	-0,016
-339,577	-2,122	0,116	-0,060
-338,562	647,547	-0,051	-0,096
-337,548	-200,000	-0,009	0,087
-336,533	-24,870	0,143	0,062
-335,518	122,510	-0,124	0,113
-334,504	-80,639	-0,072	-0,017
-333,489	165,285	0,036	0,038
-332,475	0,539	-0,090	-0,047
-331,460	-26,796	-0,108	-0,046
-330,445	194,228	-0,071	0,079
-329,431	-200,000	-0,001	-0,081
-328,416	231,639	-0,052	0,063
-327,402	-13,261	0,067	-0,032
-326,387	-18,751	-0,083	-0,038
-325,372	800,000	0,014	-0,032
-324,358	175,626	-0,038	0,041
-323,343	138,166	-0,055	0,053
-322,329	-113,026	0,070	-0,010
-321,314	316,791	0,020	0,028
-320,299	275,355	0,063	0,082
-319,285	-76,412	-0,034	0,009
-318,270	-200,000	0,013	-0,067
-317,256	-89,982	-0,038	0,008
-316,241	-49,974	-0,022	0,008
-315,226	644,227	0,009	0,017
-314,212	46,096	0,082	-0,056
-313,197	404,452	0,077	0,120
-312,183	-200,000	0,007	0,051
-311,168	-200,000	-0,006	0,046
-310,153	53,534	-0,153	-0,108
-309,139	-163,876	0,011	-0,000
-308,124	-75,968	0,048	-0,012
-307,110	-37,454	0,157	0,061
-306,095	-129,506	0,057	0,006
-305,080	-108,264	0,127	0,020
-304,066	183,651	-0,020	-0,021
-303,051	457,392	-0,079	-0,130
-302,037	800,000	0,027	0,071
-301,022	-200,000	0,014	0,089
-300,008	-200,000	0,034	0,146
-298,993	800,000	0,015	0,039
-297,978	-80,204	-0,095	0,023
-296,964	-200,000	-0,020	0,110
-295,949	-118,462	0,018	0,002
-294,935	-200,000	-0,014	-0,184
-293,920	88,807	0,084	-0,068
-292,905	167,112	0,141	-0,146
-291,891	-200,000	0,007	-0,049
-290,876	-133,484	0,021	-0,002
-289,862	359,491	0,056	-0,082
-288,847	687,981	-0,028	-0,054
-287,832	-71,504	0,090	0,024
-286,818	2,605	-0,024	-0,012
-285,803	216,848	0,082	0,096
-284,789	263,544	-0,033	-0,042
-283,774	447,395	-0,011	-0,018
-282,759	-200,000	-0,010	-0,068
-281,745	-200,000	-0,012	-0,103
-280,730	-145,548	-0,029	-0,002
-279,716	2,025	-0,057	-0,030
-278,701	110,153	-0,019	0,017
-277,686	-200,000	-0,011	0,056
-276,672	641,056	-0,105	0,197
-275,657	82,301	0,046	-0,037
-274,643	-51,278	0,121	-0,041
-273,628	-130,498	-0,111	-0,011
-272,613	204,820	-0,031	0,035
-271,599	51,474	0,060	0,042
-270,584	-200,000	-0,003	0,089
-269,570	-200,000	0,004	0,032
-268,555	-77,269	0,085	0,022
-267,540	69,009	0,016	0,012
-266,526	-129,325	-0,109	0,011
-265,511	-200,000	-0,015	-0,155
-264,497	-200,000	0,029	-0,133
-263,482	-160,219	0,121	-0,005
-262,467	325,110	0,067	-0,094
-261,453	-29,063	0,101	0,042
-260,438	548,788	-0,042	-0,073
-259,424	-45,339	0,102	-0,037
-258,409	219,111	0,044	-0,052
-257,395	96,543	-0,049	0,041
-256,380	37,225	-0,103	-0,067
-255,365	-70,778	0,047	0,013
-254,351	-177,561	0,091	0,002
-253,336	401,741	-0,087	0,134
-252,322	800,000	0,023	-0,059
-251,307	-36,524	-0,114	-0,045
-250,292	-8,524	0,044	-0,021
-249,278	59,094	0,035	-0,025
-248,263	-108,031	0,041	-0,007
-247,249	-63,547	-0,059	0,018
-246,234	-200,000	0,017	-0,057
-245,219	244,603	-0,098	-0,120
-244,205	-200,000	-0,004	-0,035
-243,190	800,000	0,065	-0,139
-242,176	800,000	0,014	-0,039
-241,161	-37,273	-0,064	-0,025
-240,146	800,000	0,018	0,043
-239,132	800,000	0,034	-0,088
-238,117	474,174	-0,024	-0,040
-237,103	429,733	-0,044	0,070
-236,088	800,000	-0,065	0,139
-235,073	-152,639	0,130	-0,007
-234,059	800,000	-0,050	0,137
-233,044	260,014	0,083	-0,105
-232,030	378,075	-0,046	0,069
-231,015	-177,590	0,070	0,001
-230,000	-200,000	0,017	-0,073
-228,986	-22,427	-0,011	-0,005
-227,971	465,491	-0,060	-0,098
-226,957	12,299	0,140	0,078
-225,942	26,940	-0,089	-0,054
-224,927	36,810	-0,058	0,037
-223,913	797,128	0,053	0,107
-222,898	90,029	-0,056	-0,046
-221,884	800,000	-0,018	-0,042
-220,869	800,000	-0,030	-0,089
-219,855	-200,000	-0,002	-0,085
-218,840	800,000	-0,051	-0,114
-217,825	248,319	-0,028	0,035
-216,811	-200,000	-0,014	0,107
-215,796	-16,990	-0,027	0,013
-214,782	425,831	-0,087	-0,138
-213,767	-200,000	0,015	-0,077
-212,752	-106,152	0,149	0,024
-211,738	-183,704	0,184	0,002
-210,723	-200,000	-0,022	0,086
-209,709	168,514	-0,051	-0,053
-208,694	517,695	0,051	-0,088
-207,679	108,383	-0,049	0,043
-206,665	20,294	0,062	-0,037
-205,650	684,616	-0,031	-0,059
-204,636	-200,000	-0,000	-0,086
-203,621	251,049	-0,079	0,098
-202,606	-200,000	-0,020	-0,083
-201,592	-200,000	-0,015	-0,088
-200,577	800,000	-0,084	-0,175
-199,563	568,633	-0,020	-0,035
-198,548	-200,000	0,005	0,115
-197,533	-200,000	0,034	0,147
-196,519	800,000	-0,018	-0,040
-195,504	800,000	-0,034	-0,071
-194,490	800,000	0,025	0,064
-193,475	-99,041	-0,087	0,016
-192,460	66,945	0,041	-0,031
-191,446	196,163	-0,038	0,043
-190,431	-200,000	0,055	0,197
-189,417	-81,642	-0,026	-0,006
-188,402	69,737	0,037	0,028
-187,387	211,720	0,088	0,101
-186,373	-200,000	-0,015	-0,174
-185,358	-200,000	-0,026	-0,105
-184,344	-83,687	0,140	-0,032
-183,329	-200,000	-0,018	0,140
-182,315	-41,573	0,212	0,079
-181,300	185,803	0,059	0,064
-180,285	-77,608	-0,167	-0,042
-179,271	-200,000	-0,036	-0,165
-178,256	61,469	-0,048	-0,035
-177,242	-74,257	0,028	-0,007
-176,227	-103,917	0,146	-0,025
-175,212	-200,000	-0,003	-0,045
-174,198	-24,233	0,079	0,034
-173,183	-93,124	-0,086	-0,017
-172,169	1,490	-0,092	-0,048
-171,154	43,837	0,051	-0,034
-170,139	-200,000	0,007	0,070
-169,125	-25,719	-0,054	-0,023
-168,110	-43,175	0,027	0,010
-167,096	-200,000	0,002	-0,136
-166,081	165,886	-0,095	-0,098
-165,066	-200,000	0,034	-0,160
-164,052	322,888	-0,040	0,056
-163,037	-7,950	-0,039	-0,019
-162,023	-200,000	0,008	0,094
-161,008	132,453	0,100	-0,094
-159,993	208,252	-0,054	0,062
-158,979	136,432	-0,065	0,062
-157,964	29,420	-0,027	0,017
-156,950	213,122	-0,029	-0,034
-155,935	92,249	0,107	-0,088
-154,920	-200,000	-0,004	0,023
-153,906	337,889	-0,034	-0,049
-152,891	-94,049	-0,086	-0,017
-151,877	310,029	-0,036	-0,049
-150,862	-91,143	-0,053	-0,011
-149,847	82,826	0,097	-0,077
-148,833	37,374	-0,138	-0,089
-147,818	-200,000	0,044	0,170
-146,804	18,298	0,057	-0,033
-145,789	-84,665	0,078	-0,018
-144,775	279,751	-0,040	0,052
-143,760	800,000	-0,025	0,052
-142,745	266,555	0,053	-0,068
-141,731	288,330	0,051	0,067
-140,716	-132,213	0,211	0,020
-139,702	-200,000	0,009	-0,071
-138,687	800,000	-0,061	0,137
-137,672	-200,000	-0,005	0,149
-136,658	-31,154	-0,051	0,021
-135,643	800,000	0,039	0,082
-134,629	800,000	-0,039	0,102
-133,614	90,217	0,101	0,082
-132,599	-155,288	-0,019	-0,001
-131,585	512,259	-0,019	-0,033
-130,570	32,539	0,081	-0,051
-129,556	-200,000	0,014	0,136
-128,541	-200,000	0,022	0,152
-127,526	-137,378	-0,180	0,015
-126,512	-3,689	0,035	-0,018
-125,497	800,000	0,092	0,260
-124,483	124,252	0,128	-0,117
-123,468	-200,000	-0,018	0,062
-122,453	-58,729	-0,095	-0,030
-121,439	137,325	-0,026	-0,025
-120,424	-125,126	0,055	0,006
-119,410	-146,683	-0,053	-0,003
-118,395	-95,939	-0,083	-0,016
-117,380	139,792	0,032	-0,031
-116,366	800,000	0,017	0,039
-115,351	32,598	0,054	-0,034
-114,337	-77,499	-0,043	0,011
-113,322	-200,000	0,008	-0,143
-112,307	-200,000	-0,014	0,067
-111,293	140,693	-0,045	0,043
-110,278	800,000	0,028	-0,077
-109,264	800,000	0,034	0,086
-108,249	-128,460	-0,132	0,013
-107,234	177,192	0,090	-0,095
-106,220	800,000	-0,009	-0,029
-105,205	-200,000	0,038	-0,176
-104,191	-200,000	0,016	-0,150
-103,176	-200,000	-0,030	-0,105
-102,162	2,971	0,072	0,038
-101,147	-200,000	0,005	0,073
-100,132	-200,000	0,030	-0,100
-99,118	-34,705	-0,045	0,018
-98,103	64,487	-0,072	0,053
-97,089	501,370	0,059	-0,100
-96,074	800,000	0,065	0,159
-95,059	57,987	-0,136	0,097
-94,045	37,791	-0,050	-0,032
-93,030	-25,627	-0,074	0,032
-92,016	800,000	0,014	-0,030
-91,001	-200,000	0,002	-0,126
-89,986	34,884	0,072	0,046
-88,972	-53,427	-0,090	-0,030
-87,957	800,000	0,029	0,078
-86,943	-131,364	-0,041	0,004
-85,928	236,505	0,045	-0,055
-84,913	295,321	0,053	-0,071
-83,899	118,121	-0,073	-0,066
-82,884	-200,000	-0,002	0,173
-81,870	580,666	0,029	0,051
-80,855	-178,513	0,018	-0,000
-79,840	-62,239	0,111	0,033
-78,826	262,339	0,038	-0,048
-77,811	-6,463	0,064	0,031
-76,797	-97,049	-0,066	-0,012
-75,782	149,412	0,046	-0,045
-74,767	800,000	0,019	0,050
-73,753	800,000	0,047	0,140
-72,738	-200,000	0,016	0,141
-71,724	800,000	0,042	-0,098
-70,709	82,276	0,032	0,025
-69,694	-50,502	-0,040	0,013
-68,680	173,215	0,069	0,072
-67,665	152,308	-0,070	0,070
-66,651	-200,000	0,007	-0,033
-65,636	281,132	0,008	0,011
-64,622	-54,537	0,082	0,027
-63,607	64,796	-0,068	-0,050
-62,592	-10,054	0,096	-0,046
-61,578	245,667	0,064	0,078
-60,563	-51,048	-0,038	0,013
-59,549	800,000	0,061	0,164
-58,534	-96,501	-1,349	-0,256
-57,519	768,921	-0,735	-1,460
-56,505	-200,000	-0,879	-4,474
-55,490	92,660	0,582	-0,477
-54,476	800,000	4,861	11,750
-53,461	-200,000	13,769	252,974
-52,446	-200,000	690,484	2256,155
-51,432	588,993	1622,265	2913,472
-50,417	118,798	1634,348	1465,391
-49,403	73,027	1288,518	976,223
-48,388	37,867	1024,238	659,242
-47,373	24,217	981,765	586,997
-46,359	23,430	971,308	578,142
-45,344	22,463	967,160	572,489
-44,330	22,436	965,644	571,483
-43,315	22,299	964,373	570,260
-42,300	22,249	963,311	569,447
-41,286	22,280	962,309	568,933
-40,271	22,261	961,386	568,301
-39,257	22,269	960,123	567,558
-38,242	22,244	959,469	567,070
-37,227	22,275	958,544	566,600
-36,213	22,281	957,581	566,028
-35,198	22,195	956,901	565,324
-34,184	22,238	956,283	565,076
-33,169	22,250	955,282	564,502
-32,154	22,299	954,426	564,130
-31,140	22,378	953,272	563,682
-30,125	22,314	952,585	563,047
-29,111	22,292	951,938	562,571
-28,096	22,293	951,284	562,166
-27,082	22,301	950,482	561,695
-26,067	22,306	949,752	561,257
-25,052	22,288	949,029	560,751
-24,038	22,295	948,468	560,417
-23,023	22,371	947,685	560,176
-22,009	22,323	947,111	559,664
-20,994	22,374	946,401	559,383
-19,979	22,362	945,838	558,989
-18,965	22,365	945,199	558,600
-17,950	22,362	944,604	558,218
-16,936	22,189	943,992	557,281
-15,921	22,195	943,210	556,817
-14,906	22,230	942,311	556,375
-13,892	22,192	941,791	555,926
-12,877	22,163	941,369	555,563
-11,863	22,179	940,544	555,103
-10,848	22,189	940,109	554,855
-9,833	22,276	939,716	554,878
-8,819	22,251	939,200	554,472
-7,804	22,256	938,306	553,939
-6,790	22,114	937,875	553,213
-5,775	22,184	937,164	552,992
-4,760	22,185	936,399	552,523
-3,746	22,147	936,079	552,191
-2,731	22,053	935,179	551,342
-1,717	22,045	934,488	550,889
-0,702	22,031	933,860	550,452
0,313	21,811	933,255	550,232
1,327	24,948	931,175	558,822
2,342	34,776	795,542	503,590
3,356	32,659	451,400	282,529
4,371	1,495	293,987	152,880
5,386	-3,146	274,927	138,558
6,400	-4,655	268,976	134,145
7,415	-5,158	266,788	132,579
8,429	-4,872	265,472	132,176
9,444	-4,790	264,645	131,827
10,459	-4,721	263,995	131,554
11,473	-4,993	263,432	131,014
12,488	-5,075	262,911	130,670
13,502	-5,227	262,436	130,284
14,517	-4,923	261,972	130,317
15,531	-4,849	261,557	130,166
16,546	-4,752	261,245	130,086
17,561	-4,796	260,853	129,840
18,575	-4,803	260,624	129,708
19,590	-4,855	260,300	129,489
20,604	-4,700	259,874	129,404
21,619	-4,853	259,569	129,104
22,634	-4,703	259,213	129,049
23,648	-4,867	258,904	128,737
24,663	-4,731	258,700	128,746
25,677	-4,937	258,536	128,469
26,692	-4,798	258,268	128,448
27,707	-4,762	257,997	128,334
28,721	-4,876	257,606	128,027
29,736	-4,898	257,415	127,901
30,750	-5,111	257,209	127,599
31,765	-4,914	256,916	127,616
32,780	-4,995	256,721	127,436
33,794	-4,825	256,461	127,446
34,809	-4,962	256,265	127,217
35,823	-4,867	256,082	127,198
36,838	-4,838	255,768	127,056
37,853	-4,927	255,560	126,863
38,867	-5,038	255,366	126,657
39,882	-4,942	255,134	126,616
40,896	-4,845	254,894	126,571
41,911	-4,984	254,695	126,338
42,926	-4,828	254,511	126,373
43,940	-5,204	254,379	125,966
44,955	-5,009	253,971	125,924
45,969	-5,109	253,794	125,738
46,984	-5,263	253,514	125,453
47,999	-5,525	253,284	125,100
49,013	-5,604	252,892	124,826
50,028	-5,618	252,831	124,773
51,042	-5,749	252,472	124,471
52,057	-5,734	252,204	124,340
53,071	-5,896	252,123	124,149
54,086	-5,448	251,877	124,405
55,101	-5,407	251,568	124,276
56,115	-5,245	251,623	124,433
57,130	-5,040	251,486	124,531
58,144	-4,617	251,363	124,825
59,159	-4,771	251,188	124,594
60,174	-4,695	250,834	124,473
61,188	-4,631	250,634	124,418
62,203	-4,965	250,518	124,061
63,217	-4,908	250,328	124,005
64,232	-4,781	250,061	123,971
65,247	-4,815	249,936	123,869
66,261	-4,809	249,697	123,745
67,276	-5,041	249,444	123,409
68,290	-5,518	249,306	122,921
69,305	-5,496	249,051	122,804
70,320	-5,253	248,574	122,765
71,334	-5,407	248,688	122,679
72,349	-4,828	248,440	123,039
73,363	-4,771	248,324	123,020
74,378	-4,881	248,065	122,787
75,393	-4,848	247,898	122,721
76,407	-4,774	247,670	122,660
77,422	-4,706	247,593	122,668
78,436	-4,863	247,297	122,378
79,451	-4,668	247,030	122,400
80,466	-4,852	246,985	122,211
81,480	-5,101	246,649	121,823
82,495	-5,101	246,420	121,700
83,509	-4,997	246,285	121,710
84,524	-5,056	246,067	121,541
85,539	-5,157	245,735	121,281
86,553	-5,143	245,670	121,251
87,568	-5,165	245,505	121,139
88,582	-5,062	245,335	121,132
89,597	-5,350	245,079	120,752
90,611	-5,038	245,015	120,972
91,626	-4,985	244,906	120,952
92,641	-4,930	244,624	120,848
93,655	-4,928	244,376	120,717
94,670	-5,081	244,374	120,577
95,684	-5,116	243,960	120,333
96,699	-4,955	243,872	120,413
97,714	-5,153	243,649	120,127
98,728	-5,172	243,425	119,990
99,743	-5,278	243,304	119,831
100,757	-5,434	243,084	119,582
101,772	-5,249	242,656	119,514
102,787	-5,186	242,646	119,551
103,801	-4,853	242,436	119,714
104,816	-4,955	242,301	119,552
105,830	-5,000	242,345	119,525
106,845	-5,017	242,146	119,403
107,860	-4,954	241,971	119,358
108,874	-4,862	241,552	119,216
109,889	-5,208	241,531	118,909
110,903	-5,238	241,175	118,699
111,918	-5,265	241,008	118,584
112,933	-5,167	240,933	118,617
113,947	-4,983	240,776	118,681
114,962	-5,173	240,747	118,500
115,976	-4,963	240,486	118,533
116,991	-4,846	240,262	118,508
118,006	-4,899	240,088	118,368
119,020	-5,005	239,978	118,217
120,035	-4,839	239,817	118,263
121,049	-4,982	239,554	118,006
122,064	-4,824	239,392	118,045
123,079	-4,900	239,243	117,898
124,093	-4,945	239,101	117,781
125,108	-5,266	238,938	117,428
126,122	-5,329	238,772	117,285
127,137	-5,548	238,487	116,955
128,151	-5,351	238,299	117,013
129,166	-5,337	238,152	116,942
130,181	-5,174	237,885	116,933
131,195	-5,337	237,731	116,715
132,210	-5,155	237,509	116,743
133,224	-4,998	237,344	116,779
134,239	-5,018	237,276	116,719
135,254	-4,998	237,141	116,658
136,268	-5,145	236,947	116,434
137,283	-5,616	236,866	116,002
138,297	-5,399	236,357	115,918
139,312	-5,430	236,230	115,820
140,327	-5,232	236,313	116,010
141,341	-4,681	236,236	116,406
142,356	-4,543	236,108	116,443
143,370	-4,672	235,854	116,204
144,385	-4,707	235,851	116,165
145,400	-4,616	235,579	116,093
146,414	-4,481	235,416	116,111
147,429	-4,653	235,272	115,891
148,443	-4,732	235,151	115,759
149,458	-4,720	234,898	115,633
150,473	-4,794	234,626	115,430
151,487	-4,793	234,521	115,368
152,502	-4,745	234,282	115,279
153,516	-4,738	234,204	115,236
154,531	-4,899	234,104	115,048
155,546	-4,806	233,929	115,026
156,560	-4,942	233,700	114,794
157,575	-4,870	233,450	114,719
158,589	-4,879	233,280	114,618
159,604	-4,665	233,213	114,745
160,619	-4,464	233,085	114,831
161,633	-4,499	232,876	114,690
162,648	-4,517	232,828	114,642
163,662	-4,493	232,556	114,517
164,677	-4,689	232,404	114,277
165,692	-4,623	232,244	114,240
166,706	-4,673	232,222	114,180
167,721	-4,452	231,963	114,217
168,735	-4,447	231,815	114,137
169,750	-4,606	231,777	113,983
170,764	-4,656	231,653	113,873
171,779	-4,833	231,445	113,620
172,794	-4,741	231,349	113,636
173,808	-4,802	231,148	113,479
174,823	-5,185	230,748	112,972
175,837	-5,230	230,642	112,875
176,852	-5,029	230,576	112,989
177,867	-4,708	230,405	113,148
178,881	-4,614	230,196	113,108
179,896	-4,658	230,103	113,018
180,910	-4,651	230,011	112,968
181,925	-4,603	229,742	112,864
182,940	-4,634	229,566	112,743
183,954	-4,630	229,515	112,712
184,969	-4,473	229,557	112,844
185,983	-4,513	229,160	112,608
186,998	-4,429	229,075	112,621
188,013	-4,305	228,987	112,664
189,027	-4,488	228,873	112,456
190,042	-4,263	228,572	112,473
191,056	-4,369	228,444	112,317
192,071	-4,354	228,212	112,206
193,086	-4,518	228,252	112,087
194,100	-4,836	227,963	111,689
195,115	-4,996	227,529	111,344
196,129	-5,728	227,258	110,635
197,144	-1,998	228,506	114,127
198,159	2,376	229,674	118,102
199,173	4,278	230,095	119,786
200,188	4,309	229,999	119,750
201,202	4,480	229,848	119,792
202,217	4,495	230,018	119,882
203,232	4,687	229,672	119,840
204,246	4,911	229,548	119,938
205,261	5,020	229,302	119,883
206,275	4,949	229,366	119,851
207,290	5,023	229,187	119,804
208,304	4,892	229,056	119,624
209,319	5,070	228,788	119,610
210,334	4,874	228,670	119,387
211,348	4,665	228,482	119,116
212,363	4,341	228,180	118,700
213,377	4,187	227,851	118,400
214,392	4,120	227,785	118,304
215,407	4,153	227,627	118,236
216,421	4,352	227,432	118,277
217,436	4,031	227,314	117,959
218,450	4,082	226,918	117,782
219,465	3,939	226,881	117,643
220,480	3,993	226,798	117,630
221,494	3,915	226,679	117,499
222,509	4,056	226,610	117,560
223,523	4,033	226,569	117,511
224,538	4,004	226,253	117,314
225,553	4,170	226,048	117,324
226,567	4,191	226,020	117,315
227,582	4,353	226,040	117,439
228,596	4,482	225,964	117,487
229,611	4,142	225,679	117,070
230,626	3,914	225,403	116,743
231,640	4,194	225,165	116,821
232,655	4,229	225,266	116,890
233,669	4,684	225,177	117,178
234,684	4,744	225,081	117,164
235,699	4,560	224,773	116,853
236,713	4,272	224,527	116,497
237,728	4,049	224,356	116,230
238,742	4,011	224,334	116,179
239,757	4,062	224,062	116,067
240,772	4,163	223,862	116,029
241,786	4,138	223,879	116,008
242,801	4,117	223,694	115,887
243,815	4,467	223,672	116,128
244,830	4,581	223,462	116,094
245,844	4,288	223,144	115,699
246,859	4,406	222,973	115,688
247,874	4,376	223,048	115,695
248,888	4,334	222,840	115,545
249,903	4,269	222,662	115,393
250,917	4,233	222,488	115,266
251,932	4,139	222,309	115,093
252,947	4,161	222,161	115,022
253,961	4,244	221,910	114,944
254,976	4,213	221,853	114,881
255,990	4,449	221,752	114,994
257,005	4,208	221,725	114,791
258,020	4,543	221,498	114,912
259,034	4,492	221,492	114,861
260,049	4,405	221,251	114,661
261,063	4,491	220,986	114,577
262,078	4,436	220,940	114,502
263,093	4,769	220,743	114,637
264,107	4,613	220,655	114,465
265,122	4,452	220,606	114,311
266,136	4,662	220,491	114,396
267,151	4,719	220,221	114,288
268,166	4,182	220,090	113,813
269,180	3,951	219,892	113,531
270,195	3,913	219,667	113,376
271,209	4,031	219,516	113,375
272,224	4,128	219,374	113,362
273,239	4,147	219,426	113,393
274,253	4,160	218,965	113,155
275,268	4,082	218,863	113,034
276,282	3,705	218,852	112,742
277,297	3,931	218,668	112,803
278,312	3,962	218,490	112,724
279,326	4,079	218,300	112,701
280,341	4,141	218,240	112,706
281,355	4,099	218,174	112,631
282,370	4,202	218,044	112,629
283,384	4,146	217,869	112,488
284,399	3,942	217,764	112,275
285,414	3,926	217,581	112,158
286,428	4,126	217,452	112,227
287,443	4,316	217,316	112,286
288,457	4,361	217,311	112,306
289,472	3,940	217,224	111,945
290,487	3,680	216,886	111,571
291,501	3,693	216,633	111,441
292,516	3,870	216,539	111,511
293,530	3,745	216,577	111,430
294,545	3,935	216,338	111,434
295,560	3,918	216,135	111,308
296,574	4,223	216,081	111,491
297,589	4,024	215,933	111,261
298,603	3,969	215,854	111,170
299,618	4,269	215,589	111,240
300,633	4,230	215,561	111,188
301,647	4,446	215,651	111,380
302,662	4,543	215,364	111,292
303,676	4,402	215,289	111,142
304,691	4,289	215,154	110,980
305,706	4,439	214,957	110,977
306,720	4,314	214,888	110,842
307,735	4,313	214,554	110,659
308,749	4,026	214,436	110,382
309,764	4,231	214,354	110,478
310,779	4,299	214,291	110,484
311,793	4,476	214,093	110,498
312,808	4,195	214,079	110,280
313,822	4,150	213,876	110,134
314,837	4,083	213,634	109,952
315,852	4,123	213,355	109,826
316,866	3,959	213,500	109,774
317,881	4,309	213,208	109,864
318,895	4,377	213,183	109,890
319,910	4,113	212,950	109,572
320,925	3,961	212,706	109,328
321,939	3,667	212,562	109,036
322,954	3,755	212,411	109,011
323,968	4,100	212,436	109,259
324,983	4,261	212,363	109,326
325,997	4,227	212,249	109,234
327,012	4,201	212,084	109,120
328,027	4,133	211,963	109,000
329,041	4,596	211,817	109,243
330,056	4,422	211,780	109,091
331,070	4,241	211,423	108,770
332,085	3,925	211,278	108,462
333,100	4,049	211,108	108,453
334,114	4,180	211,031	108,495
335,129	3,950	210,795	108,203
336,143	3,872	210,571	108,023
337,158	4,049	210,387	108,044
338,173	3,840	210,503	107,947
339,187	3,924	210,253	107,868
340,202	4,088	210,091	107,890
341,216	3,764	210,019	107,617
342,231	3,831	209,963	107,625
343,246	3,912	209,864	107,622
344,260	3,867	209,689	107,491
345,275	3,974	209,624	107,523
346,289	4,213	209,368	107,549
347,304	4,376	209,283	107,609
348,319	3,911	209,136	107,200
349,333	4,182	209,018	107,318
350,348	4,360	208,927	107,386
351,362	4,194	208,863	107,228
352,377	4,316	208,791	107,267
353,392	4,203	208,592	107,077
354,406	4,276	208,443	107,041
355,421	194,387	1344,194	1434,640
356,435	155,123	1482,677	1434,752
