DTS Sentinel unit serial number:	SN410029Multiplexer serial number:	ORYXHardware model number:	OX2-SRSoftware version number:	ORYX F/W v4,00 Oryx Data Collector v3.7.2.0data status	okinstallation	B6 Nyhavnadifferential loss correction	single-endedforward channel	channel 2reverse channel	N/Adate	2023/12/10time	15:50:08forward acquisition time	300,00reverse acquisition time	0,00gamma	499,1914k internal	0,3123k external	0,3123temperature offset calibration	1,0000default loss term (dB/km)	0,3820temperature slope calibration	1,0000multiplexer offset coefficient	1,0000multiplexer slope coefficient	1,0000fibre end	0,00T internal ref (°C)	22,38T ext. ref 1 (°C)	5,97T ext. ref 2 (°C)	5,97length (m)	temperature (°C)	Stokes	anti-Stokes-744,400	70,596	0,036	0,027
-743,385	-26,253	-0,130	0,057
-742,371	55,833	0,087	-0,063
-741,356	-87,957	-0,183	0,041
-740,342	-47,989	-0,060	0,022
-739,327	-12,126	-0,177	0,086
-738,312	85,155	0,108	-0,088
-737,298	-165,897	-0,225	0,007
-736,283	26,678	-0,054	0,033
-735,269	111,454	-0,254	0,228
-734,254	800,000	0,014	0,037
-733,239	-78,156	-0,428	0,109
-732,225	-20,472	0,041	0,019
-731,210	434,611	0,052	-0,085
-730,196	-200,000	-0,029	-0,102
-729,181	-148,862	0,061	-0,004
-728,167	-38,651	0,107	0,042
-727,152	-112,954	-0,114	0,017
-726,137	387,527	0,017	0,026
-725,123	-32,075	-0,067	0,028
-724,108	-13,391	-0,124	-0,060
-723,094	-200,000	-0,003	-0,189
-722,079	-200,000	-0,005	-0,112
-721,064	-85,466	0,064	-0,015
-720,050	-137,352	0,128	0,011
-719,035	-31,794	-0,140	-0,058
-718,021	417,027	-0,018	-0,029
-717,006	-80,792	-0,105	-0,026
-715,991	-200,000	-0,019	0,067
-714,977	-72,995	-0,111	0,030
-713,962	-153,507	0,018	-0,001
-712,948	349,055	0,085	0,126
-711,933	142,648	-0,097	-0,096
-710,918	-200,000	0,014	0,130
-709,904	585,027	-0,027	-0,049
-708,889	-200,000	-0,061	0,209
-707,875	-200,000	-0,007	-0,069
-706,860	209,332	-0,063	0,074
-705,845	800,000	0,046	0,121
-704,831	-15,751	0,092	-0,044
-703,816	-15,483	-0,084	0,040
-702,802	129,940	-0,046	-0,043
-701,787	-115,531	-0,039	0,005
-700,772	-65,893	0,050	-0,015
-699,758	3,963	0,035	0,019
-698,743	65,876	-0,084	-0,063
-697,729	-200,000	0,023	0,121
-696,714	-200,000	-0,006	0,061
-695,699	-200,000	0,010	-0,047
-694,685	-119,142	-0,139	-0,018
-693,670	-94,135	-0,085	-0,017
-692,656	-200,000	-0,040	0,148
-691,641	354,132	0,037	-0,055
-690,627	256,140	0,089	0,113
-689,612	-6,318	0,029	-0,014
-688,597	-102,541	-0,173	-0,030
-687,583	6,741	-0,079	-0,044
-686,568	-158,057	-0,170	-0,007
-685,554	13,892	-0,066	-0,038
-684,539	23,678	0,008	-0,005
-683,524	800,000	0,054	0,131
-682,510	-80,894	0,109	0,027
-681,495	800,000	0,024	0,072
-680,481	-200,000	-0,015	-0,056
-679,466	-187,992	-0,030	-0,000
-678,451	65,179	0,104	-0,078
-677,437	-52,411	-0,086	-0,029
-676,422	-68,686	-0,099	0,028
-675,408	-54,728	0,163	0,055
-674,393	391,079	0,047	0,072
-673,378	-200,000	-0,041	-0,157
-672,364	-200,000	-0,010	-0,120
-671,349	800,000	-0,030	0,089
-670,335	-104,994	0,112	-0,019
-669,320	160,777	-0,030	-0,031
-668,305	-58,531	-0,122	0,039
-667,291	-107,578	0,180	0,029
-666,276	219,741	0,069	-0,083
-665,262	-200,000	-0,020	-0,080
-664,247	800,000	0,057	-0,128
-663,232	800,000	0,045	0,108
-662,218	-74,141	0,180	0,048
-661,203	-200,000	0,002	0,024
-660,189	-101,230	0,169	-0,030
-659,174	507,923	-0,040	0,070
-658,159	-200,000	-0,027	-0,156
-657,145	409,403	-0,087	-0,137
-656,130	-61,998	-0,153	-0,047
-655,116	45,941	-0,054	0,037
-654,101	-200,000	0,001	-0,008
-653,086	289,263	-0,058	-0,079
-652,072	-200,000	-0,005	-0,088
-651,057	-200,000	0,008	-0,096
-650,043	-10,478	-0,130	-0,064
-649,028	6,767	-0,005	-0,003
-648,014	1,131	0,025	-0,013
-646,999	-153,292	0,077	0,004
-645,984	762,296	-0,005	-0,010
-644,970	-151,235	-0,125	0,007
-643,955	-200,000	-0,002	-0,009
-642,941	-90,754	-0,105	-0,022
-641,926	800,000	0,003	-0,009
-640,911	-19,748	0,186	0,085
-639,897	474,352	-0,032	0,053
-638,882	-63,115	-0,087	-0,027
-637,868	-47,750	0,041	-0,015
-636,853	421,078	-0,066	-0,106
-635,838	-200,000	0,025	-0,083
-634,824	546,404	0,045	-0,080
-633,809	-200,000	-0,000	-0,016
-632,795	150,311	0,042	0,042
-631,780	462,086	-0,033	0,055
-630,765	-200,000	-0,013	-0,065
-629,751	800,000	0,036	-0,093
-628,736	800,000	0,014	-0,029
-627,722	132,973	0,057	0,055
-626,707	399,268	0,031	-0,048
-625,692	-200,000	-0,003	0,033
-624,678	-60,876	0,061	-0,019
-623,663	402,057	-0,021	0,033
-622,649	-200,000	-0,008	-0,171
-621,634	-72,023	-0,061	-0,017
-620,619	-200,000	-0,004	0,031
-619,605	-77,828	0,048	-0,012
-618,590	6,969	0,096	-0,053
-617,576	-200,000	0,006	-0,077
-616,561	800,000	-0,054	-0,118
-615,546	-84,994	-0,088	-0,020
-614,532	276,945	0,039	-0,052
-613,517	27,427	0,020	0,012
-612,503	-200,000	-0,006	-0,131
-611,488	800,000	0,060	-0,159
-610,474	-200,000	0,002	0,061
-609,459	283,217	0,060	0,080
-608,444	800,000	0,031	0,080
-607,430	255,471	0,048	-0,061
-606,415	-200,000	0,005	-0,197
-605,401	-42,227	-0,025	-0,009
-604,386	800,000	-0,014	0,029
-603,371	536,871	0,048	-0,084
-602,357	164,273	-0,051	-0,054
-601,342	151,438	0,016	-0,016
-600,328	51,316	-0,066	-0,046
-599,313	52,973	-0,095	-0,067
-598,298	-200,000	-0,025	-0,120
-597,284	-20,079	0,061	0,028
-596,269	342,048	0,050	0,073
-595,255	-200,000	0,025	0,122
-594,240	203,061	-0,065	-0,075
-593,225	122,209	-0,067	-0,062
-592,211	800,000	-0,055	-0,139
-591,196	121,983	0,052	0,048
-590,182	-200,000	-0,002	-0,016
-589,167	94,866	0,069	-0,058
-588,152	452,782	-0,026	-0,042
-587,138	193,388	-0,040	-0,045
-586,123	-176,467	0,146	0,003
-585,109	-10,207	-0,089	-0,043
-584,094	320,730	0,052	0,074
-583,079	102,446	0,019	-0,016
-582,065	321,351	0,065	0,091
-581,050	87,261	0,019	-0,016
-580,036	179,182	-0,054	-0,059
-579,021	-41,242	-0,037	-0,014
-578,006	800,000	0,039	-0,081
-576,992	115,810	0,074	0,067
-575,977	-36,709	0,076	-0,030
-574,963	-149,496	0,120	0,007
-573,948	647,780	0,040	-0,077
-572,934	800,000	-0,047	0,137
-571,919	155,498	-0,020	-0,020
-570,904	-200,000	0,011	-0,096
-569,890	30,492	0,055	-0,035
-568,875	-200,000	-0,012	0,090
-567,861	-43,548	0,093	0,034
-566,846	182,343	0,059	-0,064
-565,831	238,340	0,108	0,133
-564,817	619,346	-0,020	0,037
-563,802	-200,000	-0,025	-0,119
-562,788	588,296	0,024	-0,044
-561,773	240,956	-0,066	0,082
-560,758	-200,000	-0,006	0,184
-559,744	43,717	-0,027	-0,018
-558,729	-200,000	-0,011	-0,089
-557,715	-200,000	-0,009	-0,077
-556,700	-200,000	-0,007	-0,054
-555,685	-200,000	0,027	-0,110
-554,671	-200,000	-0,005	-0,098
-553,656	-200,000	-0,014	0,164
-552,642	-63,055	-0,084	-0,026
-551,627	195,737	-0,049	0,055
-550,612	-116,098	0,067	0,009
-549,598	28,902	-0,119	-0,075
-548,583	121,462	-0,100	-0,092
-547,569	-18,582	-0,015	0,007
-546,554	-122,506	0,086	-0,010
-545,539	-74,503	-0,108	0,029
-544,525	-200,000	0,002	0,065
-543,510	800,000	0,057	0,149
-542,496	-18,081	-0,179	-0,083
-541,481	-200,000	0,004	0,127
-540,466	96,685	0,035	0,030
-539,452	29,067	-0,059	-0,037
-538,437	800,000	0,035	-0,092
-537,423	255,876	-0,056	0,071
-536,408	210,912	0,060	0,070
-535,393	403,954	0,052	0,080
-534,379	-200,000	0,002	-0,139
-533,364	283,026	-0,103	-0,137
-532,350	-57,628	0,110	0,035
-531,335	-200,000	-0,031	0,133
-530,321	800,000	0,045	0,100
-529,306	-200,000	0,022	-0,079
-528,291	662,552	-0,081	-0,155
-527,277	-80,802	-0,001	0,000
-526,262	-200,000	0,009	-0,089
-525,248	170,303	0,091	-0,096
-524,233	-200,000	0,005	0,068
-523,218	374,805	0,071	-0,107
-522,204	-200,000	0,039	-0,131
-521,189	173,295	-0,082	0,087
-520,175	-7,246	0,054	-0,027
-519,160	125,103	-0,011	-0,011
-518,145	502,729	-0,052	0,090
-517,131	1,650	0,108	-0,057
-516,116	-200,000	-0,019	-0,160
-515,102	-200,000	0,004	0,105
-514,087	-61,988	-0,035	0,011
-513,072	125,295	0,107	-0,100
-512,058	115,054	-0,074	-0,066
-511,043	-77,293	0,056	0,014
-510,029	141,132	-0,070	0,068
-509,014	128,361	0,089	0,084
-507,999	-166,895	-0,137	-0,004
-506,985	70,097	0,080	-0,061
-505,970	-200,000	0,019	-0,092
-504,956	800,000	-0,048	0,103
-503,941	-28,647	0,159	0,067
-502,926	690,430	0,079	0,153
-501,912	152,767	-0,027	0,027
-500,897	-123,836	0,125	-0,014
-499,883	67,469	-0,050	-0,038
-498,868	-200,000	-0,003	-0,077
-497,853	118,878	-0,098	-0,089
-496,839	23,615	-0,131	-0,080
-495,824	341,459	0,053	-0,077
-494,810	214,636	0,043	-0,050
-493,795	-8,167	-0,075	0,037
-492,781	-69,029	0,130	0,037
-491,766	437,268	0,035	0,057
-490,751	-107,813	0,037	-0,006
-489,737	-103,607	0,038	0,007
-488,722	376,960	0,043	-0,065
-487,708	-36,845	0,073	-0,029
-486,693	271,540	0,093	0,121
-485,678	-200,000	-0,001	-0,033
-484,664	-200,000	-0,006	-0,121
-483,649	-174,917	-0,105	-0,002
-482,635	167,889	-0,038	-0,040
-481,620	-7,835	0,148	-0,073
-480,605	272,987	0,035	-0,046
-479,591	-65,795	0,075	0,022
-478,576	11,950	-0,109	-0,062
-477,562	-58,038	-0,071	-0,023
-476,547	253,854	0,115	-0,145
-475,532	97,957	-0,050	0,043
-474,518	-56,761	0,056	0,018
-473,503	230,469	-0,020	-0,024
-472,489	68,638	-0,085	0,064
-471,474	800,000	-0,029	-0,071
-470,459	-11,998	-0,037	-0,018
-469,445	784,716	0,047	0,096
-468,430	-200,000	0,017	0,121
-467,416	410,603	0,040	0,062
-466,401	-200,000	-0,003	-0,066
-465,386	-15,694	0,112	-0,053
-464,372	800,000	0,024	-0,064
-463,357	-200,000	-0,014	-0,107
-462,343	-31,350	-0,078	-0,032
-461,328	-200,000	0,000	0,045
-460,313	800,000	-0,020	0,046
-459,299	-129,808	0,055	-0,005
-458,284	245,550	0,067	0,083
-457,270	-200,000	-0,046	0,206
-456,255	-200,000	-0,021	-0,099
-455,241	-200,000	0,010	0,045
-454,226	800,000	0,043	0,108
-453,211	-200,000	0,016	-0,054
-452,197	-14,222	0,083	-0,039
-451,182	9,453	0,080	0,044
-450,168	-200,000	0,009	0,077
-449,153	57,788	-0,111	-0,080
-448,138	-165,263	-0,178	-0,006
-447,124	800,000	0,043	-0,102
-446,109	23,387	-0,082	-0,050
-445,095	-39,127	-0,092	0,036
-444,080	-200,000	0,016	0,052
-443,065	-51,506	-0,084	-0,029
-442,051	-200,000	0,003	-0,069
-441,036	-100,704	0,101	-0,018
-440,022	-86,771	-0,091	-0,020
-439,007	-200,000	-0,013	-0,053
-437,992	-46,620	-0,098	0,035
-436,978	-105,590	0,038	-0,006
-435,963	197,784	-0,031	-0,035
-434,949	-200,000	-0,004	-0,102
-433,934	164,976	-0,063	-0,065
-432,919	-51,706	-0,025	-0,008
-431,905	681,422	0,031	0,060
-430,890	27,413	0,111	-0,068
-429,876	179,721	-0,055	0,059
-428,861	800,000	-0,031	0,072
-427,846	-117,337	-0,106	0,014
-426,832	10,925	-0,188	-0,105
-425,817	-12,675	0,112	-0,054
-424,803	280,792	0,087	-0,115
-423,788	50,433	-0,025	0,017
-422,773	800,000	0,018	0,043
-421,759	-111,740	0,080	-0,012
-420,744	800,000	0,037	0,110
-419,730	125,433	0,101	-0,094
-418,715	255,721	-0,077	-0,097
-417,701	97,769	-0,050	-0,042
-416,686	85,667	0,095	0,077
-415,671	127,697	-0,043	0,040
-414,657	141,550	0,091	0,089
-413,642	63,457	0,091	-0,067
-412,628	-200,000	0,008	-0,029
-411,613	38,405	-0,056	-0,037
-410,598	-27,777	-0,077	0,033
-409,584	800,000	0,009	-0,021
-408,569	-200,000	-0,019	0,134
-407,555	-200,000	0,006	-0,046
-406,540	-200,000	0,009	0,088
-405,525	-7,628	-0,095	-0,047
-404,511	300,850	0,027	-0,037
-403,496	-200,000	-0,014	0,095
-402,482	-200,000	0,044	0,162
-401,467	16,761	-0,088	0,051
-400,452	19,925	-0,082	-0,048
-399,438	67,818	0,111	0,084
-398,423	-62,669	-0,039	-0,012
-397,409	468,706	-0,046	-0,077
-396,394	-69,927	-0,075	-0,021
-395,379	136,807	0,091	0,087
-394,365	-200,000	0,006	-0,108
-393,350	-87,910	0,129	0,028
-392,336	602,491	0,033	-0,060
-391,321	-111,124	-0,042	0,006
-390,306	800,000	-0,027	0,078
-389,292	-121,087	-0,178	-0,022
-388,277	-104,351	0,074	0,013
-387,263	150,009	-0,012	-0,012
-386,248	156,216	0,080	0,081
-385,233	157,118	0,039	0,039
-384,219	-200,000	-0,004	-0,070
-383,204	452,867	0,051	-0,083
-382,190	-200,000	0,009	-0,065
-381,175	-200,000	0,015	-0,056
-380,160	107,106	-0,034	0,029
-379,146	37,850	0,068	0,045
-378,131	-6,890	0,113	0,056
-377,117	-86,874	0,044	0,010
-376,102	222,725	-0,070	-0,083
-375,088	-200,000	-0,049	0,195
-374,073	56,202	0,042	0,030
-373,058	66,899	0,042	0,032
-372,044	421,843	0,072	0,114
-371,029	693,649	-0,056	-0,108
-370,015	16,021	-0,060	0,035
-369,000	-113,930	-0,071	0,010
-367,985	800,000	0,050	-0,136
-366,971	585,992	-0,054	-0,097
-365,956	-31,094	-0,036	0,015
-364,942	-6,325	0,091	-0,045
-363,927	-200,000	-0,020	0,128
-362,912	-200,000	0,002	0,008
-361,898	800,000	-0,047	-0,110
-360,883	89,531	-0,112	-0,092
-359,869	800,000	-0,073	0,163
-358,854	-200,000	0,000	-0,077
-357,839	72,238	0,081	0,062
-356,825	37,521	-0,038	0,025
-355,810	337,957	0,067	-0,095
-354,796	800,000	0,051	-0,119
-353,781	373,729	0,082	0,123
-352,766	288,918	0,042	0,057
-351,752	-200,000	0,017	0,058
-350,737	401,255	-0,050	0,078
-349,723	-93,190	0,056	0,011
-348,708	-115,367	0,115	0,016
-347,693	-52,295	-0,056	-0,019
-346,679	-200,000	0,004	-0,126
-345,664	-130,558	-0,051	-0,005
-344,650	800,000	0,016	0,033
-343,635	-73,824	0,027	-0,007
-342,620	94,750	0,115	0,096
-341,606	-81,581	0,054	-0,013
-340,591	310,396	-0,047	-0,065
-339,577	271,611	-0,105	-0,136
-338,562	247,780	-0,033	-0,041
-337,548	800,000	0,060	0,163
-336,533	-73,812	0,070	0,019
-335,518	-124,718	-0,088	-0,010
-334,504	-200,000	0,030	0,108
-333,489	800,000	0,003	-0,010
-332,475	-200,000	0,003	-0,081
-331,460	-73,746	-0,065	0,017
-330,445	449,921	0,040	0,065
-329,431	-200,000	-0,015	-0,057
-328,416	-99,450	0,094	-0,017
-327,402	666,677	0,053	0,101
-326,387	-23,181	-0,218	-0,096
-325,372	-200,000	-0,000	-0,058
-324,358	279,806	-0,043	-0,057
-323,343	800,000	0,065	-0,192
-322,329	-129,087	-0,064	-0,006
-321,314	113,576	-0,067	-0,060
-320,299	-94,548	-0,183	0,036
-319,285	-18,850	-0,089	-0,040
-318,270	3,408	0,081	0,043
-317,256	-200,000	0,005	-0,020
-316,241	138,796	-0,021	-0,021
-315,226	800,000	0,043	-0,109
-314,212	800,000	-0,019	0,038
-313,197	-200,000	0,009	0,164
-312,183	800,000	-0,010	0,030
-311,168	142,500	0,033	0,032
-310,153	-87,451	-0,160	0,035
-309,139	800,000	-0,019	-0,042
-308,124	241,611	-0,091	0,111
-307,110	-200,000	-0,005	0,034
-306,095	-200,000	-0,010	0,082
-305,080	308,382	-0,098	0,134
-304,066	-159,432	0,103	0,004
-303,051	210,851	0,019	-0,022
-302,037	1,932	0,076	-0,040
-301,022	-200,000	0,014	-0,084
-300,008	59,564	0,021	0,015
-298,993	-200,000	-0,011	0,050
-297,978	-3,335	0,038	-0,020
-296,964	800,000	-0,060	0,135
-295,949	-83,600	-0,083	-0,019
-294,935	471,816	-0,071	0,118
-293,920	52,378	0,111	0,078
-292,905	-200,000	-0,006	0,088
-291,891	83,770	0,104	-0,083
-290,876	154,036	-0,031	0,031
-289,862	475,662	0,101	0,168
-288,847	800,000	0,066	-0,134
-287,832	-58,394	-0,085	-0,027
-286,818	739,947	-0,017	-0,033
-285,803	-45,747	0,088	0,032
-284,789	800,000	0,032	0,102
-283,774	-200,000	0,007	0,113
-282,759	-200,000	-0,003	0,095
-281,745	-111,908	-0,089	-0,013
-280,730	639,499	0,024	-0,045
-279,716	-200,000	0,001	-0,098
-278,701	800,000	0,010	-0,027
-277,686	-27,271	0,007	0,003
-276,672	437,388	-0,096	-0,154
-275,657	70,050	0,080	0,060
-274,643	540,434	-0,081	0,141
-273,628	-127,313	0,022	-0,002
-272,613	176,710	-0,082	-0,088
-271,599	151,831	0,051	0,051
-270,584	171,985	0,015	-0,016
-269,570	81,006	0,096	0,076
-268,555	-138,227	-0,094	0,007
-267,540	-125,691	-0,061	0,007
-266,526	23,942	0,049	0,030
-265,511	195,691	0,020	0,022
-264,497	286,676	-0,083	0,109
-263,482	-200,000	-0,018	0,093
-262,467	499,041	-0,037	-0,062
-261,453	800,000	0,035	0,103
-260,438	-200,000	0,026	-0,133
-259,424	99,850	-0,051	0,043
-258,409	-97,283	-0,093	0,018
-257,395	627,626	0,045	0,083
-256,380	-200,000	-0,014	0,090
-255,365	80,131	0,091	0,072
-254,351	800,000	-0,045	0,105
-253,336	17,677	-0,097	-0,056
-252,322	-66,287	-0,066	-0,019
-251,307	-200,000	0,044	-0,160
-250,292	-113,440	0,078	0,011
-249,278	800,000	-0,046	0,094
-248,263	-200,000	-0,005	0,067
-247,249	402,206	-0,038	-0,059
-246,234	743,709	0,021	-0,042
-245,219	-200,000	0,014	-0,090
-244,205	559,401	0,078	-0,138
-243,190	-200,000	-0,035	0,122
-242,176	800,000	0,044	-0,120
-241,161	350,820	0,077	0,111
-240,146	800,000	0,057	0,133
-239,132	327,264	-0,080	0,112
-238,117	15,798	-0,096	-0,055
-237,103	-105,170	-0,093	-0,015
-236,088	1,155	-0,060	-0,032
-235,073	800,000	0,040	0,089
-234,059	554,282	-0,047	0,084
-233,044	397,971	-0,014	-0,021
-232,030	-187,529	0,117	0,001
-231,015	118,950	0,104	0,094
-230,000	445,585	0,041	-0,066
-228,986	351,098	0,014	-0,021
-227,971	800,000	0,055	0,151
-226,957	320,799	0,063	0,087
-225,942	-99,067	-0,093	-0,017
-224,927	800,000	-0,011	0,033
-223,913	24,768	0,051	-0,031
-222,898	-200,000	0,003	-0,056
-221,884	304,379	-0,052	0,070
-220,869	-200,000	-0,001	0,162
-219,855	638,202	0,055	0,103
-218,840	-200,000	-0,014	0,049
-217,825	73,996	-0,025	-0,019
-216,811	12,405	-0,036	-0,020
-215,796	19,933	0,041	0,024
-214,782	800,000	-0,077	-0,161
-213,767	-200,000	0,006	-0,081
-212,752	-200,000	-0,016	-0,071
-211,738	800,000	-0,056	0,176
-210,723	-115,709	-0,132	-0,018
-209,709	-82,195	0,012	0,003
-208,694	492,318	-0,017	0,028
-207,679	800,000	0,003	0,009
-206,665	800,000	0,048	0,129
-205,650	-84,326	0,083	-0,019
-204,636	413,014	-0,042	-0,066
-203,621	144,553	-0,020	0,019
-202,606	-29,834	-0,092	-0,038
-201,592	-179,722	-0,065	0,001
-200,577	-83,971	0,142	0,033
-199,563	132,827	0,068	-0,064
-198,548	-11,259	0,127	0,061
-197,533	800,000	0,039	0,109
-196,519	-145,804	0,131	-0,008
-195,504	122,841	-0,078	0,071
-194,490	-200,000	-0,022	0,124
-193,475	322,294	0,037	-0,052
-192,460	637,317	-0,037	0,069
-191,446	50,643	-0,078	0,054
-190,431	28,044	-0,077	-0,047
-189,417	800,000	0,064	0,189
-188,402	154,768	-0,094	-0,094
-187,387	-128,394	-0,089	0,009
-186,373	23,326	-0,192	-0,115
-185,358	800,000	0,052	0,147
-184,344	-200,000	-0,027	0,142
-183,329	527,263	0,018	-0,030
-182,315	61,897	-0,032	0,024
-181,300	282,037	0,107	0,140
-180,285	79,088	-0,072	-0,057
-179,271	24,362	-0,053	-0,032
-178,256	27,237	-0,116	-0,071
-177,242	37,188	0,090	-0,058
-176,227	800,000	-0,013	0,034
-175,212	233,072	0,022	0,026
-174,198	800,000	-0,016	-0,045
-173,183	148,770	-0,148	-0,146
-172,169	-5,366	-0,091	-0,045
-171,154	-200,000	0,017	0,089
-170,139	800,000	0,034	0,107
-169,125	800,000	-0,027	0,067
-168,110	70,795	-0,075	-0,056
-167,096	636,620	0,028	0,052
-166,081	590,661	-0,099	0,178
-165,066	48,975	0,047	-0,032
-164,052	800,000	0,026	0,069
-163,037	-81,079	-0,105	0,025
-162,023	-2,516	0,090	0,046
-161,008	-56,003	0,052	-0,017
-159,993	186,120	0,038	0,042
-158,979	-68,418	-0,080	0,022
-157,964	141,481	-0,014	0,013
-156,950	-200,000	0,029	-0,164
-155,935	390,007	0,038	-0,057
-154,920	-40,409	0,027	-0,010
-153,906	128,666	0,048	-0,044
-152,891	-133,104	0,058	-0,005
-151,877	-137,431	0,064	0,005
-150,862	390,557	-0,051	0,077
-149,847	-200,000	0,040	0,147
-148,833	-96,086	0,040	0,008
-147,818	-74,352	0,076	-0,020
-146,804	237,618	0,021	0,026
-145,789	-200,000	-0,008	-0,029
-144,775	800,000	0,031	-0,091
-143,760	403,586	-0,098	-0,151
-142,745	-126,777	0,138	-0,015
-141,731	-200,000	0,013	-0,052
-140,716	10,359	-0,045	0,025
-139,702	317,407	0,032	-0,044
-138,687	127,679	0,091	0,084
-137,672	263,249	-0,063	-0,080
-136,658	213,262	-0,056	-0,065
-135,643	-163,208	-0,058	0,002
-134,629	476,966	0,021	0,034
-133,614	-26,567	0,110	-0,047
-132,599	27,736	0,102	-0,062
-131,585	-146,566	0,067	-0,004
-130,570	52,754	-0,149	0,104
-129,556	-65,289	-0,054	0,016
-128,541	-51,469	-0,132	-0,045
-127,526	-127,479	0,041	0,004
-126,512	-110,622	0,065	0,010
-125,497	95,361	0,058	0,048
-124,483	800,000	-0,018	-0,044
-123,468	800,000	-0,039	0,106
-122,453	363,858	-0,046	0,068
-121,439	56,749	0,008	-0,005
-120,424	104,218	-0,050	-0,043
-119,410	-200,000	0,018	-0,097
-118,395	342,030	-0,024	-0,035
-117,380	-130,515	0,059	0,006
-116,366	-22,250	0,028	-0,012
-115,351	93,344	-0,049	0,040
-114,337	107,349	-0,116	-0,100
-113,322	218,976	0,079	0,092
-112,307	-49,466	-0,061	-0,021
-111,293	353,616	0,048	0,069
-110,278	-200,000	-0,010	-0,108
-109,264	35,038	-0,029	-0,018
-108,249	800,000	-0,053	0,121
-107,234	85,832	-0,071	-0,057
-106,220	2,663	0,037	-0,019
-105,205	-176,586	-0,020	0,000
-104,191	577,185	0,042	-0,075
-103,176	34,997	0,096	0,061
-102,162	138,162	0,102	-0,097
-101,147	-65,502	-0,103	0,030
-100,132	-78,636	0,089	-0,022
-99,118	-200,000	0,003	-0,114
-98,103	18,903	0,117	-0,068
-97,089	-106,100	-0,056	0,009
-96,074	-88,565	-0,101	-0,022
-95,059	64,538	-0,054	-0,039
-94,045	-200,000	0,019	0,177
-93,030	242,258	0,043	-0,052
-92,016	800,000	-0,047	0,121
-91,001	-200,000	0,012	0,049
-89,986	-200,000	-0,007	0,107
-88,972	-200,000	-0,016	0,058
-87,957	194,678	-0,071	-0,078
-86,943	800,000	0,035	0,089
-85,928	-52,780	-0,065	-0,022
-84,913	-200,000	0,028	-0,216
-83,899	455,384	0,011	-0,019
-82,884	745,011	-0,056	0,110
-81,870	-200,000	-0,014	-0,058
-80,855	-200,000	-0,012	0,141
-79,840	-153,595	0,118	-0,006
-78,826	-200,000	-0,006	-0,022
-77,811	495,511	-0,033	0,055
-76,797	-20,013	-0,157	0,070
-75,782	13,972	0,045	-0,025
-74,767	-90,708	0,112	0,023
-73,753	110,787	0,082	0,072
-72,738	-200,000	-0,016	0,055
-71,724	178,402	-0,054	0,057
-70,709	-200,000	0,021	-0,070
-69,694	-32,394	0,128	0,051
-68,680	-5,757	0,074	-0,036
-67,665	-200,000	0,043	-0,178
-66,651	-88,365	-0,075	-0,016
-65,636	-200,000	0,002	-0,082
-64,622	800,000	-0,065	-0,158
-63,607	62,980	-0,060	-0,043
-62,592	171,361	-0,113	-0,118
-61,578	28,950	-0,113	0,070
-60,563	-121,036	0,141	0,017
-59,549	800,000	0,011	0,030
-58,534	-115,787	-1,232	-0,165
-57,519	364,414	-0,969	-1,419
-56,505	-200,000	-0,940	-4,508
-55,490	109,540	0,621	-0,540
-54,476	800,000	5,026	11,785
-53,461	-200,000	13,690	253,977
-52,446	-200,000	690,252	2261,761
-51,432	591,243	1622,555	2917,916
-50,417	119,363	1635,017	1468,442
-49,403	73,260	1288,900	977,302
-48,388	38,074	1024,414	659,952
-47,373	24,307	982,012	587,348
-46,359	23,592	971,650	578,784
-45,344	22,636	967,405	573,107
-44,330	22,531	965,935	571,870
-43,315	22,377	964,446	570,465
-42,300	22,398	963,458	569,925
-41,286	22,405	962,473	569,345
-40,271	22,373	961,600	568,701
-39,257	22,357	960,828	568,169
-38,242	22,365	959,835	567,587
-37,227	22,424	958,872	567,185
-36,213	22,331	957,990	566,341
-35,198	22,296	957,039	565,641
-34,184	22,403	956,467	565,626
-33,169	22,376	955,558	564,981
-32,154	22,462	954,681	564,716
-31,140	22,376	953,820	563,908
-30,125	22,336	953,136	563,351
-29,111	22,412	952,091	562,956
-28,096	22,441	951,327	562,578
-27,082	22,489	950,725	562,353
-26,067	22,406	950,136	561,716
-25,052	22,425	949,252	561,230
-24,038	22,383	948,812	560,814
-23,023	22,394	947,979	560,335
-22,009	22,436	947,334	560,066
-20,994	22,425	946,800	559,693
-19,979	22,468	946,087	559,386
-18,965	22,396	945,577	558,831
-17,950	22,448	944,935	558,598
-16,936	22,407	944,198	558,009
-15,921	22,390	943,514	557,526
-14,906	22,304	942,882	556,857
-13,892	22,360	942,045	556,521
-12,877	22,333	941,561	556,125
-11,863	22,326	940,868	555,672
-10,848	22,281	940,400	555,232
-9,833	22,407	939,994	555,369
-8,819	22,407	939,163	554,856
-7,804	22,349	938,624	554,331
-6,790	22,294	937,965	553,747
-5,775	22,319	937,483	553,519
-4,760	22,326	936,811	553,123
-3,746	22,355	936,265	552,870
-2,731	22,176	935,699	551,949
-1,717	22,151	934,890	551,371
-0,702	22,073	934,240	550,718
0,313	21,925	933,548	550,675
1,327	25,038	931,529	559,226
2,342	34,645	795,988	503,444
3,356	32,642	451,458	282,495
4,371	1,722	293,529	152,846
5,386	-2,771	274,478	138,665
6,400	-4,217	268,573	134,329
7,415	-4,803	266,205	132,594
8,429	-4,552	264,862	132,143
9,444	-4,633	264,150	131,702
10,459	-4,696	263,563	131,340
11,473	-4,580	262,834	131,071
12,488	-4,720	262,313	130,672
13,502	-4,740	261,698	130,336
14,517	-4,690	261,378	130,210
15,531	-4,671	260,955	130,005
16,546	-4,675	260,709	129,867
17,561	-4,679	260,336	129,666
18,575	-4,581	260,010	129,581
19,590	-4,795	259,692	129,219
20,604	-4,634	259,481	129,246
21,619	-4,714	259,158	129,002
22,634	-4,853	258,795	128,686
23,648	-4,785	258,464	128,571
24,663	-4,783	258,192	128,426
25,677	-4,540	257,761	128,416
26,692	-4,893	257,578	128,000
27,707	-4,650	257,376	128,104
28,721	-4,854	257,131	127,789
29,736	-4,980	257,130	127,666
30,750	-4,905	256,700	127,508
31,765	-4,889	256,302	127,313
32,780	-4,858	256,171	127,264
33,794	-4,738	255,911	127,228
34,809	-4,616	255,566	127,153
35,823	-4,825	255,361	126,856
36,838	-4,706	255,156	126,848
37,853	-4,825	255,000	126,654
38,867	-4,864	254,821	126,520
39,882	-4,864	254,612	126,404
40,896	-4,996	254,341	126,143
41,911	-4,845	254,044	126,117
42,926	-4,849	253,820	125,991
43,940	-5,035	253,564	125,690
44,955	-4,853	253,370	125,741
45,969	-4,836	253,041	125,582
46,984	-5,277	252,902	125,118
47,999	-5,417	252,602	124,836
49,013	-5,393	252,319	124,707
50,028	-5,639	252,253	124,449
51,042	-5,628	251,865	124,256
52,057	-5,698	251,652	124,080
53,071	-5,830	251,570	123,914
54,086	-5,390	251,273	124,136
55,101	-5,364	251,107	124,066
56,115	-5,220	251,181	124,216
57,130	-4,926	251,006	124,373
58,144	-4,604	250,642	124,458
59,159	-4,582	250,553	124,422
60,174	-4,750	250,448	124,214
61,188	-4,680	250,178	124,129
62,203	-4,578	249,916	124,076
63,217	-4,608	249,788	123,975
64,232	-4,620	249,568	123,844
65,247	-4,605	249,267	123,697
66,261	-4,571	249,001	123,583
67,276	-5,019	248,801	123,091
68,290	-5,059	248,628	122,959
69,305	-5,321	248,412	122,618
70,320	-5,229	248,201	122,581
71,334	-4,952	248,167	122,790
72,349	-4,731	248,037	122,903
73,363	-4,624	247,770	122,850
74,378	-4,394	247,494	122,898
75,393	-4,866	247,393	122,436
76,407	-4,827	247,249	122,387
77,422	-4,684	247,065	122,407
78,436	-4,610	246,698	122,276
79,451	-4,778	246,569	122,059
80,466	-4,765	246,276	121,914
81,480	-4,873	245,969	121,660
82,495	-4,971	245,916	121,541
83,509	-4,920	245,635	121,434
84,524	-5,010	245,468	121,265
85,539	-5,001	245,345	121,201
86,553	-5,142	245,010	120,906
87,568	-5,085	245,055	120,965
88,582	-5,004	244,775	120,884
89,597	-5,190	244,624	120,643
90,611	-4,881	244,513	120,836
91,626	-4,976	244,298	120,640
92,641	-4,740	243,899	120,629
93,655	-4,768	243,910	120,600
94,670	-4,723	243,653	120,500
95,684	-4,904	243,466	120,246
96,699	-4,942	243,312	120,127
97,714	-5,199	243,129	119,812
98,728	-5,183	242,981	119,742
99,743	-5,228	242,732	119,571
100,757	-5,260	242,518	119,428
101,772	-5,232	242,313	119,340
102,787	-5,159	242,249	119,358
103,801	-5,076	241,988	119,288
104,816	-4,967	241,910	119,329
105,830	-4,858	241,809	119,359
106,845	-4,805	241,559	119,269
107,860	-4,652	241,337	119,275
108,874	-4,859	241,027	118,941
109,889	-4,955	240,954	118,815
110,903	-5,060	240,867	118,675
111,918	-5,042	240,542	118,518
112,933	-4,821	240,420	118,630
113,947	-4,917	240,251	118,457
114,962	-4,809	240,151	118,485
115,976	-4,802	239,995	118,404
116,991	-4,859	239,724	118,214
118,006	-4,996	239,685	118,071
119,020	-4,898	239,500	118,050
120,035	-4,622	239,375	118,204
121,049	-4,684	239,221	118,066
122,064	-4,638	238,963	117,966
123,079	-4,838	238,791	117,707
124,093	-5,004	238,637	117,485
125,108	-5,149	238,354	117,217
126,122	-5,216	238,096	117,025
127,137	-5,249	237,898	116,891
128,151	-5,279	237,847	116,831
129,166	-4,970	237,646	116,973
130,181	-5,268	237,458	116,628
131,195	-5,320	237,208	116,452
132,210	-5,112	237,196	116,605
133,224	-4,685	237,018	116,853
134,239	-4,858	236,851	116,620
135,254	-4,725	236,592	116,590
136,268	-4,901	236,484	116,384
137,283	-5,095	236,233	116,094
138,297	-5,260	236,096	115,883
139,312	-5,354	235,872	115,687
140,327	-5,220	235,851	115,774
141,341	-4,560	235,833	116,286
142,356	-4,546	235,631	116,187
143,370	-4,480	235,340	116,086
144,385	-4,748	235,415	115,898
145,400	-4,397	235,106	116,017
146,414	-4,354	234,859	115,919
147,429	-4,577	234,849	115,726
148,443	-4,488	234,624	115,675
149,458	-4,936	234,594	115,292
150,473	-4,611	234,397	115,445
151,487	-4,574	233,994	115,266
152,502	-4,591	233,953	115,222
153,516	-4,436	233,815	115,266
154,531	-4,400	233,595	115,176
155,546	-4,500	233,464	115,022
156,560	-4,790	233,287	114,694
157,575	-4,726	233,088	114,637
158,589	-4,585	232,816	114,604
159,604	-4,557	232,790	114,604
160,619	-4,352	232,580	114,653
161,633	-4,375	232,474	114,572
162,648	-4,512	232,432	114,433
163,662	-4,394	232,272	114,437
164,677	-4,750	231,990	114,006
165,692	-4,540	231,697	114,018
166,706	-4,412	231,719	114,120
167,721	-4,582	231,468	113,852
168,735	-4,247	231,394	114,069
169,750	-4,488	231,281	113,814
170,764	-4,482	231,066	113,702
171,779	-4,540	230,981	113,605
172,794	-4,247	230,773	113,723
173,808	-4,472	230,562	113,432
174,823	-4,993	230,192	112,832
175,837	-5,253	230,068	112,558
176,852	-4,750	229,983	112,899
177,867	-4,628	230,031	113,008
178,881	-4,488	229,893	113,040
179,896	-4,303	229,702	113,080
180,910	-4,447	229,519	112,868
181,925	-4,389	229,311	112,801
182,940	-4,376	229,191	112,742
183,954	-4,402	229,037	112,636
184,969	-4,407	228,947	112,578
185,983	-4,433	228,841	112,495
186,998	-4,321	228,719	112,512
188,013	-4,333	228,445	112,358
189,027	-4,132	228,348	112,456
190,042	-4,187	228,077	112,270
191,056	-4,196	227,904	112,168
192,071	-4,082	227,757	112,173
193,086	-4,266	227,771	112,029
194,100	-4,275	227,487	111,872
195,115	-4,436	227,113	111,554
196,129	-4,918	227,163	111,196
197,144	-1,551	228,087	114,244
198,159	2,047	229,106	117,536
199,173	4,032	229,653	119,345
200,188	4,138	229,637	119,408
201,202	4,325	229,326	119,381
202,217	4,545	229,228	119,490
203,232	4,718	229,242	119,620
204,246	4,676	228,919	119,409
205,261	4,870	228,728	119,448
206,275	4,876	228,781	119,469
207,290	4,975	228,694	119,490
208,304	4,897	228,619	119,380
209,319	4,788	228,260	119,097
210,334	4,557	228,144	118,849
211,348	4,608	227,926	118,764
212,363	4,116	227,574	118,192
213,377	3,818	227,457	117,893
214,392	4,040	227,294	117,968
215,407	4,053	227,253	117,946
216,421	3,889	227,181	117,772
217,436	4,054	226,844	117,714
218,450	3,978	226,595	117,516
219,465	3,764	226,398	117,240
220,480	3,698	226,401	117,180
221,494	3,613	226,274	117,039
222,509	4,035	226,014	117,216
223,523	4,121	225,897	117,211
224,538	3,992	225,788	117,046
225,553	3,989	225,650	116,960
226,567	4,413	225,517	117,204
227,582	4,365	225,421	117,107
228,596	4,175	225,294	116,886
229,611	4,171	225,119	116,782
230,626	3,924	224,882	116,462
231,640	3,827	224,609	116,237
232,655	4,150	224,629	116,481
233,669	4,419	224,701	116,711
234,684	4,676	224,533	116,808
235,699	4,345	224,303	116,428
236,713	4,157	224,102	116,171
237,728	3,974	223,965	115,952
238,742	3,828	223,788	115,740
239,757	3,862	223,635	115,676
240,772	4,089	223,368	115,699
241,786	3,928	223,288	115,526
242,801	4,045	223,194	115,555
243,815	4,505	222,997	115,787
244,830	4,294	223,018	115,630
245,844	4,054	222,760	115,306
246,859	4,057	222,669	115,250
247,874	4,288	222,514	115,332
248,888	4,154	222,383	115,155
249,903	4,194	222,258	115,110
250,917	4,003	222,116	114,883
251,932	4,216	221,785	114,861
252,947	3,934	221,689	114,590
253,961	3,892	221,565	114,485
254,976	3,753	221,358	114,264
255,990	4,099	221,401	114,533
257,005	4,171	221,264	114,506
258,020	4,137	221,216	114,446
259,034	4,486	221,123	114,647
260,049	4,315	220,873	114,380
261,063	4,316	220,607	114,233
262,078	4,623	220,393	114,339
263,093	4,192	220,510	114,070
264,107	4,350	220,251	114,043
265,122	4,279	220,055	113,879
266,136	4,657	219,991	114,115
267,151	4,603	219,775	113,953
268,166	4,120	219,611	113,501
269,180	3,942	219,307	113,203
270,195	3,852	219,230	113,088
271,209	3,938	219,121	113,084
272,224	3,880	218,983	112,960
273,239	4,165	218,931	113,132
274,253	4,040	218,704	112,914
275,268	3,711	218,554	112,585
276,282	3,833	218,302	112,534
277,297	3,928	218,170	112,525
278,312	3,994	217,986	112,469
279,326	3,948	218,037	112,452
280,341	4,054	217,763	112,377
281,355	3,895	217,910	112,327
282,370	4,189	217,692	112,420
283,384	3,930	217,398	112,069
284,399	3,861	217,222	111,918
285,414	3,819	217,045	111,786
286,428	3,845	217,029	111,787
287,443	4,086	216,991	111,933
288,457	4,275	216,731	111,926
289,472	4,216	216,601	111,805
290,487	3,504	216,423	111,188
291,501	3,537	216,177	111,075
292,516	3,824	216,185	111,277
293,530	3,892	215,937	111,189
294,545	3,759	215,862	111,044
295,560	3,729	215,788	110,975
296,574	3,906	215,722	111,059
297,589	3,974	215,535	111,002
298,603	4,139	215,376	111,029
299,618	4,207	215,266	111,011
300,633	4,189	215,124	110,915
301,647	4,474	215,050	111,072
302,662	4,537	214,873	111,016
303,676	4,364	214,809	110,849
304,691	4,113	214,661	110,582
305,706	4,371	214,557	110,704
306,720	4,362	214,374	110,593
307,735	3,979	214,226	110,233
308,749	3,848	213,986	110,005
309,764	4,019	214,033	110,142
310,779	4,175	213,831	110,140
311,793	4,184	213,705	110,072
312,808	4,004	213,592	109,875
313,822	3,976	213,487	109,792
314,837	3,874	213,206	109,564
315,852	3,863	213,030	109,456
316,866	4,022	213,055	109,573
317,881	4,344	212,847	109,685
318,895	4,307	212,625	109,534
319,910	4,090	212,504	109,308
320,925	4,053	212,278	109,156
321,939	3,585	212,149	108,748
322,954	3,543	211,986	108,626
323,968	3,898	212,000	108,874
324,983	4,162	211,882	108,991
325,997	4,222	211,782	108,972
327,012	4,257	211,453	108,818
328,027	4,030	211,347	108,593
329,041	4,274	211,380	108,773
330,056	4,561	211,372	108,961
331,070	4,047	211,119	108,459
332,085	3,855	210,772	108,135
333,100	3,894	210,701	108,117
334,114	3,966	210,624	108,119
335,129	4,118	210,494	108,149
336,143	3,947	210,339	107,940
337,158	4,087	210,123	107,917
338,173	3,991	210,092	107,825
339,187	3,946	209,948	107,709
340,202	3,773	209,768	107,487
341,216	3,750	209,438	107,292
342,231	4,075	209,500	107,541
343,246	3,765	209,363	107,245
344,260	3,742	209,221	107,147
345,275	3,859	209,221	107,219
346,289	4,134	209,016	107,295
347,304	4,229	208,952	107,319
348,319	4,169	208,888	107,236
349,333	4,151	208,640	107,086
350,348	4,088	208,481	106,951
351,362	4,360	208,389	107,083
352,377	4,178	208,408	106,957
353,392	4,042	208,067	106,678
354,406	4,131	208,039	106,716
355,421	194,186	1344,642	1434,227
356,435	154,943	1483,219	1434,343
