DTS Sentinel unit serial number:	SN410029Multiplexer serial number:	ORYXHardware model number:	OX2-SRSoftware version number:	ORYX F/W v4,00 Oryx Data Collector v3.7.2.0data status	okinstallation	B6 Nyhavnadifferential loss correction	single-endedforward channel	channel 2reverse channel	N/Adate	2023/12/08time	08:30:08forward acquisition time	300,00reverse acquisition time	0,00gamma	499,1914k internal	0,3172k external	0,3172temperature offset calibration	1,0000default loss term (dB/km)	0,3820temperature slope calibration	1,0000multiplexer offset coefficient	1,0000multiplexer slope coefficient	1,0000fibre end	0,00T internal ref (°C)	11,67T ext. ref 1 (°C)	-2,38T ext. ref 2 (°C)	-2,34length (m)	temperature (°C)	Stokes	anti-Stokes-744,400	-37,267	0,215	0,084
-743,385	-121,634	-0,418	0,050
-742,371	140,516	0,069	-0,067
-741,356	-112,570	-0,415	0,060
-740,342	-200,000	0,027	0,175
-739,327	-72,966	-0,355	-0,095
-738,312	12,005	0,095	-0,053
-737,298	-156,650	-0,396	-0,018
-736,283	-44,959	0,118	-0,043
-735,269	-189,889	-0,459	0,004
-734,254	215,705	-0,006	-0,007
-733,239	10,170	-0,444	-0,247
-732,225	47,831	0,041	-0,028
-731,210	800,000	-0,036	-0,110
-730,196	800,000	0,034	-0,091
-729,181	71,912	0,060	0,046
-728,167	160,657	-0,060	-0,062
-727,152	-51,382	0,059	-0,020
-726,137	525,739	-0,032	-0,056
-725,123	367,151	-0,098	-0,146
-724,108	-61,051	-0,070	0,022
-723,094	-200,000	0,000	-0,036
-722,079	-129,216	-0,067	0,007
-721,064	-200,000	0,011	0,068
-720,050	-200,000	-0,017	-0,094
-719,035	56,714	0,073	-0,052
-718,021	-21,216	0,053	0,024
-717,006	-93,502	0,074	0,015
-715,991	-200,000	-0,026	-0,097
-714,977	-200,000	-0,009	-0,055
-713,962	235,465	0,021	0,025
-712,948	-100,027	-0,092	-0,017
-711,933	62,884	-0,099	0,072
-710,918	-113,128	-0,072	-0,010
-709,904	-10,609	-0,021	-0,010
-708,889	-75,434	-0,110	-0,029
-707,875	-200,000	-0,034	-0,185
-706,860	232,286	-0,092	-0,110
-705,845	-66,834	0,022	-0,006
-704,831	37,531	-0,102	0,066
-703,816	-171,423	-0,084	-0,002
-702,802	-200,000	-0,003	0,014
-701,787	-200,000	-0,002	-0,008
-700,772	-125,072	-0,050	-0,006
-699,758	800,000	0,029	-0,093
-698,743	303,592	0,059	-0,080
-697,729	-200,000	-0,018	0,119
-696,714	15,338	0,033	-0,019
-695,699	-200,000	-0,026	-0,090
-694,685	245,092	-0,030	-0,038
-693,670	282,687	-0,060	-0,080
-692,656	-0,675	-0,082	-0,042
-691,641	210,996	0,055	-0,064
-690,627	516,795	0,067	0,116
-689,612	-200,000	-0,027	-0,167
-688,597	-60,347	0,054	0,017
-687,583	-200,000	-0,036	-0,160
-686,568	-200,000	0,001	-0,069
-685,554	800,000	0,032	-0,090
-684,539	-148,015	0,110	-0,007
-683,524	57,526	-0,129	-0,092
-682,510	102,288	0,091	-0,078
-681,495	-9,292	-0,082	0,040
-680,481	52,469	0,146	0,102
-679,466	-200,000	0,035	-0,146
-678,451	-86,770	-0,089	0,020
-677,437	-200,000	-0,004	-0,081
-676,422	-168,528	0,044	0,001
-675,408	-27,297	0,084	-0,036
-674,393	112,918	-0,119	-0,106
-673,378	-200,000	-0,030	-0,145
-672,364	157,829	-0,016	-0,017
-671,349	-194,945	-0,106	0,001
-670,335	106,389	-0,066	0,057
-669,320	643,921	0,041	0,078
-668,305	-200,000	0,012	-0,142
-667,291	447,699	-0,042	0,068
-666,276	-11,579	0,044	-0,021
-665,262	147,113	0,048	-0,047
-664,247	135,396	0,034	0,033
-663,232	-71,968	-0,076	0,020
-662,218	645,711	0,046	0,087
-661,203	-56,339	0,109	0,035
-660,189	148,749	-0,094	0,093
-659,174	-200,000	0,021	-0,093
-658,159	105,498	-0,092	0,080
-657,145	-200,000	-0,001	-0,035
-656,130	-200,000	0,002	-0,099
-655,116	-51,821	0,149	-0,050
-654,101	-14,523	0,029	0,014
-653,086	800,000	0,007	-0,015
-652,072	-200,000	0,017	0,085
-651,057	800,000	-0,059	-0,125
-650,043	-176,101	0,133	0,003
-649,028	318,361	-0,052	-0,072
-648,014	472,114	0,063	0,105
-646,999	800,000	-0,031	0,088
-645,984	-66,771	0,135	-0,039
-644,970	800,000	-0,020	-0,043
-643,955	482,456	0,024	-0,041
-642,941	-10,203	-0,160	-0,077
-641,926	60,776	0,093	0,067
-640,911	-200,000	0,015	-0,076
-639,897	339,757	0,061	-0,088
-638,882	-110,195	-0,073	-0,011
-637,868	199,806	0,054	-0,061
-636,853	618,117	-0,033	0,060
-635,838	304,063	0,095	-0,129
-634,824	273,768	-0,048	0,062
-633,809	203,505	0,140	0,159
-632,795	358,717	0,048	0,071
-631,780	121,659	0,043	0,039
-630,765	-121,837	-0,115	0,014
-629,751	800,000	0,062	-0,130
-628,736	-200,000	0,013	-0,052
-627,722	-200,000	-0,005	-0,085
-626,707	-200,000	-0,052	0,168
-625,692	800,000	0,017	0,045
-624,678	-39,524	-0,127	0,048
-623,663	215,795	-0,027	0,031
-622,649	-200,000	0,016	-0,132
-621,634	-129,180	0,031	-0,003
-620,619	-18,174	-0,162	0,074
-619,605	-153,986	-0,045	0,002
-618,590	264,441	0,071	0,090
-617,576	292,072	-0,096	-0,128
-616,561	-115,607	-0,127	-0,017
-615,546	-200,000	0,015	-0,097
-614,532	-200,000	0,001	0,039
-613,517	-103,311	-0,128	-0,022
-612,503	-155,967	0,158	-0,007
-611,488	800,000	-0,044	0,106
-610,474	71,838	0,119	0,091
-609,459	-59,781	0,123	-0,038
-608,444	-200,000	-0,026	-0,110
-607,430	-51,228	-0,126	0,043
-606,415	-120,179	-0,079	-0,010
-605,401	130,347	0,119	0,112
-604,386	464,384	0,030	-0,050
-603,371	-200,000	0,015	0,108
-602,357	-34,970	-0,046	0,018
-601,342	239,014	-0,095	-0,116
-600,328	-200,000	-0,019	0,067
-599,313	285,685	-0,055	-0,072
-598,298	34,588	-0,104	0,066
-597,284	-88,493	0,102	-0,022
-596,269	157,493	-0,087	-0,088
-595,255	-200,000	-0,004	0,070
-594,240	-155,811	0,027	-0,001
-593,225	145,293	-0,068	0,066
-592,211	-200,000	-0,005	-0,072
-591,196	-60,990	0,028	-0,009
-590,182	-28,423	-0,114	-0,048
-589,167	-200,000	0,051	0,166
-588,152	121,427	-0,093	-0,084
-587,138	800,000	0,033	-0,086
-586,123	-21,921	-0,030	0,013
-585,109	72,023	-0,066	0,050
-584,094	-128,956	0,026	0,003
-583,079	-41,991	0,093	0,035
-582,065	-51,637	-0,067	-0,023
-581,050	-150,602	-0,054	0,003
-580,036	588,850	0,089	0,161
-579,021	800,000	0,042	-0,104
-578,006	202,652	0,011	0,013
-576,992	-35,177	0,083	-0,033
-575,977	43,037	0,125	0,083
-574,963	800,000	-0,029	0,064
-573,948	-200,000	-0,022	0,073
-572,934	-73,323	-0,094	-0,025
-571,919	-5,584	0,094	-0,047
-570,904	52,627	-0,035	0,024
-569,890	9,658	-0,068	0,037
-568,875	33,646	-0,039	0,025
-567,861	800,000	0,063	0,160
-566,846	-24,274	-0,088	-0,038
-565,831	-97,678	-0,062	-0,012
-564,817	38,800	0,179	-0,116
-563,802	-183,135	0,091	-0,001
-562,788	139,931	0,011	-0,010
-561,773	-118,774	-0,090	-0,011
-560,758	-29,800	0,042	-0,017
-559,744	385,836	0,086	-0,130
-558,729	-37,361	-0,052	0,020
-557,715	-200,000	-0,015	0,069
-556,700	-200,000	0,007	-0,093
-555,685	230,438	-0,102	-0,122
-554,671	800,000	0,039	-0,118
-553,656	-97,904	0,062	-0,012
-552,642	-149,113	-0,181	0,010
-551,627	800,000	-0,039	-0,085
-550,612	800,000	-0,046	-0,130
-549,598	800,000	-0,034	0,096
-548,583	129,349	0,027	0,025
-547,569	-7,254	0,081	-0,040
-546,554	204,585	0,060	0,068
-545,539	-200,000	-0,003	0,118
-544,525	149,668	-0,084	-0,083
-543,510	800,000	-0,040	0,102
-542,496	399,129	0,048	-0,073
-541,481	-200,000	0,020	-0,068
-540,466	-75,453	-0,005	-0,001
-539,452	-74,199	-0,126	0,033
-538,437	150,099	0,026	-0,026
-537,423	2,255	-0,112	-0,059
-536,408	-111,298	0,017	-0,002
-535,393	6,100	-0,054	0,029
-534,379	445,587	-0,075	0,121
-533,364	622,897	-0,073	-0,134
-532,350	402,122	-0,016	0,024
-531,335	543,882	0,014	0,025
-530,321	218,722	0,104	0,121
-529,306	2,544	-0,050	0,026
-528,291	-1,536	0,075	-0,038
-527,277	-2,819	-0,053	0,027
-526,262	-200,000	0,038	0,137
-525,248	417,468	0,097	0,151
-524,233	800,000	-0,033	0,095
-523,218	-200,000	-0,015	0,183
-522,204	51,361	0,112	0,077
-521,189	-200,000	-0,014	-0,105
-520,175	800,000	-0,048	0,115
-519,160	-14,284	-0,068	-0,032
-518,145	15,788	0,107	-0,061
-517,131	800,000	0,035	0,086
-516,116	-3,650	0,082	-0,041
-515,102	-89,718	0,090	-0,019
-514,087	-30,520	-0,086	0,035
-513,072	-200,000	-0,011	-0,066
-512,058	-47,174	0,156	-0,055
-511,043	458,859	0,055	0,089
-510,029	93,056	-0,165	-0,136
-509,014	262,841	-0,017	-0,021
-507,999	-200,000	-0,044	-0,147
-506,985	-48,361	-0,069	-0,024
-505,970	216,999	-0,056	-0,065
-504,956	428,909	-0,104	-0,165
-503,941	-55,182	0,058	-0,019
-502,926	-200,000	0,024	-0,092
-501,912	800,000	-0,044	-0,092
-500,897	-200,000	-0,011	0,064
-499,883	128,556	0,039	-0,036
-498,868	-157,373	-0,102	-0,004
-497,853	-200,000	0,002	-0,028
-496,839	21,691	0,091	-0,054
-495,824	395,184	-0,065	0,099
-494,810	-128,304	0,101	-0,010
-493,795	-35,241	0,044	0,017
-492,781	-32,944	-0,084	-0,034
-491,766	-200,000	0,032	-0,156
-490,751	239,931	0,053	-0,065
-489,737	-200,000	-0,001	-0,042
-488,722	-34,079	0,060	0,024
-487,708	759,521	-0,042	-0,083
-486,693	800,000	-0,027	-0,069
-485,678	177,907	0,126	0,133
-484,664	-200,000	-0,015	-0,051
-483,649	718,867	-0,062	0,120
-482,635	378,876	-0,035	-0,052
-481,620	-42,387	0,121	-0,044
-480,605	-24,719	0,082	0,035
-479,591	-2,794	-0,070	-0,035
-478,576	-200,000	0,006	-0,097
-477,562	-200,000	-0,022	-0,204
-476,547	-9,173	0,059	0,029
-475,532	800,000	0,016	-0,051
-474,518	-90,943	0,053	0,011
-473,503	-82,103	0,101	0,024
-472,489	-152,940	0,157	0,008
-471,474	-48,409	-0,160	-0,056
-470,459	256,943	-0,092	-0,115
-469,445	-200,000	-0,008	-0,070
-468,430	-200,000	0,024	-0,082
-467,416	-200,000	0,025	0,101
-466,401	446,753	-0,053	0,085
-465,386	-200,000	-0,004	-0,068
-464,372	-200,000	-0,019	-0,115
-463,357	138,450	-0,079	0,075
-462,343	-200,000	-0,017	-0,084
-461,328	-59,569	-0,046	-0,014
-460,313	-200,000	0,002	-0,046
-459,299	-1,097	0,009	-0,005
-458,284	148,254	0,153	0,150
-457,270	-200,000	-0,016	0,121
-456,255	-64,085	0,074	0,022
-455,241	-200,000	-0,039	-0,142
-454,226	-159,732	0,067	0,003
-453,211	-200,000	-0,003	0,067
-452,197	-157,644	0,189	0,008
-451,182	-199,135	0,093	0,000
-450,168	800,000	-0,015	-0,036
-449,153	-200,000	0,017	0,095
-448,138	2,724	-0,150	-0,079
-447,124	265,952	0,071	-0,090
-446,109	145,380	0,118	0,115
-445,095	-200,000	0,042	0,183
-444,080	14,893	0,141	0,080
-443,065	-200,000	0,009	-0,131
-442,051	-200,000	-0,015	-0,066
-441,036	-200,000	0,019	0,157
-440,022	-200,000	-0,008	-0,068
-439,007	-161,449	-0,133	0,005
-437,992	72,017	-0,034	0,025
-436,978	800,000	0,058	-0,154
-435,963	158,007	0,092	0,093
-434,949	-101,856	-0,082	0,014
-433,934	48,165	-0,135	-0,091
-432,919	-61,809	-0,189	-0,057
-431,905	-200,000	0,006	-0,022
-430,890	16,608	0,101	0,058
-429,876	-200,000	0,003	-0,108
-428,861	-115,562	0,085	-0,011
-427,846	138,254	-0,023	0,022
-426,832	-200,000	0,004	-0,021
-425,817	181,620	-0,030	-0,032
-424,803	-200,000	0,012	0,112
-423,788	-96,606	0,061	-0,012
-422,773	-200,000	0,010	0,040
-421,759	97,869	-0,018	0,015
-420,744	-73,763	0,091	0,024
-419,730	472,372	-0,054	0,089
-418,715	-200,000	0,010	0,047
-417,701	-200,000	0,014	-0,059
-416,686	264,862	0,015	0,019
-415,671	-125,991	0,050	-0,005
-414,657	-17,675	-0,056	0,025
-413,642	-200,000	0,003	0,049
-412,628	-25,138	-0,150	0,064
-411,613	-134,605	-0,125	-0,011
-410,598	-200,000	0,006	-0,059
-409,584	-200,000	0,097	0,000
-408,569	31,599	0,023	0,014
-407,555	-200,000	-0,026	-0,098
-406,540	-30,742	-0,066	0,027
-405,525	-81,777	-0,074	0,017
-404,511	-19,217	-0,111	-0,050
-403,496	-56,016	-0,163	-0,052
-402,482	-10,613	-0,077	0,037
-401,467	70,499	0,090	0,067
-400,452	-129,306	0,044	-0,004
-399,438	-18,730	0,190	0,085
-398,423	-50,665	-0,091	-0,031
-397,409	800,000	-0,023	-0,064
-396,394	246,757	-0,030	-0,036
-395,379	-97,411	0,096	-0,018
-394,365	43,881	0,073	0,048
-393,350	37,183	0,068	-0,043
-392,336	726,440	0,028	0,055
-391,321	-25,077	0,012	0,005
-390,306	800,000	-0,018	-0,053
-389,292	172,657	0,059	-0,061
-388,277	800,000	0,030	-0,066
-387,263	-200,000	0,005	0,044
-386,248	800,000	0,036	0,115
-385,233	-200,000	-0,016	-0,069
-384,219	-131,090	-0,107	-0,010
-383,204	-119,655	0,091	-0,011
-382,190	-200,000	0,005	-0,103
-381,175	143,427	-0,037	-0,035
-380,160	641,107	-0,083	-0,154
-379,146	-200,000	0,008	0,064
-378,131	800,000	0,044	0,127
-377,117	19,423	-0,131	0,076
-376,102	-66,180	0,064	0,018
-375,088	82,889	-0,016	-0,012
-374,073	-116,438	-0,143	-0,019
-373,058	-23,015	0,148	-0,064
-372,044	228,410	-0,102	0,121
-371,029	-39,885	0,060	-0,023
-370,015	117,239	-0,033	-0,029
-369,000	471,061	0,051	0,084
-367,985	-87,278	-0,145	-0,032
-366,971	-115,557	0,071	0,010
-365,956	800,000	0,055	0,132
-364,942	-84,349	-0,099	-0,022
-363,927	-200,000	0,002	-0,070
-362,912	-200,000	-0,002	-0,070
-361,898	67,202	0,092	-0,068
-360,883	800,000	0,010	0,024
-359,869	48,938	0,108	-0,073
-358,854	-68,763	0,087	-0,024
-357,839	363,698	0,095	0,138
-356,825	-127,715	-0,034	0,003
-355,810	800,000	0,029	0,065
-354,796	-84,408	-0,035	-0,008
-353,781	-11,313	-0,042	-0,020
-352,766	-200,000	-0,031	-0,100
-351,752	-106,431	-0,063	-0,010
-350,737	-200,000	0,028	-0,188
-349,723	800,000	-0,009	-0,024
-348,708	-200,000	0,006	0,030
-347,693	-117,226	-0,071	0,009
-346,679	-42,840	-0,028	-0,010
-345,664	-52,412	0,031	0,010
-344,650	-200,000	0,002	-0,017
-343,635	179,986	-0,071	0,076
-342,620	-46,652	0,061	0,022
-341,606	-52,962	0,048	0,016
-340,591	-200,000	-0,021	-0,109
-339,577	345,779	0,090	-0,128
-338,562	-155,942	0,056	0,003
-337,548	56,917	-0,029	-0,020
-336,533	-12,987	-0,022	0,010
-335,518	56,535	0,038	0,026
-334,504	-38,368	0,122	-0,046
-333,489	-35,003	0,070	0,027
-332,475	800,000	0,033	-0,098
-331,460	88,237	0,061	-0,049
-330,445	-200,000	0,018	-0,070
-329,431	800,000	0,033	0,068
-328,416	388,898	0,043	0,065
-327,402	-108,156	-0,115	0,018
-326,387	748,488	0,069	0,135
-325,372	-200,000	-0,021	-0,103
-324,358	276,622	-0,082	-0,106
-323,343	800,000	-0,019	-0,059
-322,329	-10,699	0,032	0,015
-321,314	193,466	0,080	0,088
-320,299	-200,000	0,016	0,134
-319,285	-104,415	-0,045	-0,007
-318,270	800,000	0,040	-0,084
-317,256	337,142	-0,032	0,045
-316,241	510,474	-0,028	-0,047
-315,226	-200,000	-0,004	0,040
-314,212	192,226	0,092	0,101
-313,197	518,362	0,093	0,158
-312,183	106,432	-0,087	-0,074
-311,168	-200,000	0,018	-0,115
-310,153	-165,263	0,112	0,003
-309,139	-21,441	-0,108	-0,047
-308,124	-200,000	0,000	0,093
-307,110	-200,000	0,014	0,137
-306,095	-200,000	0,009	0,106
-305,080	206,865	0,063	-0,071
-304,066	505,621	0,029	0,048
-303,051	605,043	-0,101	-0,182
-302,037	-87,924	-0,058	-0,012
-301,022	-200,000	0,006	-0,042
-300,008	509,251	-0,047	0,079
-298,993	-200,000	-0,037	0,170
-297,978	40,084	0,026	0,017
-296,964	-61,112	-0,089	0,027
-295,949	800,000	0,052	0,114
-294,935	155,755	-0,043	0,043
-293,920	-157,465	-0,027	-0,001
-292,905	133,363	-0,058	0,054
-291,891	-200,000	0,027	0,143
-290,876	57,750	0,093	-0,065
-289,862	-131,860	-0,150	0,014
-288,847	42,155	-0,052	-0,034
-287,832	-200,000	-0,061	-0,194
-286,818	9,321	-0,075	0,041
-285,803	-59,149	0,164	0,051
-284,789	-64,013	0,067	0,020
-283,774	-1,387	0,038	-0,020
-282,759	800,000	0,030	0,067
-281,745	-200,000	0,007	0,036
-280,730	-59,848	0,129	-0,040
-279,716	-70,534	0,148	0,040
-278,701	800,000	0,038	0,084
-277,686	492,603	0,030	-0,050
-276,672	-126,370	0,108	-0,011
-275,657	-28,771	-0,004	0,002
-274,643	549,492	-0,055	-0,095
-273,628	-125,230	-0,033	-0,004
-272,613	-115,054	-0,083	0,011
-271,599	-48,852	0,129	0,044
-270,584	-67,884	-0,045	0,013
-269,570	522,701	0,040	0,068
-268,555	55,864	-0,079	0,055
-267,540	142,799	-0,014	0,013
-266,526	-200,000	-0,021	-0,112
-265,511	-126,050	-0,113	-0,012
-264,497	270,720	-0,027	0,035
-263,482	-200,000	0,002	0,022
-262,467	159,937	0,103	-0,103
-261,453	344,951	-0,016	-0,023
-260,438	-116,877	-0,095	0,012
-259,424	228,035	-0,032	-0,038
-258,409	-91,116	0,089	-0,018
-257,395	-200,000	0,029	0,183
-256,380	-200,000	0,028	0,125
-255,365	-155,826	0,035	-0,002
-254,351	81,774	-0,069	0,054
-253,336	-106,119	-0,063	-0,010
-252,322	-200,000	-0,040	-0,184
-251,307	-200,000	-0,030	-0,098
-250,292	-200,000	0,021	0,110
-249,278	-133,989	-0,150	0,013
-248,263	-181,635	0,169	0,002
-247,249	800,000	-0,013	0,042
-246,234	800,000	0,042	0,108
-245,219	-70,611	-0,066	-0,018
-244,205	800,000	-0,014	0,041
-243,190	237,545	-0,050	-0,060
-242,176	62,056	0,057	0,041
-241,161	129,178	0,089	0,082
-240,146	5,058	0,052	0,027
-239,132	29,040	0,058	-0,036
-238,117	-171,968	-0,181	0,004
-237,103	-200,000	0,015	-0,135
-236,088	249,830	0,066	0,081
-235,073	65,000	0,011	-0,008
-234,059	-3,301	-0,126	0,063
-233,044	238,604	-0,077	0,093
-232,030	360,438	-0,008	0,011
-231,015	46,744	-0,032	0,021
-230,000	-46,307	0,046	-0,016
-228,986	-200,000	-0,005	-0,039
-227,971	-200,000	-0,029	0,246
-226,957	243,091	0,050	0,060
-225,942	257,145	-0,079	0,098
-224,927	253,231	0,102	0,125
-223,913	-200,000	0,014	0,063
-222,898	800,000	0,026	0,057
-221,884	-59,418	0,010	-0,003
-220,869	-103,395	0,060	-0,010
-219,855	-200,000	0,022	0,085
-218,840	-200,000	-0,041	0,210
-217,825	-103,870	0,055	0,009
-216,811	800,000	0,035	-0,105
-215,796	103,377	-0,080	-0,068
-214,782	717,525	0,008	0,015
-213,767	-13,744	0,115	-0,053
-212,752	90,756	0,039	-0,031
-211,738	-200,000	0,021	0,070
-210,723	-112,607	0,072	0,010
-209,709	-155,272	-0,112	-0,005
-208,694	800,000	0,030	-0,084
-207,679	-86,043	0,063	-0,014
-206,665	124,853	0,042	0,038
-205,650	78,534	0,085	-0,066
-204,636	410,709	0,035	0,054
-203,621	-77,242	-0,129	0,032
-202,606	45,390	-0,115	-0,076
-201,592	58,339	0,030	-0,021
-200,577	800,000	-0,037	0,074
-199,563	-96,971	0,084	0,016
-198,548	88,569	-0,074	0,059
-197,533	171,551	0,036	0,037
-196,519	660,832	-0,078	0,145
-195,504	17,659	-0,054	0,031
-194,490	-200,000	-0,021	-0,153
-193,475	-186,399	-0,062	-0,001
-192,460	22,953	-0,016	-0,010
-191,446	299,783	0,048	0,063
-190,431	-200,000	-0,027	-0,101
-189,417	-168,682	-0,076	-0,002
-188,402	474,038	0,041	-0,066
-187,387	800,000	-0,044	-0,111
-186,373	230,396	-0,080	0,094
-185,358	7,636	0,098	-0,052
-184,344	-200,000	0,029	-0,169
-183,329	-143,511	0,108	-0,007
-182,315	708,779	0,079	0,151
-181,300	268,252	-0,019	-0,024
-180,285	108,608	-0,026	-0,022
-179,271	-200,000	-0,019	-0,100
-178,256	-83,669	0,026	-0,006
-177,242	800,000	0,037	-0,079
-176,227	-200,000	0,003	-0,022
-175,212	-200,000	0,002	-0,035
-174,198	-38,205	-0,095	-0,036
-173,183	27,987	-0,103	-0,062
-172,169	61,256	-0,059	-0,042
-171,154	80,495	0,044	-0,034
-170,139	39,681	0,074	-0,047
-169,125	-200,000	-0,003	-0,015
-168,110	520,748	-0,033	0,055
-167,096	-200,000	-0,047	0,154
-166,081	800,000	0,028	0,067
-165,066	-89,324	-0,090	-0,019
-164,052	73,986	-0,089	-0,067
-163,037	-79,330	0,093	0,022
-162,023	601,659	-0,013	0,022
-161,008	-6,991	-0,142	-0,069
-159,993	-22,898	0,064	0,028
-158,979	215,762	-0,043	0,049
-157,964	-163,293	-0,129	0,004
-156,950	-200,000	-0,032	-0,178
-155,935	256,855	-0,024	-0,030
-154,920	65,793	0,073	-0,053
-153,906	800,000	0,039	0,097
-152,891	-70,500	-0,063	0,017
-151,877	-19,870	-0,074	0,033
-150,862	800,000	0,078	-0,190
-149,847	800,000	0,066	-0,132
-148,833	544,911	-0,011	0,019
-147,818	161,269	0,099	0,100
-146,804	-173,742	-0,143	-0,003
-145,789	-81,052	0,105	-0,025
-144,775	91,488	-0,034	0,028
-143,760	67,545	-0,061	0,045
-142,745	321,118	-0,039	-0,054
-141,731	29,019	-0,028	-0,017
-140,716	22,175	0,162	-0,095
-139,702	-75,274	-0,147	-0,037
-138,687	218,671	0,086	0,099
-137,672	-95,533	-0,154	0,029
-136,658	-200,000	0,037	-0,150
-135,643	-200,000	-0,046	-0,212
-134,629	-13,011	0,064	-0,030
-133,614	130,044	0,081	-0,074
-132,599	-180,964	0,098	-0,001
-131,585	-68,617	0,202	0,056
-130,570	-84,852	-0,073	-0,016
-129,556	51,617	-0,088	-0,060
-128,541	93,922	-0,118	0,096
-127,526	83,256	0,059	-0,046
-126,512	21,053	-0,024	-0,014
-125,497	-200,000	0,019	0,172
-124,483	800,000	0,048	0,134
-123,468	243,367	-0,072	-0,086
-122,453	415,713	-0,052	0,079
-121,439	-17,573	-0,049	0,022
-120,424	54,105	-0,081	-0,056
-119,410	800,000	-0,013	0,040
-118,395	23,224	0,103	0,060
-117,380	-40,564	-0,027	-0,010
-116,366	-200,000	-0,093	-0,000
-115,351	249,486	-0,064	-0,077
-114,337	497,917	-0,039	0,065
-113,322	104,123	0,137	0,116
-112,307	-200,000	0,005	-0,035
-111,293	-34,932	0,071	0,028
-110,278	-127,242	-0,147	-0,015
-109,264	276,588	0,039	-0,050
-108,249	72,057	0,121	-0,090
-107,234	773,141	-0,028	-0,055
-106,220	207,716	0,016	0,018
-105,205	-113,360	0,160	-0,022
-104,191	-200,000	0,000	0,150
-103,176	-200,000	0,017	0,061
-102,162	-73,527	0,080	-0,021
-101,147	-200,000	-0,014	-0,053
-100,132	-11,360	0,050	0,023
-99,118	21,840	0,059	0,034
-98,103	-137,208	-0,056	-0,005
-97,089	38,649	0,037	0,024
-96,074	191,223	-0,106	0,114
-95,059	-200,000	-0,012	-0,059
-94,045	800,000	-0,004	-0,012
-93,030	84,103	0,050	-0,039
-92,016	-67,774	-0,108	0,030
-91,001	80,228	-0,155	-0,120
-89,986	-35,592	0,023	0,009
-88,972	164,525	-0,031	-0,031
-87,957	337,064	0,055	0,077
-86,943	799,458	-0,047	0,093
-85,928	288,462	-0,075	-0,098
-84,913	71,740	0,056	-0,042
-83,899	-200,000	-0,021	-0,077
-82,884	-200,000	-0,010	0,043
-81,870	800,000	0,074	0,182
-80,855	-200,000	0,047	0,192
-79,840	117,050	-0,096	-0,084
-78,826	-24,411	-0,063	-0,027
-77,811	800,000	-0,021	0,044
-76,797	-200,000	0,011	-0,097
-75,782	176,932	0,062	0,064
-74,767	428,492	0,008	-0,013
-73,753	-200,000	-0,016	-0,138
-72,738	800,000	-0,025	0,071
-71,724	-12,534	-0,214	0,099
-70,709	-24,959	-0,090	0,038
-69,694	800,000	0,023	0,073
-68,680	491,397	-0,064	0,105
-67,665	22,345	-0,153	0,089
-66,651	800,000	0,055	0,126
-65,636	244,368	0,038	0,046
-64,622	437,573	-0,052	-0,081
-63,607	-129,969	-0,044	0,004
-62,592	294,430	-0,096	0,125
-61,578	-145,201	0,051	0,003
-60,563	-31,339	0,127	0,051
-59,549	239,618	-0,076	0,091
-58,534	76,809	-2,325	-1,762
-57,519	800,000	0,208	-0,498
-56,505	-200,000	-1,553	-5,282
-55,490	103,677	1,082	0,908
-54,476	800,000	5,493	12,246
-53,461	-200,000	19,953	327,538
-52,446	800,000	751,604	2310,982
-51,432	536,476	1659,182	2825,092
-50,417	115,479	1634,274	1426,825
-49,403	83,027	1282,200	995,765
-48,388	30,731	1023,268	624,344
-47,373	19,144	986,404	563,886
-46,359	15,539	974,257	545,171
-45,344	12,219	970,676	532,326
-44,330	12,544	969,133	532,517
-43,315	11,849	966,902	529,013
-42,300	11,756	965,949	528,167
-41,286	11,754	965,122	527,689
-40,271	11,675	964,082	526,841
-39,257	11,683	963,277	526,408
-38,242	11,643	962,406	525,780
-37,227	11,692	961,503	525,425
-36,213	11,681	960,741	524,953
-35,198	11,642	959,764	524,273
-34,184	11,711	958,823	523,959
-33,169	11,647	958,220	523,404
-32,154	11,751	957,038	523,072
-31,140	11,702	956,358	522,521
-30,125	11,746	955,453	522,147
-29,111	11,708	954,737	521,613
-28,096	11,733	954,075	521,311
-27,082	11,674	953,491	520,783
-26,067	11,721	952,687	520,473
-25,052	11,686	951,984	519,956
-24,038	11,699	951,128	519,510
-23,023	11,649	950,576	519,027
-22,009	11,702	949,997	518,861
-20,994	11,691	949,519	518,542
-19,979	11,737	948,810	518,284
-18,965	11,702	948,232	517,833
-17,950	11,723	947,636	517,554
-16,936	11,663	946,872	516,929
-15,921	11,649	946,226	516,507
-14,906	11,608	945,460	515,941
-13,892	11,644	944,742	515,644
-12,877	11,517	944,444	515,057
-11,863	11,565	943,499	514,674
-10,848	11,639	942,968	514,596
-9,833	11,707	942,434	514,501
-8,819	11,680	941,750	514,022
-7,804	11,575	941,147	513,340
-6,790	11,549	940,797	513,045
-5,775	11,661	940,185	513,047
-4,760	11,615	939,641	512,583
-3,746	11,678	938,857	512,334
-2,731	11,474	938,081	511,247
-1,717	11,414	937,508	510,726
-0,702	11,460	936,779	510,453
0,313	11,246	936,255	510,266
1,327	15,330	934,291	521,960
2,342	25,439	784,169	464,482
3,356	22,434	440,473	256,483
4,371	-6,656	296,017	143,336
5,386	-10,444	278,166	131,091
6,400	-11,477	272,186	127,303
7,415	-11,539	269,927	126,178
8,429	-11,909	268,349	125,091
9,444	-11,950	267,472	124,633
10,459	-11,947	266,606	124,222
11,473	-12,162	265,934	123,702
12,488	-12,111	265,346	123,464
13,502	-12,272	264,887	123,095
14,517	-12,347	264,375	122,778
15,531	-12,327	263,690	122,467
16,546	-12,719	263,702	122,109
17,561	-12,508	263,031	121,977
18,575	-12,235	262,848	122,125
19,590	-12,631	262,412	121,557
20,604	-12,470	262,162	121,575
21,619	-12,534	261,842	121,359
22,634	-12,795	261,539	120,975
23,648	-12,685	261,011	120,818
24,663	-12,643	260,900	120,793
25,677	-12,559	260,594	120,715
26,692	-12,889	260,479	120,358
27,707	-12,605	260,053	120,402
28,721	-12,662	259,825	120,236
29,736	-12,676	259,410	120,020
30,750	-12,782	259,331	119,879
31,765	-12,699	258,952	119,767
32,780	-12,656	258,801	119,724
33,794	-12,686	258,504	119,549
34,809	-12,885	258,422	119,326
35,823	-12,710	257,968	119,259
36,838	-12,750	257,746	119,111
37,853	-12,818	257,461	118,909
38,867	-12,808	257,322	118,843
39,882	-12,847	257,126	118,708
40,896	-12,900	256,851	118,525
41,911	-12,691	256,596	118,578
42,926	-12,751	256,378	118,414
43,940	-13,030	256,251	118,102
44,955	-12,918	255,956	118,053
45,969	-12,952	255,598	117,848
46,984	-13,282	255,460	117,488
47,999	-13,408	255,045	117,177
49,013	-13,429	254,906	117,084
50,028	-13,567	254,464	116,752
51,042	-13,654	254,432	116,651
52,057	-13,457	254,075	116,647
53,071	-13,638	253,939	116,418
54,086	-13,582	253,739	116,365
55,101	-13,513	253,667	116,380
56,115	-13,191	253,396	116,523
57,130	-12,745	253,419	116,907
58,144	-12,350	253,264	117,164
59,159	-12,641	253,055	116,807
60,174	-12,295	252,771	116,963
61,188	-12,344	252,547	116,807
62,203	-12,612	252,325	116,464
63,217	-12,581	252,237	116,439
64,232	-12,515	251,885	116,323
65,247	-12,536	251,780	116,246
66,261	-12,504	251,417	116,096
67,276	-12,848	251,196	115,690
68,290	-12,990	250,849	115,399
69,305	-13,074	250,534	115,173
70,320	-13,028	250,391	115,136
71,334	-12,860	250,364	115,256
72,349	-12,550	250,304	115,481
73,363	-12,397	250,052	115,484
74,378	-12,311	249,747	115,405
75,393	-12,605	249,657	115,105
76,407	-12,641	249,380	114,936
77,422	-12,687	249,297	114,850
78,436	-12,482	249,014	114,881
79,451	-12,612	248,695	114,615
80,466	-12,575	248,421	114,509
81,480	-12,929	248,296	114,144
82,495	-13,071	247,985	113,871
83,509	-12,718	247,678	114,016
84,524	-12,930	247,501	113,747
85,539	-13,335	247,403	113,352
86,553	-13,130	247,195	113,418
87,568	-12,981	246,982	113,435
88,582	-12,949	246,726	113,334
89,597	-12,872	246,575	113,319
90,611	-12,803	246,469	113,318
91,626	-12,804	246,340	113,247
92,641	-12,572	246,173	113,354
93,655	-12,803	245,963	113,055
94,670	-12,713	245,498	112,906
95,684	-12,807	245,451	112,797
96,699	-12,578	245,233	112,876
97,714	-12,726	245,027	112,648
98,728	-13,063	244,867	112,286
99,743	-13,151	244,763	112,155
100,757	-13,209	244,512	111,982
101,772	-13,075	244,480	112,069
102,787	-12,935	244,059	111,980
103,801	-12,931	244,083	111,985
104,816	-12,916	243,887	111,898
105,830	-12,776	243,739	111,936
106,845	-12,659	243,666	111,988
107,860	-12,717	243,460	111,835
108,874	-12,738	243,041	111,616
109,889	-12,836	242,989	111,501
110,903	-12,882	242,605	111,278
111,918	-12,793	242,636	111,355
112,933	-12,812	242,387	111,215
113,947	-12,631	242,269	111,299
114,962	-12,701	242,074	111,143
115,976	-12,621	241,842	111,091
116,991	-12,594	241,580	110,983
118,006	-12,744	241,622	110,870
119,020	-12,458	241,460	111,019
120,035	-12,423	241,159	110,900
121,049	-12,508	241,140	110,811
122,064	-12,627	240,807	110,552
123,079	-12,595	240,578	110,463
124,093	-12,810	240,567	110,273
125,108	-13,028	240,333	109,979
126,122	-12,928	239,885	109,846
127,137	-13,381	239,812	109,436
128,151	-13,201	239,649	109,497
129,166	-13,103	239,535	109,515
130,181	-13,115	239,290	109,383
131,195	-12,976	239,035	109,369
132,210	-13,108	238,984	109,229
133,224	-12,755	238,871	109,453
134,239	-12,583	238,631	109,471
135,254	-12,703	238,534	109,320
136,268	-12,728	238,227	109,150
137,283	-13,222	237,995	108,638
138,297	-13,296	237,767	108,464
139,312	-13,168	237,599	108,481
140,327	-12,886	237,632	108,712
141,341	-12,215	237,552	109,203
142,356	-12,006	237,257	109,224
143,370	-12,180	237,142	109,023
144,385	-12,251	237,032	108,906
145,400	-12,371	236,855	108,719
146,414	-12,389	236,704	108,626
147,429	-12,415	236,476	108,491
148,443	-12,412	236,264	108,386
149,458	-12,353	236,120	108,357
150,473	-12,353	236,019	108,301
151,487	-12,358	235,790	108,182
152,502	-12,325	235,586	108,105
153,516	-12,291	235,382	108,029
154,531	-12,278	235,335	108,008
155,546	-12,379	235,073	107,799
156,560	-12,425	234,957	107,699
157,575	-12,373	234,551	107,545
158,589	-12,377	234,381	107,454
159,604	-12,291	234,551	107,590
160,619	-12,022	234,270	107,664
161,633	-12,203	234,158	107,460
162,648	-12,206	234,041	107,395
163,662	-12,356	233,797	107,155
164,677	-12,385	233,643	107,052
165,692	-12,134	233,411	107,133
166,706	-12,277	233,377	106,996
167,721	-12,119	233,357	107,101
168,735	-12,183	233,068	106,908
169,750	-12,084	232,928	106,913
170,764	-12,255	232,677	106,654
171,779	-12,095	232,655	106,759
172,794	-12,024	232,372	106,675
173,808	-12,280	232,209	106,392
174,823	-12,882	231,857	105,752
175,837	-12,952	231,885	105,701
176,852	-12,397	231,655	106,018
177,867	-12,295	231,613	106,069
178,881	-12,142	231,613	106,179
179,896	-11,985	231,219	106,110
180,910	-12,067	231,217	106,036
181,925	-11,969	230,863	105,941
182,940	-12,147	230,945	105,830
183,954	-12,005	230,790	105,860
184,969	-11,998	230,544	105,743
185,983	-11,847	230,348	105,761
186,998	-11,948	230,198	105,605
188,013	-12,111	230,210	105,475
189,027	-12,069	230,046	105,423
190,042	-11,921	229,796	105,413
191,056	-11,966	229,600	105,278
192,071	-11,904	229,467	105,256
193,086	-12,092	229,456	105,097
194,100	-11,630	229,253	105,350
195,115	-11,666	228,992	105,192
196,129	-10,750	229,480	106,112
197,144	-5,517	231,245	110,971
198,159	-0,346	232,619	115,637
199,173	2,434	233,199	118,075
200,188	2,568	233,257	118,198
201,202	3,070	233,063	118,478
202,217	3,065	233,082	118,474
203,232	3,193	232,936	118,488
204,246	3,504	232,792	118,644
205,261	3,430	232,582	118,470
206,275	3,598	232,637	118,616
207,290	3,636	232,234	118,430
208,304	3,772	232,211	118,513
209,319	3,503	232,179	118,278
210,334	3,414	231,846	118,030
211,348	3,251	231,612	117,775
212,363	2,867	231,285	117,303
213,377	2,775	231,174	117,165
214,392	2,644	230,994	116,963
215,407	2,781	230,917	117,018
216,421	2,892	230,889	117,079
217,436	2,730	230,733	116,866
218,450	2,492	230,307	116,457
219,465	2,504	230,196	116,400
220,480	2,551	230,015	116,334
221,494	2,434	229,945	116,199
222,509	2,830	229,870	116,453
223,523	2,948	229,652	116,422
224,538	2,616	229,482	116,073
225,553	2,660	229,354	116,031
226,567	2,755	229,166	115,998
227,582	3,022	229,305	116,261
228,596	3,115	229,000	116,167
229,611	2,735	228,801	115,766
230,626	2,627	228,545	115,545
231,640	2,489	228,601	115,458
232,655	2,821	228,549	115,673
233,669	3,207	228,363	115,862
234,684	3,305	228,241	115,864
235,699	3,064	228,097	115,597
236,713	3,092	227,680	115,397
237,728	2,908	227,569	115,192
238,742	2,965	227,265	115,071
239,757	2,814	227,272	114,950
240,772	2,503	227,197	114,668
241,786	2,653	226,816	114,578
242,801	2,984	226,866	114,841
243,815	3,125	226,914	114,961
244,830	3,099	226,732	114,840
245,844	2,786	226,465	114,459
246,859	2,890	226,241	114,414
247,874	3,145	226,139	114,543
248,888	2,989	226,079	114,386
249,903	2,665	225,930	114,057
250,917	2,975	225,680	114,153
251,932	2,935	225,496	114,020
252,947	2,465	225,412	113,617
253,961	2,673	225,116	113,612
254,976	2,626	225,098	113,558
255,990	2,983	225,023	113,776
257,005	2,783	224,962	113,586
258,020	3,112	224,737	113,707
259,034	3,200	224,481	113,633
260,049	2,980	224,549	113,493
261,063	3,220	224,236	113,504
262,078	3,097	224,225	113,396
263,093	3,350	223,999	113,459
264,107	3,067	223,960	113,220
265,122	2,961	223,722	113,011
266,136	3,229	223,634	113,155
267,151	3,292	223,489	113,118
268,166	2,814	223,245	112,631
269,180	2,574	222,941	112,291
270,195	2,600	222,909	112,285
271,209	2,618	222,695	112,180
272,224	2,805	222,735	112,327
273,239	2,869	222,465	112,228
274,253	2,934	222,383	112,225
275,268	2,482	222,291	111,836
276,282	2,537	221,955	111,697
277,297	2,616	221,851	111,694
278,312	2,543	221,752	111,580
279,326	2,668	221,684	111,627
280,341	2,663	221,569	111,556
281,355	2,885	221,364	111,605
282,370	2,828	221,265	111,503
283,384	2,596	220,905	111,143
284,399	2,516	220,886	111,065
285,414	2,572	220,750	111,027
286,428	2,795	220,633	111,121
287,443	3,018	220,597	111,256
288,457	2,934	220,413	111,092
289,472	2,690	220,188	110,791
290,487	2,444	219,985	110,500
291,501	2,339	219,931	110,387
292,516	2,389	219,791	110,343
293,530	2,633	219,500	110,364
294,545	2,658	219,287	110,266
295,560	2,560	219,404	110,244
296,574	2,720	219,280	110,287
297,589	2,704	219,080	110,165
298,603	2,687	219,028	110,117
299,618	2,871	218,869	110,160
300,633	2,691	218,777	109,974
301,647	3,309	218,537	110,289
302,662	2,948	218,670	110,085
303,676	3,324	218,311	110,166
304,691	3,221	218,043	109,947
305,706	2,984	218,125	109,808
306,720	2,938	217,939	109,672
307,735	2,753	217,659	109,388
308,749	2,666	217,611	109,292
309,764	2,992	217,400	109,409
310,779	3,100	217,349	109,451
311,793	3,061	217,140	109,308
312,808	2,997	217,107	109,236
313,822	2,918	216,912	109,072
314,837	2,721	216,795	108,863
315,852	2,580	216,603	108,656
316,866	2,920	216,489	108,832
317,881	2,969	216,499	108,862
318,895	3,114	216,189	108,800
319,910	2,880	216,057	108,557
320,925	2,459	215,847	108,143
321,939	2,426	215,611	107,991
322,954	2,452	215,570	107,980
323,968	2,744	215,608	108,196
324,983	2,869	215,371	108,156
325,997	2,939	215,265	108,143
327,012	2,873	215,148	108,028
328,027	2,916	215,065	108,007
329,041	3,075	214,962	108,058
330,056	3,087	214,741	107,946
331,070	2,857	214,611	107,708
332,085	2,674	214,222	107,375
333,100	2,337	214,122	107,078
334,114	2,786	213,985	107,315
335,129	3,148	214,032	107,584
336,143	2,826	213,932	107,298
337,158	2,936	213,759	107,279
338,173	2,964	213,643	107,230
339,187	2,877	213,401	107,039
340,202	2,627	213,286	106,796
341,216	2,883	212,921	106,783
342,231	2,660	213,015	106,665
343,246	2,496	212,953	106,509
344,260	2,938	212,672	106,668
345,275	2,698	212,744	106,527
346,289	2,744	212,581	106,468
347,304	2,939	212,295	106,451
348,319	2,947	212,171	106,385
349,333	2,682	212,094	106,152
350,348	3,064	211,947	106,335
351,362	3,217	211,963	106,440
352,377	3,163	211,697	106,259
353,392	2,929	211,707	106,093
354,406	2,929	211,408	105,933
355,421	197,187	1333,730	1410,167
356,435	157,609	1470,385	1410,081
