DTS Sentinel unit serial number:	SN410029Multiplexer serial number:	ORYXHardware model number:	OX2-SRSoftware version number:	ORYX F/W v4,00 Oryx Data Collector v3.7.2.0data status	okinstallation	B6 Nyhavnadifferential loss correction	single-endedforward channel	channel 2reverse channel	N/Adate	2023/12/09time	02:30:08forward acquisition time	300,00reverse acquisition time	0,00gamma	499,1914k internal	0,3155k external	0,3155temperature offset calibration	1,0000default loss term (dB/km)	0,3820temperature slope calibration	1,0000multiplexer offset coefficient	1,0000multiplexer slope coefficient	1,0000fibre end	0,00T internal ref (°C)	16,02T ext. ref 1 (°C)	-0,19T ext. ref 2 (°C)	-0,19length (m)	temperature (°C)	Stokes	anti-Stokes-744,400	481,251	0,068	0,115
-743,385	-76,461	-0,389	0,100
-742,371	800,000	0,044	-0,093
-741,356	-161,178	-0,190	0,007
-740,342	461,471	0,110	0,182
-739,327	-129,308	-0,349	0,035
-738,312	-200,000	0,038	-0,145
-737,298	-123,986	-0,203	-0,023
-736,283	96,782	0,095	-0,080
-735,269	33,360	-0,168	0,107
-734,254	9,999	0,098	0,055
-733,239	-77,029	-0,526	-0,134
-732,225	-134,381	0,156	-0,014
-731,210	49,431	0,089	0,062
-730,196	114,875	0,114	0,103
-729,181	-101,133	-0,072	0,013
-728,167	-146,538	0,075	-0,005
-727,152	-92,452	-0,133	0,027
-726,137	800,000	0,006	-0,017
-725,123	-61,370	-0,059	-0,018
-724,108	469,593	-0,080	-0,132
-723,094	-54,013	-0,251	-0,084
-722,079	246,954	-0,068	-0,085
-721,064	-24,302	-0,115	-0,050
-720,050	288,193	-0,112	-0,150
-719,035	335,555	-0,080	-0,115
-718,021	400,789	-0,065	-0,101
-717,006	-30,653	-0,192	-0,080
-715,991	668,209	-0,098	-0,187
-714,977	109,921	-0,031	-0,027
-713,962	-200,000	0,012	-0,195
-712,948	126,381	-0,072	0,067
-711,933	14,947	-0,080	0,046
-710,918	-19,830	-0,029	-0,013
-709,904	-200,000	0,020	-0,087
-708,889	30,793	-0,051	-0,032
-707,875	-46,416	-0,061	-0,022
-706,860	-200,000	0,010	-0,042
-705,845	800,000	-0,019	0,056
-704,831	186,209	0,127	0,140
-703,816	214,152	-0,100	0,117
-702,802	485,737	0,038	-0,063
-701,787	126,661	-0,102	-0,095
-700,772	183,854	0,027	-0,030
-699,758	261,312	-0,012	-0,015
-698,743	-147,972	-0,096	0,006
-697,729	122,925	0,045	-0,041
-696,714	132,751	-0,076	0,073
-695,699	800,000	-0,059	-0,158
-694,685	747,104	-0,053	-0,105
-693,670	-200,000	-0,025	-0,207
-692,656	-200,000	0,042	-0,171
-691,641	-100,537	-0,067	0,012
-690,627	-200,000	0,016	-0,126
-689,612	-101,617	0,064	-0,011
-688,597	68,381	-0,143	-0,108
-687,583	-200,000	-0,001	-0,149
-686,568	-157,698	-0,137	-0,006
-685,554	-200,000	0,000	-0,026
-684,539	-113,538	0,083	0,012
-683,524	258,092	0,098	-0,124
-682,510	800,000	-0,034	-0,085
-681,495	800,000	-0,048	-0,120
-680,481	800,000	-0,026	-0,056
-679,466	-200,000	-0,034	-0,119
-678,451	457,632	0,101	-0,165
-677,437	570,086	0,055	-0,099
-676,422	-54,128	-0,042	0,014
-675,408	-135,046	-0,136	0,012
-674,393	-200,000	-0,007	0,071
-673,378	-200,000	0,000	-0,004
-672,364	-93,958	-0,118	-0,024
-671,349	45,996	-0,055	-0,038
-670,335	-200,000	-0,012	-0,119
-669,320	-90,855	-0,028	0,006
-668,305	109,058	0,102	-0,090
-667,291	-163,168	0,059	-0,002
-666,276	-60,485	-0,120	-0,037
-665,262	-112,898	-0,112	-0,016
-664,247	800,000	-0,016	-0,043
-663,232	599,440	-0,071	-0,130
-662,218	-103,111	0,101	0,017
-661,203	-3,620	-0,029	-0,015
-660,189	-67,326	-0,151	-0,043
-659,174	-200,000	0,007	-0,075
-658,159	800,000	-0,008	-0,022
-657,145	-20,533	-0,101	-0,046
-656,130	-102,901	-0,144	-0,025
-655,116	-47,036	0,110	-0,039
-654,101	581,654	-0,046	-0,084
-653,086	30,148	-0,047	-0,029
-652,072	800,000	-0,023	-0,052
-651,057	119,533	-0,125	-0,114
-650,043	-40,699	0,060	-0,023
-649,028	-24,420	-0,085	0,037
-648,014	-37,958	0,137	0,053
-646,999	247,163	0,052	0,065
-645,984	248,728	-0,024	0,030
-644,970	-153,206	0,062	0,003
-643,955	-5,172	0,047	-0,024
-642,941	-123,648	-0,189	0,022
-641,926	489,341	-0,024	-0,040
-640,911	-103,218	0,129	-0,022
-639,897	-72,160	0,086	0,023
-638,882	-200,000	-0,000	-0,016
-637,868	-200,000	0,009	-0,107
-636,853	-200,000	0,007	0,046
-635,838	201,996	0,062	-0,070
-634,824	-86,445	0,004	0,001
-633,809	-200,000	-0,026	-0,100
-632,795	730,632	-0,019	-0,037
-631,780	307,596	-0,142	0,195
-630,765	297,858	-0,095	0,128
-629,751	-83,042	-0,022	-0,005
-628,736	152,918	-0,045	0,045
-627,722	139,219	-0,084	-0,081
-626,707	-71,713	0,062	-0,017
-625,692	800,000	-0,025	0,062
-624,678	134,949	-0,078	0,074
-623,663	-200,000	0,016	0,059
-622,649	-126,012	-0,027	-0,003
-621,634	-100,828	-0,090	0,016
-620,619	221,726	-0,056	-0,066
-619,605	328,345	0,102	-0,145
-618,590	-200,000	-0,048	0,198
-617,576	-200,000	0,004	-0,077
-616,561	108,615	-0,066	-0,058
-615,546	69,213	0,113	0,085
-614,532	377,483	0,007	0,011
-613,517	-12,637	-0,142	0,068
-612,503	115,217	0,020	-0,018
-611,488	800,000	-0,051	0,125
-610,474	-22,415	0,114	-0,050
-609,459	453,363	-0,038	-0,061
-608,444	-111,080	-0,077	-0,011
-607,430	366,406	-0,049	0,073
-606,415	-65,455	-0,148	-0,043
-605,401	-200,000	0,007	-0,073
-604,386	-145,872	0,039	0,002
-603,371	800,000	-0,052	0,150
-602,357	-33,857	0,034	0,014
-601,342	-126,399	-0,072	-0,008
-600,328	112,258	-0,045	0,040
-599,313	-200,000	0,012	-0,118
-598,298	-36,054	-0,070	-0,028
-597,284	107,801	-0,045	-0,039
-596,269	-200,000	0,041	-0,172
-595,255	-14,029	-0,041	-0,019
-594,240	679,417	-0,071	-0,136
-593,225	-131,410	-0,159	0,015
-592,211	800,000	-0,041	-0,089
-591,196	27,165	-0,148	-0,091
-590,182	-29,750	0,013	-0,005
-589,167	-146,586	0,073	0,005
-588,152	-200,000	0,007	0,044
-587,138	-68,685	0,023	0,007
-586,123	800,000	0,032	-0,069
-585,109	-166,948	0,156	-0,005
-584,094	-168,040	-0,096	0,003
-583,079	-200,000	0,003	-0,038
-582,065	-25,094	0,109	0,047
-581,050	472,311	-0,095	0,158
-580,036	-25,185	0,222	-0,096
-579,021	-200,000	-0,020	-0,083
-578,006	21,176	-0,115	-0,068
-576,992	69,547	0,006	0,005
-575,977	-76,863	0,108	0,027
-574,963	-45,651	0,091	0,033
-573,948	-28,584	0,132	0,056
-572,934	187,931	-0,110	-0,121
-571,919	-61,537	-0,056	-0,017
-570,904	-200,000	-0,007	0,032
-569,890	44,285	-0,023	0,016
-568,875	-36,299	0,025	-0,010
-567,861	-94,296	-0,041	-0,008
-566,846	-200,000	-0,012	-0,045
-565,831	-45,487	-0,062	0,022
-564,817	-200,000	-0,010	-0,032
-563,802	-43,282	-0,018	-0,007
-562,788	121,743	-0,079	-0,072
-561,773	-69,847	-0,090	0,025
-560,758	-200,000	-0,115	0,000
-559,744	6,727	0,080	0,044
-558,729	342,217	-0,069	-0,099
-557,715	-200,000	0,026	-0,136
-556,700	-200,000	0,024	0,085
-555,685	-83,475	-0,059	-0,014
-554,671	501,316	0,071	0,121
-553,656	800,000	-0,005	0,010
-552,642	27,280	0,077	0,047
-551,627	-55,270	-0,114	-0,037
-550,612	-31,014	-0,036	0,015
-549,598	-89,381	-0,193	0,041
-548,583	-200,000	-0,009	-0,031
-547,569	-200,000	-0,004	0,029
-546,554	-179,625	0,094	0,001
-545,539	-92,514	-0,068	-0,014
-544,525	-43,782	0,059	-0,022
-543,510	-200,000	-0,007	-0,068
-542,496	548,976	0,056	-0,098
-541,481	134,447	0,112	0,106
-540,466	800,000	-0,021	0,062
-539,452	-200,000	0,000	0,013
-538,437	193,625	-0,036	0,040
-537,423	800,000	0,039	0,093
-536,408	-200,000	-0,008	0,055
-535,393	-200,000	-0,013	-0,096
-534,379	-200,000	0,008	0,037
-533,364	-43,642	-0,067	-0,025
-532,350	800,000	0,030	-0,072
-531,335	-200,000	-0,021	0,098
-530,321	-29,712	0,095	0,040
-529,306	-87,844	-0,018	-0,004
-528,291	-83,187	0,037	0,009
-527,277	-94,885	-0,089	-0,017
-526,262	381,261	-0,083	0,125
-525,248	280,582	0,020	0,027
-524,233	-42,029	0,089	0,033
-523,218	-200,000	-0,020	-0,148
-522,204	164,374	-0,095	-0,098
-521,189	-77,723	-0,074	0,019
-520,175	-103,868	0,065	-0,011
-519,160	-92,470	-0,075	-0,015
-518,145	-90,259	0,050	0,011
-517,131	139,147	-0,037	-0,035
-516,116	-99,144	0,100	-0,018
-515,102	-200,000	0,013	0,064
-514,087	-167,571	0,017	0,000
-513,072	91,344	0,063	0,052
-512,058	800,000	0,007	-0,022
-511,043	-200,000	-0,001	0,019
-510,029	180,994	0,087	0,094
-509,014	185,703	0,048	-0,052
-507,999	194,415	-0,037	-0,041
-506,985	-200,000	-0,016	0,061
-505,970	-200,000	0,001	-0,095
-504,956	-71,411	-0,021	0,006
-503,941	-81,094	0,189	-0,045
-502,926	-200,000	0,021	-0,081
-501,912	-200,000	-0,020	-0,154
-500,897	-200,000	-0,028	-0,113
-499,883	59,994	0,081	-0,058
-498,868	-52,841	-0,026	0,009
-497,853	34,959	0,134	-0,085
-496,839	-61,071	-0,039	-0,012
-495,824	-98,120	0,082	-0,015
-494,810	93,406	0,092	0,076
-493,795	-53,405	0,197	0,066
-492,781	-200,000	-0,010	-0,080
-491,766	331,669	0,031	-0,043
-490,751	-200,000	-0,016	0,064
-489,737	-200,000	-0,020	-0,110
-488,722	661,377	0,023	-0,043
-487,708	-8,228	-0,078	0,038
-486,693	-200,000	-0,025	0,105
-485,678	-200,000	0,024	0,144
-484,664	-200,000	-0,002	-0,060
-483,649	309,991	-0,104	0,142
-482,635	-200,000	-0,001	0,056
-481,620	-200,000	0,009	-0,121
-480,605	-125,382	-0,039	-0,004
-479,591	-91,957	0,092	0,019
-478,576	-39,157	-0,073	0,028
-477,562	37,524	-0,025	0,016
-476,547	-200,000	-0,031	-0,122
-475,532	97,387	-0,047	0,039
-474,518	217,927	-0,029	-0,033
-473,503	-200,000	-0,007	0,067
-472,489	-200,000	-0,010	0,093
-471,474	60,727	0,168	-0,121
-470,459	-51,431	-0,214	-0,073
-469,445	-200,000	0,006	-0,021
-468,430	-120,362	0,108	0,013
-467,416	36,661	-0,002	0,001
-466,401	185,604	0,086	0,093
-465,386	-61,846	0,036	0,011
-464,372	270,363	-0,020	0,026
-463,357	40,136	0,049	-0,032
-462,343	-81,009	-0,105	-0,025
-461,328	-179,906	-0,032	0,000
-460,313	462,455	0,085	0,139
-459,299	-176,769	0,057	0,001
-458,284	-134,464	0,105	0,009
-457,270	-158,205	-0,141	-0,006
-456,255	118,478	-0,055	0,050
-455,241	-200,000	0,014	0,127
-454,226	24,744	-0,106	-0,064
-453,211	-200,000	0,004	0,062
-452,197	454,195	0,047	-0,077
-451,182	-184,102	0,050	0,001
-450,168	-200,000	-0,020	0,069
-449,153	800,000	0,005	0,011
-448,138	-44,899	-0,087	0,031
-447,124	101,656	0,136	0,115
-446,109	800,000	0,028	-0,084
-445,095	217,411	0,072	0,083
-444,080	-200,000	0,027	0,098
-443,065	608,385	-0,034	-0,062
-442,051	57,495	0,156	0,111
-441,036	-41,847	0,081	-0,030
-440,022	344,459	-0,088	-0,127
-439,007	-200,000	0,015	-0,068
-437,992	-82,413	-0,025	0,006
-436,978	-200,000	-0,030	0,099
-435,963	359,765	0,051	0,075
-434,949	572,599	0,072	-0,128
-433,934	-132,298	0,064	0,006
-432,919	-200,000	-0,015	-0,139
-431,905	-9,047	-0,109	-0,053
-430,890	-200,000	0,026	0,098
-429,876	800,000	0,068	0,145
-428,861	579,640	-0,045	0,081
-427,846	639,178	0,021	0,040
-426,832	-200,000	-0,006	-0,179
-425,817	-200,000	0,014	-0,117
-424,803	-200,000	-0,007	-0,109
-423,788	365,293	0,041	-0,061
-422,773	94,819	0,069	0,058
-421,759	-200,000	0,011	0,103
-420,744	-200,000	-0,022	-0,127
-419,730	35,838	0,087	-0,056
-418,715	266,885	-0,097	-0,123
-417,701	-200,000	-0,031	0,136
-416,686	100,678	0,030	0,026
-415,671	282,957	0,073	0,095
-414,657	60,327	0,086	0,062
-413,642	67,092	-0,060	-0,044
-412,628	105,407	-0,032	-0,028
-411,613	-200,000	-0,025	0,146
-410,598	-132,973	0,107	-0,010
-409,584	-117,451	0,056	0,007
-408,569	800,000	0,039	-0,081
-407,555	-37,268	-0,063	0,025
-406,540	168,366	-0,015	0,015
-405,525	97,700	0,009	-0,007
-404,511	58,489	-0,050	-0,036
-403,496	139,143	0,077	-0,074
-402,482	288,098	0,146	0,192
-401,467	-200,000	-0,053	0,203
-400,452	70,295	0,037	-0,028
-399,438	650,884	0,074	-0,139
-398,423	-200,000	-0,006	0,071
-397,409	-200,000	-0,002	-0,099
-396,394	399,817	0,014	0,021
-395,379	111,076	0,039	-0,034
-394,365	-106,955	-0,065	0,010
-393,350	-200,000	0,003	0,117
-392,336	800,000	0,059	0,188
-391,321	463,579	-0,010	0,016
-390,306	-57,003	-0,078	0,025
-389,292	173,203	-0,037	0,039
-388,277	-118,180	0,035	0,004
-387,263	-90,155	-0,158	-0,033
-386,248	-200,000	0,024	-0,103
-385,233	87,939	0,036	0,029
-384,219	203,764	-0,047	0,054
-383,204	-200,000	0,020	-0,065
-382,190	-200,000	0,002	-0,023
-381,175	30,277	-0,061	-0,038
-380,160	800,000	0,010	-0,031
-379,146	800,000	0,027	-0,056
-378,131	-200,000	-0,004	0,114
-377,117	159,450	0,074	0,075
-376,102	94,378	-0,108	0,089
-375,088	11,968	0,084	0,047
-374,073	-111,002	0,059	-0,009
-373,058	-200,000	-0,041	0,164
-372,044	33,460	0,052	0,033
-371,029	-16,415	0,069	0,032
-370,015	-200,000	0,005	-0,084
-369,000	-98,238	0,075	-0,014
-367,985	606,282	0,085	-0,155
-366,971	800,000	-0,015	-0,049
-365,956	-39,137	-0,084	0,032
-364,942	800,000	-0,086	0,176
-363,927	-200,000	0,026	0,136
-362,912	-39,813	0,153	-0,058
-361,898	-136,727	0,023	-0,002
-360,883	-115,109	-0,099	-0,014
-359,869	-124,066	0,056	-0,006
-358,854	800,000	-0,014	0,034
-357,839	-200,000	-0,046	0,187
-356,825	213,163	-0,022	0,025
-355,810	-200,000	-0,004	-0,031
-354,796	52,195	-0,013	-0,009
-353,781	-46,024	-0,096	0,034
-352,766	-68,204	-0,051	0,014
-351,752	-39,712	-0,136	0,051
-350,737	-138,742	0,145	0,011
-349,723	-58,861	0,142	-0,044
-348,708	327,925	-0,026	-0,036
-347,693	800,000	0,028	-0,059
-346,679	430,615	-0,055	0,086
-345,664	316,109	-0,080	0,110
-344,650	319,683	-0,046	-0,063
-343,635	491,789	-0,041	-0,068
-342,620	-200,000	-0,006	0,107
-341,606	544,375	0,044	0,076
-340,591	225,608	0,060	0,070
-339,577	454,778	-0,037	-0,059
-338,562	144,688	0,052	-0,051
-337,548	800,000	0,040	0,107
-336,533	-200,000	0,004	-0,027
-335,518	-200,000	0,002	0,075
-334,504	800,000	-0,052	0,117
-333,489	49,390	0,115	0,078
-332,475	-110,963	0,099	0,015
-331,460	366,700	-0,039	-0,057
-330,445	-135,269	-0,121	-0,010
-329,431	511,450	0,060	-0,102
-328,416	-200,000	0,001	-0,050
-327,402	800,000	0,013	0,032
-326,387	-200,000	0,003	0,068
-325,372	-38,058	-0,084	0,032
-324,358	-144,950	-0,131	0,009
-323,343	653,230	0,036	0,068
-322,329	800,000	0,034	0,094
-321,314	-200,000	0,012	0,100
-320,299	-173,972	0,119	0,002
-319,285	111,015	0,131	0,115
-318,270	-20,402	0,030	0,013
-317,256	800,000	-0,016	0,048
-316,241	-200,000	0,007	-0,109
-315,226	-200,000	0,001	-0,041
-314,212	-200,000	0,011	0,090
-313,197	25,733	0,069	0,042
-312,183	234,275	0,072	-0,086
-311,168	598,591	0,068	0,123
-310,153	246,742	-0,081	-0,100
-309,139	-6,100	-0,039	0,019
-308,124	-132,170	0,148	-0,014
-307,110	61,668	0,061	-0,044
-306,095	-200,000	-0,006	0,115
-305,080	442,804	0,012	0,019
-304,066	-200,000	-0,042	-0,238
-303,051	-68,078	-0,137	-0,038
-302,037	-13,194	0,037	-0,017
-301,022	-129,349	0,058	-0,006
-300,008	44,486	0,071	-0,047
-298,993	-200,000	-0,004	0,127
-297,978	561,147	-0,080	0,140
-296,964	-200,000	-0,019	-0,063
-295,949	-64,202	0,039	-0,011
-294,935	55,017	-0,172	-0,120
-293,920	-78,208	-0,068	-0,017
-292,905	38,457	0,083	0,053
-291,891	-200,000	0,001	0,047
-290,876	-200,000	0,010	0,051
-289,862	-41,642	0,084	-0,031
-288,847	800,000	-0,037	-0,083
-287,832	-200,000	-0,032	0,103
-286,818	-100,537	-0,126	0,022
-285,803	635,844	-0,015	0,027
-284,789	800,000	0,041	0,086
-283,774	-200,000	-0,011	-0,128
-282,759	-123,224	0,041	0,005
-281,745	115,465	-0,076	-0,068
-280,730	800,000	-0,103	-0,221
-279,716	-200,000	-0,004	-0,079
-278,701	-64,140	0,063	0,018
-277,686	-75,346	0,062	0,016
-276,672	65,510	-0,048	0,035
-275,657	261,908	-0,028	-0,035
-274,643	63,734	-0,096	-0,069
-273,628	-9,384	-0,063	-0,030
-272,613	-132,100	0,148	-0,014
-271,599	98,051	-0,046	0,038
-270,584	-46,704	0,114	-0,040
-269,570	-200,000	0,068	-0,000
-268,555	171,974	0,149	-0,155
-267,540	-0,917	-0,088	0,045
-266,526	25,901	-0,067	-0,041
-265,511	800,000	0,020	-0,062
-264,497	-137,711	-0,044	0,004
-263,482	-200,000	-0,007	-0,026
-262,467	269,960	-0,070	0,089
-261,453	-200,000	0,021	-0,085
-260,438	187,991	-0,123	-0,133
-259,424	-200,000	0,000	0,021
-258,409	41,906	-0,155	0,102
-257,395	-146,684	0,065	0,004
-256,380	-200,000	0,006	0,041
-255,365	-200,000	-0,004	0,027
-254,351	175,805	-0,106	0,111
-253,336	19,549	-0,097	0,056
-252,322	110,914	-0,054	-0,047
-251,307	22,165	-0,069	0,041
-250,292	800,000	-0,048	-0,116
-249,278	131,391	0,026	-0,025
-248,263	-200,000	-0,051	0,173
-247,249	-87,394	-0,113	-0,025
-246,234	130,149	-0,017	-0,016
-245,219	800,000	0,038	0,106
-244,205	-200,000	-0,032	-0,104
-243,190	-139,758	0,044	0,003
-242,176	-77,043	-0,127	0,032
-241,161	-194,756	0,079	-0,000
-240,146	-43,704	-0,028	0,010
-239,132	-200,000	0,020	-0,080
-238,117	-200,000	-0,018	-0,063
-237,103	60,563	-0,099	-0,071
-236,088	800,000	0,047	-0,108
-235,073	182,235	0,058	0,062
-234,059	800,000	0,090	0,205
-233,044	-69,964	0,080	-0,022
-232,030	568,745	-0,061	0,107
-231,015	772,606	0,013	0,025
-230,000	-43,259	0,131	-0,048
-228,986	83,897	-0,038	0,030
-227,971	-125,850	-0,110	0,012
-226,957	-119,837	0,013	-0,002
-225,942	2,227	-0,194	0,101
-224,927	-200,000	0,017	-0,077
-223,913	800,000	-0,039	0,096
-222,898	800,000	0,054	-0,111
-221,884	-200,000	-0,023	-0,085
-220,869	736,171	0,051	0,099
-219,855	-41,890	0,127	-0,047
-218,840	-200,000	-0,004	0,054
-217,825	385,222	0,080	0,120
-216,811	-200,000	0,015	0,085
-215,796	438,234	0,020	0,032
-214,782	-200,000	-0,015	0,114
-213,767	-87,905	0,083	0,018
-212,752	800,000	0,030	-0,061
-211,738	120,380	-0,029	-0,026
-210,723	-175,470	-0,039	-0,001
-209,709	-130,920	-0,114	0,011
-208,694	-200,000	0,011	-0,083
-207,679	595,068	-0,043	-0,078
-206,665	109,164	0,073	-0,063
-205,650	793,214	-0,051	0,102
-204,636	800,000	-0,013	-0,033
-203,621	103,970	-0,088	-0,075
-202,606	-200,000	-0,025	0,113
-201,592	800,000	-0,050	-0,129
-200,577	800,000	0,035	-0,073
-199,563	-200,000	-0,019	-0,187
-198,548	-46,378	0,050	-0,017
-197,533	55,308	0,044	0,031
-196,519	519,441	0,093	0,157
-195,504	800,000	-0,031	-0,078
-194,490	133,905	0,062	0,058
-193,475	-31,386	0,107	-0,043
-192,460	800,000	-0,055	-0,158
-191,446	-161,076	0,165	0,006
-190,431	800,000	0,041	0,097
-189,417	-61,699	0,096	0,029
-188,402	800,000	-0,081	-0,166
-187,387	18,326	-0,124	-0,071
-186,373	-200,000	-0,035	-0,215
-185,358	-200,000	-0,000	-0,067
-184,344	-160,331	0,025	0,001
-183,329	88,538	-0,053	0,042
-182,315	144,050	0,071	-0,068
-181,300	186,619	-0,031	-0,034
-180,285	378,428	-0,115	-0,170
-179,271	-200,000	0,006	-0,072
-178,256	164,651	0,057	-0,058
-177,242	588,670	0,041	-0,074
-176,227	-103,110	0,142	0,024
-175,212	-79,638	-0,106	-0,026
-174,198	213,023	0,073	0,083
-173,183	-87,686	0,070	0,015
-172,169	-124,638	0,088	0,010
-171,154	397,455	-0,061	-0,092
-170,139	-200,000	-0,018	-0,124
-169,125	-115,479	-0,157	0,021
-168,110	-200,000	-0,002	-0,083
-167,096	-200,000	-0,012	0,094
-166,081	-35,177	0,072	0,028
-165,066	763,074	-0,024	0,047
-164,052	12,047	-0,098	0,054
-163,037	1,415	-0,034	0,018
-162,023	-133,496	0,106	-0,010
-161,008	-200,000	0,015	-0,084
-159,993	-200,000	-0,011	0,101
-158,979	-154,351	-0,019	-0,001
-157,964	-51,958	0,125	-0,042
-156,950	18,969	-0,010	-0,006
-155,935	800,000	-0,070	-0,141
-154,920	91,199	-0,090	-0,073
-153,906	-117,455	0,121	0,016
-152,891	784,440	-0,039	0,077
-151,877	-79,350	-0,035	0,008
-150,862	-126,822	0,044	0,005
-149,847	529,342	0,029	0,050
-148,833	101,542	-0,080	-0,067
-147,818	800,000	0,016	0,044
-146,804	-200,000	-0,010	0,096
-145,789	-200,000	0,018	0,091
-144,775	362,968	-0,037	-0,054
-143,760	80,145	0,114	-0,088
-142,745	800,000	-0,049	-0,148
-141,731	800,000	0,035	0,106
-140,716	62,795	0,024	0,018
-139,702	-45,705	0,048	0,017
-138,687	130,202	-0,028	-0,026
-137,672	46,560	-0,046	-0,031
-136,658	763,261	0,081	-0,159
-135,643	800,000	-0,029	0,066
-134,629	96,757	0,080	-0,066
-133,614	-130,972	0,016	0,002
-132,599	69,827	-0,024	0,018
-131,585	762,319	-0,042	0,082
-130,570	-180,118	-0,134	-0,002
-129,556	-200,000	0,019	0,111
-128,541	-200,000	0,011	-0,040
-127,526	-17,902	-0,098	-0,044
-126,512	800,000	-0,025	-0,057
-125,497	-200,000	-0,028	-0,107
-124,483	-200,000	-0,019	0,062
-123,468	49,263	0,003	-0,002
-122,453	-153,025	-0,118	-0,006
-121,439	-155,732	-0,131	-0,006
-120,424	451,775	0,035	0,056
-119,410	25,394	0,043	0,025
-118,395	404,680	0,017	0,026
-117,380	800,000	-0,013	-0,026
-116,366	-200,000	-0,039	-0,190
-115,351	-53,131	0,112	0,037
-114,337	-9,945	0,039	-0,019
-113,322	800,000	0,073	-0,152
-112,307	800,000	-0,051	0,144
-111,293	800,000	-0,036	-0,103
-110,278	-200,000	0,004	0,021
-109,264	-125,949	0,070	-0,007
-108,249	-106,508	-0,180	-0,029
-107,234	130,896	-0,088	-0,081
-106,220	-200,000	-0,037	-0,144
-105,205	-15,361	0,043	0,020
-104,191	81,251	-0,050	0,039
-103,176	-120,061	0,053	0,006
-102,162	425,284	-0,014	0,022
-101,147	-121,232	-0,168	-0,020
-100,132	451,002	0,019	0,031
-99,118	28,469	-0,066	-0,040
-98,103	-78,079	0,095	0,023
-97,089	-18,391	-0,060	0,027
-96,074	-74,893	0,077	0,020
-95,059	-200,000	-0,028	0,101
-94,045	6,911	-0,130	0,069
-93,030	528,542	-0,056	-0,096
-92,016	-200,000	-0,009	-0,069
-91,001	77,612	-0,107	-0,082
-89,986	-156,533	0,163	0,007
-88,972	341,896	-0,032	0,046
-87,957	158,634	0,029	0,029
-86,943	-127,858	0,082	-0,008
-85,928	-200,000	-0,002	-0,136
-84,913	419,639	-0,060	-0,092
-83,899	-200,000	-0,011	0,118
-82,884	692,639	0,043	0,081
-81,870	-200,000	-0,002	-0,012
-80,855	-200,000	0,001	0,064
-79,840	427,502	0,047	0,072
-78,826	186,777	-0,038	-0,040
-77,811	-178,988	0,010	-0,000
-76,797	-200,000	0,006	-0,097
-75,782	6,107	-0,038	0,020
-74,767	-45,902	0,133	-0,047
-73,753	-33,618	-0,073	-0,029
-72,738	-145,441	0,151	-0,010
-71,724	79,925	0,067	-0,052
-70,709	486,098	-0,036	-0,059
-69,694	-200,000	0,005	0,033
-68,680	-59,528	-0,070	0,021
-67,665	35,620	0,099	-0,062
-66,651	157,847	0,032	-0,032
-65,636	59,479	-0,175	-0,124
-64,622	290,096	-0,084	-0,109
-63,607	279,059	-0,051	-0,065
-62,592	800,000	-0,010	-0,030
-61,578	-200,000	-0,003	-0,042
-60,563	197,499	0,058	0,064
-59,549	800,000	0,035	0,080
-58,534	20,698	-1,962	-1,138
-57,519	800,000	-0,318	-0,843
-56,505	-200,000	-1,120	-4,770
-55,490	-27,464	0,659	0,274
-54,476	800,000	5,389	12,391
-53,461	-200,000	17,305	280,149
-52,446	800,000	720,939	2204,028
-51,432	532,875	1634,095	2789,287
-50,417	111,740	1627,297	1410,481
-49,403	75,119	1285,846	972,395
-48,388	32,818	1030,214	639,004
-47,373	20,076	992,441	573,420
-46,359	18,719	980,653	562,121
-45,344	16,351	976,460	551,918
-44,330	16,491	975,208	551,650
-43,315	16,127	973,368	549,394
-42,300	16,007	972,485	548,481
-41,286	16,039	971,298	547,895
-40,271	16,027	970,342	547,294
-39,257	16,085	969,404	546,933
-38,242	16,080	968,671	546,480
-37,227	16,064	967,762	545,894
-36,213	16,048	966,980	545,379
-35,198	15,996	966,066	544,671
-34,184	16,065	965,495	544,553
-33,169	16,005	964,369	543,701
-32,154	16,074	963,433	543,377
-31,140	16,110	962,455	542,921
-30,125	16,113	961,855	542,569
-29,111	16,093	960,765	541,869
-28,096	16,104	960,155	541,540
-27,082	16,051	959,609	541,039
-26,067	16,045	958,804	540,543
-25,052	16,051	958,032	540,105
-24,038	16,056	957,305	539,691
-23,023	16,001	956,648	539,122
-22,009	16,079	955,973	538,971
-20,994	16,051	955,513	538,601
-19,979	16,056	955,080	538,351
-18,965	16,044	954,271	537,836
-17,950	16,089	953,632	537,599
-16,936	16,076	952,919	537,132
-15,921	15,981	952,370	536,496
-14,906	15,917	951,613	535,846
-13,892	15,878	951,094	535,406
-12,877	15,915	950,240	535,023
-11,863	15,897	949,785	534,688
-10,848	15,923	949,156	534,397
-9,833	16,011	948,822	534,467
-8,819	15,932	948,228	533,858
-7,804	15,933	947,302	533,321
-6,790	15,907	946,802	532,936
-5,775	15,955	946,124	532,683
-4,760	16,017	945,408	532,456
-3,746	15,961	944,812	531,925
-2,731	15,780	944,460	531,130
-1,717	15,781	943,864	530,775
-0,702	15,787	942,936	530,251
0,313	15,598	942,427	530,166
1,327	19,053	940,378	539,891
2,342	28,316	794,635	480,761
3,356	25,161	447,497	266,017
4,371	-4,632	296,093	146,175
5,386	-8,703	277,588	133,161
6,400	-9,951	271,731	129,178
7,415	-9,940	269,527	128,129
8,429	-9,926	267,926	127,370
9,444	-10,138	267,269	126,851
10,459	-10,133	266,563	126,510
11,473	-10,105	266,025	126,269
12,488	-10,449	265,542	125,716
13,502	-10,397	264,850	125,424
14,517	-10,467	264,464	125,166
15,531	-10,450	264,009	124,955
16,546	-10,392	263,691	124,846
17,561	-10,468	263,351	124,606
18,575	-10,308	262,878	124,514
19,590	-10,446	262,652	124,273
20,604	-10,285	262,331	124,253
21,619	-10,488	262,008	123,908
22,634	-10,352	261,613	123,832
23,648	-10,418	261,269	123,599
24,663	-10,406	260,996	123,470
25,677	-10,331	260,726	123,397
26,692	-10,553	260,620	123,139
27,707	-10,530	260,294	122,994
28,721	-10,273	259,903	123,027
29,736	-10,607	259,770	122,656
30,750	-10,690	259,557	122,471
31,765	-10,568	259,244	122,421
32,780	-10,629	259,134	122,304
33,794	-10,492	258,816	122,263
34,809	-10,590	258,587	122,058
35,823	-10,498	258,231	121,960
36,838	-10,684	258,008	121,680
37,853	-10,623	257,791	121,621
38,867	-10,761	257,583	121,391
39,882	-10,641	257,218	121,313
40,896	-10,635	257,235	121,315
41,911	-10,585	256,865	121,174
42,926	-10,711	256,702	120,976
43,940	-10,792	256,551	120,823
44,955	-10,705	256,093	120,673
45,969	-10,927	255,842	120,349
46,984	-11,091	255,588	120,077
47,999	-11,223	255,418	119,870
49,013	-11,261	255,093	119,674
50,028	-11,598	254,961	119,309
51,042	-11,619	254,594	119,108
52,057	-11,716	254,517	118,977
53,071	-11,536	254,235	118,990
54,086	-11,461	254,025	118,946
55,101	-11,167	253,800	119,085
56,115	-11,161	253,780	119,071
57,130	-10,526	253,694	119,569
58,144	-10,486	253,587	119,543
59,159	-10,554	253,455	119,411
60,174	-10,342	253,139	119,434
61,188	-10,475	252,895	119,194
62,203	-10,517	252,745	119,076
63,217	-10,603	252,485	118,869
64,232	-10,579	252,161	118,727
65,247	-10,222	251,825	118,864
66,261	-10,478	251,576	118,517
67,276	-10,575	251,485	118,380
68,290	-10,964	251,117	117,864
69,305	-11,103	250,878	117,622
70,320	-10,830	250,639	117,733
71,334	-10,864	250,766	117,753
72,349	-10,313	250,529	118,101
73,363	-10,297	250,327	118,009
74,378	-10,309	250,066	117,866
75,393	-10,490	249,741	117,548
76,407	-10,476	249,641	117,502
77,422	-10,464	249,422	117,398
78,436	-10,519	249,289	117,279
79,451	-10,311	249,020	117,318
80,466	-10,536	248,701	116,967
81,480	-10,851	248,574	116,630
82,495	-10,721	248,287	116,595
83,509	-10,833	248,041	116,374
84,524	-10,789	247,875	116,324
85,539	-11,065	247,739	116,016
86,553	-11,159	247,594	115,859
87,568	-10,975	247,391	115,909
88,582	-10,892	247,164	115,862
89,597	-10,804	246,998	115,847
90,611	-10,801	246,867	115,779
91,626	-10,690	246,823	115,841
92,641	-10,525	246,385	115,763
93,655	-10,741	246,286	115,525
94,670	-10,675	246,033	115,451
95,684	-10,760	245,868	115,293
96,699	-10,765	245,620	115,162
97,714	-11,013	245,656	114,961
98,728	-10,953	245,334	114,850
99,743	-11,040	245,097	114,657
100,757	-10,959	244,947	114,644
101,772	-10,890	244,677	114,565
102,787	-10,838	244,530	114,529
103,801	-10,659	244,327	114,572
104,816	-10,849	244,235	114,361
105,830	-10,670	244,042	114,409
106,845	-10,561	243,945	114,444
107,860	-10,589	243,673	114,282
108,874	-10,683	243,345	114,041
109,889	-10,807	243,238	113,878
110,903	-10,819	242,971	113,733
111,918	-10,716	242,835	113,744
112,933	-10,747	242,761	113,674
113,947	-10,870	242,616	113,495
114,962	-10,599	242,401	113,607
115,976	-10,843	242,331	113,364
116,991	-10,668	242,125	113,401
118,006	-10,748	241,951	113,243
119,020	-10,655	241,900	113,286
120,035	-10,416	241,633	113,346
121,049	-10,579	241,530	113,154
122,064	-10,501	241,173	113,040
123,079	-10,830	241,069	112,713
124,093	-10,713	240,771	112,659
125,108	-10,971	240,596	112,357
126,122	-11,009	240,414	112,231
127,137	-11,357	240,277	111,873
128,151	-11,257	240,014	111,822
129,166	-11,045	239,777	111,875
130,181	-11,216	239,710	111,694
131,195	-10,943	239,346	111,736
132,210	-10,857	239,310	111,779
133,224	-10,702	239,298	111,889
134,239	-10,591	239,139	111,894
135,254	-10,390	238,728	111,855
136,268	-10,794	238,621	111,468
137,283	-11,108	238,303	111,056
138,297	-11,097	238,072	110,948
139,312	-11,242	237,888	110,735
140,327	-10,902	237,941	111,024
141,341	-10,261	237,962	111,540
142,356	-10,338	237,858	111,419
143,370	-10,239	237,618	111,377
144,385	-10,109	237,443	111,389
145,400	-10,156	237,191	111,223
146,414	-10,207	237,099	111,129
147,429	-10,403	236,975	110,904
148,443	-10,469	236,822	110,770
149,458	-10,351	236,507	110,707
150,473	-10,117	236,331	110,801
151,487	-10,604	236,272	110,375
152,502	-10,328	236,059	110,486
153,516	-10,168	235,903	110,531
154,531	-10,127	235,589	110,407
155,546	-10,391	235,541	110,164
156,560	-10,570	235,441	109,965
157,575	-10,573	235,145	109,814
158,589	-10,331	234,878	109,872
159,604	-10,244	234,871	109,928
160,619	-10,034	234,642	109,978
161,633	-10,002	234,435	109,897
162,648	-10,145	234,418	109,765
163,662	-10,279	234,170	109,533
164,677	-10,404	234,090	109,387
165,692	-10,199	233,879	109,441
166,706	-10,194	233,759	109,379
167,721	-10,158	233,764	109,400
168,735	-10,147	233,606	109,324
169,750	-10,076	233,414	109,281
170,764	-10,315	233,221	108,993
171,779	-10,174	233,075	109,026
172,794	-10,179	232,967	108,961
173,808	-10,556	232,628	108,498
174,823	-10,763	232,288	108,167
175,837	-11,030	232,111	107,865
176,852	-10,653	232,225	108,205
177,867	-10,285	232,155	108,451
178,881	-10,217	231,889	108,370
179,896	-10,088	231,729	108,386
180,910	-10,213	231,722	108,276
181,925	-10,140	231,435	108,189
182,940	-10,322	231,451	108,044
183,954	-10,018	231,103	108,109
184,969	-9,851	231,067	108,213
185,983	-9,935	230,953	108,085
186,998	-10,141	230,782	107,835
188,013	-9,961	230,485	107,826
189,027	-10,117	230,324	107,620
190,042	-10,089	230,284	107,613
191,056	-10,054	230,174	107,580
192,071	-9,918	229,921	107,557
193,086	-9,942	229,762	107,454
194,100	-9,883	229,678	107,451
195,115	-10,115	229,435	107,149
196,129	-10,535	229,283	106,743
197,144	-5,694	230,918	111,258
198,159	-0,134	232,523	116,362
199,173	3,068	233,249	119,214
200,188	3,589	233,387	119,681
201,202	3,539	233,296	119,584
202,217	3,699	233,049	119,572
203,232	3,998	233,020	119,779
204,246	3,992	232,738	119,618
205,261	4,067	232,618	119,605
206,275	4,476	232,427	119,814
207,290	4,142	232,485	119,573
208,304	4,211	232,370	119,557
209,319	4,221	232,130	119,431
210,334	3,984	231,825	119,079
211,348	3,806	231,615	118,824
212,363	3,642	231,263	118,506
213,377	3,397	231,096	118,221
214,392	3,263	230,994	118,055
215,407	3,428	230,840	118,093
216,421	3,488	230,615	118,013
217,436	3,399	230,494	117,872
218,450	3,297	230,274	117,671
219,465	3,020	230,164	117,391
220,480	3,495	229,923	117,622
221,494	3,061	230,034	117,335
222,509	3,292	229,720	117,341
223,523	3,253	229,631	117,256
224,538	3,492	229,381	117,300
225,553	3,168	229,350	117,027
226,567	3,460	229,222	117,175
227,582	3,712	229,032	117,259
228,596	3,684	229,101	117,262
229,611	3,408	228,894	116,935
230,626	3,069	228,645	116,539
231,640	3,144	228,394	116,458
232,655	3,669	228,349	116,824
233,669	3,929	228,293	116,983
234,684	3,991	228,245	116,995
235,699	3,970	227,955	116,820
236,713	3,401	227,818	116,307
237,728	3,530	227,582	116,275
238,742	3,289	227,416	115,997
239,757	3,403	227,212	115,969
240,772	3,502	226,945	115,897
241,786	3,214	227,028	115,711
242,801	3,490	227,075	115,933
243,815	3,776	226,911	116,056
244,830	3,932	226,611	116,010
245,844	3,515	226,406	115,580
246,859	3,453	226,197	115,417
247,874	3,559	226,092	115,432
248,888	3,721	226,062	115,528
249,903	3,513	226,005	115,333
250,917	3,520	225,732	115,188
251,932	3,382	225,588	115,001
252,947	3,313	225,363	114,824
253,961	3,236	225,257	114,702
254,976	3,250	225,031	114,588
255,990	3,510	225,015	114,764
257,005	3,447	224,974	114,685
258,020	3,601	224,781	114,692
259,034	3,767	224,626	114,727
260,049	3,705	224,486	114,599
261,063	3,499	224,335	114,358
262,078	3,698	224,068	114,360
263,093	3,906	224,068	114,504
264,107	3,539	223,857	114,113
265,122	3,834	223,793	114,290
266,136	3,756	223,740	114,194
267,151	4,021	223,350	114,182
268,166	3,420	223,332	113,716
269,180	3,165	223,031	113,364
270,195	3,325	222,801	113,355
271,209	3,407	222,718	113,364
272,224	3,359	222,610	113,264
273,239	3,619	222,489	113,384
274,253	3,323	222,260	113,039
275,268	3,219	222,130	112,886
276,282	3,209	221,915	112,759
277,297	3,179	221,888	112,713
278,312	3,194	221,770	112,654
279,326	3,420	221,530	112,689
280,341	3,481	221,399	112,656
281,355	3,435	221,348	112,587
282,370	3,261	221,139	112,343
283,384	3,132	220,932	112,133
284,399	2,981	220,813	111,952
285,414	2,864	220,811	111,855
286,428	3,536	220,572	112,216
287,443	3,399	220,612	112,126
288,457	3,619	220,476	112,208
289,472	3,384	220,250	111,911
290,487	2,885	220,021	111,421
291,501	3,087	219,811	111,452
292,516	2,857	219,699	111,217
293,530	2,998	219,526	111,222
294,545	2,904	219,463	111,112
295,560	3,448	219,276	111,403
296,574	3,392	219,249	111,339
297,589	3,415	218,958	111,198
298,603	3,498	218,992	111,265
299,618	3,506	218,762	111,144
300,633	3,533	218,766	111,156
301,647	3,760	218,575	111,213
302,662	3,429	218,477	110,914
303,676	3,367	218,397	110,819
304,691	3,836	218,122	111,008
305,706	3,700	218,020	110,848
306,720	3,622	217,838	110,689
307,735	3,428	217,685	110,462
308,749	3,326	217,627	110,349
309,764	3,502	217,434	110,368
310,779	3,611	217,439	110,440
311,793	3,590	217,051	110,217
312,808	3,582	217,007	110,179
313,822	3,422	216,858	109,979
314,837	3,178	216,829	109,779
315,852	3,242	216,637	109,718
316,866	3,343	216,420	109,671
317,881	3,573	216,302	109,766
318,895	3,712	216,196	109,802
319,910	3,188	215,895	109,265
320,925	2,966	215,875	109,086
321,939	2,857	215,698	108,910
322,954	3,235	215,633	109,136
323,968	3,609	215,630	109,393
324,983	3,292	215,577	109,129
325,997	3,466	215,342	109,124
327,012	3,474	215,095	108,996
328,027	3,369	214,983	108,854
329,041	3,794	215,009	109,159
330,056	3,748	214,839	109,031
331,070	3,754	214,574	108,891
332,085	3,358	214,280	108,452
333,100	3,110	214,290	108,272
334,114	3,434	214,128	108,410
335,129	3,213	214,141	108,250
336,143	3,389	213,846	108,216
337,158	3,333	213,720	108,102
338,173	3,290	213,679	108,041
339,187	3,293	213,393	107,890
340,202	3,321	213,067	107,735
341,216	3,134	213,015	107,568
342,231	3,273	212,987	107,641
343,246	2,972	212,946	107,399
344,260	3,211	212,765	107,467
345,275	3,480	212,494	107,509
346,289	3,474	212,526	107,511
347,304	3,698	212,372	107,580
348,319	3,465	212,276	107,360
349,333	3,237	212,160	107,132
350,348	3,534	212,055	107,276
351,362	3,672	211,903	107,286
352,377	3,582	211,854	107,189
353,392	3,410	211,705	106,984
354,406	3,538	211,402	106,911
355,421	197,564	1340,252	1425,710
356,435	157,897	1477,776	1425,711
