DTS Sentinel unit serial number:	SN410029Multiplexer serial number:	ORYXHardware model number:	OX2-SRSoftware version number:	ORYX F/W v4,00 Oryx Data Collector v3.7.2.0data status	okinstallation	B6 Nyhavnadifferential loss correction	single-endedforward channel	channel 2reverse channel	N/Adate	2023/12/09time	07:40:08forward acquisition time	300,00reverse acquisition time	0,00gamma	499,1914k internal	0,3139k external	0,3139temperature offset calibration	1,0000default loss term (dB/km)	0,3820temperature slope calibration	1,0000multiplexer offset coefficient	1,0000multiplexer slope coefficient	1,0000fibre end	0,00T internal ref (°C)	18,56T ext. ref 1 (°C)	1,92T ext. ref 2 (°C)	1,91length (m)	temperature (°C)	Stokes	anti-Stokes-744,400	90,129	0,082	-0,068
-743,385	-109,313	-0,288	-0,045
-742,371	-29,249	0,033	0,014
-741,356	97,875	-0,250	0,213
-740,342	125,214	0,086	-0,080
-739,327	-72,989	-0,269	0,073
-738,312	-1,888	0,070	-0,036
-737,298	-78,432	-0,324	0,082
-736,283	-127,207	0,133	-0,014
-735,269	13,738	-0,141	0,081
-734,254	49,653	0,163	0,114
-733,239	-32,802	-0,511	-0,210
-732,225	194,755	0,034	-0,038
-731,210	12,373	0,155	0,088
-730,196	-51,000	0,057	-0,020
-729,181	800,000	-0,054	-0,156
-728,167	-95,779	0,053	-0,010
-727,152	166,854	-0,050	-0,053
-726,137	222,670	-0,124	-0,149
-725,123	800,000	0,006	0,020
-724,108	-35,448	0,145	-0,058
-723,094	-200,000	0,013	-0,104
-722,079	-75,736	-0,179	-0,047
-721,064	800,000	0,055	-0,122
-720,050	800,000	-0,060	-0,134
-719,035	-97,501	-0,077	0,015
-718,021	-200,000	-0,029	-0,099
-717,006	105,490	-0,176	-0,154
-715,991	-200,000	-0,011	-0,168
-714,977	109,152	-0,097	-0,086
-713,962	-27,928	0,040	-0,017
-712,948	362,577	-0,057	-0,086
-711,933	-145,509	-0,144	-0,009
-710,918	78,366	-0,041	0,032
-709,904	-144,811	0,180	-0,012
-708,889	-7,730	0,051	-0,025
-707,875	534,559	-0,047	0,082
-706,860	-200,000	-0,008	0,074
-705,845	-14,230	0,094	-0,045
-704,831	-200,000	0,028	-0,099
-703,816	-86,243	0,093	0,021
-702,802	-79,874	-0,069	-0,017
-701,787	-200,000	0,028	-0,143
-700,772	-116,517	-0,043	0,006
-699,758	42,711	0,080	0,054
-698,743	-81,899	0,129	-0,031
-697,729	36,413	0,169	-0,110
-696,714	800,000	0,034	-0,108
-695,699	-35,350	-0,152	0,061
-694,685	-112,903	-0,106	0,015
-693,670	123,965	0,033	-0,031
-692,656	-22,729	-0,084	-0,038
-691,641	403,978	0,031	-0,049
-690,627	800,000	-0,054	0,114
-689,612	400,631	0,095	-0,148
-688,597	-30,276	-0,042	0,017
-687,583	-46,339	-0,125	-0,045
-686,568	387,095	-0,097	-0,148
-685,554	-200,000	0,006	-0,128
-684,539	93,361	-0,035	-0,029
-683,524	-200,000	-0,011	-0,042
-682,510	-190,867	-0,071	0,001
-681,495	37,590	0,019	-0,012
-680,481	208,664	-0,069	-0,080
-679,466	380,141	-0,081	-0,124
-678,451	-200,000	-0,001	-0,015
-677,437	800,000	0,034	0,078
-676,422	-200,000	0,028	0,096
-675,408	-200,000	0,014	0,074
-674,393	-185,030	-0,029	-0,000
-673,378	-8,010	0,041	-0,020
-672,364	195,593	-0,053	-0,059
-671,349	-58,407	-0,052	0,017
-670,335	788,461	0,067	0,137
-669,320	-200,000	0,006	0,086
-668,305	-1,308	0,031	-0,016
-667,291	694,774	-0,048	0,094
-666,276	51,764	-0,038	-0,027
-665,262	-36,849	-0,108	0,043
-664,247	-200,000	0,020	-0,091
-663,232	7,999	-0,056	-0,031
-662,218	-200,000	0,017	0,096
-661,203	281,758	0,061	0,081
-660,189	-14,687	0,041	0,019
-659,174	-115,241	-0,075	0,010
-658,159	-200,000	-0,008	0,048
-657,145	-31,801	0,032	-0,013
-656,130	197,848	0,031	0,035
-655,116	-70,423	-0,046	0,013
-654,101	-26,869	0,082	-0,035
-653,086	800,000	-0,024	0,058
-652,072	-130,854	-0,116	-0,011
-651,057	53,905	-0,119	-0,084
-650,043	174,249	0,077	0,083
-649,028	51,698	-0,103	-0,072
-648,014	21,617	0,069	0,042
-646,999	103,338	-0,051	-0,044
-645,984	-200,000	0,033	0,130
-644,970	800,000	-0,022	0,048
-643,955	155,462	-0,099	-0,101
-642,941	-96,872	-0,068	-0,013
-641,926	-200,000	-0,004	0,113
-640,911	800,000	0,010	-0,022
-639,897	242,117	0,066	-0,082
-638,882	-199,213	-0,094	-0,000
-637,868	476,984	0,023	0,038
-636,853	800,000	-0,103	-0,216
-635,838	-134,237	-0,170	-0,015
-634,824	43,068	0,068	0,046
-633,809	-200,000	-0,004	-0,055
-632,795	-125,285	-0,038	0,004
-631,780	275,945	-0,003	0,004
-630,765	204,981	-0,006	0,007
-629,751	476,530	0,056	-0,094
-628,736	800,000	-0,020	-0,061
-627,722	800,000	-0,002	-0,006
-626,707	641,981	-0,049	-0,092
-625,692	322,762	0,094	-0,132
-624,678	-131,510	0,060	-0,006
-623,663	-124,809	-0,094	0,011
-622,649	800,000	-0,025	-0,056
-621,634	-200,000	-0,006	-0,074
-620,619	-200,000	0,006	0,065
-619,605	138,723	-0,132	0,128
-618,590	-200,000	0,054	0,211
-617,576	-200,000	-0,005	-0,032
-616,561	287,116	0,095	-0,127
-615,546	281,665	-0,042	-0,056
-614,532	800,000	-0,022	-0,045
-613,517	-95,443	0,036	-0,007
-612,503	800,000	-0,057	0,120
-611,488	379,259	0,044	0,067
-610,474	88,890	0,055	0,046
-609,459	-97,490	-0,148	-0,028
-608,444	28,159	0,235	-0,146
-607,430	-200,000	0,036	0,164
-606,415	-47,562	-0,078	-0,028
-605,401	-200,000	-0,002	0,035
-604,386	158,392	0,083	0,085
-603,371	136,376	-0,010	-0,010
-602,357	-91,250	-0,051	0,011
-601,342	212,512	-0,065	-0,076
-600,328	-28,670	0,060	0,025
-599,313	723,523	-0,095	-0,187
-598,298	-86,682	-0,082	-0,018
-597,284	800,000	0,015	0,038
-596,269	577,248	0,034	0,062
-595,255	-200,000	0,025	-0,142
-594,240	21,934	0,102	-0,061
-593,225	229,062	0,056	0,067
-592,211	-93,772	0,056	0,011
-591,196	-200,000	0,011	0,045
-590,182	800,000	-0,025	0,055
-589,167	-127,176	0,073	-0,008
-588,152	-105,465	-0,158	-0,026
-587,138	192,832	-0,028	0,031
-586,123	149,267	-0,054	-0,054
-585,109	800,000	-0,056	-0,138
-584,094	-200,000	0,004	-0,065
-583,079	-200,000	-0,024	0,147
-582,065	-83,962	0,136	0,032
-581,050	-67,778	-0,026	-0,007
-580,036	-200,000	-0,051	0,170
-579,021	-96,327	-0,047	-0,009
-578,006	158,126	0,032	0,033
-576,992	-38,561	-0,077	0,030
-575,977	800,000	0,039	-0,114
-574,963	800,000	0,053	0,169
-573,948	234,994	-0,040	0,049
-572,934	-200,000	0,015	0,088
-571,919	-2,376	-0,063	0,032
-570,904	-70,467	0,057	0,016
-569,890	-64,591	-0,087	-0,026
-568,875	258,834	0,036	0,046
-567,861	800,000	-0,026	-0,056
-566,846	-40,872	-0,102	0,039
-565,831	800,000	0,028	-0,060
-564,817	-200,000	-0,001	-0,145
-563,802	-52,736	-0,064	-0,022
-562,788	6,691	-0,019	0,010
-561,773	173,118	0,066	-0,071
-560,758	216,716	0,023	-0,027
-559,744	3,435	-0,060	-0,032
-558,729	800,000	0,007	-0,019
-557,715	-112,527	-0,132	-0,019
-556,700	116,527	0,085	0,077
-555,685	145,884	0,028	0,028
-554,671	800,000	0,026	-0,069
-553,656	-117,930	0,086	-0,011
-552,642	156,774	0,022	0,022
-551,627	-75,253	-0,121	0,032
-550,612	239,395	-0,064	-0,079
-549,598	-175,849	-0,047	-0,001
-548,583	-200,000	-0,014	0,106
-547,569	244,390	-0,007	0,008
-546,554	-200,000	0,022	0,106
-545,539	-85,409	-0,101	0,023
-544,525	-120,380	0,075	0,009
-543,510	-200,000	-0,001	-0,022
-542,496	-150,245	0,066	-0,004
-541,481	-183,824	-0,065	-0,001
-540,466	-119,365	-0,070	-0,009
-539,452	-73,628	-0,116	0,031
-538,437	-84,913	0,077	0,018
-537,423	-200,000	0,019	-0,066
-536,408	800,000	-0,028	0,088
-535,393	800,000	-0,039	-0,084
-534,379	78,033	0,047	0,037
-533,364	-200,000	-0,023	-0,119
-532,350	727,442	-0,009	0,018
-531,335	799,861	0,059	-0,120
-530,321	-175,932	0,102	-0,002
-529,306	-80,860	0,042	0,010
-528,291	-33,997	-0,188	-0,076
-527,277	234,644	0,046	0,056
-526,262	152,598	-0,028	-0,028
-525,248	188,245	-0,146	-0,161
-524,233	312,197	0,019	-0,026
-523,218	224,796	-0,094	0,112
-522,204	-200,000	0,000	0,035
-521,189	-200,000	-0,014	0,046
-520,175	-200,000	-0,009	-0,035
-519,160	800,000	-0,045	-0,122
-518,145	-72,367	0,105	0,028
-517,131	-200,000	0,022	-0,130
-516,116	-200,000	0,004	-0,073
-515,102	205,185	-0,136	-0,155
-514,087	-200,000	-0,016	-0,234
-513,072	800,000	-0,002	0,006
-512,058	-26,973	0,031	-0,013
-511,043	-200,000	-0,007	0,042
-510,029	-200,000	0,011	-0,112
-509,014	800,000	0,032	-0,067
-507,999	373,735	-0,029	0,043
-506,985	223,888	0,105	-0,125
-505,970	225,706	0,051	-0,061
-504,956	-50,755	-0,185	-0,064
-503,941	156,070	-0,026	-0,026
-502,926	-41,601	0,213	0,080
-501,912	9,722	0,081	-0,045
-500,897	3,626	0,114	-0,061
-499,883	69,019	-0,105	-0,079
-498,868	-200,000	0,014	-0,100
-497,853	-18,040	-0,103	0,047
-496,839	-16,098	-0,044	-0,021
-495,824	-149,657	-0,061	-0,003
-494,810	-47,154	-0,140	-0,050
-493,795	-200,000	0,007	0,038
-492,781	163,027	0,112	0,116
-491,766	578,675	-0,060	-0,109
-490,751	-200,000	0,032	-0,120
-489,737	-1,709	0,118	-0,061
-488,722	-200,000	-0,009	-0,041
-487,708	800,000	-0,077	0,221
-486,693	70,861	-0,051	0,039
-485,678	-7,197	-0,053	0,026
-484,664	211,042	-0,084	0,097
-483,649	-62,705	-0,074	0,022
-482,635	-56,683	0,104	0,034
-481,620	392,238	0,021	-0,032
-480,605	102,206	0,057	-0,049
-479,591	-16,299	0,040	-0,018
-478,576	800,000	0,012	0,028
-477,562	-200,000	-0,001	-0,006
-476,547	382,651	-0,106	-0,161
-475,532	-74,887	0,042	0,011
-474,518	65,673	-0,030	-0,022
-473,503	-136,831	0,071	-0,006
-472,489	-200,000	0,001	0,116
-471,474	-10,231	-0,101	-0,049
-470,459	-146,315	-0,129	0,008
-469,445	255,679	-0,043	-0,054
-468,430	-200,000	-0,003	0,070
-467,416	-24,401	-0,064	0,028
-466,401	-43,992	-0,102	-0,037
-465,386	-85,914	0,107	-0,024
-464,372	-166,951	-0,043	0,001
-463,357	-104,102	-0,183	0,031
-462,343	-200,000	0,005	0,062
-461,328	-200,000	0,011	-0,068
-460,313	800,000	0,032	-0,097
-459,299	-49,650	0,075	0,026
-458,284	-75,802	-0,049	0,013
-457,270	232,955	-0,031	-0,038
-456,255	101,013	-0,180	-0,154
-455,241	-0,880	0,097	-0,050
-454,226	49,452	-0,046	-0,032
-453,211	136,660	-0,055	-0,053
-452,197	800,000	0,032	-0,067
-451,182	210,794	-0,074	0,086
-450,168	567,299	-0,058	0,104
-449,153	-69,816	0,128	-0,036
-448,138	486,324	-0,021	-0,035
-447,124	-88,339	-0,080	0,017
-446,109	57,433	0,066	0,047
-445,095	-25,116	0,076	0,033
-444,080	-76,174	0,102	-0,026
-443,065	-200,000	0,017	0,098
-442,051	128,970	0,025	0,024
-441,036	33,892	-0,045	-0,029
-440,022	281,028	0,057	-0,076
-439,007	618,681	0,015	-0,029
-437,992	-10,579	0,056	-0,027
-436,978	571,192	0,029	0,052
-435,963	-42,375	0,127	0,047
-434,949	9,540	0,062	0,034
-433,934	-200,000	0,015	-0,080
-432,919	-48,154	-0,086	0,030
-431,905	-200,000	0,024	-0,082
-430,890	-157,146	0,012	0,001
-429,876	-200,000	0,010	0,056
-428,861	-4,343	0,081	0,041
-427,846	99,142	0,010	-0,009
-426,832	534,717	0,071	0,123
-425,817	218,431	-0,088	-0,103
-424,803	232,664	0,085	0,102
-423,788	508,551	0,035	-0,059
-422,773	47,477	0,049	-0,033
-421,759	421,369	0,043	0,068
-420,744	-42,729	0,144	0,053
-419,730	800,000	-0,006	0,013
-418,715	-200,000	-0,018	-0,111
-417,701	-200,000	0,009	-0,081
-416,686	800,000	0,011	-0,024
-415,671	-121,458	0,074	-0,009
-414,657	104,812	0,069	-0,059
-413,642	-61,526	0,078	-0,024
-412,628	-56,978	0,039	-0,013
-411,613	-36,682	0,108	0,042
-410,598	-130,488	-0,089	0,009
-409,584	-28,760	0,052	0,022
-408,569	-144,807	0,144	0,009
-407,555	9,764	-0,060	-0,033
-406,540	1,690	0,046	-0,024
-405,525	17,040	-0,081	0,047
-404,511	-57,857	-0,047	0,015
-403,496	178,278	0,036	-0,039
-402,482	55,444	0,050	-0,035
-401,467	-200,000	0,014	-0,054
-400,452	-196,095	-0,023	-0,000
-399,438	46,993	0,110	-0,075
-398,423	-59,498	-0,068	-0,021
-397,409	10,001	-0,100	0,055
-396,394	158,690	0,068	-0,070
-395,379	-120,990	0,078	0,009
-394,365	292,137	0,054	-0,072
-393,350	-69,460	0,047	-0,013
-392,336	66,138	0,099	0,073
-391,321	106,249	-0,131	0,114
-390,306	800,000	-0,043	-0,094
-389,292	800,000	0,050	-0,132
-388,277	115,517	0,014	0,012
-387,263	-108,774	0,149	-0,023
-386,248	800,000	-0,021	0,049
-385,233	196,563	-0,104	0,116
-384,219	-200,000	0,035	-0,159
-383,204	55,413	-0,091	-0,064
-382,190	-146,466	-0,050	-0,003
-381,175	10,747	-0,087	-0,048
-380,160	98,193	-0,024	0,021
-379,146	-200,000	0,009	0,040
-378,131	-200,000	0,002	-0,037
-377,117	-200,000	0,040	-0,183
-376,102	175,675	-0,059	-0,062
-375,088	0,164	0,065	-0,034
-374,073	94,980	0,011	0,009
-373,058	-11,535	-0,083	-0,040
-372,044	65,436	-0,066	0,049
-371,029	-28,817	0,094	0,039
-370,015	-32,807	-0,125	0,050
-369,000	229,211	0,024	-0,029
-367,985	800,000	-0,039	0,089
-366,971	-10,275	0,152	-0,073
-365,956	-95,007	0,093	-0,018
-364,942	800,000	-0,020	0,047
-363,927	304,249	0,041	0,056
-362,912	129,120	-0,044	0,041
-361,898	-69,915	0,110	-0,030
-360,883	281,791	0,057	0,075
-359,869	38,737	-0,058	0,038
-358,854	-84,970	-0,037	-0,008
-357,839	-200,000	0,002	-0,017
-356,825	-200,000	-0,005	0,099
-355,810	-200,000	-0,014	0,094
-354,796	43,235	-0,049	0,033
-353,781	-182,620	0,074	0,001
-352,766	800,000	-0,049	0,108
-351,752	800,000	-0,042	-0,088
-350,737	418,447	0,086	0,135
-349,723	496,734	-0,023	0,039
-348,708	-65,626	0,131	-0,038
-347,693	252,567	-0,036	-0,045
-346,679	190,268	-0,018	0,020
-345,664	258,272	-0,036	-0,046
-344,650	249,085	-0,042	-0,053
-343,635	800,000	0,041	-0,119
-342,620	800,000	0,065	0,148
-341,606	573,864	-0,019	0,033
-340,591	-60,516	0,078	0,024
-339,577	-46,398	-0,061	0,022
-338,562	800,000	0,039	0,087
-337,548	-47,671	-0,111	0,039
-336,533	80,328	-0,077	0,061
-335,518	800,000	0,011	-0,030
-334,504	800,000	-0,066	-0,151
-333,489	4,592	0,121	-0,065
-332,475	-200,000	0,023	-0,196
-331,460	105,654	0,036	-0,031
-330,445	-72,115	-0,092	0,025
-329,431	-200,000	0,024	0,125
-328,416	-144,263	-0,178	0,012
-327,402	11,913	0,214	0,120
-326,387	123,996	-0,039	0,036
-325,372	284,281	-0,036	0,048
-324,358	211,422	0,054	-0,062
-323,343	20,706	-0,049	0,029
-322,329	-178,070	-0,119	0,002
-321,314	800,000	-0,043	-0,122
-320,299	-200,000	-0,033	0,171
-319,285	63,090	-0,047	0,034
-318,270	-200,000	-0,021	-0,142
-317,256	800,000	-0,031	-0,075
-316,241	433,518	0,041	0,065
-315,226	-84,852	0,125	0,029
-314,212	153,472	-0,074	0,074
-313,197	-200,000	-0,010	0,069
-312,183	-34,883	0,106	0,042
-311,168	132,833	-0,029	0,027
-310,153	-133,691	0,085	-0,008
-309,139	77,752	0,061	0,047
-308,124	800,000	-0,076	0,154
-307,110	156,261	0,091	-0,092
-306,095	800,000	0,045	0,110
-305,080	210,689	-0,040	0,046
-304,066	90,242	-0,111	0,091
-303,051	45,134	0,048	-0,032
-302,037	-29,648	0,121	0,050
-301,022	-103,402	0,048	-0,008
-300,008	211,437	0,101	0,116
-298,993	-200,000	-0,010	-0,044
-297,978	119,876	0,055	0,050
-296,964	800,000	0,056	-0,146
-295,949	34,899	0,021	0,013
-294,935	-35,827	0,070	-0,027
-293,920	295,409	-0,031	-0,042
-292,905	125,392	0,093	0,086
-291,891	-200,000	0,004	0,025
-290,876	95,831	-0,022	-0,018
-289,862	-200,000	0,083	0,000
-288,847	800,000	-0,034	-0,085
-287,832	800,000	0,012	0,035
-286,818	27,640	-0,109	-0,067
-285,803	173,909	0,071	0,074
-284,789	277,663	-0,004	-0,005
-283,774	800,000	0,041	0,109
-282,759	-3,285	-0,104	0,053
-281,745	291,477	-0,056	0,074
-280,730	-104,705	-0,133	-0,022
-279,716	58,607	0,102	-0,072
-278,701	335,724	0,036	-0,051
-277,686	-149,575	0,111	-0,006
-276,672	-66,221	-0,111	0,032
-275,657	681,875	0,020	0,038
-274,643	147,537	-0,062	0,061
-273,628	-200,000	0,019	-0,064
-272,613	-166,169	-0,061	0,002
-271,599	89,452	-0,051	-0,041
-270,584	636,752	0,081	0,150
-269,570	800,000	-0,029	0,080
-268,555	-200,000	0,024	0,117
-267,540	18,886	-0,064	-0,037
-266,526	-200,000	-0,011	-0,057
-265,511	364,410	0,069	0,101
-264,497	-200,000	-0,015	0,090
-263,482	-200,000	0,008	0,174
-262,467	211,841	0,039	-0,045
-261,453	-118,803	0,124	0,016
-260,438	800,000	0,022	-0,053
-259,424	800,000	-0,040	-0,105
-258,409	800,000	0,019	-0,045
-257,395	-49,672	-0,118	-0,041
-256,380	-177,528	0,075	-0,001
-255,365	800,000	0,005	-0,015
-254,351	324,581	0,040	0,056
-253,336	800,000	0,027	0,055
-252,322	-132,192	-0,149	-0,014
-251,307	356,840	-0,059	-0,086
-250,292	211,235	0,074	0,085
-249,278	12,821	0,067	-0,037
-248,263	-200,000	0,023	0,079
-247,249	376,732	0,050	0,074
-246,234	438,688	-0,098	-0,156
-245,219	10,751	0,033	-0,018
-244,205	800,000	-0,052	-0,137
-243,190	227,010	0,067	0,080
-242,176	-3,574	-0,126	-0,063
-241,161	-14,438	0,059	0,027
-240,146	-160,200	0,078	-0,003
-239,132	136,950	-0,048	-0,045
-238,117	152,919	-0,077	-0,076
-237,103	-200,000	-0,006	-0,114
-236,088	800,000	0,029	0,073
-235,073	53,967	0,121	-0,084
-234,059	-200,000	0,003	0,030
-233,044	800,000	0,054	0,138
-232,030	800,000	0,034	0,104
-231,015	-16,023	0,067	0,031
-230,000	800,000	0,024	0,056
-228,986	-153,772	0,061	0,003
-227,971	26,678	-0,066	-0,040
-226,957	-46,498	0,115	0,041
-225,942	211,685	0,060	0,069
-224,927	-104,145	-0,072	-0,012
-223,913	-200,000	0,009	-0,057
-222,898	80,573	0,033	0,026
-221,884	23,807	0,032	-0,019
-220,869	-200,000	0,009	0,050
-219,855	43,590	0,055	0,036
-218,840	-149,289	0,073	-0,004
-217,825	119,255	-0,072	0,065
-216,811	-200,000	0,010	0,088
-215,796	800,000	0,045	-0,122
-214,782	14,828	-0,143	-0,081
-213,767	-200,000	0,001	0,175
-212,752	800,000	0,009	-0,019
-211,738	271,457	-0,065	0,083
-210,723	-200,000	0,011	0,215
-209,709	21,668	0,032	-0,019
-208,694	478,504	-0,060	-0,099
-207,679	768,182	-0,092	-0,183
-206,665	800,000	0,042	-0,111
-205,650	-59,196	0,138	0,043
-204,636	102,816	0,066	0,056
-203,621	207,427	0,064	-0,072
-202,606	-197,785	0,109	-0,000
-201,592	-8,583	-0,194	-0,094
-200,577	-143,588	-0,124	-0,008
-199,563	-200,000	0,004	-0,045
-198,548	378,415	-0,119	0,178
-197,533	145,974	0,123	0,120
-196,519	800,000	-0,031	0,069
-195,504	-139,185	-0,057	-0,004
-194,490	-200,000	0,023	-0,163
-193,475	33,898	-0,022	0,014
-192,460	218,949	-0,075	0,087
-191,446	-118,049	0,058	-0,007
-190,431	-69,898	0,131	0,036
-189,417	-200,000	0,006	0,111
-188,402	-123,967	-0,032	-0,004
-187,387	-66,968	-0,037	0,010
-186,373	-17,808	-0,063	0,028
-185,358	-200,000	0,018	0,093
-184,344	800,000	-0,030	0,063
-183,329	-200,000	0,003	-0,027
-182,315	-200,000	0,005	-0,053
-181,300	37,301	0,096	0,062
-180,285	800,000	-0,064	-0,161
-179,271	-45,237	-0,123	-0,044
-178,256	-116,458	-0,023	0,003
-177,242	131,064	0,076	-0,071
-176,227	-200,000	-0,007	0,127
-175,212	-200,000	-0,005	0,079
-174,198	-200,000	0,017	0,110
-173,183	-163,410	-0,080	0,003
-172,169	-200,000	-0,011	-0,087
-171,154	-200,000	0,002	-0,139
-170,139	322,434	0,020	0,028
-169,125	-23,970	0,091	0,039
-168,110	134,540	0,098	0,092
-167,096	26,884	-0,026	0,016
-166,081	-2,698	-0,051	0,026
-165,066	-200,000	-0,002	0,011
-164,052	-166,693	-0,038	-0,001
-163,037	590,437	-0,075	0,135
-162,023	-200,000	-0,026	0,185
-161,008	-20,436	0,143	0,064
-159,993	800,000	0,030	-0,062
-158,979	-200,000	-0,032	-0,151
-157,964	554,342	-0,062	0,108
-156,950	-200,000	0,006	0,121
-155,935	-67,290	-0,082	0,023
-154,920	3,361	-0,071	0,037
-153,906	21,799	0,134	-0,079
-152,891	-56,153	-0,079	0,025
-151,877	-103,883	0,136	0,023
-150,862	-58,298	0,053	-0,017
-149,847	212,729	-0,057	0,065
-148,833	110,028	0,059	0,051
-147,818	-64,898	0,069	0,020
-146,804	275,006	0,033	0,042
-145,789	93,443	-0,043	0,035
-144,775	66,047	-0,067	0,049
-143,760	-36,576	0,048	-0,019
-142,745	800,000	-0,059	0,123
-141,731	-27,150	0,163	0,068
-140,716	-84,051	-0,129	0,029
-139,702	11,069	0,197	-0,109
-138,687	512,892	-0,030	0,051
-137,672	156,054	0,045	0,045
-136,658	-52,119	-0,059	-0,020
-135,643	800,000	-0,060	-0,164
-134,629	88,024	0,073	0,059
-133,614	-200,000	-0,013	-0,106
-132,599	800,000	0,021	0,045
-131,585	-57,190	0,081	0,026
-130,570	-135,693	-0,033	-0,003
-129,556	-200,000	-0,033	-0,149
-128,541	-200,000	-0,000	-0,060
-127,526	5,202	0,014	0,008
-126,512	-200,000	-0,007	0,042
-125,497	800,000	-0,041	0,093
-124,483	14,031	-0,019	-0,010
-123,468	-200,000	0,013	0,057
-122,453	114,115	-0,064	0,056
-121,439	800,000	-0,015	-0,037
-120,424	-66,730	-0,104	-0,030
-119,410	-100,414	0,197	0,035
-118,395	162,079	-0,074	0,075
-117,380	-200,000	-0,002	-0,010
-116,366	-200,000	-0,008	-0,041
-115,351	508,214	-0,088	-0,149
-114,337	800,000	0,016	0,032
-113,322	-200,000	0,003	-0,087
-112,307	800,000	0,035	-0,103
-111,293	415,180	0,057	-0,089
-110,278	-91,730	-0,086	-0,017
-109,264	59,456	0,101	0,072
-108,249	214,851	0,064	-0,073
-107,234	169,695	-0,038	-0,039
-106,220	113,362	-0,100	-0,087
-105,205	105,328	0,110	-0,094
-104,191	-200,000	-0,001	-0,016
-103,176	-103,322	0,023	-0,004
-102,162	82,206	0,038	0,030
-101,147	231,614	-0,034	0,041
-100,132	-167,868	-0,163	-0,005
-99,118	516,395	-0,087	-0,148
-98,103	-200,000	-0,001	0,031
-97,089	46,245	-0,074	0,050
-96,074	-169,770	0,101	0,003
-95,059	37,433	-0,106	-0,068
-94,045	82,106	0,042	0,033
-93,030	800,000	-0,015	0,041
-92,016	-154,405	0,061	0,003
-91,001	-27,972	0,023	-0,010
-89,986	236,170	0,066	0,079
-88,972	-115,411	0,053	-0,007
-87,957	127,047	0,025	0,023
-86,943	-86,745	0,076	0,017
-85,928	-200,000	0,018	-0,061
-84,913	800,000	0,017	-0,041
-83,899	12,707	-0,012	-0,007
-82,884	800,000	-0,065	-0,132
-81,870	800,000	0,041	0,118
-80,855	-200,000	-0,022	-0,080
-79,840	-200,000	0,009	0,086
-78,826	-91,320	-0,125	-0,026
-77,811	274,956	0,058	-0,074
-76,797	290,409	0,042	0,055
-75,782	208,094	-0,108	0,122
-74,767	-101,491	0,092	0,016
-73,753	358,856	-0,026	-0,037
-72,738	-72,580	0,088	-0,023
-71,724	11,625	-0,067	-0,037
-70,709	-111,459	0,094	-0,014
-69,694	373,982	-0,047	-0,069
-68,680	800,000	0,064	-0,144
-67,665	-17,435	0,114	0,052
-66,651	754,217	0,051	0,101
-65,636	222,904	0,025	-0,029
-64,622	800,000	-0,087	-0,212
-63,607	-200,000	-0,025	0,100
-62,592	-200,000	0,021	0,109
-61,578	-200,000	0,019	-0,121
-60,563	800,000	0,054	0,117
-59,549	-200,000	0,013	0,054
-58,534	-30,647	-1,745	-0,710
-57,519	800,000	-0,531	-1,170
-56,505	-200,000	-1,030	-4,642
-55,490	-166,797	0,677	-0,020
-54,476	800,000	5,252	12,160
-53,461	-200,000	15,938	278,185
-52,446	-200,000	702,549	2246,233
-51,432	563,099	1619,019	2840,812
-50,417	121,355	1623,366	1459,818
-49,403	81,596	1284,106	1002,019
-48,388	36,710	1028,243	654,373
-47,373	21,610	989,904	580,048
-46,359	20,490	978,602	569,711
-45,344	18,790	974,685	561,816
-44,330	18,858	973,314	561,226
-43,315	18,681	971,522	559,592
-42,300	18,673	970,406	558,899
-41,286	18,604	969,600	558,187
-40,271	18,677	968,347	557,684
-39,257	18,620	967,590	557,039
-38,242	18,635	966,846	556,639
-37,227	18,591	966,174	556,086
-36,213	18,601	965,208	555,538
-35,198	18,590	964,309	554,963
-34,184	18,625	963,595	554,646
-33,169	18,538	962,687	553,818
-32,154	18,694	961,554	553,649
-31,140	18,550	961,167	552,937
-30,125	18,627	960,205	552,612
-29,111	18,625	959,605	552,241
-28,096	18,665	958,809	551,889
-27,082	18,603	958,134	551,278
-26,067	18,613	957,339	550,830
-25,052	18,569	956,399	550,125
-24,038	18,621	955,778	549,914
-23,023	18,502	955,119	549,131
-22,009	18,664	954,356	549,191
-20,994	18,637	953,881	548,809
-19,979	18,576	953,468	548,354
-18,965	18,561	952,652	547,813
-17,950	18,587	952,166	547,597
-16,936	18,529	951,572	547,049
-15,921	18,475	950,730	546,370
-14,906	18,484	949,943	545,922
-13,892	18,537	949,309	545,707
-12,877	18,511	948,545	545,162
-11,863	18,445	948,026	544,632
-10,848	18,435	947,531	544,294
-9,833	18,582	946,933	544,397
-8,819	18,547	946,449	543,987
-7,804	18,454	945,898	543,351
-6,790	18,463	945,326	543,032
-5,775	18,515	944,563	542,735
-4,760	18,512	943,951	542,353
-3,746	18,544	943,125	541,961
-2,731	18,364	942,470	540,990
-1,717	18,312	941,810	540,424
-0,702	18,282	941,083	539,891
0,313	18,132	940,515	539,904
1,327	21,194	938,902	548,625
2,342	30,029	796,077	488,690
3,356	26,874	449,234	271,015
4,371	-2,621	294,742	148,300
5,386	-6,939	276,246	134,883
6,400	-7,984	270,275	130,984
7,415	-8,493	268,046	129,424
8,429	-8,224	266,688	129,003
9,444	-8,356	265,894	128,487
10,459	-8,168	265,300	128,360
11,473	-8,296	264,660	127,922
12,488	-8,418	264,138	127,547
13,502	-8,675	263,574	127,031
14,517	-8,490	263,225	127,019
15,531	-8,214	262,859	127,080
16,546	-8,044	262,365	126,984
17,561	-8,276	262,098	126,634
18,575	-8,083	261,738	126,623
19,590	-8,508	261,473	126,101
20,604	-8,319	261,171	126,114
21,619	-8,340	260,858	125,932
22,634	-8,331	260,487	125,750
23,648	-8,544	260,299	125,458
24,663	-8,473	259,961	125,347
25,677	-8,161	259,609	125,444
26,692	-8,306	259,351	125,179
27,707	-8,335	259,101	125,022
28,721	-8,151	258,724	124,992
29,736	-8,407	258,558	124,674
30,750	-8,271	258,297	124,657
31,765	-8,364	258,133	124,484
32,780	-8,493	257,985	124,287
33,794	-8,600	257,841	124,113
34,809	-8,472	257,327	123,967
35,823	-8,377	257,042	123,902
36,838	-8,523	256,813	123,653
37,853	-8,560	256,739	123,574
38,867	-8,575	256,549	123,458
39,882	-8,406	256,165	123,410
40,896	-8,363	255,924	123,321
41,911	-8,389	255,799	123,227
42,926	-8,663	255,540	122,851
43,940	-8,435	255,196	122,874
44,955	-8,627	255,079	122,639
45,969	-8,524	254,809	122,588
46,984	-8,768	254,746	122,334
47,999	-9,090	254,301	121,828
49,013	-9,292	254,144	121,566
50,028	-9,283	253,804	121,400
51,042	-9,289	253,545	121,260
52,057	-9,110	253,277	121,277
53,071	-9,453	253,265	120,963
54,086	-9,230	252,909	120,975
55,101	-9,009	252,819	121,113
56,115	-8,907	252,671	121,119
57,130	-8,431	252,635	121,504
58,144	-8,376	252,451	121,451
59,159	-8,298	252,249	121,411
60,174	-8,366	251,965	121,205
61,188	-8,418	251,760	121,050
62,203	-8,243	251,621	121,124
63,217	-8,256	251,211	120,904
64,232	-8,367	251,180	120,783
65,247	-8,353	250,808	120,606
66,261	-8,459	250,556	120,383
67,276	-8,510	250,367	120,238
68,290	-8,727	250,065	119,896
69,305	-9,045	249,910	119,539
70,320	-8,921	249,649	119,509
71,334	-8,550	249,619	119,801
72,349	-8,285	249,526	119,973
73,363	-8,440	249,452	119,793
74,378	-8,343	249,070	119,683
75,393	-8,288	248,798	119,588
76,407	-8,220	248,496	119,490
77,422	-8,272	248,419	119,398
78,436	-8,397	248,227	119,189
79,451	-8,412	248,162	119,135
80,466	-8,513	247,813	118,871
81,480	-8,527	247,541	118,718
82,495	-8,637	247,381	118,537
83,509	-8,683	247,337	118,467
84,524	-8,636	247,116	118,390
85,539	-8,628	246,716	118,195
86,553	-8,882	246,513	117,873
87,568	-8,684	246,450	117,999
88,582	-8,675	246,180	117,867
89,597	-8,985	246,130	117,572
90,611	-8,570	245,896	117,798
91,626	-8,546	245,872	117,796
92,641	-8,565	245,698	117,686
93,655	-8,480	245,384	117,597
94,670	-8,774	245,241	117,271
95,684	-8,478	244,905	117,347
96,699	-8,539	244,854	117,262
97,714	-8,885	244,528	116,806
98,728	-8,779	244,376	116,812
99,743	-8,725	244,053	116,692
100,757	-8,902	243,913	116,467
101,772	-8,785	243,628	116,418
102,787	-8,705	243,560	116,442
103,801	-8,807	243,529	116,332
104,816	-8,634	243,433	116,420
105,830	-8,706	243,238	116,255
106,845	-8,333	242,892	116,389
107,860	-8,476	242,832	116,232
108,874	-8,577	242,494	115,976
109,889	-8,722	242,429	115,815
110,903	-8,636	242,097	115,717
111,918	-8,571	241,913	115,672
112,933	-8,729	241,929	115,539
113,947	-8,608	241,794	115,564
114,962	-8,601	241,575	115,455
115,976	-8,856	241,547	115,221
116,991	-8,418	241,164	115,389
118,006	-8,579	241,141	115,234
119,020	-8,434	240,849	115,204
120,035	-8,374	240,687	115,165
121,049	-8,384	240,438	115,027
122,064	-8,474	240,355	114,904
123,079	-8,484	240,187	114,806
124,093	-8,582	239,996	114,623
125,108	-8,770	239,675	114,307
126,122	-9,149	239,516	113,911
127,137	-9,067	239,409	113,917
128,151	-8,819	239,137	113,980
129,166	-8,847	239,030	113,895
130,181	-8,663	238,737	113,896
131,195	-9,009	238,692	113,583
132,210	-8,816	238,525	113,649
133,224	-8,548	238,424	113,809
134,239	-8,731	238,264	113,574
135,254	-8,518	237,987	113,604
136,268	-8,482	237,600	113,439
137,283	-8,899	237,470	113,029
138,297	-8,999	237,323	112,869
139,312	-9,062	237,053	112,679
140,327	-8,573	236,947	113,013
141,341	-8,086	236,927	113,386
142,356	-8,057	236,712	113,296
143,370	-8,217	236,723	113,163
144,385	-8,230	236,640	113,103
145,400	-7,934	236,338	113,186
146,414	-8,134	236,267	112,981
147,429	-8,195	236,089	112,837
148,443	-8,277	235,831	112,638
149,458	-8,440	235,761	112,464
150,473	-8,322	235,499	112,423
151,487	-8,304	235,329	112,346
152,502	-8,254	235,211	112,320
153,516	-8,031	235,001	112,388
154,531	-8,056	234,722	112,224
155,546	-8,252	234,668	112,032
156,560	-8,414	234,494	111,810
157,575	-8,413	234,227	111,674
158,589	-8,503	234,164	111,562
159,604	-8,052	233,863	111,766
160,619	-8,012	233,926	111,819
161,633	-7,868	233,782	111,854
162,648	-8,132	233,633	111,563
163,662	-8,222	233,438	111,389
164,677	-8,445	233,248	111,112
165,692	-8,406	233,190	111,106
166,706	-8,036	232,950	111,273
167,721	-8,099	232,895	111,188
168,735	-8,335	232,820	110,955
169,750	-8,258	232,556	110,881
170,764	-8,170	232,337	110,836
171,779	-8,188	232,270	110,780
172,794	-8,245	232,239	110,711
173,808	-8,160	231,789	110,553
174,823	-8,901	231,508	109,827
175,837	-8,669	231,239	109,871
176,852	-8,548	231,341	110,005
177,867	-8,280	231,336	110,203
178,881	-8,108	231,077	110,205
179,896	-7,987	230,901	110,205
180,910	-8,160	230,731	109,980
181,925	-8,025	230,628	110,026
182,940	-8,173	230,478	109,829
183,954	-8,060	230,230	109,789
184,969	-7,962	230,188	109,835
185,983	-7,835	230,090	109,878
186,998	-8,199	230,091	109,585
188,013	-8,133	229,721	109,450
189,027	-7,854	229,539	109,571
190,042	-7,698	229,469	109,649
191,056	-7,975	229,240	109,315
192,071	-8,014	229,092	109,204
193,086	-8,046	228,815	109,038
194,100	-8,219	228,619	108,801
195,115	-8,435	228,348	108,495
196,129	-9,577	228,070	107,472
197,144	-4,847	229,633	111,872
198,159	0,862	231,213	117,083
199,173	3,255	231,861	119,268
200,188	3,489	231,739	119,376
201,202	3,632	231,603	119,407
202,217	3,681	231,578	119,421
203,232	4,100	231,380	119,634
204,246	4,203	231,176	119,598
205,261	4,201	231,168	119,582
206,275	4,115	231,124	119,481
207,290	4,288	230,854	119,465
208,304	4,491	230,671	119,517
209,319	4,146	230,553	119,178
210,334	4,194	230,286	119,067
211,348	3,801	230,211	118,713
212,363	3,694	229,844	118,432
213,377	3,516	229,475	118,094
214,392	3,120	229,520	117,801
215,407	3,401	229,563	118,029
216,421	3,509	229,250	117,941
217,436	3,466	229,009	117,774
218,450	3,333	228,917	117,614
219,465	3,111	228,722	117,332
220,480	3,312	228,461	117,342
221,494	3,175	228,410	117,201
222,509	3,418	228,382	117,361
223,523	3,396	228,162	117,221
224,538	3,208	228,067	117,018
225,553	3,315	228,052	117,082
226,567	3,277	227,828	116,928
227,582	3,653	227,699	117,138
228,596	3,784	227,564	117,158
229,611	3,595	227,378	116,908
230,626	3,208	227,123	116,471
231,640	3,166	227,125	116,431
232,655	3,517	226,910	116,576
233,669	3,791	226,993	116,817
234,684	4,056	226,798	116,908
235,699	3,893	226,546	116,644
236,713	3,668	226,312	116,343
237,728	3,597	226,044	116,140
238,742	3,250	226,009	115,850
239,757	3,240	225,929	115,790
240,772	3,389	225,548	115,698
241,786	3,366	225,454	115,622
242,801	3,645	225,519	115,856
243,815	3,817	225,467	115,948
244,830	3,839	225,199	115,816
245,844	3,721	225,101	115,667
246,859	3,486	224,827	115,339
247,874	3,564	224,788	115,367
248,888	3,585	224,720	115,338
249,903	3,361	224,464	115,028
250,917	3,548	224,227	115,037
251,932	3,469	224,076	114,890
252,947	3,181	224,011	114,630
253,961	3,145	223,701	114,434
254,976	3,343	223,748	114,596
255,990	3,630	223,519	114,683
257,005	3,668	223,462	114,673
258,020	3,669	223,360	114,611
259,034	3,825	223,314	114,694
260,049	3,897	222,971	114,560
261,063	3,560	222,990	114,309
262,078	3,820	222,742	114,365
263,093	3,815	222,604	114,281
264,107	3,853	222,438	114,213
265,122	3,687	222,378	114,049
266,136	3,734	222,343	114,055
267,151	3,519	222,233	113,830
268,166	3,621	221,749	113,647
269,180	3,286	221,514	113,268
270,195	3,314	221,423	113,232
271,209	3,249	221,310	113,117
272,224	3,253	221,235	113,071
273,239	3,627	221,232	113,335
274,253	3,407	220,985	113,037
275,268	3,328	220,632	112,788
276,282	3,289	220,544	112,704
277,297	3,141	220,459	112,542
278,312	3,293	220,457	112,643
279,326	3,460	220,145	112,596
280,341	3,336	220,112	112,478
281,355	3,388	219,961	112,429
282,370	3,500	219,925	112,482
283,384	3,220	219,594	112,098
284,399	3,106	219,506	111,960
285,414	3,032	219,320	111,801
286,428	3,260	219,219	111,906
287,443	3,431	219,203	112,013
288,457	3,787	218,883	112,099
289,472	3,318	218,801	111,705
290,487	3,036	218,677	111,426
291,501	2,812	218,438	111,131
292,516	3,088	218,226	111,214
293,530	3,262	218,231	111,334
294,545	3,136	218,131	111,181
295,560	3,030	217,971	111,012
296,574	3,335	218,048	111,264
297,589	3,334	217,848	111,151
298,603	3,514	217,555	111,122
299,618	3,514	217,474	111,071
300,633	3,566	217,411	111,066
301,647	3,624	217,415	111,101
302,662	3,687	217,179	111,015
303,676	3,666	216,969	110,883
304,691	3,674	216,747	110,766
305,706	3,690	216,589	110,686
306,720	3,594	216,547	110,586
307,735	3,208	216,271	110,157
308,749	3,364	216,223	110,235
309,764	3,581	216,084	110,310
310,779	3,786	216,037	110,424
311,793	3,533	215,897	110,160
312,808	3,227	215,763	109,863
313,822	3,053	215,518	109,603
314,837	3,058	215,307	109,490
315,852	3,312	215,239	109,627
316,866	3,447	215,185	109,687
317,881	3,689	215,122	109,818
318,895	3,780	214,759	109,688
319,910	3,579	214,655	109,481
320,925	3,179	214,541	109,128
321,939	2,804	214,346	108,753
322,954	3,059	214,348	108,925
323,968	3,525	214,177	109,160
324,983	3,819	214,012	109,275
325,997	3,691	213,951	109,144
327,012	3,449	213,803	108,887
328,027	3,431	213,692	108,807
329,041	3,856	213,631	109,068
330,056	3,934	213,495	109,045
331,070	3,554	213,198	108,615
332,085	3,091	213,026	108,189
333,100	3,320	212,845	108,250
334,114	3,387	212,725	108,227
335,129	3,509	212,644	108,261
336,143	3,356	212,566	108,104
337,158	3,580	212,270	108,102
338,173	3,443	212,125	107,921
339,187	3,129	212,106	107,682
340,202	3,243	211,912	107,653
341,216	3,229	211,776	107,565
342,231	3,392	211,585	107,573
343,246	3,102	211,553	107,343
344,260	3,217	211,496	107,385
345,275	3,359	211,321	107,387
346,289	3,737	211,091	107,525
347,304	3,674	210,965	107,407
348,319	3,393	210,944	107,190
349,333	3,676	210,792	107,301
350,348	3,501	210,599	107,071
351,362	3,558	210,585	107,095
352,377	3,565	210,493	107,043
353,392	3,502	210,437	106,961
354,406	3,471	210,132	106,775
355,421	194,066	1343,558	1425,305
356,435	154,907	1481,691	1425,349
