DTS Sentinel unit serial number:	SN410029Multiplexer serial number:	ORYXHardware model number:	OX2-SRSoftware version number:	ORYX F/W v4,00 Oryx Data Collector v3.7.2.0data status	okinstallation	B6 Nyhavnadifferential loss correction	single-endedforward channel	channel 2reverse channel	N/Adate	2023/12/11time	02:25:08forward acquisition time	300,00reverse acquisition time	0,00gamma	499,1914k internal	0,3122k external	0,3122temperature offset calibration	1,0000default loss term (dB/km)	0,3820temperature slope calibration	1,0000multiplexer offset coefficient	1,0000multiplexer slope coefficient	1,0000fibre end	0,00T internal ref (°C)	21,76T ext. ref 1 (°C)	4,67T ext. ref 2 (°C)	4,68length (m)	temperature (°C)	Stokes	anti-Stokes-744,400	-200,000	-0,024	-0,100
-743,385	13,867	-0,159	0,092
-742,371	800,000	0,011	0,034
-741,356	-57,415	-0,293	0,095
-740,342	-22,835	0,104	0,047
-739,327	-160,803	-0,263	0,010
-738,312	-100,059	0,083	0,015
-737,298	-91,659	-0,171	0,036
-736,283	-142,849	0,073	0,005
-735,269	69,375	-0,181	0,139
-734,254	424,851	0,071	-0,114
-733,239	-112,116	-0,502	-0,074
-732,225	-51,689	0,128	0,044
-731,210	149,604	0,044	0,045
-730,196	-200,000	0,002	-0,222
-729,181	377,201	0,070	-0,107
-728,167	69,331	-0,072	-0,055
-727,152	-200,000	0,058	0,245
-726,137	582,601	-0,069	-0,126
-725,123	98,037	0,036	-0,031
-724,108	-200,000	-0,017	0,063
-723,094	-40,756	-0,150	-0,057
-722,079	8,059	-0,036	-0,020
-721,064	-138,744	-0,044	0,003
-720,050	23,411	0,061	-0,037
-719,035	-200,000	-0,002	0,078
-718,021	528,591	0,051	-0,091
-717,006	-200,000	-0,007	-0,100
-715,991	230,438	-0,055	-0,067
-714,977	-61,961	-0,082	0,026
-713,962	-176,494	-0,125	-0,002
-712,948	-172,059	0,054	-0,001
-711,933	705,445	0,017	-0,033
-710,918	25,639	0,187	0,116
-709,904	-118,304	-0,095	0,012
-708,889	-200,000	-0,008	-0,066
-707,875	471,095	0,042	-0,071
-706,860	-200,000	-0,016	-0,166
-705,845	63,259	0,099	-0,074
-704,831	566,874	0,038	0,070
-703,816	-200,000	-0,007	0,064
-702,802	-86,576	-0,165	0,037
-701,787	-200,000	-0,003	0,087
-700,772	154,065	-0,109	-0,111
-699,758	14,276	-0,058	-0,033
-698,743	125,408	0,056	0,053
-697,729	800,000	-0,064	0,162
-696,714	-124,493	0,067	-0,008
-695,699	-41,868	-0,107	-0,040
-694,685	-87,835	-0,034	0,007
-693,670	-51,863	-0,154	-0,053
-692,656	-200,000	0,013	-0,065
-691,641	-10,817	-0,031	-0,015
-690,627	-83,230	0,055	-0,013
-689,612	-38,352	-0,080	0,031
-688,597	800,000	-0,019	-0,047
-687,583	47,744	-0,065	-0,045
-686,568	58,459	-0,059	-0,043
-685,554	64,736	-0,052	-0,039
-684,539	-200,000	0,010	-0,046
-683,524	-26,536	-0,219	-0,095
-682,510	78,500	0,063	0,050
-681,495	800,000	0,053	0,134
-680,481	184,834	-0,029	-0,032
-679,466	169,702	-0,069	-0,073
-678,451	225,302	-0,118	-0,143
-677,437	-19,383	0,070	-0,032
-676,422	425,250	0,054	0,087
-675,408	800,000	0,030	-0,094
-674,393	-128,263	-0,071	0,007
-673,378	-94,722	-0,089	0,018
-672,364	-1,053	0,108	-0,056
-671,349	800,000	0,045	-0,110
-670,335	9,570	-0,087	-0,049
-669,320	-17,581	0,058	0,027
-668,305	320,373	0,052	-0,074
-667,291	-83,280	-0,111	-0,026
-666,276	154,860	-0,076	-0,078
-665,262	202,786	-0,027	0,031
-664,247	-173,717	-0,163	-0,004
-663,232	296,578	-0,047	0,065
-662,218	-46,175	-0,034	0,012
-661,203	-200,000	0,018	0,103
-660,189	-55,121	-0,073	-0,024
-659,174	-32,565	-0,069	-0,028
-658,159	152,235	-0,101	-0,102
-657,145	-150,841	-0,103	-0,006
-656,130	-200,000	-0,016	-0,082
-655,116	-86,367	0,123	0,028
-654,101	241,421	-0,051	0,063
-653,086	800,000	-0,076	-0,166
-652,072	-66,158	0,074	-0,022
-651,057	800,000	-0,054	-0,115
-650,043	-58,081	-0,165	-0,053
-649,028	60,757	0,040	0,029
-648,014	800,000	0,055	0,176
-646,999	113,737	-0,016	0,015
-645,984	-200,000	-0,020	-0,181
-644,970	800,000	-0,038	-0,083
-643,955	150,230	0,065	0,066
-642,941	107,998	-0,065	-0,058
-641,926	176,004	0,021	0,022
-640,911	39,971	0,113	-0,076
-639,897	298,115	-0,091	0,124
-638,882	0,687	-0,039	-0,020
-637,868	115,694	-0,073	-0,066
-636,853	-200,000	0,004	0,029
-635,838	800,000	-0,035	-0,085
-634,824	678,938	0,023	0,044
-633,809	-200,000	-0,013	-0,050
-632,795	-200,000	0,002	0,065
-631,780	-80,647	-0,092	0,023
-630,765	-200,000	0,024	-0,115
-629,751	26,841	0,010	0,006
-628,736	155,573	-0,040	-0,041
-627,722	61,961	0,105	0,077
-626,707	-87,751	-0,054	0,012
-625,692	608,233	0,021	0,039
-624,678	696,472	0,061	0,119
-623,663	272,441	0,034	0,044
-622,649	-13,845	-0,131	-0,063
-621,634	800,000	0,057	-0,133
-620,619	-15,541	-0,026	0,012
-619,605	-68,796	0,066	0,019
-618,590	800,000	0,027	0,077
-617,576	-117,080	0,061	0,008
-616,561	-61,756	0,032	-0,010
-615,546	800,000	-0,055	0,148
-614,532	65,415	-0,022	0,016
-613,517	-1,652	0,040	0,021
-612,503	-200,000	-0,008	-0,082
-611,488	800,000	-0,029	0,060
-610,474	-200,000	0,010	0,048
-609,459	-43,979	-0,137	0,051
-608,444	152,328	-0,051	0,052
-607,430	19,823	-0,112	-0,067
-606,415	-200,000	0,009	-0,084
-605,401	800,000	-0,025	0,068
-604,386	220,637	0,060	-0,071
-603,371	-131,522	0,065	-0,006
-602,357	34,074	0,120	-0,077
-601,342	-159,769	-0,180	-0,007
-600,328	-200,000	-0,018	0,083
-599,313	-200,000	-0,027	-0,103
-598,298	-200,000	-0,003	0,027
-597,284	563,150	-0,015	-0,028
-596,269	-103,211	-0,015	0,003
-595,255	-76,645	0,056	-0,014
-594,240	-145,214	0,056	0,004
-593,225	800,000	-0,007	0,022
-592,211	312,802	-0,080	-0,112
-591,196	429,149	0,036	-0,057
-590,182	-200,000	0,006	0,145
-589,167	-200,000	0,038	-0,129
-588,152	800,000	0,035	-0,103
-587,138	-66,509	-0,072	-0,021
-586,123	-49,168	-0,062	0,022
-585,109	337,316	-0,097	-0,140
-584,094	-200,000	-0,018	-0,084
-583,079	-38,039	-0,157	0,061
-582,065	-98,370	0,028	0,005
-581,050	-200,000	-0,007	-0,125
-580,036	170,124	-0,075	0,080
-579,021	800,000	0,047	-0,142
-578,006	545,847	0,054	-0,095
-576,992	-200,000	0,009	0,051
-575,977	88,281	0,060	0,050
-574,963	-57,554	0,097	0,031
-573,948	120,937	-0,054	-0,050
-572,934	-86,216	-0,026	0,006
-571,919	-99,900	-0,146	-0,027
-570,904	424,707	-0,040	0,064
-569,890	800,000	-0,034	0,078
-568,875	46,548	0,035	0,024
-567,861	-192,426	0,101	0,001
-566,846	160,025	0,037	0,038
-565,831	-200,000	0,024	-0,111
-564,817	-110,983	-0,089	0,013
-563,802	47,371	-0,093	-0,064
-562,788	800,000	-0,012	-0,026
-561,773	-200,000	-0,030	-0,113
-560,758	-200,000	-0,008	0,098
-559,744	-102,587	-0,096	-0,017
-558,729	454,369	-0,055	-0,091
-557,715	-200,000	-0,014	-0,118
-556,700	124,459	-0,041	-0,038
-555,685	-146,305	-0,140	-0,009
-554,671	298,634	-0,002	-0,002
-553,656	-200,000	-0,007	0,091
-552,642	-200,000	-0,014	0,164
-551,627	-95,142	0,083	0,016
-550,612	637,591	0,053	0,101
-549,598	440,212	0,036	-0,058
-548,583	800,000	-0,057	0,136
-547,569	494,631	0,073	0,125
-546,554	-61,281	-0,065	0,020
-545,539	-200,000	-0,003	0,034
-544,525	409,887	-0,036	0,056
-543,510	261,586	-0,067	-0,086
-542,496	77,444	0,041	0,033
-541,481	178,222	0,030	0,032
-540,466	-25,653	0,092	0,040
-539,452	709,877	0,025	-0,049
-538,437	372,416	0,070	0,105
-537,423	50,650	-0,071	-0,050
-536,408	292,124	0,054	-0,074
-535,393	-21,550	-0,096	-0,043
-534,379	-200,000	-0,010	0,036
-533,364	74,061	0,136	0,105
-532,350	132,941	0,030	-0,028
-531,335	277,773	0,037	0,049
-530,321	800,000	-0,018	-0,049
-529,306	430,574	-0,055	0,088
-528,291	-200,000	0,016	-0,128
-527,277	32,072	-0,046	-0,029
-526,262	36,294	-0,030	-0,020
-525,248	-16,787	0,129	0,060
-524,233	-22,345	-0,047	0,021
-523,218	0,476	-0,068	0,036
-522,204	800,000	-0,050	0,124
-521,189	-80,599	-0,102	0,025
-520,175	-32,267	-0,055	0,023
-519,160	800,000	0,086	-0,198
-518,145	214,761	0,058	-0,068
-517,131	800,000	0,047	0,150
-516,116	-200,000	0,007	0,028
-515,102	-152,633	0,144	0,007
-514,087	121,096	-0,022	-0,020
-513,072	-132,272	-0,078	0,007
-512,058	-200,000	0,013	-0,125
-511,043	351,522	0,068	-0,099
-510,029	-200,000	-0,004	0,018
-509,014	114,559	0,094	0,084
-507,999	-200,000	0,015	0,101
-506,985	-156,612	-0,117	-0,005
-505,970	79,897	-0,089	-0,070
-504,956	-63,902	-0,104	-0,031
-503,941	-60,042	0,125	-0,039
-502,926	114,955	0,071	0,064
-501,912	74,331	-0,096	-0,075
-500,897	30,866	-0,053	-0,034
-499,883	800,000	-0,039	-0,115
-498,868	-47,678	-0,039	0,014
-497,853	-200,000	-0,007	-0,112
-496,839	140,415	-0,077	0,076
-495,824	285,354	-0,026	0,035
-494,810	81,852	0,130	0,104
-493,795	-44,734	-0,075	-0,028
-492,781	-200,000	0,016	0,057
-491,766	-124,120	-0,088	-0,010
-490,751	-83,316	-0,046	-0,011
-489,737	709,646	0,046	-0,091
-488,722	-101,254	0,099	0,018
-487,708	597,869	0,065	-0,119
-486,693	147,785	0,078	-0,077
-485,678	38,583	-0,075	0,049
-484,664	453,095	0,073	-0,120
-483,649	154,279	0,057	0,058
-482,635	-200,000	-0,003	0,021
-481,620	800,000	-0,006	0,015
-480,605	147,871	0,062	0,062
-479,591	299,472	-0,088	-0,120
-478,576	103,435	-0,102	0,088
-477,562	800,000	-0,046	-0,100
-476,547	713,482	-0,047	-0,093
-475,532	71,485	-0,051	-0,039
-474,518	800,000	-0,021	-0,062
-473,503	-62,805	-0,083	-0,025
-472,489	241,586	-0,042	0,052
-471,474	-146,124	-0,069	-0,004
-470,459	-89,430	-0,089	-0,019
-469,445	88,335	-0,059	-0,048
-468,430	-2,062	0,035	0,018
-467,416	64,897	0,048	0,036
-466,401	800,000	0,021	0,057
-465,386	37,385	-0,071	-0,046
-464,372	79,013	-0,087	0,069
-463,357	477,436	-0,094	0,158
-462,343	437,472	0,044	0,072
-461,328	-48,125	0,064	0,022
-460,313	57,201	-0,115	-0,083
-459,299	-40,487	0,055	-0,021
-458,284	7,903	-0,083	-0,046
-457,270	578,976	-0,052	-0,095
-456,255	-200,000	-0,004	-0,024
-455,241	-200,000	0,001	0,057
-454,226	487,307	-0,049	0,082
-453,211	800,000	0,089	0,250
-452,197	-135,503	0,113	0,010
-451,182	800,000	0,032	0,086
-450,168	-200,000	0,020	0,166
-449,153	-200,000	0,001	-0,014
-448,138	-79,568	-0,174	0,043
-447,124	202,264	0,025	0,029
-446,109	81,596	0,189	-0,151
-445,095	-0,617	0,118	-0,062
-444,080	-117,699	-0,122	-0,016
-443,065	-200,000	0,004	-0,036
-442,051	-200,000	0,008	0,100
-441,036	746,435	0,045	-0,089
-440,022	116,847	-0,114	-0,103
-439,007	-200,000	-0,036	-0,133
-437,992	169,595	0,045	0,048
-436,978	189,246	0,017	0,018
-435,963	800,000	-0,027	-0,060
-434,949	-49,561	-0,074	0,026
-433,934	-27,906	-0,072	-0,031
-432,919	-200,000	-0,008	-0,074
-431,905	79,625	0,160	-0,126
-430,890	-197,195	-0,111	-0,001
-429,876	800,000	-0,036	0,107
-428,861	280,066	-0,059	0,078
-427,846	-200,000	-0,006	0,123
-426,832	800,000	-0,014	0,046
-425,817	-200,000	0,023	-0,109
-424,803	-74,002	0,121	-0,032
-423,788	247,479	0,070	-0,087
-422,773	-56,564	0,076	-0,025
-421,759	270,328	0,048	0,062
-420,744	754,985	0,023	0,047
-419,730	562,844	-0,075	-0,134
-418,715	-72,811	-0,027	0,007
-417,701	-182,589	0,052	0,001
-416,686	-200,000	0,032	0,175
-415,671	70,446	0,065	0,049
-414,657	238,759	-0,100	0,123
-413,642	800,000	-0,011	0,025
-412,628	-200,000	0,025	0,084
-411,613	248,099	0,119	-0,148
-410,598	322,645	0,025	0,035
-409,584	800,000	0,020	-0,045
-408,569	85,961	0,098	0,080
-407,555	370,293	-0,072	0,108
-406,540	800,000	0,034	0,071
-405,525	-40,941	-0,012	-0,005
-404,511	400,783	-0,058	-0,090
-403,496	-77,171	-0,103	-0,026
-402,482	337,450	0,048	-0,069
-401,467	-21,777	0,090	-0,040
-400,452	110,847	-0,029	-0,026
-399,438	800,000	0,044	-0,096
-398,423	-200,000	-0,014	-0,106
-397,409	-71,338	-0,058	0,016
-396,394	193,989	0,028	-0,031
-395,379	231,969	-0,024	0,029
-394,365	21,870	0,030	-0,018
-393,350	-200,000	-0,008	0,050
-392,336	-200,000	0,001	0,042
-391,321	265,004	0,102	-0,131
-390,306	-200,000	-0,002	-0,059
-389,292	-200,000	0,026	0,096
-388,277	-56,110	0,079	0,026
-387,263	800,000	0,055	0,128
-386,248	185,829	0,059	0,064
-385,233	-84,289	-0,034	0,008
-384,219	800,000	0,034	-0,074
-383,204	-56,316	-0,122	-0,039
-382,190	82,225	-0,105	-0,083
-381,175	314,598	0,082	-0,113
-380,160	800,000	-0,022	-0,046
-379,146	-85,443	0,123	-0,028
-378,131	275,728	0,023	0,030
-377,117	12,865	-0,063	-0,035
-376,102	-58,510	-0,146	0,046
-375,088	-200,000	-0,037	0,164
-374,073	800,000	0,026	0,064
-373,058	-200,000	0,008	0,036
-372,044	-200,000	-0,005	0,066
-371,029	-200,000	-0,021	-0,083
-370,015	34,994	0,012	-0,008
-369,000	-200,000	0,028	0,130
-367,985	32,715	-0,055	-0,035
-366,971	-200,000	0,049	-0,186
-365,956	-8,893	0,071	0,035
-364,942	-34,837	-0,087	0,035
-363,927	-39,468	0,116	-0,044
-362,912	-200,000	0,040	0,136
-361,898	8,919	-0,168	0,093
-360,883	501,172	0,124	-0,210
-359,869	-200,000	0,041	0,000
-358,854	-200,000	0,020	-0,104
-357,839	-200,000	0,024	0,198
-356,825	-45,281	-0,140	-0,051
-355,810	74,204	0,115	0,088
-354,796	219,196	-0,071	0,083
-353,781	-0,149	0,071	0,037
-352,766	-119,950	0,094	0,012
-351,752	356,229	-0,069	-0,101
-350,737	299,507	-0,044	0,059
-349,723	204,174	-0,088	0,100
-348,708	-200,000	0,003	0,215
-347,693	800,000	-0,028	0,078
-346,679	-200,000	0,007	0,121
-345,664	339,134	-0,089	-0,128
-344,650	168,681	-0,086	-0,090
-343,635	-38,582	0,056	-0,022
-342,620	110,985	0,065	0,057
-341,606	-36,295	-0,135	-0,053
-340,591	131,312	-0,097	0,091
-339,577	143,043	-0,084	-0,082
-338,562	-105,692	0,150	-0,025
-337,548	207,871	0,031	-0,036
-336,533	-15,274	-0,153	-0,071
-335,518	-144,645	0,056	0,004
-334,504	-200,000	-0,035	-0,141
-333,489	800,000	0,056	-0,128
-332,475	469,074	-0,021	-0,034
-331,460	-112,688	-0,062	-0,009
-330,445	-200,000	0,006	0,075
-329,431	89,716	0,056	0,046
-328,416	-166,192	0,125	0,004
-327,402	800,000	-0,021	0,065
-326,387	259,232	-0,054	0,069
-325,372	435,515	0,084	0,135
-324,358	778,504	0,022	-0,044
-323,343	3,012	-0,048	-0,025
-322,329	-200,000	-0,008	-0,073
-321,314	124,769	0,046	-0,042
-320,299	800,000	-0,028	0,059
-319,285	129,891	-0,052	0,049
-318,270	123,390	-0,049	0,045
-317,256	-200,000	-0,019	-0,152
-316,241	202,554	-0,104	0,117
-315,226	-51,638	-0,059	0,020
-314,212	800,000	0,023	-0,057
-313,197	220,364	-0,064	-0,076
-312,183	160,408	0,020	0,021
-311,168	800,000	0,047	0,113
-310,153	-103,381	0,120	-0,021
-309,139	800,000	0,043	0,122
-308,124	-117,414	0,099	0,013
-307,110	491,623	-0,029	-0,049
-306,095	800,000	-0,013	-0,042
-305,080	800,000	0,046	0,134
-304,066	97,947	-0,040	-0,034
-303,051	800,000	-0,045	-0,102
-302,037	121,067	-0,066	0,060
-301,022	-92,520	-0,062	-0,013
-300,008	345,141	-0,044	0,064
-298,993	-77,802	0,079	-0,020
-297,978	800,000	0,028	-0,058
-296,964	0,349	-0,090	0,047
-295,949	-200,000	-0,038	-0,184
-294,935	501,086	0,067	-0,114
-293,920	96,028	-0,071	-0,059
-292,905	-84,845	-0,039	0,009
-291,891	77,712	0,152	0,118
-290,876	81,018	0,115	-0,091
-289,862	-2,666	-0,047	0,024
-288,847	-200,000	-0,002	-0,054
-287,832	-41,965	0,046	-0,017
-286,818	-200,000	-0,006	0,021
-285,803	-200,000	-0,006	-0,019
-284,789	128,356	0,062	0,058
-283,774	203,695	0,059	0,067
-282,759	-200,000	-0,031	-0,145
-281,745	439,639	-0,084	-0,135
-280,730	72,762	-0,049	0,037
-279,716	3,952	-0,113	-0,060
-278,701	-53,004	0,073	-0,024
-277,686	-200,000	-0,008	0,086
-276,672	-175,704	0,060	-0,001
-275,657	800,000	-0,024	-0,062
-274,643	-200,000	-0,017	-0,076
-273,628	451,579	-0,030	0,049
-272,613	-200,000	-0,030	-0,118
-271,599	-176,125	-0,038	-0,001
-270,584	1,652	0,122	-0,064
-269,570	375,109	-0,011	0,017
-268,555	2,435	-0,109	-0,057
-267,540	800,000	-0,013	0,029
-266,526	-23,867	0,102	-0,045
-265,511	-200,000	-0,000	-0,069
-264,497	420,374	-0,042	0,066
-263,482	-8,688	0,013	-0,006
-262,467	800,000	0,045	0,094
-261,453	-110,270	0,112	0,017
-260,438	-54,594	-0,024	-0,008
-259,424	-72,227	0,112	0,030
-258,409	-77,634	-0,064	0,016
-257,395	-174,388	0,080	0,002
-256,380	-86,470	0,044	-0,010
-255,365	-87,090	0,046	-0,010
-254,351	-200,000	0,004	0,075
-253,336	-146,236	-0,072	0,005
-252,322	-200,000	-0,004	-0,067
-251,307	50,062	0,053	0,037
-250,292	-200,000	0,021	-0,069
-249,278	800,000	0,045	0,092
-248,263	65,634	-0,093	-0,069
-247,249	-200,000	-0,013	0,116
-246,234	90,980	-0,048	0,040
-245,219	6,818	-0,102	0,055
-244,205	226,685	0,008	-0,010
-243,190	222,194	0,023	0,027
-242,176	-200,000	0,017	0,097
-241,161	-200,000	-0,015	0,055
-240,146	454,776	0,092	0,150
-239,132	-1,351	0,149	-0,076
-238,117	280,078	-0,131	-0,171
-237,103	156,736	0,029	-0,029
-236,088	-100,004	0,119	-0,021
-235,073	113,991	0,089	0,079
-234,059	-200,000	0,018	0,106
-233,044	233,908	0,017	0,020
-232,030	-144,158	0,149	-0,010
-231,015	-28,185	0,010	0,004
-230,000	-127,995	0,085	0,009
-228,986	800,000	-0,063	-0,154
-227,971	290,675	0,040	0,053
-226,957	98,974	0,128	-0,108
-225,942	-200,000	-0,023	0,087
-224,927	20,641	0,119	-0,070
-223,913	800,000	-0,024	0,054
-222,898	800,000	0,045	0,127
-221,884	-200,000	0,010	-0,072
-220,869	-20,442	0,086	0,039
-219,855	-200,000	-0,005	0,126
-218,840	-33,359	0,018	0,007
-217,825	235,950	-0,047	-0,057
-216,811	800,000	0,036	-0,090
-215,796	800,000	-0,007	-0,020
-214,782	-83,843	-0,101	0,023
-213,767	52,253	-0,097	-0,067
-212,752	800,000	0,040	0,095
-211,738	800,000	-0,034	0,107
-210,723	-161,092	0,041	0,002
-209,709	12,793	0,061	-0,034
-208,694	-130,079	-0,070	-0,007
-207,679	-200,000	-0,011	-0,177
-206,665	-200,000	-0,013	0,083
-205,650	75,788	-0,068	0,052
-204,636	800,000	-0,038	0,103
-203,621	-132,939	0,084	0,008
-202,606	-50,719	-0,098	0,034
-201,592	241,331	0,045	-0,055
-200,577	-200,000	0,047	-0,155
-199,563	-40,786	0,146	0,055
-198,548	117,681	0,005	0,004
-197,533	-91,372	0,058	-0,012
-196,519	-200,000	0,019	0,088
-195,504	71,788	0,054	0,041
-194,490	-200,000	-0,001	-0,040
-193,475	5,830	-0,012	-0,006
-192,460	800,000	0,046	-0,101
-191,446	170,196	0,101	0,106
-190,431	-200,000	-0,007	0,062
-189,417	21,287	0,093	-0,055
-188,402	364,104	-0,078	-0,115
-187,387	152,649	-0,008	-0,008
-186,373	-109,664	0,044	0,007
-185,358	-100,435	-0,059	-0,011
-184,344	-79,008	0,079	-0,019
-183,329	23,888	-0,040	0,024
-182,315	164,384	0,025	-0,026
-181,300	-136,367	0,049	-0,004
-180,285	-113,347	-0,107	-0,015
-179,271	-200,000	-0,041	-0,140
-178,256	273,992	-0,048	0,062
-177,242	-57,862	0,079	-0,025
-176,227	-88,378	-0,088	0,019
-175,212	532,628	0,080	-0,139
-174,198	-53,209	0,048	-0,016
-173,183	66,371	-0,062	-0,046
-172,169	-200,000	-0,001	0,026
-171,154	-200,000	0,012	-0,115
-170,139	39,440	-0,088	-0,058
-169,125	112,428	-0,099	0,088
-168,110	305,611	0,017	-0,022
-167,096	800,000	0,071	0,159
-166,081	-33,950	-0,121	-0,048
-165,066	30,804	-0,012	-0,008
-164,052	-46,643	-0,065	0,023
-163,037	-200,000	-0,001	0,037
-162,023	-200,000	0,001	0,092
-161,008	800,000	-0,038	0,118
-159,993	-36,654	0,153	0,060
-158,979	114,101	0,160	0,142
-157,964	-83,027	-0,056	-0,013
-156,950	242,796	0,028	-0,035
-155,935	92,547	0,065	0,053
-154,920	7,869	0,044	0,024
-153,906	750,426	0,009	-0,018
-152,891	-39,888	0,075	-0,028
-151,877	-43,267	0,067	-0,025
-150,862	-2,247	-0,071	-0,036
-149,847	450,557	0,010	0,017
-148,833	-33,765	0,123	-0,049
-147,818	-21,245	0,082	0,036
-146,804	-122,382	0,059	0,007
-145,789	-200,000	0,007	0,033
-144,775	-160,013	-0,279	-0,011
-143,760	366,812	0,059	-0,087
-142,745	-200,000	-0,027	-0,088
-141,731	-131,346	0,129	-0,012
-140,716	-190,553	0,038	-0,000
-139,702	-200,000	-0,019	0,067
-138,687	800,000	0,031	0,093
-137,672	29,815	-0,146	0,090
-136,658	800,000	-0,004	-0,008
-135,643	367,718	0,091	0,135
-134,629	168,716	0,056	0,059
-133,614	557,320	0,026	-0,046
-132,599	-73,448	-0,145	-0,038
-131,585	800,000	0,050	-0,118
-130,570	-81,876	-0,129	-0,031
-129,556	-17,634	0,097	-0,044
-128,541	-200,000	-0,027	-0,114
-127,526	-153,402	0,060	-0,003
-126,512	-56,123	-0,100	0,032
-125,497	96,476	0,054	-0,045
-124,483	-142,648	0,095	-0,007
-123,468	75,787	0,029	-0,023
-122,453	601,354	-0,016	-0,029
-121,439	-77,941	-0,069	-0,017
-120,424	-43,218	-0,164	-0,060
-119,410	-32,082	0,041	-0,017
-118,395	17,896	0,076	-0,044
-117,380	-118,677	-0,103	0,013
-116,366	7,145	0,116	0,063
-115,351	-200,000	0,004	-0,055
-114,337	15,608	-0,130	-0,074
-113,322	-200,000	-0,009	-0,125
-112,307	5,889	0,078	-0,042
-111,293	-200,000	0,010	-0,114
-110,278	100,411	0,142	0,120
-109,264	74,346	0,066	-0,051
-108,249	-41,811	-0,085	0,031
-107,234	800,000	-0,057	-0,117
-106,220	-0,516	-0,076	-0,039
-105,205	583,920	0,066	-0,119
-104,191	-175,879	0,047	0,001
-103,176	800,000	0,042	0,088
-102,162	800,000	0,018	-0,046
-101,147	-57,983	0,137	0,043
-100,132	-51,738	-0,052	0,018
-99,118	199,023	0,135	-0,150
-98,103	167,281	-0,027	0,028
-97,089	110,046	-0,112	0,098
-96,074	-160,921	0,157	-0,006
-95,059	-32,541	0,102	-0,041
-94,045	-200,000	-0,021	-0,093
-93,030	-200,000	0,003	-0,131
-92,016	-93,237	-0,082	0,016
-91,001	158,984	-0,065	-0,066
-89,986	297,653	0,047	0,063
-88,972	158,510	0,130	0,131
-87,957	212,272	0,048	0,056
-86,943	37,082	-0,005	-0,003
-85,928	800,000	0,056	-0,124
-84,913	368,517	-0,053	-0,079
-83,899	-200,000	-0,012	0,077
-82,884	-200,000	0,018	0,203
-81,870	-200,000	-0,018	0,094
-80,855	16,019	0,016	-0,009
-79,840	88,680	-0,109	-0,088
-78,826	-42,440	0,040	0,015
-77,811	288,805	-0,020	0,026
-76,797	-129,171	0,149	0,015
-75,782	107,134	0,077	0,067
-74,767	-200,000	-0,022	-0,080
-73,753	-200,000	0,014	0,136
-72,738	800,000	0,032	0,084
-71,724	-143,126	-0,108	-0,007
-70,709	0,700	0,073	-0,038
-69,694	-200,000	0,003	-0,047
-68,680	-0,018	0,131	0,068
-67,665	-200,000	-0,001	-0,188
-66,651	-200,000	0,013	-0,048
-65,636	-16,159	-0,103	0,047
-64,622	448,656	-0,078	0,125
-63,607	800,000	-0,018	0,039
-62,592	800,000	0,031	-0,064
-61,578	-54,173	-0,173	-0,057
-60,563	800,000	0,015	0,040
-59,549	738,349	0,042	0,082
-58,534	-116,565	-1,496	-0,198
-57,519	610,113	-0,747	-1,361
-56,505	-200,000	-0,908	-4,471
-55,490	60,202	0,562	-0,403
-54,476	800,000	5,042	11,872
-53,461	-200,000	14,351	257,192
-52,446	-200,000	695,754	2257,084
-51,432	582,141	1625,181	2904,923
-50,417	117,726	1633,802	1459,652
-49,403	74,025	1287,531	979,432
-48,388	37,648	1024,742	658,758
-47,373	23,756	983,280	586,320
-46,359	23,068	972,525	577,624
-45,344	21,985	968,269	571,527
-44,330	21,921	966,752	570,398
-43,315	21,789	965,356	569,121
-42,300	21,780	964,233	568,409
-41,286	21,767	963,238	567,757
-40,271	21,784	962,337	567,257
-39,257	21,790	961,194	566,581
-38,242	21,788	960,272	566,010
-37,227	21,777	959,569	565,536
-36,213	21,710	958,644	564,750
-35,198	21,737	957,707	564,265
-34,184	21,745	957,094	563,908
-33,169	21,730	956,111	563,256
-32,154	21,810	955,233	562,974
-31,140	21,818	954,430	562,504
-30,125	21,831	953,632	562,055
-29,111	21,847	952,732	561,553
-28,096	21,869	952,089	561,222
-27,082	21,830	951,363	560,648
-26,067	21,840	950,614	560,217
-25,052	21,856	949,907	559,829
-24,038	21,854	949,208	559,389
-23,023	21,773	948,774	558,849
-22,009	21,854	947,964	558,610
-20,994	21,819	947,371	558,128
-19,979	21,792	946,838	557,706
-18,965	21,760	946,296	557,261
-17,950	21,839	945,348	556,932
-16,936	21,745	944,766	556,268
-15,921	21,770	944,005	555,877
-14,906	21,651	943,283	555,050
-13,892	21,735	942,662	554,932
-12,877	21,681	942,264	554,503
-11,863	21,626	941,467	553,838
-10,848	21,655	941,019	553,642
-9,833	21,750	940,342	553,524
-8,819	21,728	940,000	553,230
-7,804	21,687	939,258	552,643
-6,790	21,664	938,609	552,166
-5,775	21,623	938,088	551,706
-4,760	21,739	937,276	551,576
-3,746	21,616	936,919	550,953
-2,731	21,512	936,321	550,253
-1,717	21,462	935,439	549,553
-0,702	21,512	934,763	549,292
0,313	21,237	934,340	549,003
1,327	24,433	932,108	557,709
2,342	33,753	795,680	500,916
3,356	31,263	452,171	280,874
4,371	0,397	295,509	152,539
5,386	-3,978	276,374	138,480
6,400	-5,606	270,644	134,076
7,415	-5,914	268,215	132,575
8,429	-5,452	267,163	132,470
9,444	-5,396	266,133	131,998
10,459	-5,465	265,793	131,755
11,473	-5,379	264,960	131,409
12,488	-5,664	264,516	130,917
13,502	-5,742	264,080	130,618
14,517	-5,653	263,663	130,481
15,531	-5,416	263,252	130,482
16,546	-5,238	262,805	130,410
17,561	-5,239	262,468	130,230
18,575	-5,146	262,187	130,163
19,590	-5,236	261,882	129,919
20,604	-5,312	261,642	129,719
21,619	-5,291	261,221	129,518
22,634	-5,196	260,883	129,425
23,648	-5,286	260,627	129,205
24,663	-5,219	260,320	129,102
25,677	-5,216	260,089	128,978
26,692	-5,477	259,944	128,661
27,707	-5,452	259,703	128,553
28,721	-5,512	259,339	128,307
29,736	-5,422	259,063	128,240
30,750	-5,442	258,806	128,083
31,765	-5,173	258,521	128,171
32,780	-5,403	258,419	127,903
33,794	-5,330	258,049	127,774
34,809	-5,362	257,870	127,645
35,823	-5,374	257,689	127,534
36,838	-5,257	257,389	127,478
37,853	-5,393	257,171	127,238
38,867	-5,314	256,877	127,151
39,882	-5,464	256,759	126,948
40,896	-5,515	256,373	126,701
41,911	-5,444	256,277	126,705
42,926	-5,378	255,796	126,514
43,940	-5,319	255,695	126,505
44,955	-5,287	255,453	126,402
45,969	-5,600	255,352	126,066
46,984	-5,700	255,020	125,803
47,999	-5,971	254,822	125,456
49,013	-5,929	254,635	125,390
50,028	-5,959	254,274	125,175
51,042	-6,121	253,946	124,861
52,057	-5,913	253,731	124,925
53,071	-6,186	253,554	124,589
54,086	-5,916	253,453	124,763
55,101	-6,038	253,336	124,588
56,115	-5,743	253,229	124,781
57,130	-5,529	253,182	124,934
58,144	-5,203	252,964	125,099
59,159	-5,383	252,705	124,803
60,174	-5,304	252,402	124,711
61,188	-5,429	252,213	124,498
62,203	-5,294	251,972	124,484
63,217	-5,478	251,997	124,327
64,232	-5,356	251,708	124,279
65,247	-5,160	251,283	124,227
66,261	-5,457	251,143	123,891
67,276	-5,544	250,952	123,710
68,290	-5,653	250,594	123,429
69,305	-5,942	250,442	123,094
70,320	-5,638	250,057	123,155
71,334	-5,836	250,212	123,050
72,349	-5,195	249,962	123,466
73,363	-5,357	249,896	123,284
74,378	-5,328	249,568	123,136
75,393	-5,485	249,390	122,903
76,407	-5,528	249,303	122,812
77,422	-5,426	249,065	122,771
78,436	-5,425	248,888	122,674
79,451	-5,234	248,548	122,658
80,466	-5,537	248,368	122,300
81,480	-5,599	248,060	122,085
82,495	-5,625	247,961	122,003
83,509	-5,557	247,800	121,971
84,524	-5,524	247,522	121,851
85,539	-5,819	247,308	121,485
86,553	-5,683	247,156	121,514
87,568	-5,689	247,009	121,426
88,582	-5,629	246,864	121,394
89,597	-5,691	246,687	121,245
90,611	-5,595	246,536	121,241
91,626	-5,431	246,388	121,296
92,641	-5,118	246,134	121,424
93,655	-5,554	246,070	121,014
94,670	-5,321	245,716	121,025
95,684	-5,463	245,396	120,737
96,699	-5,556	245,352	120,627
97,714	-5,619	245,233	120,505
98,728	-5,590	244,926	120,367
99,743	-5,675	244,715	120,182
100,757	-5,531	244,485	120,178
101,772	-5,870	244,382	119,833
102,787	-5,772	244,266	119,848
103,801	-5,579	243,950	119,843
104,816	-5,732	243,834	119,648
105,830	-5,406	243,723	119,854
106,845	-5,413	243,635	119,795
107,860	-5,454	243,408	119,639
108,874	-5,673	243,178	119,332
109,889	-5,657	242,898	119,197
110,903	-5,678	242,781	119,112
111,918	-5,719	242,644	119,001
112,933	-5,697	242,407	118,892
113,947	-5,461	242,247	118,999
114,962	-5,515	242,131	118,886
115,976	-5,451	242,044	118,886
116,991	-5,447	241,776	118,747
118,006	-5,411	241,549	118,654
119,020	-5,489	241,505	118,558
120,035	-5,337	241,330	118,587
121,049	-5,463	241,104	118,361
122,064	-5,428	240,887	118,273
123,079	-5,605	240,834	118,091
124,093	-5,473	240,478	118,014
125,108	-5,684	240,237	117,711
126,122	-5,670	240,006	117,600
127,137	-5,854	239,902	117,387
128,151	-5,674	239,753	117,452
129,166	-5,786	239,577	117,263
130,181	-5,691	239,414	117,251
131,195	-5,710	239,265	117,152
132,210	-5,694	239,213	117,129
133,224	-5,606	239,060	117,115
134,239	-5,529	238,781	117,031
135,254	-5,724	238,729	116,836
136,268	-5,661	238,358	116,696
137,283	-5,661	238,047	116,532
138,297	-5,940	238,136	116,339
139,312	-5,991	237,874	116,159
140,327	-5,867	237,758	116,192
141,341	-5,101	237,544	116,699
142,356	-5,142	237,552	116,659
143,370	-5,077	237,320	116,588
144,385	-5,174	237,226	116,453
145,400	-5,374	237,185	116,260
146,414	-5,062	236,796	116,311
147,429	-5,274	236,587	116,027
148,443	-5,159	236,479	116,057
149,458	-5,334	236,318	115,826
150,473	-5,386	236,155	115,694
151,487	-5,290	235,948	115,660
152,502	-5,458	235,792	115,438
153,516	-4,932	235,657	115,783
154,531	-5,319	235,557	115,414
155,546	-5,396	235,395	115,262
156,560	-5,506	235,129	115,034
157,575	-5,339	234,879	115,034
158,589	-5,365	234,751	114,941
159,604	-5,084	234,642	115,102
160,619	-5,013	234,495	115,076
161,633	-5,087	234,392	114,956
162,648	-5,033	234,233	114,911
163,662	-5,135	234,037	114,723
164,677	-5,414	233,876	114,412
165,692	-5,126	233,559	114,476
166,706	-5,277	233,702	114,416
167,721	-4,775	233,357	114,635
168,735	-5,159	233,395	114,339
169,750	-4,926	233,059	114,349
170,764	-5,231	232,964	114,050
171,779	-5,124	232,761	114,026
172,794	-5,157	232,646	113,932
173,808	-5,253	232,455	113,753
174,823	-5,775	232,162	113,187
175,837	-5,497	231,813	113,226
176,852	-5,348	231,974	113,412
177,867	-5,252	231,874	113,429
178,881	-5,146	231,864	113,498
179,896	-4,953	231,555	113,489
180,910	-5,051	231,388	113,319
181,925	-5,156	231,240	113,154
182,940	-5,082	231,133	113,150
183,954	-5,070	230,819	112,995
184,969	-4,929	230,747	113,060
185,983	-4,861	230,679	113,070
186,998	-4,811	230,450	112,988
188,013	-5,034	230,428	112,792
189,027	-4,968	230,127	112,686
190,042	-4,937	230,002	112,639
191,056	-5,151	229,921	112,423
192,071	-5,130	229,871	112,404
193,086	-5,346	229,600	112,093
194,100	-5,081	229,151	112,070
195,115	-5,821	228,778	111,303
196,129	-6,936	228,530	110,306
197,144	-3,735	229,712	113,364
198,159	1,299	231,157	118,011
199,173	4,185	231,740	120,558
200,188	4,514	231,572	120,717
201,202	4,493	231,374	120,586
202,217	4,616	231,352	120,660
203,232	5,103	231,219	120,960
204,246	4,977	231,259	120,872
205,261	5,141	231,053	120,881
206,275	5,275	230,811	120,848
207,290	5,160	230,721	120,701
208,304	5,017	230,610	120,521
209,319	5,093	230,500	120,512
210,334	5,060	230,383	120,414
211,348	4,596	230,091	119,891
212,363	4,619	229,653	119,669
213,377	4,086	229,479	119,156
214,392	4,193	229,431	119,204
215,407	4,117	229,303	119,068
216,421	4,588	229,095	119,312
217,436	4,205	228,923	118,917
218,450	4,152	228,607	118,702
219,465	4,097	228,408	118,545
220,480	4,185	228,443	118,620
221,494	4,036	228,241	118,391
222,509	4,165	228,176	118,445
223,523	4,169	228,104	118,400
224,538	4,261	228,000	118,406
225,553	4,098	227,745	118,139
226,567	4,198	227,699	118,180
227,582	4,417	227,441	118,204
228,596	4,626	227,341	118,302
229,611	4,495	227,188	118,111
230,626	4,028	227,062	117,678
231,640	4,132	226,882	117,654
232,655	4,185	226,804	117,643
233,669	4,697	226,681	117,960
234,684	4,721	226,657	117,955
235,699	4,606	226,454	117,751
236,713	4,335	226,234	117,420
237,728	4,293	225,959	117,235
238,742	4,314	225,661	117,085
239,757	4,093	225,654	116,904
240,772	4,111	225,462	116,808
241,786	4,324	225,421	116,937
242,801	4,539	225,283	117,018
243,815	4,614	225,218	117,031
244,830	4,488	225,141	116,885
245,844	4,205	224,792	116,479
246,859	4,279	224,647	116,450
247,874	4,693	224,581	116,718
248,888	4,637	224,334	116,537
249,903	4,471	224,217	116,341
250,917	4,141	224,088	116,015
251,932	4,133	223,918	115,910
252,947	4,213	223,799	115,899
253,961	4,066	223,636	115,693
254,976	4,177	223,536	115,715
255,990	4,512	223,513	115,944
257,005	4,662	223,191	115,879
258,020	4,349	223,321	115,701
259,034	4,581	223,077	115,739
260,049	4,628	222,743	115,590
261,063	4,279	222,742	115,318
262,078	4,530	222,581	115,412
263,093	4,742	222,463	115,499
264,107	4,564	222,123	115,179
265,122	4,576	222,127	115,180
266,136	4,485	222,082	115,079
267,151	4,817	221,782	115,160
268,166	4,251	221,638	114,654
269,180	4,150	221,425	114,459
270,195	4,014	221,295	114,280
271,209	4,080	221,228	114,285
272,224	4,101	220,981	114,162
273,239	4,229	220,900	114,205
274,253	4,316	220,617	114,113
275,268	4,164	220,533	113,947
276,282	4,069	220,257	113,724
277,297	3,885	220,207	113,552
278,312	3,920	220,174	113,550
279,326	4,098	220,053	113,610
280,341	4,081	219,946	113,532
281,355	4,166	219,796	113,507
282,370	4,526	219,603	113,662
283,384	4,344	219,302	113,362
284,399	4,117	219,227	113,147
285,414	3,940	219,117	112,950
286,428	4,150	218,933	112,999
287,443	4,425	219,063	113,258
288,457	4,258	218,880	113,031
289,472	4,351	218,628	112,959
290,487	3,732	218,433	112,395
291,501	3,813	218,122	112,284
292,516	3,989	218,203	112,444
293,530	4,024	218,045	112,379
294,545	3,898	217,849	112,176
295,560	4,256	217,749	112,375
296,574	4,215	217,515	112,214
297,589	4,075	217,652	112,173
298,603	4,156	217,425	112,105
299,618	4,216	217,231	112,038
300,633	4,155	217,171	111,953
301,647	4,285	217,147	112,025
302,662	4,562	216,835	112,055
303,676	4,525	216,764	111,981
304,691	4,448	216,705	111,886
305,706	4,659	216,514	111,930
306,720	4,411	216,405	111,683
307,735	4,200	216,134	111,381
308,749	4,025	216,004	111,178
309,764	4,306	215,974	111,356
310,779	4,419	215,808	111,341
311,793	4,294	215,570	111,119
312,808	4,271	215,630	111,124
313,822	4,238	215,318	110,929
314,837	4,200	215,092	110,775
315,852	4,062	214,927	110,581
316,866	4,107	214,842	110,560
317,881	4,563	214,768	110,839
318,895	4,395	214,694	110,671
319,910	4,311	214,456	110,477
320,925	3,870	214,271	110,057
321,939	3,683	214,092	109,821
322,954	3,931	213,855	109,867
323,968	4,165	213,925	110,060
324,983	4,275	214,027	110,182
325,997	4,389	213,942	110,209
327,012	4,444	213,554	110,040
328,027	4,134	213,461	109,761
329,041	4,510	213,391	109,983
330,056	4,443	213,385	109,923
331,070	4,252	212,921	109,538
332,085	3,923	212,708	109,185
333,100	4,069	212,630	109,239
334,114	4,501	212,556	109,497
335,129	4,361	212,305	109,259
336,143	3,935	212,225	108,906
337,158	3,975	212,045	108,833
338,173	4,093	212,002	108,885
339,187	3,982	211,835	108,710
340,202	3,958	211,690	108,609
341,216	4,186	211,415	108,619
342,231	4,157	211,346	108,553
343,246	3,985	211,375	108,438
344,260	4,093	211,108	108,367
345,275	4,111	211,055	108,343
346,289	4,153	211,075	108,373
347,304	4,322	210,817	108,350
348,319	4,403	210,665	108,318
349,333	4,188	210,491	108,068
350,348	4,219	210,432	108,051
351,362	4,270	210,314	108,016
352,377	4,274	210,258	107,981
353,392	4,233	210,121	107,872
354,406	4,291	210,014	107,848
355,421	195,119	1344,152	1436,854
356,435	155,791	1482,414	1436,970
