DTS Sentinel unit serial number:	SN410029Multiplexer serial number:	ORYXHardware model number:	OX2-SRSoftware version number:	ORYX F/W v4,00 Oryx Data Collector v3.7.2.0data status	okinstallation	B6 Nyhavnadifferential loss correction	single-endedforward channel	channel 2reverse channel	N/Adate	2023/12/07time	17:05:09forward acquisition time	300,00reverse acquisition time	0,00gamma	499,1914k internal	0,3164k external	0,3164temperature offset calibration	1,0000default loss term (dB/km)	0,3820temperature slope calibration	1,0000multiplexer offset coefficient	1,0000multiplexer slope coefficient	1,0000fibre end	0,00T internal ref (°C)	14,50T ext. ref 1 (°C)	-2,31T ext. ref 2 (°C)	-2,31length (m)	temperature (°C)	Stokes	anti-Stokes-744,400	322,344	0,083	-0,117
-743,385	-80,659	-0,315	-0,076
-742,371	-22,664	0,150	0,066
-741,356	-96,784	-0,235	0,045
-740,342	-200,000	0,030	-0,106
-739,327	-149,835	-0,301	0,017
-738,312	-106,062	0,060	-0,010
-737,298	-43,000	-0,321	-0,119
-736,283	17,663	0,140	0,082
-735,269	-70,576	-0,224	0,062
-734,254	-133,422	0,162	-0,015
-733,239	-61,692	-0,629	-0,193
-732,225	-6,134	0,260	0,130
-731,210	-200,000	0,029	0,127
-730,196	-25,862	0,022	-0,009
-729,181	800,000	-0,024	-0,078
-728,167	-51,910	0,081	-0,028
-727,152	65,542	-0,057	-0,042
-726,137	800,000	0,056	0,172
-725,123	-91,507	-0,132	-0,027
-724,108	-200,000	-0,024	-0,139
-723,094	-200,000	-0,001	-0,007
-722,079	800,000	-0,036	-0,078
-721,064	167,690	-0,128	-0,134
-720,050	-81,019	0,147	-0,035
-719,035	-34,592	0,157	0,063
-718,021	169,105	-0,197	-0,207
-717,006	112,946	-0,051	0,045
-715,991	71,370	0,120	-0,092
-714,977	529,977	0,077	-0,135
-713,962	202,000	0,026	0,029
-712,948	-25,979	-0,098	0,042
-711,933	3,512	-0,058	0,031
-710,918	11,373	0,041	0,023
-709,904	-38,358	0,061	-0,024
-708,889	47,378	-0,156	-0,106
-707,875	180,617	-0,020	-0,022
-706,860	-17,513	-0,062	-0,029
-705,845	-200,000	0,000	0,023
-704,831	361,482	-0,119	0,176
-703,816	26,091	0,036	0,022
-702,802	-196,978	0,071	0,000
-701,787	164,254	-0,119	-0,123
-700,772	77,828	0,031	0,025
-699,758	-200,000	-0,015	-0,082
-698,743	-200,000	0,028	0,096
-697,729	56,180	0,063	0,045
-696,714	-155,142	0,078	-0,004
-695,699	134,020	-0,054	-0,051
-694,685	325,229	-0,019	0,027
-693,670	148,336	-0,044	-0,043
-692,656	288,502	0,013	0,017
-691,641	23,122	0,057	-0,034
-690,627	248,668	-0,061	0,075
-689,612	276,765	-0,048	-0,062
-688,597	35,090	0,053	-0,034
-687,583	-109,614	-0,078	-0,012
-686,568	-45,078	-0,156	-0,057
-685,554	-37,894	-0,145	0,056
-684,539	-200,000	-0,012	-0,057
-683,524	-118,959	0,118	-0,015
-682,510	-200,000	-0,004	0,058
-681,495	322,164	0,041	-0,058
-680,481	413,961	-0,031	0,049
-679,466	-200,000	-0,032	-0,196
-678,451	236,019	0,097	-0,118
-677,437	228,907	-0,064	0,077
-676,422	4,634	-0,075	0,040
-675,408	163,224	0,021	0,022
-674,393	-200,000	-0,058	-0,206
-673,378	800,000	-0,087	-0,184
-672,364	-25,292	0,094	-0,041
-671,349	64,544	-0,048	-0,035
-670,335	-97,518	-0,027	0,005
-669,320	-200,000	-0,007	0,051
-668,305	800,000	-0,029	0,091
-667,291	800,000	-0,049	-0,131
-666,276	596,066	-0,069	-0,125
-665,262	-163,261	-0,159	-0,005
-664,247	-200,000	-0,020	0,099
-663,232	-200,000	0,012	-0,042
-662,218	-68,952	-0,028	0,008
-661,203	-200,000	0,001	0,090
-660,189	-107,682	0,038	0,006
-659,174	1,260	-0,070	-0,037
-658,159	123,791	0,091	-0,083
-657,145	-66,899	-0,037	0,011
-656,130	41,651	0,020	0,013
-655,116	800,000	-0,037	-0,092
-654,101	49,862	0,096	0,066
-653,086	141,276	-0,076	0,074
-652,072	33,997	-0,080	-0,051
-651,057	800,000	-0,082	-0,233
-650,043	102,775	-0,063	-0,054
-649,028	336,965	0,054	0,077
-648,014	-28,947	0,110	0,046
-646,999	128,561	0,034	0,032
-645,984	-8,912	-0,133	0,065
-644,970	800,000	-0,031	0,074
-643,955	800,000	-0,017	-0,045
-642,941	305,128	-0,080	-0,109
-641,926	70,559	-0,152	0,115
-640,911	155,563	0,160	-0,161
-639,897	96,263	-0,097	-0,081
-638,882	-200,000	-0,016	-0,108
-637,868	468,541	0,047	-0,077
-636,853	454,173	-0,053	-0,086
-635,838	800,000	0,023	0,054
-634,824	-180,086	0,073	0,001
-633,809	-191,922	0,094	0,001
-632,795	800,000	0,058	0,144
-631,780	800,000	-0,013	-0,038
-630,765	800,000	-0,032	-0,083
-629,751	-91,839	-0,093	-0,019
-628,736	-200,000	0,030	-0,150
-627,722	587,992	-0,095	-0,172
-626,707	112,457	-0,044	0,039
-625,692	65,527	0,046	-0,034
-624,678	-119,730	-0,038	-0,005
-623,663	-200,000	-0,032	-0,117
-622,649	-105,321	-0,098	0,016
-621,634	-200,000	-0,029	-0,099
-620,619	256,178	0,021	0,026
-619,605	800,000	-0,070	0,189
-618,590	196,503	0,046	0,052
-617,576	118,684	-0,095	0,086
-616,561	-2,597	-0,037	-0,019
-615,546	292,599	-0,101	-0,135
-614,532	169,296	-0,070	-0,073
-613,517	-200,000	-0,004	0,025
-612,503	52,450	-0,026	-0,018
-611,488	42,563	0,152	-0,101
-610,474	-184,923	0,045	-0,001
-609,459	-52,820	-0,067	0,022
-608,444	170,451	0,077	-0,080
-607,430	266,266	-0,014	-0,017
-606,415	-200,000	0,005	0,093
-605,401	800,000	0,019	-0,045
-604,386	800,000	0,045	0,115
-603,371	464,481	0,061	0,101
-602,357	-149,410	-0,077	-0,004
-601,342	-11,332	-0,096	-0,046
-600,328	300,787	0,036	0,049
-599,313	44,932	-0,137	0,092
-598,298	565,311	-0,033	-0,059
-597,284	524,404	0,104	0,179
-596,269	141,080	-0,059	0,058
-595,255	13,649	0,124	0,071
-594,240	-73,624	-0,127	-0,034
-593,225	109,910	-0,103	-0,091
-592,211	464,097	-0,024	0,039
-591,196	-110,708	-0,133	0,020
-590,182	-105,119	0,117	0,019
-589,167	-147,721	0,111	-0,007
-588,152	698,040	0,045	-0,086
-587,138	14,342	0,039	-0,022
-586,123	-200,000	0,019	-0,125
-585,109	-200,000	-0,013	0,092
-584,094	297,006	0,082	-0,111
-583,079	-200,000	0,023	0,099
-582,065	72,769	0,086	0,066
-581,050	-29,521	-0,103	0,043
-580,036	-29,035	0,108	0,045
-579,021	180,864	-0,021	-0,022
-578,006	-89,644	-0,094	0,020
-576,992	-14,519	0,040	0,019
-575,977	-200,000	0,042	0,179
-574,963	-200,000	-0,002	-0,030
-573,948	76,159	0,075	0,058
-572,934	223,552	-0,021	0,025
-571,919	-44,461	-0,087	-0,031
-570,904	471,831	0,037	-0,061
-569,890	800,000	0,038	-0,109
-568,875	800,000	-0,083	-0,173
-567,861	-200,000	-0,009	0,135
-566,846	206,042	-0,039	0,044
-565,831	-200,000	-0,015	-0,094
-564,817	-118,827	-0,134	0,017
-563,802	-54,363	-0,063	-0,021
-562,788	-200,000	-0,003	0,029
-561,773	291,404	0,074	-0,099
-560,758	58,182	0,108	-0,077
-559,744	551,947	-0,084	0,149
-558,729	319,212	0,046	-0,064
-557,715	48,094	0,068	0,046
-556,700	50,622	-0,087	-0,060
-555,685	-41,795	0,106	-0,039
-554,671	-200,000	-0,008	0,036
-553,656	-200,000	0,005	-0,043
-552,642	18,111	-0,006	-0,004
-551,627	-200,000	0,048	-0,182
-550,612	800,000	-0,061	-0,143
-549,598	265,081	-0,077	-0,098
-548,583	150,415	-0,048	-0,048
-547,569	-200,000	-0,005	0,129
-546,554	-85,756	0,081	0,018
-545,539	-200,000	0,002	-0,025
-544,525	53,600	-0,068	0,048
-543,510	-92,622	-0,033	0,007
-542,496	-124,695	-0,152	-0,017
-541,481	800,000	0,053	0,126
-540,466	290,289	0,025	0,033
-539,452	308,756	-0,066	0,090
-538,437	-200,000	-0,007	0,025
-537,423	249,253	-0,055	0,068
-536,408	535,094	0,059	-0,103
-535,393	313,066	-0,094	-0,129
-534,379	61,547	-0,116	-0,084
-533,364	-200,000	-0,040	0,171
-532,350	-200,000	-0,026	-0,095
-531,335	166,651	0,124	-0,128
-530,321	800,000	0,017	-0,052
-529,306	-64,713	0,057	0,017
-528,291	-91,710	-0,108	-0,022
-527,277	-200,000	0,002	0,033
-526,262	-164,879	0,064	0,002
-525,248	254,470	0,042	0,053
-524,233	-200,000	0,016	0,112
-523,218	-132,290	-0,076	-0,007
-522,204	-93,289	-0,129	-0,026
-521,189	-200,000	-0,002	-0,008
-520,175	5,943	-0,141	0,076
-519,160	-200,000	0,012	-0,110
-518,145	629,294	-0,044	0,081
-517,131	79,470	-0,073	0,057
-516,116	-95,022	-0,107	0,021
-515,102	333,348	-0,086	-0,122
-514,087	339,107	0,072	-0,102
-513,072	699,895	-0,035	0,068
-512,058	269,787	0,082	-0,105
-511,043	603,490	0,049	0,089
-510,029	33,017	0,135	0,085
-509,014	-200,000	-0,043	-0,171
-507,999	-200,000	-0,009	0,128
-506,985	548,957	-0,067	0,117
-505,970	-3,940	0,018	-0,009
-504,956	-200,000	-0,005	0,048
-503,941	-0,531	0,080	-0,041
-502,926	-200,000	0,013	0,065
-501,912	8,688	0,063	0,035
-500,897	42,177	0,106	0,070
-499,883	-200,000	-0,011	0,052
-498,868	-98,261	-0,213	-0,039
-497,853	454,989	0,031	0,049
-496,839	-8,219	0,071	-0,035
-495,824	7,948	-0,080	0,044
-494,810	397,933	0,006	0,010
-493,795	340,750	0,040	-0,058
-492,781	466,403	0,037	-0,060
-491,766	-58,572	-0,145	-0,046
-490,751	800,000	-0,037	-0,084
-489,737	-200,000	0,002	0,087
-488,722	-200,000	-0,012	0,179
-487,708	472,158	0,128	0,211
-486,693	-200,000	-0,014	0,050
-485,678	800,000	-0,027	0,068
-484,664	-2,437	-0,059	0,030
-483,649	-200,000	-0,000	-0,036
-482,635	800,000	0,028	-0,072
-481,620	-200,000	-0,007	-0,025
-480,605	800,000	0,063	0,137
-479,591	-200,000	0,045	0,224
-478,576	75,320	0,010	-0,008
-477,562	800,000	0,027	-0,081
-476,547	-200,000	0,023	0,076
-475,532	800,000	0,025	0,061
-474,518	800,000	0,020	-0,048
-473,503	800,000	0,028	-0,071
-472,489	428,440	0,053	0,083
-471,474	95,215	0,060	0,050
-470,459	800,000	0,027	-0,075
-469,445	800,000	0,029	-0,076
-468,430	20,448	-0,095	0,056
-467,416	69,725	0,042	-0,032
-466,401	14,155	-0,072	0,041
-465,386	-96,706	0,047	0,009
-464,372	-26,346	-0,036	0,015
-463,357	21,331	0,111	-0,065
-462,343	27,381	-0,064	0,039
-461,328	-77,019	0,068	-0,017
-460,313	-200,000	-0,016	-0,083
-459,299	800,000	0,037	-0,091
-458,284	242,468	0,069	0,084
-457,270	-48,237	-0,054	0,019
-456,255	-28,258	0,044	-0,018
-455,241	777,533	-0,040	-0,079
-454,226	-23,863	0,079	-0,034
-453,211	800,000	-0,021	-0,056
-452,197	800,000	0,020	-0,064
-451,182	2,006	0,028	-0,015
-450,168	800,000	-0,009	-0,027
-449,153	68,745	-0,046	0,034
-448,138	-54,578	-0,159	0,052
-447,124	-200,000	0,014	-0,170
-446,109	-22,626	-0,040	0,018
-445,095	94,252	0,057	0,047
-444,080	718,103	-0,036	0,069
-443,065	291,378	-0,033	0,044
-442,051	-200,000	0,004	0,028
-441,036	-23,010	-0,075	0,033
-440,022	71,352	-0,050	-0,037
-439,007	13,128	-0,019	0,011
-437,992	-47,634	-0,039	-0,014
-436,978	-200,000	-0,000	0,064
-435,963	538,957	0,044	0,077
-434,949	113,660	-0,089	0,079
-433,934	-200,000	-0,017	-0,166
-432,919	143,236	0,153	-0,148
-431,905	464,100	0,030	0,049
-430,890	800,000	0,056	0,136
-429,876	-66,250	0,071	-0,020
-428,861	-6,557	0,134	0,066
-427,846	44,351	-0,110	-0,074
-426,832	60,285	-0,088	-0,063
-425,817	166,760	-0,059	0,061
-424,803	-69,262	-0,018	0,005
-423,788	800,000	-0,040	-0,101
-422,773	800,000	0,015	0,038
-421,759	589,164	0,012	0,021
-420,744	514,912	0,004	-0,007
-419,730	74,460	0,024	-0,019
-418,715	-88,224	-0,084	0,018
-417,701	-159,774	0,060	-0,002
-416,686	75,448	0,112	0,086
-415,671	126,908	0,019	0,017
-414,657	-200,000	0,027	0,153
-413,642	-108,732	0,083	0,013
-412,628	278,235	-0,015	-0,019
-411,613	-179,624	-0,030	0,000
-410,598	41,831	0,085	0,056
-409,584	66,950	0,112	0,083
-408,569	51,294	0,091	0,063
-407,555	120,087	0,020	-0,018
-406,540	-200,000	0,001	-0,033
-405,525	-96,930	0,117	0,022
-404,511	0,118	-0,090	-0,046
-403,496	49,814	-0,054	-0,037
-402,482	198,385	0,082	-0,091
-401,467	261,424	-0,068	-0,086
-400,452	-200,000	0,036	0,161
-399,438	-200,000	0,002	0,160
-398,423	221,553	0,084	0,098
-397,409	-49,753	0,007	0,002
-396,394	-35,346	-0,012	-0,005
-395,379	21,763	0,098	-0,058
-394,365	-66,023	-0,175	-0,050
-393,350	174,685	0,083	0,087
-392,336	8,582	0,163	-0,089
-391,321	165,789	-0,109	-0,112
-390,306	576,297	-0,045	-0,080
-389,292	-123,449	0,053	-0,006
-388,277	184,510	0,087	-0,093
-387,263	800,000	-0,014	-0,033
-386,248	-200,000	0,012	0,064
-385,233	340,599	0,087	0,124
-384,219	-200,000	0,009	-0,050
-383,204	-200,000	0,002	-0,118
-382,190	149,157	-0,106	-0,104
-381,175	34,122	-0,028	0,018
-380,160	297,571	-0,054	0,072
-379,146	-200,000	-0,023	0,113
-378,131	-200,000	0,009	0,127
-377,117	277,213	-0,054	0,070
-376,102	398,825	-0,073	-0,110
-375,088	-200,000	-0,037	-0,153
-374,073	74,875	-0,043	0,033
-373,058	-153,453	-0,056	-0,003
-372,044	-200,000	-0,021	0,079
-371,029	63,919	0,067	0,049
-370,015	800,000	0,012	-0,026
-369,000	800,000	0,026	-0,055
-367,985	-34,551	-0,058	-0,023
-366,971	-200,000	-0,007	-0,027
-365,956	-200,000	-0,005	0,028
-364,942	97,566	0,042	0,035
-363,927	260,219	-0,040	0,050
-362,912	-200,000	-0,039	0,165
-361,898	160,345	-0,068	-0,069
-360,883	-200,000	-0,043	-0,204
-359,869	364,926	0,066	-0,097
-358,854	-59,330	0,104	-0,032
-357,839	15,887	0,151	0,086
-356,825	-144,531	-0,072	0,005
-355,810	800,000	0,042	0,100
-354,796	-159,771	-0,114	0,004
-353,781	-10,167	0,059	-0,029
-352,766	800,000	0,027	-0,087
-351,752	590,489	0,031	-0,055
-350,737	-200,000	0,006	0,073
-349,723	147,321	-0,052	-0,050
-348,708	-200,000	-0,002	0,118
-347,693	42,458	0,042	-0,027
-346,679	-134,507	0,113	0,010
-345,664	56,214	0,158	0,111
-344,650	643,320	-0,042	0,078
-343,635	408,662	0,066	-0,101
-342,620	-200,000	0,038	0,128
-341,606	-190,254	0,168	0,001
-340,591	-128,381	-0,084	-0,008
-339,577	66,882	0,026	-0,019
-338,562	-99,612	-0,128	-0,023
-337,548	-200,000	0,017	-0,102
-336,533	295,863	-0,048	-0,064
-335,518	-124,560	0,085	-0,009
-334,504	-140,950	-0,042	-0,003
-333,489	-109,335	0,084	0,013
-332,475	800,000	-0,023	0,053
-331,460	-200,000	0,020	0,130
-330,445	-31,638	0,096	-0,039
-329,431	-200,000	0,031	0,128
-328,416	800,000	0,006	0,018
-327,402	-200,000	0,004	0,072
-326,387	53,461	-0,082	-0,057
-325,372	-200,000	-0,011	-0,090
-324,358	502,437	0,093	-0,156
-323,343	800,000	0,019	0,044
-322,329	60,725	0,144	-0,103
-321,314	-82,063	0,052	-0,012
-320,299	-200,000	0,030	0,114
-319,285	-18,067	-0,034	0,015
-318,270	-200,000	-0,030	-0,178
-317,256	-200,000	-0,024	-0,094
-316,241	800,000	-0,043	-0,112
-315,226	-27,317	-0,031	-0,013
-314,212	800,000	0,032	0,095
-313,197	127,380	0,011	0,010
-312,183	405,748	-0,075	0,116
-311,168	-200,000	-0,010	-0,048
-310,153	112,900	-0,084	0,073
-309,139	-101,882	0,227	-0,039
-308,124	800,000	0,055	0,116
-307,110	-200,000	-0,027	0,111
-306,095	-200,000	-0,003	0,137
-305,080	119,741	-0,048	-0,043
-304,066	47,656	0,113	-0,076
-303,051	800,000	0,046	-0,103
-302,037	20,287	-0,068	0,039
-301,022	800,000	0,038	0,116
-300,008	-139,311	0,202	0,015
-298,993	-200,000	0,002	-0,103
-297,978	-21,858	-0,027	-0,012
-296,964	-147,120	-0,140	-0,009
-295,949	-82,189	0,081	0,019
-294,935	-200,000	0,001	-0,032
-293,920	218,331	0,008	0,009
-292,905	56,183	0,026	-0,018
-291,891	549,564	-0,020	0,035
-290,876	63,530	-0,121	0,088
-289,862	-200,000	-0,025	0,147
-288,847	-128,512	-0,055	-0,006
-287,832	-20,703	0,030	-0,013
-286,818	800,000	0,042	0,122
-285,803	-20,906	0,052	-0,023
-284,789	-200,000	0,019	0,135
-283,774	275,576	0,101	-0,129
-282,759	-192,206	0,031	-0,000
-281,745	-200,000	0,037	-0,145
-280,730	563,273	0,028	-0,050
-279,716	-4,954	-0,034	-0,017
-278,701	-72,239	0,043	0,012
-277,686	-66,183	0,056	0,016
-276,672	208,882	0,057	0,064
-275,657	-65,976	-0,103	0,029
-274,643	-200,000	0,015	-0,119
-273,628	-61,375	-0,064	0,019
-272,613	800,000	0,007	0,021
-271,599	-200,000	0,001	-0,045
-270,584	-19,866	0,120	0,053
-269,570	163,408	0,087	0,089
-268,555	43,598	-0,174	0,115
-267,540	-90,142	-0,053	-0,011
-266,526	-72,420	0,140	0,037
-265,511	-19,659	-0,123	-0,055
-264,497	-200,000	0,035	0,149
-263,482	159,850	0,053	0,053
-262,467	-200,000	0,013	-0,067
-261,453	-12,910	-0,101	-0,047
-260,438	491,143	0,022	0,036
-259,424	-19,250	-0,043	-0,019
-258,409	55,740	-0,055	-0,038
-257,395	4,734	0,098	0,052
-256,380	-200,000	-0,018	0,063
-255,365	633,492	-0,037	0,068
-254,351	-161,849	-0,033	0,001
-253,336	-54,724	-0,090	-0,029
-252,322	481,930	0,042	-0,069
-251,307	-52,933	0,061	0,020
-250,292	136,705	-0,046	-0,044
-249,278	301,569	-0,013	-0,018
-248,263	-200,000	0,020	-0,144
-247,249	-200,000	0,006	-0,052
-246,234	-151,648	0,157	0,008
-245,219	26,807	-0,018	-0,011
-244,205	800,000	-0,016	0,050
-243,190	-200,000	0,019	-0,206
-242,176	-59,626	0,090	-0,028
-241,161	-200,000	-0,014	0,070
-240,146	65,004	-0,118	0,086
-239,132	329,824	-0,017	0,023
-238,117	264,606	-0,023	-0,029
-237,103	-200,000	0,008	0,042
-236,088	-200,000	-0,014	-0,050
-235,073	-200,000	-0,002	-0,047
-234,059	63,342	0,056	0,041
-233,044	247,648	-0,056	-0,068
-232,030	-84,562	-0,082	0,019
-231,015	-30,599	0,057	-0,023
-230,000	-0,850	-0,180	-0,092
-228,986	-200,000	0,006	0,041
-227,971	-41,459	0,112	0,041
-226,957	474,562	-0,016	-0,026
-225,942	-200,000	-0,011	0,095
-224,927	-200,000	-0,005	0,083
-223,913	60,532	-0,052	0,037
-222,898	-178,171	-0,145	0,002
-221,884	108,338	-0,097	0,083
-220,869	800,000	0,026	0,065
-219,855	-200,000	0,047	0,154
-218,840	137,861	0,097	0,092
-217,825	-200,000	0,016	-0,104
-216,811	-200,000	-0,015	-0,171
-215,796	-115,103	-0,095	0,013
-214,782	634,763	-0,025	0,047
-213,767	21,530	-0,026	-0,015
-212,752	800,000	0,029	0,073
-211,738	800,000	0,029	-0,078
-210,723	-77,073	0,094	0,024
-209,709	69,119	-0,099	-0,073
-208,694	165,857	0,035	-0,036
-207,679	179,563	-0,088	-0,092
-206,665	51,563	-0,055	-0,038
-205,650	-200,000	-0,030	0,163
-204,636	29,150	0,093	-0,057
-203,621	-34,054	0,003	0,001
-202,606	-200,000	-0,007	-0,067
-201,592	-200,000	-0,014	-0,204
-200,577	160,674	-0,115	-0,115
-199,563	657,842	0,068	-0,127
-198,548	77,521	-0,013	-0,010
-197,533	-200,000	0,016	0,053
-196,519	-65,239	0,012	-0,003
-195,504	194,352	-0,085	0,093
-194,490	-45,069	-0,084	0,030
-193,475	-72,801	-0,142	-0,037
-192,460	-41,076	-0,050	0,018
-191,446	762,462	-0,044	0,086
-190,431	-8,489	0,056	0,027
-189,417	119,781	-0,030	0,027
-188,402	-81,367	-0,144	0,034
-187,387	-21,577	-0,117	0,051
-186,373	5,291	0,043	-0,023
-185,358	-84,153	0,112	0,025
-184,344	52,990	-0,022	0,015
-183,329	162,202	-0,138	-0,140
-182,315	-200,000	0,006	-0,168
-181,300	-136,856	-0,111	0,009
-180,285	-142,925	0,081	-0,006
-179,271	184,964	-0,147	-0,157
-178,256	-200,000	0,038	-0,126
-177,242	-200,000	0,020	-0,086
-176,227	152,085	0,041	0,041
-175,212	-86,433	0,274	-0,060
-174,198	5,891	-0,077	-0,041
-173,183	64,549	-0,032	0,023
-172,169	492,568	-0,012	0,021
-171,154	-172,140	-0,033	-0,001
-170,139	-149,898	-0,049	0,003
-169,125	467,423	-0,058	0,094
-168,110	40,499	0,132	0,086
-167,096	800,000	0,027	-0,067
-166,081	-51,073	-0,103	-0,035
-165,066	-200,000	0,032	0,125
-164,052	-200,000	-0,009	-0,037
-163,037	800,000	0,036	-0,091
-162,023	-165,620	0,082	0,003
-161,008	434,551	0,086	-0,135
-159,993	650,505	0,034	-0,063
-158,979	278,528	0,037	-0,047
-157,964	-60,843	-0,032	-0,010
-156,950	-200,000	-0,001	0,016
-155,935	800,000	0,050	0,116
-154,920	-143,641	0,119	-0,008
-153,906	-200,000	0,014	0,087
-152,891	-125,476	0,094	-0,010
-151,877	800,000	0,021	0,058
-150,862	156,572	0,041	0,041
-149,847	-200,000	0,025	-0,174
-148,833	-10,696	-0,120	0,057
-147,818	192,165	0,058	0,063
-146,804	309,592	0,091	0,122
-145,789	-119,537	0,020	0,002
-144,775	-200,000	-0,019	-0,080
-143,760	-167,420	-0,106	-0,003
-142,745	710,526	-0,034	0,064
-141,731	38,199	0,104	0,066
-140,716	36,673	0,049	-0,031
-139,702	-200,000	-0,019	0,133
-138,687	-77,452	-0,007	-0,002
-137,672	468,578	0,061	-0,098
-136,658	91,557	0,032	-0,026
-135,643	-48,727	-0,085	0,029
-134,629	-200,000	0,007	-0,058
-133,614	-30,145	-0,197	-0,080
-132,599	800,000	-0,012	0,025
-131,585	-57,931	0,094	0,029
-130,570	193,093	0,109	-0,119
-129,556	177,155	-0,059	0,061
-128,541	-60,844	0,062	0,019
-127,526	-34,424	0,089	0,035
-126,512	25,218	-0,054	0,032
-125,497	-200,000	0,010	0,068
-124,483	228,705	0,093	0,109
-123,468	-200,000	0,034	-0,157
-122,453	247,791	-0,052	-0,063
-121,439	242,795	-0,013	-0,015
-120,424	800,000	-0,035	-0,074
-119,410	13,731	0,086	-0,048
-118,395	-31,507	0,102	0,041
-117,380	268,070	-0,089	0,113
-116,366	800,000	0,013	0,032
-115,351	800,000	-0,062	-0,180
-114,337	-6,645	-0,073	-0,036
-113,322	-108,682	-0,042	-0,006
-112,307	788,796	-0,005	-0,010
-111,293	-32,955	0,081	0,032
-110,278	200,147	-0,013	0,014
-109,264	600,618	-0,060	-0,107
-108,249	742,125	-0,022	0,043
-107,234	-200,000	-0,002	-0,050
-106,220	156,820	-0,177	-0,175
-105,205	43,635	0,048	-0,031
-104,191	220,315	0,147	0,170
-103,176	-75,025	0,033	0,008
-102,162	-200,000	-0,006	-0,061
-101,147	317,636	0,025	-0,034
-100,132	800,000	-0,078	-0,177
-99,118	8,614	0,051	0,027
-98,103	195,806	0,069	-0,076
-97,089	-200,000	0,011	0,041
-96,074	562,314	-0,022	0,038
-95,059	-26,450	-0,100	0,042
-94,045	24,428	-0,037	0,022
-93,030	-14,010	0,138	0,064
-92,016	435,086	0,042	-0,067
-91,001	800,000	0,034	-0,078
-89,986	-200,000	0,009	0,053
-88,972	-151,114	0,072	0,004
-87,957	269,012	-0,058	-0,073
-86,943	616,815	-0,049	-0,089
-85,928	-200,000	0,011	-0,047
-84,913	72,541	0,075	0,056
-83,899	-139,902	0,087	0,006
-82,884	3,022	0,107	0,056
-81,870	-29,486	-0,029	-0,012
-80,855	-200,000	-0,034	0,170
-79,840	-36,684	-0,084	0,032
-78,826	-200,000	0,006	0,078
-77,811	523,984	-0,060	-0,102
-76,797	110,282	0,092	0,079
-75,782	-29,332	0,158	0,064
-74,767	113,066	0,076	0,066
-73,753	-133,644	0,023	0,002
-72,738	37,908	0,065	-0,042
-71,724	116,580	-0,018	-0,016
-70,709	43,817	-0,047	0,031
-69,694	-44,097	0,025	-0,009
-68,680	-74,408	0,104	-0,027
-67,665	-142,469	0,058	-0,004
-66,651	-28,039	0,053	0,022
-65,636	-10,424	0,044	-0,021
-64,622	-200,000	0,021	0,080
-63,607	-33,658	-0,239	-0,094
-62,592	609,825	0,007	-0,012
-61,578	223,324	-0,067	0,078
-60,563	-2,985	0,159	0,079
-59,549	-176,038	0,070	0,001
-58,534	46,293	-2,055	-1,362
-57,519	-200,000	-0,113	-0,851
-56,505	-200,000	-1,237	-4,991
-55,490	114,920	0,804	0,703
-54,476	800,000	5,417	12,204
-53,461	-200,000	18,097	290,840
-52,446	800,000	728,928	2216,662
-51,432	525,306	1641,934	2778,368
-50,417	107,908	1631,164	1391,560
-49,403	72,409	1283,645	957,164
-48,388	30,781	1024,682	626,878
-47,373	19,798	986,649	567,539
-46,359	17,922	974,349	554,321
-45,344	14,829	970,509	542,037
-44,330	15,163	968,861	542,185
-43,315	14,533	967,100	539,128
-42,300	14,492	966,058	538,392
-41,286	14,479	965,317	537,916
-40,271	14,499	964,106	537,284
-39,257	14,529	963,390	536,962
-38,242	14,506	962,288	536,253
-37,227	14,550	961,479	535,923
-36,213	14,536	960,535	535,330
-35,198	14,512	959,814	534,830
-34,184	14,567	959,072	534,573
-33,169	14,463	958,024	533,634
-32,154	14,577	956,971	533,392
-31,140	14,572	956,167	532,906
-30,125	14,534	955,616	532,455
-29,111	14,528	954,524	531,806
-28,096	14,555	953,905	531,527
-27,082	14,485	953,494	531,052
-26,067	14,503	952,772	530,688
-25,052	14,536	951,749	530,202
-24,038	14,511	951,281	529,842
-23,023	14,561	950,434	529,506
-22,009	14,570	949,978	529,259
-20,994	14,516	949,295	528,686
-19,979	14,518	948,480	528,218
-18,965	14,563	947,932	528,037
-17,950	14,510	947,341	527,518
-16,936	14,489	946,651	527,044
-15,921	14,489	946,177	526,760
-14,906	14,439	945,407	526,151
-13,892	14,461	944,760	525,841
-12,877	14,410	944,143	525,314
-11,863	14,440	943,540	525,053
-10,848	14,431	942,967	524,686
-9,833	14,471	942,602	524,588
-8,819	14,480	941,887	524,198
-7,804	14,464	941,285	523,792
-6,790	14,416	940,691	523,287
-5,775	14,468	940,049	523,075
-4,760	14,504	939,338	522,773
-3,746	14,465	938,807	522,334
-2,731	14,314	938,054	521,417
-1,717	14,259	937,442	520,882
-0,702	14,286	936,685	520,528
0,313	14,082	936,111	520,353
1,327	17,495	934,007	529,840
2,342	26,495	787,122	470,113
3,356	22,610	442,866	258,756
4,371	-6,699	295,204	143,242
5,386	-10,608	277,032	130,715
6,400	-11,712	271,239	126,947
7,415	-11,937	268,942	125,654
8,429	-12,205	267,683	124,809
9,444	-12,097	266,840	124,504
10,459	-12,254	266,096	124,003
11,473	-12,228	265,211	123,603
12,488	-12,389	264,803	123,256
13,502	-12,587	264,308	122,835
14,517	-12,526	263,909	122,694
15,531	-12,470	263,387	122,491
16,546	-12,403	263,211	122,458
17,561	-12,413	262,586	122,148
18,575	-12,390	262,447	122,093
19,590	-12,539	262,079	121,777
20,604	-12,336	261,810	121,823
21,619	-12,463	261,388	121,503
22,634	-12,569	261,082	121,255
23,648	-12,540	260,751	121,116
24,663	-12,541	260,506	120,990
25,677	-12,687	260,276	120,743
26,692	-12,468	259,923	120,763
27,707	-12,668	259,751	120,495
28,721	-12,356	259,368	120,583
29,736	-12,583	259,189	120,288
30,750	-12,539	258,886	120,175
31,765	-12,442	258,638	120,135
32,780	-12,450	258,385	120,000
33,794	-12,584	258,094	119,736
34,809	-12,383	257,759	119,747
35,823	-12,678	257,652	119,427
36,838	-12,606	257,333	119,332
37,853	-12,417	257,067	119,364
38,867	-12,509	256,893	119,191
39,882	-12,728	256,741	118,918
40,896	-12,560	256,449	118,920
41,911	-12,646	256,304	118,767
42,926	-12,664	256,186	118,686
43,940	-12,699	255,917	118,521
44,955	-12,706	255,427	118,277
45,969	-12,751	255,291	118,164
46,984	-12,768	255,081	118,041
47,999	-13,010	254,652	117,622
49,013	-13,088	254,537	117,491
50,028	-13,073	254,159	117,319
51,042	-13,289	254,036	117,065
52,057	-13,299	253,838	116,955
53,071	-12,964	253,537	117,095
54,086	-13,278	253,345	116,725
55,101	-13,093	253,375	116,888
56,115	-12,870	253,095	116,941
57,130	-12,449	252,971	117,235
58,144	-12,374	252,997	117,302
59,159	-12,225	252,597	117,233
60,174	-12,227	252,273	117,071
61,188	-12,545	252,107	116,711
62,203	-12,408	252,033	116,783
63,217	-12,428	251,725	116,613
64,232	-12,598	251,597	116,398
65,247	-12,398	251,280	116,412
66,261	-12,653	250,937	116,025
67,276	-12,723	250,899	115,938
68,290	-12,795	250,556	115,708
69,305	-12,815	250,380	115,598
70,320	-12,764	250,174	115,537
71,334	-12,635	250,057	115,582
72,349	-12,563	249,948	115,583
73,363	-12,381	249,683	115,604
74,378	-12,474	249,430	115,398
75,393	-12,384	249,172	115,344
76,407	-12,597	249,009	115,078
77,422	-12,530	248,720	114,991
78,436	-12,323	248,578	115,091
79,451	-12,373	248,248	114,886
80,466	-12,581	248,310	114,728
81,480	-12,613	247,910	114,506
82,495	-12,735	247,847	114,364
83,509	-12,572	247,562	114,359
84,524	-12,779	247,337	114,071
85,539	-12,713	247,030	113,975
86,553	-12,693	246,814	113,882
87,568	-12,907	246,915	113,738
88,582	-12,766	246,722	113,758
89,597	-12,897	246,368	113,475
90,611	-12,701	246,191	113,547
91,626	-12,353	246,064	113,769
92,641	-12,202	245,794	113,760
93,655	-12,377	245,614	113,521
94,670	-12,629	245,461	113,230
95,684	-12,527	245,183	113,177
96,699	-12,614	245,188	113,096
97,714	-12,794	245,064	112,879
98,728	-12,683	244,583	112,740
99,743	-12,802	244,343	112,520
100,757	-12,922	244,471	112,470
101,772	-12,851	244,069	112,334
102,787	-12,661	244,005	112,452
103,801	-12,412	243,718	112,515
104,816	-12,681	243,734	112,290
105,830	-12,374	243,401	112,380
106,845	-12,520	243,288	112,197
107,860	-12,510	243,009	112,067
108,874	-12,583	242,771	111,887
109,889	-12,763	242,627	111,663
110,903	-12,695	242,428	111,617
111,918	-12,765	242,265	111,475
112,933	-12,629	242,076	111,489
113,947	-12,427	241,955	111,590
114,962	-12,537	241,781	111,409
115,976	-12,444	241,559	111,372
116,991	-12,465	241,325	111,238
118,006	-12,492	241,066	111,087
119,020	-12,621	241,172	111,020
120,035	-12,420	240,990	111,090
121,049	-12,365	240,780	111,028
122,064	-12,538	240,544	110,769
123,079	-12,610	240,314	110,595
124,093	-12,499	240,125	110,588
125,108	-12,670	239,908	110,339
126,122	-13,112	239,739	109,893
127,137	-12,849	239,507	109,990
128,151	-12,759	239,335	109,974
129,166	-12,911	239,187	109,773
130,181	-12,749	238,902	109,764
131,195	-12,857	238,859	109,646
132,210	-12,530	238,490	109,732
133,224	-12,571	238,414	109,654
134,239	-12,485	238,194	109,612
135,254	-12,424	238,156	109,634
136,268	-12,582	238,015	109,432
137,283	-12,792	237,590	109,058
138,297	-12,893	237,288	108,828
139,312	-12,844	237,282	108,856
140,327	-12,671	237,262	108,976
141,341	-12,324	237,206	109,219
142,356	-12,138	236,959	109,244
143,370	-12,440	236,911	108,970
144,385	-12,334	236,759	108,975
145,400	-12,248	236,459	108,896
146,414	-12,306	236,308	108,770
147,429	-12,335	236,035	108,612
148,443	-12,271	235,860	108,573
149,458	-12,466	235,807	108,383
150,473	-12,397	235,514	108,294
151,487	-12,233	235,390	108,358
152,502	-12,304	235,285	108,243
153,516	-12,470	235,212	108,068
154,531	-12,372	234,950	108,016
155,546	-12,530	234,708	107,770
156,560	-12,500	234,472	107,676
157,575	-12,559	234,342	107,560
158,589	-12,431	234,235	107,602
159,604	-12,297	234,055	107,616
160,619	-12,210	233,961	107,632
161,633	-12,217	233,778	107,533
162,648	-12,113	233,717	107,577
163,662	-12,266	233,482	107,338
164,677	-12,353	233,240	107,150
165,692	-12,384	233,199	107,096
166,706	-12,255	232,945	107,072
167,721	-12,104	232,723	107,078
168,735	-11,968	232,609	107,123
169,750	-12,343	232,578	106,805
170,764	-12,323	232,460	106,758
171,779	-12,373	232,237	106,606
172,794	-12,252	232,075	106,617
173,808	-12,318	231,767	106,414
174,823	-12,634	231,615	106,089
175,837	-12,857	231,324	105,772
176,852	-12,601	231,431	106,011
177,867	-12,186	231,170	106,205
178,881	-12,273	230,965	106,034
179,896	-12,338	230,961	105,972
180,910	-12,400	230,847	105,862
181,925	-12,568	230,590	105,604
182,940	-12,091	230,473	105,911
183,954	-12,332	230,323	105,646
184,969	-12,179	230,194	105,696
185,983	-12,057	230,147	105,760
186,998	-11,904	229,868	105,740
188,013	-11,950	229,640	105,591
189,027	-11,928	229,471	105,520
190,042	-12,147	229,270	105,249
191,056	-12,007	229,294	105,359
192,071	-11,987	229,040	105,248
193,086	-12,159	228,921	105,052
194,100	-11,761	228,771	105,280
195,115	-12,230	228,456	104,765
196,129	-12,771	228,385	104,308
197,144	-7,684	229,957	108,946
198,159	-2,137	231,590	114,015
199,173	1,278	232,529	117,121
200,188	1,742	232,649	117,532
201,202	1,737	232,254	117,317
202,217	1,490	232,077	117,026
203,232	1,758	232,064	117,216
204,246	1,774	231,927	117,150
205,261	1,944	231,650	117,131
206,275	2,048	231,622	117,186
207,290	2,190	231,509	117,228
208,304	2,230	231,390	117,189
209,319	1,996	231,071	116,836
210,334	1,883	231,065	116,736
211,348	1,849	230,734	116,532
212,363	1,534	230,422	116,122
213,377	1,460	230,403	116,045
214,392	1,546	230,267	116,033
215,407	1,594	230,076	115,962
216,421	1,530	229,904	115,817
217,436	1,514	229,788	115,735
218,450	1,434	229,513	115,525
219,465	1,259	229,352	115,301
220,480	1,243	229,335	115,269
221,494	1,367	229,214	115,293
222,509	1,823	229,050	115,548
223,523	1,638	229,044	115,393
224,538	1,586	228,762	115,201
225,553	1,466	228,636	115,037
226,567	1,567	228,373	114,971
227,582	1,654	228,352	115,016
228,596	1,806	228,288	115,089
229,611	1,629	228,110	114,854
230,626	1,303	227,927	114,505
231,640	1,486	227,608	114,473
232,655	1,603	227,729	114,613
233,669	1,862	227,420	114,642
234,684	1,920	227,483	114,708
235,699	1,996	227,259	114,642
236,713	1,658	227,074	114,284
237,728	1,624	226,924	114,172
238,742	1,559	226,563	113,931
239,757	1,371	226,499	113,747
240,772	1,401	226,351	113,685
241,786	1,215	226,345	113,532
242,801	1,497	226,230	113,677
243,815	2,009	226,161	114,017
244,830	1,970	225,772	113,781
245,844	1,498	225,595	113,328
246,859	1,414	225,477	113,196
247,874	1,848	225,361	113,452
248,888	1,912	225,328	113,473
249,903	1,699	225,145	113,212
250,917	1,618	224,947	113,042
251,932	1,520	224,802	112,886
252,947	1,456	224,507	112,680
253,961	1,285	224,243	112,409
254,976	1,415	224,155	112,452
255,990	1,692	224,310	112,727
257,005	1,696	224,111	112,619
258,020	1,832	223,873	112,591
259,034	1,899	223,732	112,560
260,049	1,560	223,715	112,289
261,063	1,749	223,471	112,297
262,078	1,707	223,470	112,255
263,093	1,884	223,367	112,325
264,107	1,817	223,126	112,144
265,122	1,810	222,961	112,046
266,136	2,226	222,807	112,266
267,151	1,917	222,823	112,036
268,166	1,783	222,409	111,719
269,180	1,472	222,088	111,318
270,195	1,290	222,171	111,216
271,209	1,421	221,994	111,213
272,224	1,308	222,081	111,165
273,239	1,567	221,839	111,224
274,253	1,471	221,635	111,041
275,268	1,294	221,479	110,823
276,282	1,249	221,205	110,643
277,297	1,271	221,040	110,566
278,312	1,594	220,891	110,719
279,326	1,731	220,812	110,770
280,341	1,761	220,792	110,771
281,355	1,661	220,741	110,663
282,370	1,779	220,474	110,606
283,384	1,404	220,249	110,209
284,399	1,329	220,039	110,039
285,414	1,185	219,956	109,883
286,428	1,516	219,925	110,099
287,443	1,572	219,954	110,145
288,457	1,581	219,733	110,031
289,472	1,486	219,325	109,748
290,487	1,077	219,149	109,353
291,501	1,148	219,033	109,337
292,516	1,212	218,887	109,300
293,530	1,180	218,898	109,273
294,545	1,286	218,779	109,281
295,560	1,551	218,632	109,389
296,574	1,595	218,547	109,369
297,589	1,243	218,538	109,100
298,603	1,625	218,239	109,217
299,618	1,594	218,074	109,102
300,633	1,621	217,965	109,058
301,647	1,982	217,845	109,247
302,662	2,028	217,757	109,227
303,676	1,891	217,666	109,073
304,691	1,916	217,491	108,993
305,706	1,768	217,325	108,795
306,720	2,034	217,153	108,890
307,735	1,413	217,027	108,371
308,749	1,495	216,768	108,291
309,764	1,816	216,757	108,505
310,779	1,821	216,627	108,434
311,793	1,621	216,400	108,168
312,808	1,571	216,403	108,124
313,822	1,767	216,179	108,143
314,837	1,479	216,014	107,845
315,852	1,387	215,786	107,656
316,866	1,873	215,682	107,941
317,881	1,696	215,572	107,750
318,895	1,953	215,294	107,785
319,910	1,344	215,290	107,339
320,925	1,171	215,135	107,130
321,939	0,821	214,849	106,729
322,954	1,231	214,809	106,991
323,968	1,891	214,672	107,380
324,983	2,025	214,747	107,504
325,997	1,836	214,571	107,272
327,012	1,938	214,352	107,225
328,027	1,691	214,341	107,036
329,041	1,812	214,226	107,054
330,056	1,446	213,949	106,648
331,070	1,519	213,654	106,543
332,085	1,259	213,575	106,311
333,100	1,715	213,642	106,656
334,114	2,022	213,363	106,723
335,129	2,031	213,152	106,614
336,143	1,743	213,135	106,394
337,158	1,726	212,947	106,279
338,173	1,728	212,775	106,185
339,187	1,542	212,709	106,012
340,202	1,454	212,432	105,803
341,216	1,459	212,216	105,689
342,231	1,628	212,087	105,733
343,246	1,310	212,150	105,533
344,260	0,958	212,039	105,222
345,275	1,955	211,911	105,846
346,289	2,332	212,037	106,163
347,304	2,037	211,903	105,880
348,319	1,875	211,577	105,595
349,333	1,747	211,364	105,390
350,348	1,779	211,259	105,351
351,362	2,029	211,254	105,513
352,377	2,030	211,061	105,408
353,392	1,553	210,894	104,984
354,406	1,579	210,766	104,929
355,421	197,737	1314,551	1394,952
356,435	158,142	1449,003	1394,909
