DTS Sentinel unit serial number:	SN410029Multiplexer serial number:	ORYXHardware model number:	OX2-SRSoftware version number:	ORYX F/W v4,00 Oryx Data Collector v3.7.2.0data status	okinstallation	B6 Nyhavnadifferential loss correction	single-endedforward channel	channel 2reverse channel	N/Adate	2023/12/10time	09:40:08forward acquisition time	300,00reverse acquisition time	0,00gamma	499,1914k internal	0,3123k external	0,3123temperature offset calibration	1,0000default loss term (dB/km)	0,3820temperature slope calibration	1,0000multiplexer offset coefficient	1,0000multiplexer slope coefficient	1,0000fibre end	0,00T internal ref (°C)	22,54T ext. ref 1 (°C)	6,33T ext. ref 2 (°C)	6,34length (m)	temperature (°C)	Stokes	anti-Stokes-744,400	-89,815	-0,041	0,009
-743,385	357,267	-0,134	0,200
-742,371	278,797	0,037	-0,049
-741,356	-43,744	-0,258	0,097
-740,342	548,523	0,079	0,142
-739,327	111,704	-0,207	0,186
-738,312	23,075	-0,059	-0,036
-737,298	-155,211	-0,246	0,012
-736,283	26,041	0,099	-0,062
-735,269	18,424	-0,128	0,076
-734,254	569,530	0,043	-0,078
-733,239	-193,298	-0,391	-0,002
-732,225	800,000	-0,042	0,129
-731,210	-14,876	0,067	0,032
-730,196	800,000	0,045	-0,131
-729,181	-106,827	0,114	-0,019
-728,167	207,103	0,038	-0,044
-727,152	-200,000	0,032	0,111
-726,137	-38,740	0,048	-0,019
-725,123	-35,095	-0,146	-0,059
-724,108	39,709	-0,109	-0,073
-723,094	-200,000	0,030	-0,141
-722,079	209,140	-0,099	-0,116
-721,064	10,247	-0,070	0,040
-720,050	597,252	0,067	-0,125
-719,035	64,521	0,124	-0,093
-718,021	-120,534	-0,080	0,010
-717,006	800,000	-0,024	0,078
-715,991	-141,316	0,052	-0,004
-714,977	-11,423	-0,102	-0,050
-713,962	-200,000	0,013	0,051
-712,948	-200,000	-0,004	0,109
-711,933	146,243	0,034	0,034
-710,918	224,836	-0,063	0,076
-709,904	-67,084	-0,037	0,011
-708,889	-158,779	-0,124	0,005
-707,875	341,485	0,006	0,008
-706,860	-154,122	-0,087	-0,004
-705,845	267,483	-0,032	-0,042
-704,831	398,933	-0,063	0,098
-703,816	-200,000	-0,006	-0,157
-702,802	-59,187	-0,090	0,029
-701,787	-42,792	-0,209	-0,079
-700,772	800,000	-0,044	-0,135
-699,758	-200,000	0,012	-0,060
-698,743	-11,332	0,035	0,017
-697,729	28,755	-0,102	0,064
-696,714	-200,000	-0,028	-0,092
-695,699	800,000	-0,040	-0,092
-694,685	-140,158	-0,059	-0,005
-693,670	629,760	-0,083	0,157
-692,656	-99,608	-0,158	-0,029
-691,641	-131,619	0,115	0,011
-690,627	-98,333	0,125	-0,024
-689,612	7,983	0,082	0,045
-688,597	42,380	0,042	0,028
-687,583	-200,000	-0,011	-0,248
-686,568	-200,000	0,022	-0,076
-685,554	-200,000	0,026	-0,115
-684,539	800,000	0,044	0,126
-683,524	-157,305	-0,044	-0,002
-682,510	-164,070	-0,054	0,002
-681,495	-200,000	-0,007	-0,040
-680,481	-200,000	-0,027	-0,189
-679,466	195,533	-0,031	-0,035
-678,451	355,907	-0,015	0,022
-677,437	23,095	-0,029	-0,018
-676,422	113,291	0,033	-0,029
-675,408	263,098	-0,038	-0,049
-674,393	-200,000	0,009	0,086
-673,378	-200,000	0,001	0,067
-672,364	128,005	-0,086	-0,082
-671,349	98,791	-0,038	-0,032
-670,335	97,485	0,067	0,057
-669,320	77,272	0,067	0,053
-668,305	-200,000	-0,037	-0,121
-667,291	3,474	-0,090	-0,049
-666,276	-200,000	0,000	-0,067
-665,262	-32,154	-0,099	-0,041
-664,247	-113,376	-0,094	-0,013
-663,232	377,329	0,026	-0,040
-662,218	797,567	-0,054	0,111
-661,203	-200,000	-0,005	0,055
-660,189	800,000	0,095	0,212
-659,174	-44,373	-0,059	0,022
-658,159	-200,000	-0,036	-0,166
-657,145	-200,000	0,010	-0,106
-656,130	78,573	0,015	-0,012
-655,116	-22,373	-0,074	0,033
-654,101	388,577	-0,067	0,103
-653,086	46,811	0,105	-0,072
-652,072	-170,464	0,034	0,001
-651,057	-200,000	0,029	0,116
-650,043	-20,957	0,100	0,045
-649,028	474,792	0,038	-0,064
-648,014	-100,356	0,172	0,031
-646,999	-121,544	0,201	-0,024
-645,984	-84,828	-0,057	0,013
-644,970	209,284	0,078	-0,090
-643,955	-48,428	-0,101	-0,036
-642,941	800,000	-0,038	-0,119
-641,926	-123,086	-0,142	0,017
-640,911	165,413	-0,019	-0,020
-639,897	-74,399	0,132	-0,035
-638,882	-200,000	-0,005	-0,062
-637,868	-200,000	-0,000	0,178
-636,853	179,284	-0,072	-0,078
-635,838	-25,100	0,169	0,074
-634,824	628,565	-0,030	0,057
-633,809	-160,052	0,087	0,003
-632,795	448,158	0,020	0,033
-631,780	-27,087	-0,103	0,044
-630,765	-69,896	-0,099	-0,028
-629,751	-200,000	0,034	-0,114
-628,736	-146,791	-0,123	-0,008
-627,722	-12,294	-0,066	0,032
-626,707	246,820	-0,044	-0,055
-625,692	48,239	-0,101	-0,070
-624,678	72,285	-0,113	0,087
-623,663	-72,467	0,112	0,030
-622,649	732,381	0,027	-0,054
-621,634	-200,000	0,018	-0,085
-620,619	93,786	-0,105	-0,088
-619,605	-171,505	0,040	0,001
-618,590	800,000	-0,039	0,119
-617,576	-76,967	0,009	-0,002
-616,561	-16,370	0,092	-0,043
-615,546	-200,000	-0,024	-0,120
-614,532	-200,000	-0,006	-0,039
-613,517	-200,000	-0,014	-0,058
-612,503	182,983	0,040	-0,044
-611,488	355,983	-0,077	0,114
-610,474	-79,349	-0,043	0,011
-609,459	176,369	-0,050	0,054
-608,444	-200,000	0,001	0,031
-607,430	-107,371	0,124	-0,020
-606,415	-200,000	0,028	-0,128
-605,401	800,000	-0,001	-0,004
-604,386	-69,708	0,181	-0,051
-603,371	156,112	-0,124	0,127
-602,357	-200,000	0,008	-0,123
-601,342	-200,000	-0,005	-0,080
-600,328	-200,000	0,017	0,060
-599,313	800,000	-0,016	0,053
-598,298	-61,341	-0,047	-0,014
-597,284	-1,430	0,103	-0,053
-596,269	27,933	0,089	0,056
-595,255	800,000	0,002	0,006
-594,240	-77,739	0,182	-0,046
-593,225	6,808	-0,071	-0,039
-592,211	-40,070	-0,125	0,048
-591,196	-102,590	0,080	-0,014
-590,182	-200,000	0,016	0,054
-589,167	99,296	-0,069	0,059
-588,152	-3,818	-0,104	0,053
-587,138	-200,000	0,008	0,084
-586,123	51,080	0,065	-0,046
-585,109	9,539	-0,161	-0,090
-584,094	-200,000	-0,002	-0,023
-583,079	31,816	-0,038	0,024
-582,065	-173,805	-0,065	-0,001
-581,050	800,000	0,022	0,058
-580,036	107,784	-0,117	0,103
-579,021	-200,000	-0,018	-0,086
-578,006	412,744	-0,077	-0,122
-576,992	-200,000	0,002	-0,071
-575,977	249,720	-0,026	0,033
-574,963	59,882	0,144	-0,105
-573,948	295,169	-0,074	-0,100
-572,934	-46,763	-0,039	-0,014
-571,919	54,525	-0,077	0,055
-570,904	800,000	-0,033	-0,079
-569,890	-200,000	-0,033	-0,112
-568,875	224,233	0,135	-0,161
-567,861	110,468	0,020	-0,018
-566,846	7,109	-0,032	-0,017
-565,831	147,739	0,069	0,069
-564,817	-109,541	0,028	-0,004
-563,802	-8,739	0,036	-0,018
-562,788	-24,128	0,074	-0,032
-561,773	-200,000	0,002	0,033
-560,758	800,000	0,036	0,109
-559,744	230,631	-0,042	-0,050
-558,729	774,663	0,040	-0,080
-557,715	329,386	-0,064	0,091
-556,700	-158,372	-0,174	0,007
-555,685	-200,000	0,009	-0,033
-554,671	33,070	0,125	0,080
-553,656	712,924	-0,037	0,073
-552,642	72,675	-0,044	0,034
-551,627	440,400	0,042	0,067
-550,612	800,000	-0,063	0,161
-549,598	313,045	-0,011	0,016
-548,583	50,363	-0,052	-0,036
-547,569	-0,483	0,048	0,025
-546,554	69,942	0,055	-0,042
-545,539	27,170	0,113	0,070
-544,525	2,171	-0,013	0,007
-543,510	96,082	-0,074	0,062
-542,496	-32,496	-0,065	-0,027
-541,481	378,228	-0,078	-0,118
-540,466	-200,000	-0,018	-0,073
-539,452	-10,832	0,082	0,040
-538,437	4,431	0,115	0,062
-537,423	-200,000	0,012	0,144
-536,408	-116,963	0,104	0,014
-535,393	-106,332	0,143	-0,023
-534,379	16,153	-0,067	0,039
-533,364	164,165	-0,081	-0,085
-532,350	-34,681	0,068	-0,028
-531,335	800,000	-0,041	0,112
-530,321	122,678	-0,031	0,028
-529,306	-26,487	-0,140	0,061
-528,291	-159,247	-0,074	-0,003
-527,277	262,954	0,043	-0,055
-526,262	-18,658	0,019	-0,009
-525,248	305,862	0,111	-0,153
-524,233	-200,000	0,004	0,084
-523,218	800,000	0,038	0,096
-522,204	800,000	0,033	0,106
-521,189	800,000	0,029	0,062
-520,175	800,000	-0,027	-0,062
-519,160	589,159	0,090	-0,166
-518,145	-147,165	0,082	0,005
-517,131	203,972	0,082	0,094
-516,116	-200,000	-0,009	-0,115
-515,102	-200,000	0,001	0,052
-514,087	138,121	0,103	0,100
-513,072	271,620	-0,026	0,034
-512,058	-112,106	-0,021	0,003
-511,043	213,998	-0,009	0,011
-510,029	-200,000	-0,015	-0,156
-509,014	-132,574	0,053	-0,005
-507,999	345,004	0,045	0,065
-506,985	-200,000	0,007	0,129
-505,970	217,062	-0,058	-0,068
-504,956	-124,248	-0,072	-0,008
-503,941	-200,000	0,012	-0,081
-502,926	-89,741	-0,073	0,016
-501,912	800,000	-0,028	0,065
-500,897	409,540	-0,038	0,060
-499,883	-200,000	-0,007	0,055
-498,868	800,000	0,022	-0,048
-497,853	-13,185	0,089	-0,043
-496,839	-200,000	0,008	-0,065
-495,824	153,053	0,035	0,035
-494,810	800,000	0,023	-0,070
-493,795	-200,000	0,011	0,050
-492,781	78,771	-0,102	-0,081
-491,766	-54,278	-0,071	-0,024
-490,751	-87,572	-0,120	-0,027
-489,737	-15,800	0,112	0,053
-488,722	585,916	0,077	-0,140
-487,708	72,515	-0,114	0,088
-486,693	232,603	0,095	0,116
-485,678	33,614	0,071	-0,045
-484,664	52,404	0,059	-0,042
-483,649	800,000	-0,063	-0,132
-482,635	800,000	0,003	-0,006
-481,620	-200,000	-0,005	-0,101
-480,605	118,071	-0,066	-0,060
-479,591	-200,000	-0,010	0,102
-478,576	-35,804	-0,046	0,018
-477,562	-152,848	0,065	0,003
-476,547	-9,245	-0,022	0,011
-475,532	800,000	0,015	0,044
-474,518	23,859	0,094	-0,057
-473,503	800,000	0,031	0,064
-472,489	-118,721	0,011	-0,001
-471,474	-41,369	-0,073	0,028
-470,459	-200,000	-0,006	0,046
-469,445	628,851	-0,076	-0,142
-468,430	-200,000	0,013	0,053
-467,416	-200,000	0,018	-0,082
-466,401	-56,236	0,117	0,038
-465,386	800,000	0,021	0,062
-464,372	25,496	0,027	-0,016
-463,357	-44,050	0,129	0,047
-462,343	156,517	-0,029	-0,030
-461,328	46,682	-0,069	-0,047
-460,313	271,705	0,085	-0,110
-459,299	800,000	0,085	-0,198
-458,284	16,695	-0,157	-0,091
-457,270	800,000	-0,016	-0,045
-456,255	-200,000	0,010	-0,078
-455,241	800,000	0,028	-0,091
-454,226	800,000	-0,016	0,035
-453,211	188,382	-0,047	-0,051
-452,197	105,081	-0,034	0,029
-451,182	33,110	0,036	-0,023
-450,168	-200,000	-0,002	-0,215
-449,153	-200,000	0,003	0,023
-448,138	231,856	0,063	0,076
-447,124	800,000	-0,023	0,071
-446,109	114,140	0,043	-0,039
-445,095	-135,761	0,093	-0,008
-444,080	12,247	0,131	-0,074
-443,065	23,322	0,017	0,010
-442,051	150,079	-0,073	-0,073
-441,036	130,097	-0,067	0,063
-440,022	495,586	0,003	-0,005
-439,007	800,000	0,031	0,066
-437,992	15,889	-0,065	-0,037
-436,978	7,530	0,168	0,092
-435,963	-112,654	0,093	-0,013
-434,949	-65,126	-0,082	-0,024
-433,934	-200,000	-0,005	0,041
-432,919	-63,938	-0,091	-0,027
-431,905	-200,000	0,010	-0,111
-430,890	64,997	0,095	-0,071
-429,876	51,139	0,024	-0,017
-428,861	136,940	0,146	-0,140
-427,846	-69,133	-0,078	-0,022
-426,832	126,884	-0,080	0,075
-425,817	-46,070	0,060	-0,021
-424,803	117,184	-0,104	-0,094
-423,788	366,516	0,058	0,086
-422,773	189,749	0,046	-0,051
-421,759	-156,964	-0,056	-0,002
-420,744	-200,000	0,001	-0,059
-419,730	-200,000	-0,049	0,168
-418,715	136,369	-0,078	-0,074
-417,701	-66,816	0,026	-0,007
-416,686	-76,898	0,153	-0,039
-415,671	78,242	-0,046	0,036
-414,657	636,540	-0,039	-0,074
-413,642	-100,879	-0,027	0,005
-412,628	-60,330	-0,059	-0,018
-411,613	64,197	-0,092	0,068
-410,598	800,000	-0,037	-0,094
-409,584	377,206	0,029	-0,043
-408,569	-168,072	0,058	-0,002
-407,555	-16,239	0,104	0,049
-406,540	-200,000	0,013	-0,201
-405,525	-145,006	0,059	-0,004
-404,511	-200,000	0,032	-0,199
-403,496	-4,998	-0,089	-0,045
-402,482	-68,588	-0,015	0,004
-401,467	-143,475	-0,184	-0,013
-400,452	-129,085	-0,088	0,009
-399,438	191,603	0,052	0,058
-398,423	-106,200	-0,135	0,022
-397,409	-62,175	-0,064	-0,020
-396,394	-159,778	-0,095	-0,004
-395,379	-137,711	0,126	0,010
-394,365	690,397	-0,062	0,120
-393,350	800,000	-0,028	0,077
-392,336	9,443	-0,097	0,054
-391,321	557,771	-0,074	-0,131
-390,306	-200,000	0,010	-0,172
-389,292	354,822	-0,094	0,138
-388,277	22,442	-0,006	0,004
-387,263	560,643	0,016	-0,029
-386,248	36,700	0,055	-0,036
-385,233	800,000	0,032	0,086
-384,219	-200,000	0,014	0,068
-383,204	-28,100	-0,073	-0,031
-382,190	38,908	-0,092	-0,060
-381,175	-80,238	0,075	0,018
-380,160	800,000	0,009	-0,021
-379,146	800,000	-0,032	-0,088
-378,131	35,458	0,060	0,039
-377,117	-122,103	0,083	0,010
-376,102	800,000	-0,019	-0,043
-375,088	-200,000	-0,001	-0,102
-374,073	-10,081	0,070	-0,034
-373,058	800,000	0,058	0,123
-372,044	-200,000	0,004	-0,033
-371,029	-200,000	0,019	0,125
-370,015	-200,000	-0,001	-0,019
-369,000	-200,000	0,030	-0,112
-367,985	-131,583	0,044	-0,004
-366,971	-200,000	0,000	-0,150
-365,956	-44,886	0,057	0,021
-364,942	669,140	-0,010	-0,020
-363,927	26,775	0,112	0,069
-362,912	-26,376	-0,147	-0,063
-361,898	132,500	0,100	0,094
-360,883	-200,000	-0,013	-0,048
-359,869	-200,000	-0,014	0,106
-358,854	128,581	0,019	-0,018
-357,839	-48,909	-0,114	0,040
-356,825	111,967	0,051	0,045
-355,810	333,999	0,069	0,098
-354,796	-200,000	0,007	0,123
-353,781	800,000	-0,066	0,161
-352,766	-200,000	-0,003	0,119
-351,752	-118,116	0,091	0,012
-350,737	70,366	0,075	-0,057
-349,723	370,680	0,095	0,142
-348,708	-5,511	0,085	0,043
-347,693	6,473	0,055	-0,030
-346,679	-45,647	-0,087	0,032
-345,664	-200,000	0,002	-0,032
-344,650	-200,000	-0,024	-0,082
-343,635	789,963	0,057	0,115
-342,620	-77,455	0,158	0,040
-341,606	11,723	-0,136	0,076
-340,591	800,000	0,035	0,077
-339,577	-36,408	-0,058	-0,023
-338,562	800,000	-0,026	-0,077
-337,548	51,668	-0,058	0,040
-336,533	-152,211	0,064	-0,003
-335,518	-200,000	0,019	0,091
-334,504	450,098	-0,105	0,171
-333,489	271,513	0,095	0,123
-332,475	563,928	0,034	-0,061
-331,460	37,808	0,058	-0,038
-330,445	28,979	-0,096	0,059
-329,431	31,519	-0,126	-0,079
-328,416	146,038	0,125	0,123
-327,402	800,000	0,078	-0,172
-326,387	103,023	-0,058	0,050
-325,372	714,503	-0,037	-0,071
-324,358	-200,000	-0,015	-0,079
-323,343	45,410	0,055	0,037
-322,329	-141,473	0,161	0,012
-321,314	-100,780	0,004	0,001
-320,299	0,144	-0,059	-0,031
-319,285	-170,437	-0,065	-0,002
-318,270	201,375	-0,081	0,092
-317,256	284,556	0,062	0,082
-316,241	-116,200	-0,111	-0,015
-315,226	-200,000	-0,029	-0,110
-314,212	181,959	-0,086	-0,093
-313,197	14,542	-0,042	-0,024
-312,183	-200,000	0,003	0,114
-311,168	304,835	0,023	0,031
-310,153	800,000	0,030	0,064
-309,139	800,000	-0,052	-0,135
-308,124	194,430	0,019	0,021
-307,110	74,161	0,199	-0,153
-306,095	168,047	0,074	0,077
-305,080	206,726	-0,061	-0,069
-304,066	1,263	-0,120	-0,063
-303,051	-16,578	-0,155	-0,072
-302,037	-108,455	-0,104	0,016
-301,022	-74,326	0,152	0,040
-300,008	631,060	0,071	0,132
-298,993	800,000	0,058	0,175
-297,978	800,000	0,017	0,051
-296,964	-200,000	-0,013	0,106
-295,949	-200,000	0,031	-0,133
-294,935	184,156	-0,084	-0,091
-293,920	-58,767	0,144	-0,045
-292,905	615,228	0,037	0,068
-291,891	130,467	0,083	0,078
-290,876	-39,273	-0,139	0,053
-289,862	598,253	0,028	0,050
-288,847	-90,963	-0,043	0,009
-287,832	800,000	-0,025	-0,077
-286,818	175,559	0,123	0,130
-285,803	147,971	0,039	-0,039
-284,789	32,494	-0,110	-0,069
-283,774	246,201	0,068	0,084
-282,759	-200,000	0,007	0,081
-281,745	-130,467	-0,145	-0,014
-280,730	-200,000	-0,008	-0,093
-279,716	70,836	0,018	-0,014
-278,701	-200,000	0,010	0,070
-277,686	-200,000	0,004	-0,043
-276,672	-2,000	0,141	0,072
-275,657	463,905	0,068	-0,112
-274,643	270,415	-0,081	-0,105
-273,628	-77,880	-0,101	-0,025
-272,613	151,969	-0,030	0,030
-271,599	-200,000	-0,006	0,117
-270,584	-29,269	-0,014	-0,006
-269,570	-200,000	-0,021	0,118
-268,555	800,000	0,021	-0,047
-267,540	-115,275	0,120	-0,016
-266,526	-71,844	-0,066	-0,018
-265,511	-109,694	-0,115	-0,018
-264,497	800,000	0,024	-0,065
-263,482	-24,785	-0,042	-0,018
-262,467	-99,605	0,058	0,011
-261,453	106,244	0,209	0,181
-260,438	-50,460	0,095	-0,033
-259,424	800,000	-0,018	0,037
-258,409	25,350	0,014	0,008
-257,395	-200,000	0,002	-0,055
-256,380	-127,670	0,066	-0,007
-255,365	384,014	0,069	0,104
-254,351	36,004	-0,102	-0,066
-253,336	155,547	-0,018	0,018
-252,322	215,725	-0,078	-0,091
-251,307	605,185	-0,069	-0,127
-250,292	113,867	-0,212	-0,189
-249,278	-35,047	-0,120	-0,048
-248,263	-200,000	-0,014	0,106
-247,249	-61,416	0,046	0,014
-246,234	-118,990	0,067	-0,009
-245,219	207,305	-0,089	-0,102
-244,205	30,984	0,039	-0,024
-243,190	179,710	-0,029	-0,031
-242,176	162,145	0,108	-0,111
-241,161	-200,000	-0,000	0,117
-240,146	-34,929	-0,012	0,005
-239,132	-200,000	-0,050	0,190
-238,117	136,279	-0,080	0,076
-237,103	-200,000	-0,006	-0,067
-236,088	54,694	-0,096	0,068
-235,073	800,000	0,029	0,073
-234,059	-37,972	0,255	0,099
-233,044	-200,000	0,014	0,072
-232,030	-73,125	-0,050	-0,013
-231,015	-85,857	-0,109	0,025
-230,000	-83,120	-0,126	-0,029
-228,986	-200,000	-0,006	-0,028
-227,971	546,987	-0,023	0,041
-226,957	800,000	-0,022	0,069
-225,942	34,975	0,143	0,092
-224,927	-200,000	0,018	0,074
-223,913	695,866	0,020	0,038
-222,898	275,206	0,031	-0,041
-221,884	-200,000	0,000	-0,059
-220,869	-200,000	0,008	0,036
-219,855	532,894	0,070	0,121
-218,840	201,039	-0,101	0,114
-217,825	-11,196	-0,099	-0,047
-216,811	131,805	-0,010	0,010
-215,796	-25,579	-0,083	-0,036
-214,782	-80,846	-0,055	-0,013
-213,767	800,000	0,046	0,148
-212,752	-145,059	0,107	0,007
-211,738	-13,708	-0,045	-0,021
-210,723	-16,930	-0,025	0,011
-209,709	37,360	-0,100	0,064
-208,694	280,679	-0,065	-0,086
-207,679	-35,528	-0,061	0,024
-206,665	30,177	0,068	0,042
-205,650	50,724	-0,010	-0,007
-204,636	632,396	0,036	-0,067
-203,621	-64,568	-0,038	0,011
-202,606	-177,130	0,042	-0,001
-201,592	-76,723	-0,054	0,014
-200,577	-127,006	-0,093	0,010
-199,563	86,578	-0,042	0,033
-198,548	-87,247	0,149	-0,033
-197,533	800,000	-0,015	-0,049
-196,519	-200,000	-0,030	-0,154
-195,504	-86,947	0,024	0,005
-194,490	643,262	-0,055	-0,102
-193,475	-156,273	-0,060	-0,003
-192,460	-58,755	-0,075	0,024
-191,446	-200,000	0,003	0,045
-190,431	-79,998	0,060	-0,015
-189,417	800,000	0,006	0,013
-188,402	-96,685	0,120	-0,023
-187,387	27,616	-0,082	-0,050
-186,373	-84,880	-0,090	0,021
-185,358	-200,000	0,002	0,039
-184,344	-200,000	0,009	0,099
-183,329	94,581	0,147	0,122
-182,315	-200,000	0,014	0,189
-181,300	-200,000	0,001	0,089
-180,285	-131,124	-0,091	0,009
-179,271	196,051	0,051	0,057
-178,256	-64,714	-0,103	-0,030
-177,242	-200,000	0,019	0,066
-176,227	-114,023	0,016	0,002
-175,212	309,008	-0,049	-0,068
-174,198	117,298	-0,105	-0,094
-173,183	-200,000	-0,005	-0,103
-172,169	-200,000	0,029	-0,131
-171,154	-200,000	0,024	0,113
-170,139	-102,620	-0,116	-0,020
-169,125	236,075	0,081	0,098
-168,110	282,903	0,017	-0,022
-167,096	86,310	-0,105	0,084
-166,081	302,403	-0,061	-0,083
-165,066	214,181	-0,085	-0,098
-164,052	219,132	0,032	-0,037
-163,037	800,000	-0,020	0,042
-162,023	-200,000	0,040	0,130
-161,008	-200,000	-0,017	0,105
-159,993	-3,563	0,033	0,017
-158,979	-173,397	-0,120	-0,003
-157,964	153,957	0,096	-0,096
-156,950	-13,025	-0,057	0,027
-155,935	-142,094	0,165	0,012
-154,920	28,549	0,013	0,008
-153,906	-43,806	0,171	0,062
-152,891	-10,592	0,104	0,050
-151,877	-120,735	0,068	-0,008
-150,862	-200,000	-0,017	-0,104
-149,847	154,023	0,068	-0,068
-148,833	70,160	0,110	0,082
-147,818	-64,218	-0,076	0,022
-146,804	28,211	-0,068	0,042
-145,789	800,000	0,036	0,073
-144,775	91,582	-0,058	0,047
-143,760	69,625	-0,093	-0,070
-142,745	79,339	0,060	-0,047
-141,731	741,189	0,014	-0,027
-140,716	-8,525	0,165	0,081
-139,702	-151,768	-0,109	0,006
-138,687	800,000	0,061	0,160
-137,672	-200,000	-0,012	0,046
-136,658	-200,000	-0,015	0,052
-135,643	-200,000	-0,023	-0,122
-134,629	-40,466	0,025	-0,009
-133,614	173,141	0,060	0,063
-132,599	313,934	-0,040	-0,055
-131,585	265,381	0,044	0,056
-130,570	-142,379	0,044	0,003
-129,556	-100,133	-0,046	-0,008
-128,541	113,606	0,048	-0,042
-127,526	800,000	0,035	0,076
-126,512	-200,000	0,002	0,098
-125,497	116,383	-0,026	0,023
-124,483	-200,000	-0,016	-0,081
-123,468	-77,407	0,080	0,020
-122,453	74,968	0,026	0,020
-121,439	-200,000	0,007	-0,162
-120,424	-32,600	0,119	0,048
-119,410	-200,000	-0,003	-0,053
-118,395	-140,811	0,142	-0,010
-117,380	-200,000	-0,011	-0,134
-116,366	50,493	0,103	0,071
-115,351	767,073	0,047	-0,094
-114,337	-200,000	-0,005	0,062
-113,322	97,920	-0,093	-0,078
-112,307	419,604	-0,045	0,070
-111,293	294,753	0,026	-0,035
-110,278	-200,000	0,017	0,078
-109,264	270,774	0,079	0,101
-108,249	-121,694	0,010	0,001
-107,234	-165,422	-0,058	-0,002
-106,220	-200,000	-0,003	0,015
-105,205	51,348	0,080	-0,055
-104,191	-68,926	0,079	-0,022
-103,176	-200,000	0,019	0,000
-102,162	498,769	0,088	0,149
-101,147	-45,582	0,095	0,034
-100,132	315,459	-0,062	-0,085
-99,118	800,000	-0,020	0,062
-98,103	539,348	0,067	-0,117
-97,089	92,068	0,105	-0,086
-96,074	-91,893	0,146	-0,030
-95,059	222,781	-0,111	0,131
-94,045	800,000	0,023	0,066
-93,030	-6,983	0,019	0,010
-92,016	268,156	-0,015	0,019
-91,001	-129,548	0,103	-0,010
-89,986	-148,481	0,135	0,008
-88,972	-200,000	0,024	0,178
-87,957	-135,975	-0,088	-0,007
-86,943	283,589	0,022	0,029
-85,928	-200,000	-0,004	-0,046
-84,913	-23,208	-0,136	-0,059
-83,899	-53,563	0,091	-0,030
-82,884	-102,327	0,196	0,034
-81,870	800,000	0,008	-0,017
-80,855	-200,000	-0,018	0,090
-79,840	-87,564	-0,071	0,016
-78,826	432,451	-0,045	-0,071
-77,811	-200,000	-0,010	-0,044
-76,797	106,289	-0,094	0,081
-75,782	-13,411	0,210	-0,098
-74,767	680,455	0,059	-0,111
-73,753	753,974	-0,038	0,075
-72,738	540,766	-0,020	0,035
-71,724	91,475	-0,091	0,075
-70,709	-6,760	-0,087	0,043
-69,694	-200,000	-0,014	-0,133
-68,680	800,000	-0,027	0,068
-67,665	61,614	-0,095	0,069
-66,651	-81,358	-0,136	-0,032
-65,636	-124,397	-0,082	0,009
-64,622	-200,000	-0,033	-0,132
-63,607	800,000	-0,034	-0,074
-62,592	-51,746	-0,047	-0,016
-61,578	-52,417	0,149	0,050
-60,563	-121,722	0,136	-0,016
-59,549	-200,000	-0,056	-0,000
-58,534	-162,009	-1,371	-0,049
-57,519	778,697	-0,800	-1,594
-56,505	-200,000	-0,908	-4,445
-55,490	54,100	0,650	-0,453
-54,476	800,000	5,059	11,759
-53,461	-200,000	13,321	253,294
-52,446	-200,000	689,128	2267,159
-51,432	594,969	1622,883	2925,430
-50,417	120,573	1635,751	1474,694
-49,403	73,616	1289,730	979,273
-48,388	38,346	1024,760	661,030
-47,373	24,526	982,161	588,101
-46,359	23,734	971,856	579,309
-45,344	22,759	967,856	573,716
-44,330	22,685	966,438	572,611
-43,315	22,593	964,937	571,398
-42,300	22,581	963,824	570,679
-41,286	22,587	962,992	570,181
-40,271	22,580	961,870	569,470
-39,257	22,530	961,038	568,793
-38,242	22,537	960,070	568,222
-37,227	22,558	959,345	567,837
-36,213	22,524	958,364	567,126
-35,198	22,419	957,707	566,372
-34,184	22,600	956,834	566,421
-33,169	22,561	956,046	565,804
-32,154	22,598	955,009	565,289
-31,140	22,630	954,072	564,814
-30,125	22,604	953,385	564,302
-29,111	22,565	952,505	563,631
-28,096	22,588	951,878	563,313
-27,082	22,558	951,362	562,891
-26,067	22,610	950,413	562,473
-25,052	22,586	949,631	561,910
-24,038	22,547	949,114	561,456
-23,023	22,607	948,521	561,277
-22,009	22,593	947,712	560,731
-20,994	22,577	947,323	560,426
-19,979	22,579	946,774	560,086
-18,965	22,623	945,970	559,728
-17,950	22,582	945,242	559,146
-16,936	22,549	944,687	558,688
-15,921	22,575	943,882	558,275
-14,906	22,525	943,140	557,654
-13,892	22,455	942,712	557,155
-12,877	22,451	942,183	556,808
-11,863	22,435	941,202	556,155
-10,848	22,504	940,866	556,153
-9,833	22,527	940,418	555,939
-8,819	22,571	939,751	555,662
-7,804	22,428	939,133	554,824
-6,790	22,468	938,453	554,526
-5,775	22,475	937,967	554,238
-4,760	22,547	937,214	553,998
-3,746	22,463	936,606	553,351
-2,731	22,284	936,107	552,471
-1,717	22,287	935,200	551,922
-0,702	22,359	934,380	551,642
0,313	22,104	933,971	551,429
1,327	25,127	931,948	559,695
2,342	34,760	796,527	504,034
3,356	32,675	451,998	282,851
4,371	1,817	293,873	153,104
5,386	-2,533	274,802	139,038
6,400	-4,155	268,992	134,581
7,415	-4,566	266,458	132,924
8,429	-4,367	265,338	132,535
9,444	-4,407	264,549	132,093
10,459	-4,200	263,884	131,937
11,473	-4,384	263,298	131,466
12,488	-4,567	262,908	131,094
13,502	-4,588	262,270	130,744
14,517	-4,512	261,802	130,568
15,531	-4,556	261,371	130,303
16,546	-4,380	260,995	130,262
17,561	-4,383	260,571	130,036
18,575	-4,285	260,382	130,018
19,590	-4,484	259,955	129,615
20,604	-4,314	259,515	129,536
21,619	-4,515	259,343	129,258
22,634	-4,621	259,166	129,064
23,648	-4,450	258,705	128,976
24,663	-4,422	258,436	128,854
25,677	-4,479	258,350	128,749
26,692	-4,478	258,066	128,597
27,707	-4,351	257,899	128,615
28,721	-4,333	257,449	128,396
29,736	-4,526	257,124	128,051
30,750	-4,615	257,018	127,908
31,765	-4,567	256,841	127,851
32,780	-4,581	256,454	127,635
33,794	-4,693	256,392	127,494
34,809	-4,410	256,012	127,542
35,823	-4,623	255,912	127,294
36,838	-4,633	255,625	127,131
37,853	-4,560	255,299	127,022
38,867	-4,575	255,209	126,953
39,882	-4,526	254,839	126,800
40,896	-4,647	254,653	126,590
41,911	-4,820	254,617	126,410
42,926	-4,553	254,210	126,430
43,940	-4,530	253,926	126,298
44,955	-4,784	253,788	125,995
45,969	-4,667	253,527	125,956
46,984	-4,721	253,290	125,781
47,999	-5,004	252,924	125,342
49,013	-5,114	252,776	125,161
50,028	-5,179	252,438	124,927
51,042	-5,298	252,251	124,720
52,057	-5,249	252,027	124,640
53,071	-5,513	251,943	124,359
54,086	-5,302	251,780	124,450
55,101	-5,159	251,511	124,430
56,115	-5,128	251,530	124,455
57,130	-4,530	251,418	124,905
58,144	-4,294	251,251	125,015
59,159	-4,347	250,931	124,799
60,174	-4,462	250,823	124,635
61,188	-4,375	250,612	124,594
62,203	-4,430	250,337	124,399
63,217	-4,365	250,184	124,367
64,232	-4,342	249,975	124,272
65,247	-4,319	249,809	124,198
66,261	-4,408	249,583	123,998
67,276	-4,713	249,321	123,596
68,290	-4,968	249,079	123,247
69,305	-5,034	248,846	123,064
70,320	-4,914	248,671	123,069
71,334	-4,856	248,506	123,026
72,349	-4,374	248,242	123,295
73,363	-4,238	248,179	123,369
74,378	-4,333	247,951	123,163
75,393	-4,451	247,664	122,910
76,407	-4,338	247,633	122,979
77,422	-4,425	247,399	122,778
78,436	-4,401	247,088	122,633
79,451	-4,404	246,926	122,540
80,466	-4,599	246,741	122,272
81,480	-4,538	246,412	122,150
82,495	-4,618	246,299	122,015
83,509	-4,689	246,065	121,828
84,524	-4,665	246,075	121,842
85,539	-4,866	245,675	121,464
86,553	-4,874	245,479	121,350
87,568	-4,822	245,338	121,313
88,582	-4,712	245,231	121,342
89,597	-4,677	244,919	121,205
90,611	-4,501	244,853	121,310
91,626	-4,412	244,826	121,360
92,641	-4,522	244,615	121,153
93,655	-4,832	244,318	120,736
94,670	-4,561	244,136	120,862
95,684	-4,608	243,812	120,651
96,699	-4,625	243,718	120,580
97,714	-4,726	243,590	120,422
98,728	-4,715	243,498	120,374
99,743	-4,831	243,152	120,096
100,757	-4,720	242,895	120,051
101,772	-4,555	242,667	120,065
102,787	-4,636	242,595	119,951
103,801	-4,740	242,345	119,730
104,816	-4,609	242,319	119,815
105,830	-4,534	242,050	119,734
106,845	-4,483	241,976	119,729
107,860	-4,490	241,836	119,643
108,874	-4,606	241,496	119,368
109,889	-4,489	241,251	119,332
110,903	-4,606	241,168	119,185
111,918	-4,730	241,085	119,030
112,933	-4,575	240,798	119,006
113,947	-4,514	240,583	118,939
114,962	-4,566	240,517	118,854
115,976	-4,540	240,288	118,751
116,991	-4,543	240,126	118,658
118,006	-4,594	240,059	118,572
119,020	-4,354	239,867	118,664
120,035	-4,447	239,793	118,541
121,049	-4,396	239,601	118,476
122,064	-4,406	239,501	118,409
123,079	-4,444	239,228	118,232
124,093	-4,731	239,022	117,885
125,108	-4,738	238,792	117,756
126,122	-4,866	238,588	117,540
127,137	-5,224	238,404	117,147
128,151	-4,785	238,148	117,368
129,166	-4,706	238,087	117,392
130,181	-4,654	237,832	117,298
131,195	-5,023	237,836	116,989
132,210	-4,715	237,532	117,080
133,224	-4,366	237,447	117,311
134,239	-4,602	237,251	117,012
135,254	-4,483	237,055	117,001
136,268	-4,717	236,844	116,697
137,283	-4,934	236,604	116,394
138,297	-4,679	236,347	116,462
139,312	-4,727	236,108	116,295
140,327	-4,943	236,327	116,218
141,341	-4,042	236,191	116,867
142,356	-4,136	236,079	116,726
143,370	-4,140	235,818	116,583
144,385	-4,233	235,777	116,478
145,400	-4,086	235,523	116,460
146,414	-4,142	235,299	116,294
147,429	-4,177	235,214	116,214
148,443	-4,264	235,063	116,059
149,458	-4,211	234,853	115,987
150,473	-4,281	234,688	115,839
151,487	-4,337	234,506	115,694
152,502	-4,115	234,108	115,665
153,516	-4,108	234,179	115,695
154,531	-4,140	233,949	115,545
155,546	-4,227	233,818	115,402
156,560	-4,392	233,528	115,117
157,575	-4,521	233,549	115,014
158,589	-4,353	233,218	114,974
159,604	-4,122	232,969	115,024
160,619	-4,128	232,978	115,014
161,633	-4,121	232,850	114,946
162,648	-4,327	232,693	114,695
163,662	-4,192	232,548	114,720
164,677	-4,394	232,387	114,471
165,692	-4,204	232,212	114,525
166,706	-4,175	232,116	114,490
167,721	-4,110	231,794	114,372
168,735	-4,081	231,772	114,374
169,750	-4,365	231,703	114,106
170,764	-4,242	231,473	114,079
171,779	-4,303	231,483	114,026
172,794	-4,275	231,305	113,950
173,808	-4,317	231,046	113,779
174,823	-4,628	230,563	113,287
175,837	-4,921	230,589	113,060
176,852	-4,496	230,403	113,292
177,867	-4,420	230,401	113,341
178,881	-4,223	230,298	113,434
179,896	-4,116	230,183	113,451
180,910	-4,078	229,860	113,312
181,925	-4,093	229,834	113,277
182,940	-3,963	229,550	113,228
183,954	-4,181	229,464	113,005
184,969	-3,953	229,269	113,077
185,983	-3,880	229,162	113,071
186,998	-4,054	229,100	112,895
188,013	-3,866	228,979	112,972
189,027	-3,870	228,626	112,784
190,042	-4,069	228,444	112,530
191,056	-3,998	228,333	112,520
192,071	-3,988	228,345	112,524
193,086	-4,011	228,020	112,336
194,100	-4,136	227,934	112,187
195,115	-4,113	227,570	112,015
196,129	-4,714	227,449	111,482
197,144	-1,276	228,580	114,692
198,159	2,736	229,650	118,336
199,173	3,835	229,922	119,320
200,188	4,098	229,672	119,383
201,202	3,923	229,642	119,221
202,217	4,303	229,426	119,393
203,232	4,531	229,455	119,573
204,246	4,679	229,236	119,563
205,261	4,702	229,201	119,552
206,275	4,880	229,138	119,646
207,290	4,947	228,941	119,584
208,304	4,787	228,763	119,357
209,319	4,918	228,457	119,288
210,334	4,811	228,385	119,157
211,348	4,542	228,120	118,801
212,363	4,188	227,861	118,384
213,377	3,919	227,701	118,084
214,392	3,810	227,501	117,886
215,407	4,099	227,416	118,053
216,421	3,976	227,266	117,871
217,436	3,887	227,064	117,687
218,450	3,473	226,927	117,289
219,465	3,739	226,836	117,435
220,480	3,823	226,624	117,379
221,494	3,786	226,344	117,195
222,509	3,947	226,279	117,273
223,523	4,021	226,136	117,245
224,538	3,814	226,011	117,012
225,553	3,907	225,913	117,023
226,567	4,084	225,759	117,066
227,582	4,195	225,640	117,079
228,596	4,325	225,684	117,189
229,611	4,203	225,233	116,853
230,626	3,763	225,172	116,477
231,640	3,692	224,950	116,298
232,655	3,956	224,921	116,473
233,669	4,633	224,941	116,985
234,684	4,596	224,824	116,886
235,699	4,246	224,643	116,516
236,713	4,103	224,306	116,224
237,728	3,733	224,123	115,840
238,742	3,862	223,945	115,834
239,757	3,598	223,978	115,642
240,772	3,859	223,668	115,668
241,786	3,770	223,542	115,526
242,801	4,098	223,443	115,710
243,815	4,204	223,522	115,821
244,830	4,440	223,115	115,777
245,844	4,071	222,979	115,420
246,859	4,046	222,887	115,343
247,874	4,180	222,718	115,346
248,888	4,255	222,682	115,372
249,903	4,119	222,398	115,113
250,917	3,890	222,270	114,865
251,932	3,920	222,146	114,814
252,947	3,816	221,854	114,575
253,961	3,890	221,774	114,579
254,976	3,846	221,575	114,433
255,990	4,178	221,447	114,603
257,005	4,047	221,493	114,520
258,020	4,238	221,332	114,569
259,034	4,291	221,302	114,582
260,049	4,236	220,980	114,365
261,063	4,241	220,935	114,335
262,078	4,320	220,749	114,286
263,093	4,292	220,753	114,257
264,107	4,263	220,681	114,189
265,122	4,206	220,357	113,968
266,136	4,258	220,177	113,904
267,151	4,293	220,146	113,904
268,166	3,910	219,762	113,412
269,180	3,784	219,560	113,205
270,195	3,596	219,584	113,069
271,209	3,808	219,384	113,112
272,224	3,930	219,410	113,205
273,239	4,098	219,162	113,190
274,253	4,001	218,880	112,964
275,268	3,665	218,682	112,605
276,282	3,804	218,577	112,643
277,297	3,612	218,443	112,423
278,312	3,707	218,368	112,443
279,326	3,949	218,189	112,519
280,341	3,969	218,071	112,462
281,355	3,929	218,093	112,434
282,370	3,914	217,893	112,310
283,384	3,863	217,568	112,096
284,399	3,631	217,538	111,901
285,414	3,587	217,321	111,747
286,428	3,748	217,345	111,867
287,443	4,179	217,216	112,104
288,457	4,122	217,109	111,998
289,472	4,008	216,772	111,731
290,487	3,352	216,696	111,205
291,501	3,435	216,426	111,117
292,516	3,706	216,420	111,301
293,530	3,765	216,243	111,243
294,545	3,584	216,173	111,065
295,560	3,628	215,899	110,946
296,574	3,730	215,945	111,034
297,589	3,866	215,772	111,034
298,603	4,079	215,691	111,136
299,618	3,989	215,531	110,978
300,633	3,864	215,441	110,832
301,647	3,975	215,440	110,902
302,662	4,056	215,277	110,866
303,676	4,084	215,066	110,768
304,691	4,045	214,899	110,644
305,706	4,367	214,736	110,781
306,720	4,149	214,539	110,513
307,735	3,736	214,530	110,202
308,749	3,785	214,194	110,056
309,764	3,967	214,146	110,151
310,779	4,254	213,975	110,259
311,793	4,050	213,994	110,113
312,808	3,937	213,801	109,923
313,822	4,074	213,586	109,900
314,837	3,722	213,489	109,589
315,852	3,678	213,399	109,502
316,866	3,920	213,251	109,589
317,881	4,266	213,104	109,750
318,895	4,044	212,990	109,523
319,910	3,759	212,819	109,223
320,925	3,604	212,535	108,958
321,939	3,358	212,426	108,717
322,954	3,509	212,315	108,758
323,968	4,012	212,296	109,095
324,983	3,876	212,223	108,952
325,997	3,913	212,141	108,926
327,012	4,328	211,699	108,983
328,027	4,032	211,637	108,732
329,041	4,221	211,675	108,875
330,056	4,028	211,620	108,701
331,070	3,897	211,355	108,463
332,085	3,686	211,153	108,201
333,100	4,054	210,931	108,336
334,114	4,068	210,820	108,279
335,129	3,765	210,622	107,955
336,143	3,790	210,627	107,965
337,158	3,841	210,373	107,861
338,173	4,053	210,350	107,989
339,187	3,773	210,184	107,698
340,202	3,622	209,950	107,462
341,216	3,679	209,774	107,403
342,231	3,816	209,676	107,439
343,246	3,766	209,642	107,377
344,260	3,715	209,528	107,273
345,275	3,970	209,384	107,368
346,289	4,108	209,403	107,464
347,304	3,931	209,211	107,233
348,319	3,843	208,967	107,037
349,333	3,973	208,946	107,107
350,348	4,038	208,846	107,091
351,362	3,949	208,627	106,908
352,377	4,080	208,530	106,940
353,392	3,979	208,372	106,779
354,406	3,742	208,261	106,548
355,421	194,095	1346,135	1435,364
356,435	154,865	1484,884	1435,492
