DTS Sentinel unit serial number:	SN410029Multiplexer serial number:	ORYXHardware model number:	OX2-SRSoftware version number:	ORYX F/W v4,00 Oryx Data Collector v3.7.2.0data status	okinstallation	B6 Nyhavnadifferential loss correction	single-endedforward channel	channel 2reverse channel	N/Adate	2023/12/09time	16:10:08forward acquisition time	300,00reverse acquisition time	0,00gamma	499,1914k internal	0,3132k external	0,3132temperature offset calibration	1,0000default loss term (dB/km)	0,3820temperature slope calibration	1,0000multiplexer offset coefficient	1,0000multiplexer slope coefficient	1,0000fibre end	0,00T internal ref (°C)	20,81T ext. ref 1 (°C)	4,68T ext. ref 2 (°C)	4,68length (m)	temperature (°C)	Stokes	anti-Stokes-744,400	-200,000	0,015	0,070
-743,385	-73,297	-0,396	-0,107
-742,371	-99,888	0,181	-0,033
-741,356	44,471	-0,155	0,106
-740,342	800,000	0,037	0,096
-739,327	-41,318	-0,235	-0,090
-738,312	-200,000	0,016	-0,110
-737,298	4,709	-0,252	-0,137
-736,283	800,000	0,025	0,077
-735,269	44,004	-0,200	0,136
-734,254	-200,000	0,030	-0,140
-733,239	-106,928	-0,505	-0,082
-732,225	-86,660	0,187	0,042
-731,210	800,000	-0,025	-0,061
-730,196	633,501	-0,051	-0,097
-729,181	-200,000	0,013	-0,176
-728,167	-96,853	0,125	-0,024
-727,152	-14,701	-0,157	-0,075
-726,137	-18,142	-0,141	-0,065
-725,123	-38,800	-0,170	-0,066
-724,108	-200,000	0,008	0,062
-723,094	39,013	-0,058	0,038
-722,079	-66,443	-0,054	-0,016
-721,064	139,281	-0,058	0,057
-720,050	59,080	-0,074	0,054
-719,035	177,767	0,036	0,039
-718,021	110,318	-0,112	-0,100
-717,006	-84,325	-0,184	-0,043
-715,991	184,094	-0,042	-0,046
-714,977	-62,763	-0,051	-0,016
-713,962	-39,676	-0,139	-0,054
-712,948	242,832	-0,040	0,050
-711,933	-200,000	-0,005	0,072
-710,918	36,857	-0,162	-0,106
-709,904	-41,950	-0,085	0,032
-708,889	4,917	-0,070	0,038
-707,875	161,190	-0,031	-0,032
-706,860	100,709	-0,124	-0,107
-705,845	-100,384	-0,071	-0,013
-704,831	-21,820	0,017	0,008
-703,816	148,033	-0,068	-0,068
-702,802	-87,481	-0,095	-0,021
-701,787	30,471	-0,109	-0,069
-700,772	-36,362	-0,116	0,046
-699,758	-200,000	-0,030	0,218
-698,743	372,880	0,033	0,051
-697,729	159,156	0,063	0,065
-696,714	-200,000	-0,085	-0,000
-695,699	-97,041	0,050	0,010
-694,685	-23,641	-0,071	0,032
-693,670	7,975	0,115	-0,064
-692,656	-17,860	-0,078	-0,036
-691,641	289,862	0,081	0,110
-690,627	525,294	0,027	0,047
-689,612	396,130	-0,043	-0,067
-688,597	-47,888	-0,086	-0,031
-687,583	800,000	-0,087	-0,186
-686,568	99,801	-0,059	-0,051
-685,554	-125,239	-0,146	0,016
-684,539	228,052	-0,052	-0,063
-683,524	53,327	0,055	-0,039
-682,510	-200,000	-0,019	-0,110
-681,495	361,455	0,047	0,071
-680,481	280,644	-0,144	0,191
-679,466	120,362	-0,080	-0,074
-678,451	98,337	0,033	0,028
-677,437	-106,812	-0,057	-0,009
-676,422	800,000	0,031	0,086
-675,408	-142,703	-0,008	0,001
-674,393	800,000	-0,021	0,055
-673,378	-27,239	0,036	-0,015
-672,364	-200,000	-0,007	-0,085
-671,349	-191,676	0,082	0,001
-670,335	529,582	-0,067	0,118
-669,320	40,671	-0,063	0,042
-668,305	-200,000	0,002	-0,047
-667,291	-200,000	-0,011	-0,070
-666,276	-200,000	-0,020	0,078
-665,262	506,923	-0,041	-0,070
-664,247	-200,000	0,037	0,158
-663,232	-38,685	-0,059	0,023
-662,218	800,000	0,027	-0,057
-661,203	281,864	-0,112	0,149
-660,189	-132,936	-0,151	-0,014
-659,174	35,337	-0,095	0,061
-658,159	-107,560	0,023	-0,004
-657,145	-133,304	0,067	-0,006
-656,130	-130,865	0,021	-0,002
-655,116	313,898	-0,119	-0,166
-654,101	-200,000	0,030	-0,179
-653,086	-20,718	-0,156	0,071
-652,072	-3,885	0,094	-0,048
-651,057	155,395	-0,059	-0,060
-650,043	-18,811	-0,063	-0,029
-649,028	800,000	-0,050	-0,154
-648,014	-9,882	-0,080	-0,039
-646,999	19,054	0,041	0,024
-645,984	556,517	-0,019	0,034
-644,970	-200,000	0,005	-0,061
-643,955	-200,000	-0,003	-0,081
-642,941	135,413	-0,091	-0,088
-641,926	-56,934	-0,069	-0,022
-640,911	559,114	-0,050	0,089
-639,897	-200,000	0,018	0,134
-638,882	741,582	0,060	0,120
-637,868	-22,255	-0,036	-0,016
-636,853	141,238	-0,150	-0,147
-635,838	-200,000	0,007	-0,033
-634,824	-92,461	-0,066	-0,014
-633,809	-200,000	0,020	-0,072
-632,795	0,755	-0,034	-0,018
-631,780	800,000	-0,032	-0,078
-630,765	182,441	-0,119	-0,130
-629,751	-146,666	0,101	0,006
-628,736	-20,681	0,022	-0,010
-627,722	121,696	0,102	-0,094
-626,707	-200,000	0,009	-0,041
-625,692	114,632	0,097	0,088
-624,678	90,671	0,089	0,074
-623,663	-200,000	-0,063	-0,257
-622,649	536,048	0,051	-0,090
-621,634	-200,000	0,021	-0,073
-620,619	240,616	-0,030	0,037
-619,605	555,520	-0,021	0,038
-618,590	92,049	-0,057	0,048
-617,576	-69,206	-0,039	-0,011
-616,561	161,224	-0,041	-0,042
-615,546	-74,269	0,164	-0,044
-614,532	-72,991	-0,111	-0,030
-613,517	678,589	0,057	0,110
-612,503	120,622	-0,129	-0,119
-611,488	-118,259	0,188	0,024
-610,474	-200,000	-0,018	-0,095
-609,459	-152,318	-0,083	-0,004
-608,444	-200,000	-0,019	0,111
-607,430	561,826	-0,062	-0,110
-606,415	-136,559	-0,081	-0,007
-605,401	-110,855	-0,074	0,011
-604,386	251,925	0,072	0,091
-603,371	85,404	0,037	-0,030
-602,357	-200,000	0,023	0,223
-601,342	-150,621	0,043	-0,002
-600,328	800,000	-0,052	-0,108
-599,313	-200,000	-0,003	-0,052
-598,298	93,067	-0,099	0,083
-597,284	-76,446	0,071	0,018
-596,269	308,571	0,049	-0,068
-595,255	800,000	-0,040	0,113
-594,240	-68,926	-0,080	-0,023
-593,225	174,971	0,091	-0,098
-592,211	-69,755	-0,081	-0,023
-591,196	421,831	0,039	0,062
-590,182	23,576	0,050	0,031
-589,167	168,655	-0,022	0,023
-588,152	-140,593	0,085	-0,006
-587,138	634,306	-0,019	0,036
-586,123	-200,000	-0,004	-0,096
-585,109	-1,012	-0,025	0,013
-584,094	56,646	-0,067	0,048
-583,079	-200,000	0,011	-0,048
-582,065	-48,557	-0,122	0,043
-581,050	-87,561	0,115	-0,025
-580,036	705,333	-0,047	0,093
-579,021	-38,697	0,054	0,021
-578,006	133,236	-0,071	-0,068
-576,992	800,000	0,043	-0,097
-575,977	16,730	0,168	0,098
-574,963	-200,000	-0,018	0,061
-573,948	-200,000	0,018	0,097
-572,934	112,950	-0,093	0,083
-571,919	-16,684	-0,080	-0,037
-570,904	800,000	-0,031	-0,064
-569,890	800,000	-0,050	-0,148
-568,875	-12,939	-0,031	-0,015
-567,861	-200,000	-0,004	-0,101
-566,846	800,000	-0,047	0,108
-565,831	584,302	-0,087	-0,159
-564,817	-34,287	-0,124	-0,050
-563,802	298,575	-0,034	0,047
-562,788	-3,988	-0,046	-0,023
-561,773	14,122	0,071	0,041
-560,758	-200,000	-0,035	0,161
-559,744	107,414	0,114	0,100
-558,729	246,710	-0,087	-0,108
-557,715	-11,881	0,090	0,043
-556,700	407,629	-0,046	-0,071
-555,685	343,521	0,059	-0,086
-554,671	365,486	0,018	0,027
-553,656	476,983	0,066	-0,110
-552,642	-113,214	0,081	-0,012
-551,627	25,387	-0,171	0,105
-550,612	409,586	0,034	0,054
-549,598	-200,000	-0,047	-0,175
-548,583	-200,000	0,028	-0,161
-547,569	127,168	-0,061	0,057
-546,554	-200,000	0,027	0,142
-545,539	-137,361	0,103	-0,008
-544,525	-200,000	0,016	0,188
-543,510	283,651	0,067	-0,089
-542,496	-65,321	-0,013	-0,004
-541,481	-69,886	0,088	0,024
-540,466	800,000	-0,012	0,034
-539,452	313,091	0,123	0,171
-538,437	-105,098	-0,028	-0,005
-537,423	-200,000	-0,025	0,093
-536,408	3,235	0,106	-0,057
-535,393	800,000	-0,036	0,073
-534,379	270,716	0,087	0,113
-533,364	-69,157	0,043	0,012
-532,350	100,246	0,063	0,054
-531,335	-17,795	-0,133	0,061
-530,321	-100,613	0,024	0,004
-529,306	-200,000	0,007	-0,080
-528,291	97,583	0,118	0,100
-527,277	800,000	-0,034	0,077
-526,262	117,996	0,126	0,115
-525,248	-200,000	0,009	-0,095
-524,233	-200,000	-0,002	0,012
-523,218	106,217	0,082	-0,071
-522,204	-149,469	-0,097	0,006
-521,189	104,277	-0,043	-0,037
-520,175	65,865	-0,091	-0,068
-519,160	800,000	0,042	0,099
-518,145	-116,882	-0,033	0,004
-517,131	74,678	0,138	0,107
-516,116	68,184	-0,091	-0,069
-515,102	-108,790	0,139	-0,022
-514,087	39,249	-0,098	0,065
-513,072	116,564	-0,029	0,026
-512,058	-200,000	-0,000	-0,021
-511,043	402,529	0,013	0,021
-510,029	800,000	-0,019	-0,046
-509,014	-117,115	-0,023	0,003
-507,999	-185,388	0,057	0,001
-506,985	10,193	0,082	-0,046
-505,970	-127,988	-0,005	0,001
-504,956	177,186	0,110	0,118
-503,941	-200,000	0,018	0,061
-502,926	727,971	0,033	0,065
-501,912	-92,155	0,062	-0,013
-500,897	81,582	-0,118	-0,094
-499,883	-200,000	-0,005	0,024
-498,868	-200,000	0,004	-0,095
-497,853	-81,047	-0,104	0,025
-496,839	-200,000	0,000	0,019
-495,824	176,895	0,058	-0,063
-494,810	220,069	0,035	-0,041
-493,795	471,890	0,089	0,149
-492,781	42,988	-0,092	-0,061
-491,766	-200,000	-0,028	-0,118
-490,751	-200,000	-0,011	-0,039
-489,737	-200,000	0,015	0,092
-488,722	-200,000	-0,003	-0,065
-487,708	-200,000	0,020	0,082
-486,693	95,700	-0,097	0,081
-485,678	105,525	0,079	0,069
-484,664	-24,426	0,042	-0,018
-483,649	163,176	0,081	-0,083
-482,635	3,447	0,096	-0,051
-481,620	110,089	0,124	0,110
-480,605	63,934	-0,103	0,076
-479,591	552,044	0,065	-0,115
-478,576	-54,229	-0,119	-0,039
-477,562	-140,969	0,023	0,002
-476,547	-200,000	-0,027	-0,117
-475,532	-8,924	-0,008	-0,004
-474,518	61,440	0,049	0,035
-473,503	107,578	0,085	0,075
-472,489	71,498	0,038	-0,029
-471,474	-200,000	0,027	0,000
-470,459	-200,000	-0,027	-0,198
-469,445	-88,776	-0,115	0,025
-468,430	15,742	0,019	-0,011
-467,416	40,383	0,036	0,024
-466,401	444,197	0,029	0,047
-465,386	11,666	-0,001	-0,001
-464,372	-86,717	-0,068	0,015
-463,357	-87,549	-0,093	0,020
-462,343	800,000	0,027	0,067
-461,328	-26,438	0,049	0,021
-460,313	-90,514	0,185	-0,039
-459,299	-56,862	-0,039	0,013
-458,284	285,413	-0,097	0,129
-457,270	-200,000	0,047	0,225
-456,255	439,238	-0,024	0,039
-455,241	115,977	-0,087	0,079
-454,226	-32,010	-0,043	-0,018
-453,211	220,107	0,039	-0,046
-452,197	24,757	-0,016	-0,010
-451,182	48,671	-0,036	-0,024
-450,168	-200,000	0,002	0,067
-449,153	-26,797	0,073	0,031
-448,138	196,440	0,065	-0,073
-447,124	800,000	0,003	-0,007
-446,109	-200,000	0,004	-0,052
-445,095	696,156	0,008	0,016
-444,080	-200,000	0,029	-0,145
-443,065	114,191	-0,008	-0,007
-442,051	189,045	-0,013	-0,014
-441,036	27,501	0,071	0,044
-440,022	-182,048	-0,067	0,001
-439,007	29,785	-0,122	0,076
-437,992	-161,726	-0,075	0,003
-436,978	35,385	0,064	0,041
-435,963	169,628	-0,049	0,052
-434,949	800,000	-0,061	-0,126
-433,934	0,417	-0,147	0,077
-432,919	29,595	0,062	-0,039
-431,905	800,000	0,016	-0,045
-430,890	242,451	-0,067	0,082
-429,876	-97,204	0,028	-0,005
-428,861	-19,901	0,102	-0,046
-427,846	-125,887	0,057	0,006
-426,832	-200,000	0,013	-0,092
-425,817	-161,967	-0,052	-0,002
-424,803	16,611	-0,079	0,046
-423,788	59,502	0,057	0,041
-422,773	-200,000	0,006	0,049
-421,759	185,704	-0,008	-0,009
-420,744	-139,351	0,194	0,015
-419,730	153,179	-0,089	-0,090
-418,715	-3,788	0,029	-0,015
-417,701	-131,519	0,113	-0,011
-416,686	800,000	0,053	-0,123
-415,671	28,881	-0,030	-0,019
-414,657	-31,985	-0,093	0,038
-413,642	306,418	-0,022	0,030
-412,628	-200,000	-0,018	-0,131
-411,613	-141,412	-0,123	-0,009
-410,598	800,000	-0,037	0,078
-409,584	-25,191	0,113	-0,049
-408,569	112,494	-0,073	0,065
-407,555	216,916	0,086	0,100
-406,540	-125,882	0,115	0,013
-405,525	204,247	-0,064	0,073
-404,511	291,682	0,070	-0,094
-403,496	17,400	-0,066	-0,038
-402,482	36,817	0,066	0,043
-401,467	-107,056	0,112	-0,018
-400,452	-200,000	-0,009	0,057
-399,438	-69,794	0,089	0,025
-398,423	-25,050	-0,122	-0,053
-397,409	-5,807	0,038	0,019
-396,394	-190,424	-0,017	-0,000
-395,379	-167,195	0,117	-0,003
-394,365	156,481	0,046	0,047
-393,350	92,343	-0,071	0,059
-392,336	-200,000	0,016	0,057
-391,321	-57,544	-0,113	0,036
-390,306	43,634	-0,135	-0,091
-389,292	800,000	-0,024	0,068
-388,277	-53,369	-0,156	-0,052
-387,263	-200,000	-0,008	-0,095
-386,248	-200,000	0,074	-0,255
-385,233	46,250	0,099	-0,067
-384,219	62,111	-0,044	0,032
-383,204	302,385	-0,072	-0,097
-382,190	800,000	0,047	0,136
-381,175	-15,717	-0,073	0,034
-380,160	174,073	0,022	-0,023
-379,146	281,473	0,042	-0,055
-378,131	11,286	0,105	0,059
-377,117	546,796	0,079	0,139
-376,102	716,473	0,039	0,076
-375,088	-200,000	-0,022	-0,112
-374,073	-200,000	-0,028	-0,119
-373,058	-85,368	0,024	0,005
-372,044	52,800	0,103	0,072
-371,029	-20,579	-0,103	0,046
-370,015	-200,000	0,010	0,036
-369,000	-172,943	0,081	-0,002
-367,985	-95,175	-0,045	0,009
-366,971	38,521	0,126	-0,082
-365,956	-2,615	-0,023	-0,012
-364,942	-90,529	0,217	-0,046
-363,927	800,000	-0,064	-0,171
-362,912	-83,066	-0,069	-0,016
-361,898	-82,141	-0,062	-0,015
-360,883	-75,948	-0,069	0,018
-359,869	-94,161	-0,032	-0,006
-358,854	-200,000	0,005	-0,023
-357,839	-66,292	0,128	-0,037
-356,825	-9,481	0,100	-0,049
-355,810	800,000	0,041	-0,124
-354,796	-200,000	-0,028	-0,096
-353,781	800,000	-0,029	0,080
-352,766	79,491	0,039	-0,031
-351,752	467,056	0,037	0,061
-350,737	800,000	0,061	-0,129
-349,723	-72,565	0,087	0,023
-348,708	-200,000	-0,008	-0,161
-347,693	-200,000	0,013	-0,153
-346,679	-49,692	-0,045	0,015
-345,664	629,024	-0,077	0,143
-344,650	800,000	-0,021	0,046
-343,635	665,994	-0,021	0,040
-342,620	-200,000	-0,001	0,071
-341,606	-23,675	-0,076	0,033
-340,591	-35,925	-0,049	0,019
-339,577	29,667	-0,043	-0,027
-338,562	26,006	0,091	-0,056
-337,548	162,420	-0,014	-0,014
-336,533	-200,000	-0,033	-0,118
-335,518	-137,252	0,038	-0,003
-334,504	800,000	-0,030	0,072
-333,489	368,744	-0,047	0,070
-332,475	-32,446	0,015	0,006
-331,460	-200,000	-0,001	-0,071
-330,445	-200,000	-0,014	0,086
-329,431	68,108	-0,030	0,023
-328,416	425,653	0,049	0,077
-327,402	-132,298	-0,035	-0,003
-326,387	-9,167	0,186	-0,090
-325,372	24,141	0,115	0,069
-324,358	-109,372	-0,170	-0,026
-323,343	800,000	0,037	-0,103
-322,329	-200,000	-0,007	-0,025
-321,314	-22,503	0,081	-0,036
-320,299	180,390	-0,095	0,102
-319,285	-161,304	-0,024	-0,001
-318,270	-93,505	-0,181	-0,036
-317,256	222,048	0,091	0,108
-316,241	-200,000	0,007	-0,037
-315,226	410,447	-0,068	0,105
-314,212	-93,841	-0,046	0,009
-313,197	-200,000	-0,006	0,042
-312,183	85,553	-0,039	0,031
-311,168	-200,000	-0,000	-0,102
-310,153	69,703	0,045	0,034
-309,139	800,000	0,025	-0,060
-308,124	-200,000	0,017	0,181
-307,110	-2,428	-0,112	0,057
-306,095	124,498	-0,060	-0,055
-305,080	800,000	0,033	-0,073
-304,066	309,816	0,022	0,031
-303,051	-200,000	-0,037	-0,137
-302,037	3,979	-0,064	0,034
-301,022	120,038	0,040	-0,037
-300,008	-16,850	0,034	-0,016
-298,993	-200,000	0,022	-0,073
-297,978	-200,000	-0,025	-0,133
-296,964	-84,766	0,121	-0,028
-295,949	-20,020	0,105	-0,047
-294,935	568,928	-0,052	-0,093
-293,920	88,881	-0,041	0,034
-292,905	800,000	-0,045	0,145
-291,891	-80,120	0,229	-0,056
-290,876	133,738	0,077	-0,073
-289,862	-200,000	-0,011	0,035
-288,847	-68,637	0,056	0,016
-287,832	-65,982	-0,112	-0,032
-286,818	447,812	-0,044	0,072
-285,803	800,000	0,043	0,095
-284,789	-200,000	-0,016	0,123
-283,774	-37,464	0,056	0,022
-282,759	481,546	-0,108	0,180
-281,745	23,392	-0,070	0,042
-280,730	-200,000	0,013	0,096
-279,716	-200,000	-0,023	0,158
-278,701	-99,873	0,119	0,022
-277,686	353,887	0,030	-0,044
-276,672	112,415	-0,032	-0,028
-275,657	-149,344	-0,114	0,007
-274,643	247,241	-0,079	-0,097
-273,628	-200,000	-0,036	0,142
-272,613	-200,000	-0,015	-0,198
-271,599	102,150	0,085	-0,072
-270,584	54,067	-0,095	0,066
-269,570	35,261	0,095	-0,061
-268,555	-23,959	-0,008	-0,003
-267,540	-24,624	-0,123	-0,053
-266,526	-33,393	-0,163	-0,066
-265,511	-84,599	0,099	0,023
-264,497	249,732	-0,065	0,080
-263,482	2,656	0,082	0,043
-262,467	76,523	-0,040	-0,031
-261,453	-77,563	-0,081	-0,020
-260,438	800,000	-0,028	-0,090
-259,424	800,000	0,029	0,068
-258,409	-139,745	-0,088	-0,007
-257,395	7,946	-0,052	0,028
-256,380	-10,750	0,088	-0,042
-255,365	93,381	0,086	0,071
-254,351	800,000	-0,049	-0,122
-253,336	-20,276	0,055	-0,024
-252,322	-200,000	0,005	-0,160
-251,307	694,840	-0,023	0,044
-250,292	170,174	0,059	-0,061
-249,278	800,000	-0,058	0,118
-248,263	-142,561	0,054	-0,004
-247,249	280,568	0,038	0,050
-246,234	2,965	-0,077	0,041
-245,219	-49,915	-0,091	0,031
-244,205	20,189	-0,051	0,030
-243,190	-200,000	-0,017	0,060
-242,176	636,786	0,053	0,098
-241,161	-132,440	0,081	-0,008
-240,146	-82,984	0,082	-0,019
-239,132	288,054	0,055	0,073
-238,117	13,981	-0,165	-0,093
-237,103	-138,103	0,080	0,006
-236,088	-132,018	-0,129	0,012
-235,073	-111,947	0,111	0,016
-234,059	800,000	0,030	-0,077
-233,044	-38,137	0,071	0,027
-232,030	119,938	-0,035	-0,032
-231,015	-200,000	0,042	-0,144
-230,000	609,366	-0,103	-0,188
-228,986	271,474	0,045	0,058
-227,971	800,000	-0,027	-0,070
-226,957	421,090	0,024	-0,037
-225,942	520,191	-0,077	-0,131
-224,927	343,323	-0,021	-0,031
-223,913	101,256	0,080	0,068
-222,898	577,853	0,077	-0,137
-221,884	-200,000	-0,017	0,107
-220,869	-200,000	-0,024	0,128
-219,855	-200,000	0,022	0,072
-218,840	154,246	-0,078	0,078
-217,825	517,710	0,084	-0,143
-216,811	-61,786	-0,064	0,019
-215,796	-3,624	0,051	-0,026
-214,782	-200,000	0,001	-0,006
-213,767	-98,670	-0,060	0,011
-212,752	800,000	-0,077	0,161
-211,738	448,124	0,020	0,033
-210,723	-200,000	-0,038	0,129
-209,709	-24,377	-0,056	0,024
-208,694	116,177	0,094	-0,084
-207,679	41,473	-0,073	0,048
-206,665	800,000	0,031	-0,072
-205,650	-200,000	0,025	0,105
-204,636	159,721	-0,053	0,054
-203,621	-87,443	-0,147	0,032
-202,606	2,240	0,023	0,012
-201,592	-79,496	-0,199	-0,049
-200,577	-139,021	-0,076	0,006
-199,563	427,067	-0,076	0,120
-198,548	-67,415	0,068	0,019
-197,533	-200,000	0,023	-0,140
-196,519	800,000	0,049	0,127
-195,504	115,098	-0,040	0,035
-194,490	55,023	-0,080	-0,056
-193,475	-103,476	0,067	0,011
-192,460	-99,838	0,027	0,005
-191,446	-49,682	-0,030	-0,010
-190,431	-124,797	0,227	-0,025
-189,417	59,823	-0,070	0,050
-188,402	619,250	0,033	0,060
-187,387	-80,831	-0,181	-0,043
-186,373	-76,633	-0,020	0,005
-185,358	-200,000	0,011	-0,081
-184,344	-26,550	0,038	-0,016
-183,329	800,000	0,033	0,101
-182,315	-200,000	-0,016	0,104
-181,300	-98,122	-0,066	-0,012
-180,285	60,276	-0,085	0,061
-179,271	125,148	-0,031	-0,028
-178,256	3,446	-0,078	0,041
-177,242	284,005	-0,050	0,066
-176,227	326,570	-0,063	-0,088
-175,212	609,972	-0,022	0,040
-174,198	-117,135	-0,076	-0,010
-173,183	38,487	0,043	-0,028
-172,169	-30,996	-0,129	-0,053
-171,154	-91,494	0,138	0,028
-170,139	-200,000	0,025	-0,125
-169,125	-66,441	0,182	-0,052
-168,110	-54,558	0,104	0,034
-167,096	-29,096	-0,019	-0,008
-166,081	-171,292	-0,056	0,001
-165,066	427,406	0,018	0,029
-164,052	55,159	-0,064	-0,045
-163,037	285,627	-0,021	0,028
-162,023	800,000	0,037	0,090
-161,008	64,899	0,142	0,104
-159,993	-200,000	0,003	-0,098
-158,979	5,375	0,126	-0,067
-157,964	-40,669	0,156	-0,058
-156,950	18,427	-0,102	-0,059
-155,935	240,736	0,091	-0,111
-154,920	-14,317	0,135	0,063
-153,906	-200,000	0,038	0,215
-152,891	271,938	-0,100	0,128
-151,877	673,416	-0,002	-0,004
-150,862	800,000	-0,043	-0,131
-149,847	-75,373	-0,086	0,022
-148,833	261,233	0,062	-0,078
-147,818	-200,000	0,006	-0,118
-146,804	65,513	0,075	-0,055
-145,789	365,876	-0,051	0,076
-144,775	167,464	-0,114	-0,117
-143,760	-75,269	-0,090	0,023
-142,745	800,000	0,028	0,089
-141,731	30,358	-0,106	0,066
-140,716	800,000	0,020	0,046
-139,702	659,007	-0,019	-0,035
-138,687	325,304	-0,091	-0,127
-137,672	201,190	-0,066	-0,074
-136,658	-200,000	-0,050	-0,201
-135,643	44,450	-0,148	-0,098
-134,629	800,000	0,028	-0,063
-133,614	8,278	-0,058	0,032
-132,599	-200,000	-0,020	-0,081
-131,585	103,764	0,094	-0,080
-130,570	265,261	-0,070	-0,089
-129,556	180,497	0,024	0,026
-128,541	-42,051	-0,037	0,014
-127,526	-200,000	0,008	-0,125
-126,512	800,000	0,031	0,078
-125,497	800,000	-0,017	0,039
-124,483	-59,996	-0,090	-0,028
-123,468	-62,938	0,102	-0,030
-122,453	-57,674	-0,169	-0,053
-121,439	-32,790	-0,058	-0,023
-120,424	209,488	-0,023	0,026
-119,410	-87,722	0,108	0,023
-118,395	-200,000	-0,038	-0,142
-117,380	-43,681	0,077	0,028
-116,366	-72,640	-0,085	-0,022
-115,351	282,191	0,040	0,052
-114,337	-47,770	-0,101	-0,035
-113,322	542,105	0,043	0,074
-112,307	122,394	-0,017	0,016
-111,293	800,000	-0,030	0,073
-110,278	-133,041	0,050	0,005
-109,264	101,651	0,094	0,079
-108,249	157,602	-0,143	-0,144
-107,234	-167,537	0,090	-0,003
-106,220	-200,000	-0,009	0,057
-105,205	800,000	0,032	0,067
-104,191	-200,000	0,046	0,153
-103,176	-200,000	0,000	0,095
-102,162	-200,000	0,015	-0,059
-101,147	-200,000	-0,010	0,073
-100,132	800,000	-0,054	0,126
-99,118	-200,000	0,019	0,068
-98,103	-37,769	-0,131	0,050
-97,089	-32,467	0,050	0,020
-96,074	-182,833	0,095	-0,001
-95,059	84,115	0,062	0,049
-94,045	99,643	-0,088	-0,074
-93,030	-116,993	-0,111	0,015
-92,016	-200,000	0,005	-0,052
-91,001	-145,447	0,085	-0,005
-89,986	-153,792	-0,024	0,001
-88,972	-35,535	0,103	0,040
-87,957	49,258	0,038	-0,026
-86,943	-200,000	0,001	-0,033
-85,928	112,992	0,105	-0,093
-84,913	141,105	-0,063	0,060
-83,899	286,640	-0,026	0,034
-82,884	-32,967	-0,035	0,014
-81,870	35,985	-0,113	0,072
-80,855	183,184	0,033	0,036
-79,840	-200,000	0,013	-0,092
-78,826	800,000	-0,046	-0,100
-77,811	-200,000	-0,017	0,064
-76,797	-155,858	-0,101	-0,005
-75,782	20,872	-0,079	0,047
-74,767	800,000	-0,042	0,099
-73,753	-200,000	-0,021	0,086
-72,738	482,057	-0,075	0,123
-71,724	-200,000	-0,004	-0,033
-70,709	-8,615	-0,063	-0,031
-69,694	162,562	0,033	-0,033
-68,680	-109,250	0,125	-0,019
-67,665	-167,107	-0,168	0,005
-66,651	800,000	0,034	0,082
-65,636	-200,000	-0,012	0,144
-64,622	337,586	0,106	0,150
-63,607	83,909	-0,068	0,054
-62,592	-200,000	0,045	-0,177
-61,578	36,698	0,125	0,080
-60,563	-200,000	-0,026	0,099
-59,549	183,589	0,169	0,181
-58,534	-114,705	-1,505	-0,206
-57,519	800,000	-0,593	-1,290
-56,505	-200,000	-1,104	-4,430
-55,490	-181,565	0,707	0,010
-54,476	800,000	5,063	11,902
-53,461	-200,000	14,666	259,995
-52,446	-200,000	695,950	2235,325
-51,432	565,786	1621,648	2857,305
-50,417	118,255	1629,313	1453,828
-49,403	75,310	1283,673	978,775
-48,388	37,453	1022,252	654,546
-47,373	23,113	981,569	581,435
-46,359	22,228	970,919	572,206
-45,344	21,071	966,781	565,972
-44,330	20,976	965,401	564,831
-43,315	20,842	963,825	563,452
-42,300	20,882	962,779	562,948
-41,286	20,862	961,630	562,189
-40,271	20,844	960,609	561,510
-39,257	20,887	959,786	561,148
-38,242	20,852	958,869	560,475
-37,227	20,851	958,093	559,997
-36,213	20,746	957,277	559,159
-35,198	20,816	956,217	558,742
-34,184	20,785	955,707	558,320
-33,169	20,855	954,476	557,808
-32,154	20,817	953,751	557,236
-31,140	20,866	952,999	556,935
-30,125	20,836	952,274	556,392
-29,111	20,907	951,161	555,948
-28,096	20,866	950,519	555,419
-27,082	20,885	949,910	555,101
-26,067	20,842	949,199	554,526
-25,052	20,839	948,380	554,017
-24,038	20,823	947,780	553,594
-23,023	20,829	947,219	553,261
-22,009	20,858	946,542	552,937
-20,994	20,873	945,951	552,618
-19,979	20,860	945,348	552,202
-18,965	20,815	944,622	551,613
-17,950	20,873	944,022	551,425
-16,936	20,755	943,481	550,713
-15,921	20,749	942,819	550,286
-14,906	20,694	942,025	549,626
-13,892	20,724	941,490	549,386
-12,877	20,722	940,723	548,911
-11,863	20,740	940,048	548,552
-10,848	20,742	939,606	548,278
-9,833	20,839	939,195	548,323
-8,819	20,797	938,511	547,770
-7,804	20,762	937,923	547,295
-6,790	20,755	937,173	546,814
-5,775	20,808	936,728	546,699
-4,760	20,779	936,205	546,280
-3,746	20,710	935,718	545,758
-2,731	20,557	934,898	544,774
-1,717	20,605	933,972	544,365
-0,702	20,576	933,487	543,969
0,313	20,402	932,773	543,828
1,327	23,421	930,984	552,213
2,342	32,839	793,794	495,829
3,356	30,392	450,913	277,950
4,371	0,210	295,394	151,838
5,386	-4,211	276,612	137,966
6,400	-5,553	270,843	133,825
7,415	-5,961	268,564	132,310
8,429	-5,715	267,300	131,902
9,444	-5,551	266,289	131,542
10,459	-5,733	265,866	131,155
11,473	-5,733	265,258	130,843
12,488	-5,896	264,631	130,373
13,502	-6,104	264,098	129,910
14,517	-5,879	263,597	129,856
15,531	-5,866	263,317	129,719
16,546	-5,891	262,750	129,405
17,561	-5,857	262,437	129,270
18,575	-5,886	262,217	129,124
19,590	-5,999	261,827	128,818
20,604	-5,928	261,588	128,754
21,619	-5,984	261,293	128,547
22,634	-6,044	261,071	128,372
23,648	-6,075	260,607	128,104
24,663	-5,874	260,256	128,100
25,677	-5,926	260,178	128,004
26,692	-6,027	259,775	127,704
27,707	-5,964	259,508	127,618
28,721	-6,130	259,330	127,371
29,736	-5,988	258,901	127,275
30,750	-6,143	258,743	127,048
31,765	-6,058	258,538	127,012
32,780	-6,064	258,324	126,890
33,794	-6,071	258,068	126,747
34,809	-5,882	257,722	126,733
35,823	-6,125	257,485	126,390
36,838	-6,095	257,252	126,291
37,853	-6,083	257,086	126,208
38,867	-6,156	256,798	125,992
39,882	-5,967	256,648	126,073
40,896	-6,127	256,437	125,818
41,911	-6,156	256,180	125,655
42,926	-6,132	255,875	125,515
43,940	-6,133	255,601	125,369
44,955	-5,957	255,478	125,451
45,969	-6,187	255,168	125,087
46,984	-6,387	255,019	124,827
47,999	-6,643	254,751	124,461
49,013	-6,795	254,514	124,201
50,028	-6,730	254,250	124,118
51,042	-7,038	253,946	123,690
52,057	-6,809	253,682	123,750
53,071	-6,864	253,509	123,607
54,086	-6,660	253,355	123,698
55,101	-6,666	253,311	123,660
56,115	-6,502	253,129	123,703
57,130	-5,996	252,960	124,048
58,144	-5,726	252,940	124,262
59,159	-5,861	252,636	123,984
60,174	-5,966	252,633	123,880
61,188	-5,990	252,236	123,654
62,203	-5,826	252,100	123,718
63,217	-5,891	251,786	123,498
64,232	-6,053	251,678	123,293
65,247	-5,875	251,456	123,327
66,261	-5,911	251,158	123,139
67,276	-6,212	250,913	122,749
68,290	-6,335	250,612	122,485
69,305	-6,460	250,412	122,269
70,320	-6,524	250,332	122,165
71,334	-6,164	250,193	122,394
72,349	-5,775	249,991	122,618
73,363	-6,039	249,876	122,324
74,378	-5,822	249,642	122,385
75,393	-5,904	249,304	122,138
76,407	-5,963	249,148	122,000
77,422	-6,003	249,013	121,889
78,436	-5,864	248,859	121,921
79,451	-5,895	248,411	121,665
80,466	-6,015	248,154	121,426
81,480	-6,163	248,056	121,242
82,495	-6,239	247,873	121,076
83,509	-6,109	247,681	121,083
84,524	-6,420	247,408	120,675
85,539	-6,467	247,288	120,566
86,553	-6,422	246,975	120,441
87,568	-6,457	246,937	120,382
88,582	-6,390	246,552	120,239
89,597	-6,569	246,672	120,136
90,611	-6,273	246,463	120,274
91,626	-6,048	246,192	120,320
92,641	-6,220	246,181	120,159
93,655	-6,126	245,881	120,081
94,670	-6,025	245,569	120,003
95,684	-6,166	245,527	119,853
96,699	-6,168	245,270	119,715
97,714	-6,331	245,181	119,524
98,728	-6,411	244,866	119,293
99,743	-6,424	244,619	119,151
100,757	-6,477	244,460	119,019
101,772	-6,253	244,182	119,060
102,787	-6,489	244,183	118,853
103,801	-6,043	243,886	119,069
104,816	-6,065	243,840	119,018
105,830	-6,144	243,859	118,950
106,845	-6,011	243,626	118,937
107,860	-6,106	243,443	118,759
108,874	-6,124	243,141	118,586
109,889	-6,182	242,956	118,436
110,903	-6,311	242,652	118,170
111,918	-6,260	242,448	118,103
112,933	-6,054	242,244	118,164
113,947	-6,139	242,236	118,079
114,962	-6,090	242,068	118,027
115,976	-5,991	241,796	117,966
116,991	-6,241	241,636	117,671
118,006	-6,342	241,592	117,556
119,020	-6,202	241,469	117,601
120,035	-5,999	241,260	117,656
121,049	-5,975	241,256	117,663
122,064	-6,026	240,997	117,484
123,079	-5,925	240,703	117,413
124,093	-6,137	240,419	117,091
125,108	-6,442	240,170	116,709
126,122	-6,543	239,976	116,521
127,137	-6,644	239,866	116,375
128,151	-6,420	239,719	116,477
129,166	-6,229	239,517	116,524
130,181	-6,483	239,226	116,165
131,195	-6,520	239,108	116,067
132,210	-6,326	239,066	116,194
133,224	-6,090	238,848	116,270
134,239	-5,854	238,712	116,385
135,254	-5,999	238,650	116,227
136,268	-6,087	238,178	115,916
137,283	-6,297	238,009	115,653
138,297	-6,546	237,876	115,376
139,312	-6,546	237,720	115,290
140,327	-6,214	237,687	115,532
141,341	-5,931	237,614	115,716
142,356	-5,872	237,532	115,713
143,370	-5,816	237,355	115,662
144,385	-5,747	237,184	115,623
145,400	-5,537	236,867	115,628
146,414	-5,582	236,846	115,571
147,429	-5,789	236,530	115,241
148,443	-5,829	236,593	115,228
149,458	-5,914	236,270	114,993
150,473	-5,631	235,953	115,055
151,487	-5,870	235,817	114,787
152,502	-5,977	235,673	114,620
153,516	-5,651	235,599	114,835
154,531	-5,731	235,263	114,598
155,546	-5,973	235,312	114,418
156,560	-5,941	235,070	114,316
157,575	-5,951	234,988	114,257
158,589	-5,963	234,684	114,089
159,604	-5,703	234,473	114,184
160,619	-5,587	234,396	114,228
161,633	-5,727	234,199	114,012
162,648	-5,589	234,037	114,032
163,662	-5,718	233,886	113,846
164,677	-5,762	233,675	113,698
165,692	-5,629	233,804	113,856
166,706	-5,707	233,473	113,623
167,721	-5,582	233,317	113,636
168,735	-5,522	233,172	113,602
169,750	-5,636	233,070	113,453
170,764	-5,680	232,902	113,326
171,779	-5,665	232,734	113,246
172,794	-5,411	232,532	113,338
173,808	-5,730	232,358	112,992
174,823	-6,146	232,033	112,497
175,837	-6,396	231,879	112,214
176,852	-5,782	231,795	112,647
177,867	-5,824	231,809	112,610
178,881	-5,485	231,606	112,769
179,896	-5,731	231,406	112,468
180,910	-5,768	231,369	112,411
181,925	-5,758	231,135	112,295
182,940	-5,640	230,995	112,309
183,954	-5,504	230,810	112,316
184,969	-5,442	230,766	112,333
185,983	-5,403	230,502	112,224
186,998	-5,529	230,371	112,053
188,013	-5,347	230,182	112,093
189,027	-5,439	230,021	111,933
190,042	-5,548	229,895	111,776
191,056	-5,510	229,835	111,767
192,071	-5,441	229,672	111,732
193,086	-5,434	229,439	111,613
194,100	-5,640	229,415	111,432
195,115	-5,563	229,004	111,282
196,129	-5,841	228,880	110,996
197,144	-2,804	229,776	113,783
198,159	0,801	231,066	117,226
199,173	3,654	231,609	119,718
200,188	4,046	231,529	119,971
201,202	4,026	231,320	119,837
202,217	4,042	231,303	119,830
203,232	4,157	231,206	119,858
204,246	4,362	231,039	119,921
205,261	4,517	230,959	119,989
206,275	4,726	230,768	120,041
207,290	4,808	230,614	120,014
208,304	4,543	230,645	119,814
209,319	4,562	230,392	119,686
210,334	4,768	230,055	119,660
211,348	4,358	229,867	119,235
212,363	3,846	229,758	118,772
213,377	3,755	229,423	118,518
214,392	3,627	229,277	118,333
215,407	3,996	229,206	118,570
216,421	3,957	229,048	118,448
217,436	3,668	228,753	118,063
218,450	3,642	228,673	117,991
219,465	3,348	228,455	117,642
220,480	3,514	228,247	117,652
221,494	3,659	228,098	117,676
222,509	3,823	228,087	117,786
223,523	3,674	228,026	117,630
224,538	3,521	227,678	117,322
225,553	3,882	227,653	117,575
226,567	4,008	227,468	117,565
227,582	3,991	227,534	117,576
228,596	3,882	227,360	117,392
229,611	3,745	227,027	117,106
230,626	3,430	226,825	116,750
231,640	3,519	226,618	116,702
232,655	3,960	226,704	117,071
233,669	4,491	226,666	117,445
234,684	4,293	226,658	117,279
235,699	4,440	226,277	117,183
236,713	3,938	225,974	116,636
237,728	3,786	225,957	116,501
238,742	3,736	225,623	116,281
239,757	3,797	225,365	116,184
240,772	3,666	225,470	116,128
241,786	3,553	225,314	115,952
242,801	3,843	225,317	116,162
243,815	4,105	225,187	116,282
244,830	4,006	225,045	116,124
245,844	3,737	224,729	115,748
246,859	3,736	224,485	115,611
247,874	3,962	224,425	115,741
248,888	4,018	224,381	115,750
249,903	4,000	224,200	115,632
250,917	3,560	224,132	115,256
251,932	3,562	223,929	115,143
252,947	3,682	223,605	115,056
253,961	3,649	223,506	114,971
254,976	3,729	223,307	114,917
255,990	4,068	223,198	115,105
257,005	3,986	223,117	114,991
258,020	3,988	222,991	114,918
259,034	4,108	222,952	114,977
260,049	3,911	222,843	114,763
261,063	3,964	222,675	114,706
262,078	3,855	222,548	114,549
263,093	4,155	222,324	114,647
264,107	3,760	222,279	114,319
265,122	4,104	222,126	114,487
266,136	4,018	222,005	114,351
267,151	4,278	221,688	114,370
268,166	3,717	221,543	113,869
269,180	3,601	221,329	113,663
270,195	3,639	221,172	113,600
271,209	3,638	221,164	113,585
272,224	3,594	220,932	113,423
273,239	3,904	220,745	113,546
274,253	3,587	220,687	113,272
275,268	3,503	220,609	113,160
276,282	3,467	220,251	112,940
277,297	3,377	220,174	112,824
278,312	3,618	220,016	112,910
279,326	3,590	219,915	112,828
280,341	3,805	219,724	112,878
281,355	3,899	219,671	112,909
282,370	3,616	219,544	112,626
283,384	3,466	219,366	112,415
284,399	3,505	219,155	112,326
285,414	3,437	219,031	112,202
286,428	3,735	218,986	112,386
287,443	3,862	218,898	112,425
288,457	3,943	218,710	112,377
289,472	3,798	218,622	112,217
290,487	3,405	218,424	111,818
291,501	3,252	218,164	111,563
292,516	3,465	217,957	111,602
293,530	3,243	217,981	111,443
294,545	3,428	217,727	111,438
295,560	3,819	217,593	111,643
296,574	3,841	217,557	111,631
297,589	3,828	217,512	111,588
298,603	4,006	217,206	111,551
299,618	3,665	217,152	111,266
300,633	3,963	216,874	111,329
301,647	3,967	216,993	111,383
302,662	3,912	216,851	111,261
303,676	3,974	216,746	111,242
304,691	3,919	216,478	111,054
305,706	3,840	216,372	110,933
306,720	3,960	216,365	111,006
307,735	3,929	216,144	110,860
308,749	3,716	215,789	110,515
309,764	3,693	215,911	110,552
310,779	3,768	215,709	110,492
311,793	3,664	215,514	110,307
312,808	3,724	215,484	110,326
313,822	4,060	215,314	110,470
314,837	3,862	215,032	110,173
315,852	3,676	214,914	109,970
316,866	3,709	214,771	109,911
317,881	3,636	214,724	109,824
318,895	4,006	214,584	110,008
319,910	3,772	214,495	109,785
320,925	3,566	214,228	109,492
321,939	3,343	213,958	109,185
322,954	3,515	213,911	109,274
323,968	3,574	214,019	109,361
324,983	3,745	213,765	109,343
325,997	3,765	213,601	109,264
327,012	3,736	213,405	109,133
328,027	3,773	213,360	109,127
329,041	4,293	213,303	109,457
330,056	4,235	213,248	109,378
331,070	3,787	212,950	108,898
332,085	3,409	212,706	108,496
333,100	3,273	212,574	108,322
334,114	3,862	212,429	108,655
335,129	3,725	212,495	108,582
336,143	3,679	212,296	108,439
337,158	3,567	212,094	108,247
338,173	3,649	212,028	108,261
339,187	3,568	211,798	108,077
340,202	3,504	211,540	107,891
341,216	3,518	211,530	107,886
342,231	3,427	211,414	107,753
343,246	3,440	211,109	107,597
344,260	3,326	211,272	107,590
345,275	3,609	210,871	107,575
346,289	3,782	210,900	107,701
347,304	3,843	210,834	107,701
348,319	3,751	210,631	107,524
349,333	3,652	210,441	107,348
350,348	3,865	210,456	107,495
351,362	3,889	210,280	107,412
352,377	4,010	210,187	107,439
353,392	3,775	209,908	107,123
354,406	3,767	209,911	107,110
355,421	194,986	1344,186	1432,191
356,435	155,670	1482,457	1432,272
