DTS Sentinel unit serial number:	SN410029Multiplexer serial number:	ORYXHardware model number:	OX2-SRSoftware version number:	ORYX F/W v4,00 Oryx Data Collector v3.7.2.0data status	okinstallation	B6 Nyhavnadifferential loss correction	single-endedforward channel	channel 2reverse channel	N/Adate	2023/12/11time	05:25:08forward acquisition time	300,00reverse acquisition time	0,00gamma	499,1914k internal	0,3127k external	0,3127temperature offset calibration	1,0000default loss term (dB/km)	0,3820temperature slope calibration	1,0000multiplexer offset coefficient	1,0000multiplexer slope coefficient	1,0000fibre end	0,00T internal ref (°C)	20,00T ext. ref 1 (°C)	3,09T ext. ref 2 (°C)	3,12length (m)	temperature (°C)	Stokes	anti-Stokes-744,400	39,730	0,082	0,055
-743,385	-2,578	-0,234	0,122
-742,371	139,265	0,123	0,121
-741,356	-91,586	-0,188	0,040
-740,342	-106,508	0,029	-0,005
-739,327	-147,336	-0,275	-0,017
-738,312	-200,000	0,007	-0,061
-737,298	43,195	-0,169	0,114
-736,283	159,492	0,026	-0,027
-735,269	-16,940	-0,244	0,114
-734,254	-200,000	-0,001	0,036
-733,239	-55,057	-0,357	-0,119
-732,225	432,004	0,119	0,193
-731,210	-11,309	-0,097	-0,047
-730,196	9,539	-0,113	0,063
-729,181	-28,076	0,061	-0,026
-728,167	-200,000	0,017	0,069
-727,152	131,639	0,113	0,108
-726,137	-200,000	-0,019	-0,075
-725,123	-85,716	-0,075	-0,017
-724,108	-200,000	-0,018	-0,098
-723,094	-28,993	-0,109	-0,046
-722,079	-200,000	-0,038	-0,162
-721,064	192,770	-0,117	-0,131
-720,050	90,420	-0,085	0,071
-719,035	-200,000	0,022	0,192
-718,021	74,942	0,021	-0,016
-717,006	-85,612	-0,150	-0,034
-715,991	-80,487	0,081	0,020
-714,977	459,356	-0,019	0,031
-713,962	-200,000	0,001	-0,043
-712,948	-61,213	-0,056	0,018
-711,933	92,194	-0,017	-0,014
-710,918	-15,130	-0,080	-0,038
-709,904	-97,661	-0,101	-0,019
-708,889	76,678	-0,118	-0,093
-707,875	368,184	0,027	-0,040
-706,860	-200,000	-0,003	-0,076
-705,845	-0,136	0,103	0,054
-704,831	151,364	-0,033	-0,034
-703,816	-4,087	-0,183	0,094
-702,802	-95,973	0,096	0,019
-701,787	212,230	-0,065	-0,077
-700,772	384,285	0,085	-0,131
-699,758	-69,659	-0,084	-0,024
-698,743	-0,363	-0,163	0,086
-697,729	703,732	0,062	0,122
-696,714	324,360	0,028	0,040
-695,699	-200,000	0,008	0,051
-694,685	-200,000	-0,020	-0,067
-693,670	-89,058	0,118	0,026
-692,656	692,943	0,057	0,112
-691,641	0,272	0,088	-0,047
-690,627	214,357	0,063	0,074
-689,612	355,362	-0,048	0,071
-688,597	-136,210	0,077	-0,007
-687,583	246,971	-0,051	-0,065
-686,568	-200,000	-0,016	-0,093
-685,554	800,000	-0,022	0,069
-684,539	107,915	-0,048	0,043
-683,524	-200,000	0,039	0,135
-682,510	-200,000	0,036	0,138
-681,495	35,034	-0,069	0,045
-680,481	278,970	-0,024	0,032
-679,466	369,834	-0,019	-0,028
-678,451	54,437	-0,089	-0,064
-677,437	287,076	0,007	-0,010
-676,422	55,175	0,088	0,063
-675,408	800,000	0,050	0,156
-674,393	48,800	-0,085	-0,059
-673,378	274,361	-0,062	0,081
-672,364	67,705	-0,056	0,042
-671,349	800,000	0,033	-0,082
-670,335	268,096	0,079	-0,104
-669,320	-156,294	-0,115	-0,005
-668,305	34,280	0,125	0,081
-667,291	-200,000	-0,004	0,119
-666,276	148,140	0,104	0,105
-665,262	54,787	-0,078	-0,056
-664,247	456,442	-0,054	0,089
-663,232	-63,244	-0,065	-0,020
-662,218	-90,218	-0,014	-0,003
-661,203	-200,000	-0,032	-0,136
-660,189	108,033	-0,029	0,026
-659,174	-23,425	0,051	0,023
-658,159	-200,000	0,003	-0,026
-657,145	-119,877	0,071	-0,009
-656,130	-200,000	0,020	0,077
-655,116	46,920	0,039	-0,027
-654,101	17,361	0,064	0,038
-653,086	-105,689	-0,269	-0,045
-652,072	794,931	-0,020	0,041
-651,057	-200,000	0,003	-0,109
-650,043	-200,000	0,025	0,160
-649,028	-200,000	-0,022	0,075
-648,014	-59,505	0,077	0,025
-646,999	-131,237	-0,027	-0,003
-645,984	153,748	-0,012	-0,012
-644,970	379,469	-0,088	-0,134
-643,955	47,028	-0,063	0,043
-642,941	29,161	-0,124	0,078
-641,926	156,150	0,024	-0,024
-640,911	-15,220	0,124	0,059
-639,897	-11,647	-0,077	-0,038
-638,882	-200,000	0,015	0,073
-637,868	800,000	-0,075	0,195
-636,853	86,401	-0,138	-0,113
-635,838	-86,519	-0,113	0,026
-634,824	-123,003	0,027	0,003
-633,809	-200,000	-0,015	0,070
-632,795	479,496	-0,100	0,169
-631,780	-200,000	-0,013	-0,053
-630,765	-141,484	-0,148	0,011
-629,751	800,000	-0,051	-0,129
-628,736	-200,000	-0,013	-0,176
-627,722	90,251	-0,027	0,022
-626,707	55,825	0,049	0,035
-625,692	94,060	-0,043	-0,036
-624,678	-200,000	0,002	-0,094
-623,663	228,282	0,082	0,099
-622,649	46,553	-0,128	-0,088
-621,634	-57,812	-0,158	0,051
-620,619	-116,056	0,041	0,006
-619,605	620,063	0,033	-0,062
-618,590	710,563	-0,017	0,033
-617,576	15,035	0,051	0,030
-616,561	-112,681	0,086	-0,013
-615,546	-82,118	-0,104	0,025
-614,532	327,386	-0,113	-0,161
-613,517	-200,000	-0,019	-0,068
-612,503	-200,000	0,003	-0,091
-611,488	-38,325	0,120	0,047
-610,474	-200,000	-0,004	0,066
-609,459	800,000	-0,023	0,049
-608,444	-200,000	-0,006	-0,125
-607,430	520,406	0,031	-0,053
-606,415	160,756	-0,090	-0,093
-605,401	-82,736	-0,141	0,033
-604,386	800,000	-0,028	-0,073
-603,371	139,841	-0,073	0,072
-602,357	367,184	-0,075	-0,113
-601,342	103,664	-0,015	0,013
-600,328	247,040	0,029	-0,036
-599,313	368,043	-0,055	-0,083
-598,298	800,000	0,020	-0,051
-597,284	222,582	-0,061	-0,072
-596,269	557,438	0,054	0,097
-595,255	241,226	0,045	0,056
-594,240	-200,000	-0,005	-0,036
-593,225	-200,000	-0,010	-0,039
-592,211	156,994	-0,046	0,047
-591,196	551,393	-0,061	0,108
-590,182	217,067	-0,060	-0,071
-589,167	-113,949	-0,049	0,007
-588,152	45,721	0,020	0,014
-587,138	800,000	0,053	0,157
-586,123	19,673	-0,121	-0,072
-585,109	-43,500	-0,088	-0,033
-584,094	96,980	0,060	0,051
-583,079	207,872	0,043	0,049
-582,065	-200,000	0,005	0,048
-581,050	208,136	-0,090	0,104
-580,036	39,116	0,131	0,087
-579,021	-200,000	-0,009	0,066
-578,006	-200,000	-0,005	0,034
-576,992	203,774	-0,110	-0,126
-575,977	-96,334	0,201	-0,039
-574,963	-200,000	0,006	-0,053
-573,948	-65,350	-0,046	-0,014
-572,934	-200,000	0,023	0,100
-571,919	515,404	-0,092	-0,159
-570,904	193,981	-0,046	-0,052
-569,890	-200,000	0,003	-0,094
-568,875	-200,000	0,002	0,012
-567,861	800,000	0,022	0,071
-566,846	-128,804	-0,063	0,006
-565,831	-107,539	0,060	0,010
-564,817	-149,363	-0,075	0,004
-563,802	-200,000	0,009	-0,044
-562,788	707,036	-0,057	-0,111
-561,773	19,717	0,013	-0,007
-560,758	27,548	0,111	-0,069
-559,744	-58,880	0,106	-0,034
-558,729	-200,000	-0,015	0,103
-557,715	105,392	-0,035	-0,030
-556,700	-86,677	0,042	0,009
-555,685	478,297	-0,034	-0,057
-554,671	-142,647	0,225	-0,016
-553,656	-99,467	0,117	0,022
-552,642	304,735	-0,026	0,036
-551,627	-200,000	0,019	-0,082
-550,612	-200,000	-0,000	-0,014
-549,598	115,326	-0,023	-0,021
-548,583	-200,000	-0,011	0,136
-547,569	-200,000	-0,001	-0,101
-546,554	-200,000	0,011	-0,045
-545,539	786,227	-0,033	-0,067
-544,525	379,966	-0,047	0,071
-543,510	-30,126	0,041	0,017
-542,496	746,821	-0,037	-0,073
-541,481	800,000	-0,023	-0,050
-540,466	715,073	0,063	0,125
-539,452	132,781	0,046	0,044
-538,437	264,996	-0,042	-0,055
-537,423	-97,028	0,053	-0,010
-536,408	-200,000	-0,018	0,000
-535,393	-200,000	0,002	-0,085
-534,379	-156,208	-0,064	0,003
-533,364	-200,000	-0,005	-0,050
-532,350	-200,000	-0,005	-0,082
-531,335	275,816	0,030	-0,039
-530,321	-145,141	0,098	-0,006
-529,306	800,000	-0,076	-0,174
-528,291	-31,019	-0,155	0,064
-527,277	-36,081	-0,086	0,034
-526,262	800,000	0,039	0,088
-525,248	-200,000	-0,006	0,026
-524,233	-200,000	-0,002	-0,047
-523,218	-91,662	0,041	0,008
-522,204	-60,364	-0,135	-0,042
-521,189	33,308	0,064	-0,041
-520,175	4,005	0,108	-0,058
-519,160	140,950	0,045	0,044
-518,145	-0,755	-0,063	0,033
-517,131	-98,829	0,081	-0,015
-516,116	-44,318	0,060	-0,022
-515,102	-28,411	-0,159	-0,068
-514,087	171,974	-0,126	-0,134
-513,072	-200,000	-0,005	0,026
-512,058	88,011	0,083	0,068
-511,043	-200,000	-0,003	0,174
-510,029	684,945	-0,015	0,030
-509,014	244,666	-0,070	0,087
-507,999	800,000	0,019	0,053
-506,985	6,165	-0,057	-0,031
-505,970	800,000	-0,046	-0,105
-504,956	-185,820	0,059	-0,001
-503,941	-26,692	-0,042	-0,018
-502,926	28,489	0,053	0,033
-501,912	278,440	0,032	-0,042
-500,897	-200,000	0,001	-0,037
-499,883	115,348	0,036	-0,032
-498,868	-200,000	0,014	-0,122
-497,853	-92,236	-0,150	-0,031
-496,839	82,320	0,064	0,051
-495,824	-200,000	0,002	0,025
-494,810	734,634	-0,045	0,090
-493,795	-73,561	0,069	-0,018
-492,781	800,000	-0,020	0,050
-491,766	294,435	0,014	-0,019
-490,751	192,784	-0,124	-0,138
-489,737	-112,938	-0,046	0,007
-488,722	26,528	-0,015	0,009
-487,708	84,520	0,090	0,073
-486,693	-98,723	-0,117	-0,022
-485,678	-91,642	0,116	0,024
-484,664	-100,312	-0,089	0,016
-483,649	-66,521	0,018	-0,005
-482,635	130,555	0,021	0,020
-481,620	-200,000	0,042	0,141
-480,605	74,669	0,028	-0,022
-479,591	293,723	0,085	0,115
-478,576	-200,000	0,005	-0,034
-477,562	800,000	-0,017	0,043
-476,547	-200,000	-0,007	-0,073
-475,532	800,000	0,029	-0,061
-474,518	375,283	0,047	-0,071
-473,503	-107,791	0,084	0,013
-472,489	-107,084	-0,216	0,035
-471,474	205,334	0,009	0,010
-470,459	-168,529	-0,016	0,000
-469,445	800,000	-0,054	-0,116
-468,430	-147,705	0,122	-0,007
-467,416	-96,276	-0,018	0,003
-466,401	56,010	-0,086	-0,062
-465,386	51,857	0,085	-0,059
-464,372	-31,486	-0,051	-0,021
-463,357	183,305	-0,036	-0,039
-462,343	412,887	0,026	-0,040
-461,328	-35,320	-0,039	0,016
-460,313	-200,000	-0,008	0,121
-459,299	111,628	0,143	0,127
-458,284	72,182	-0,033	0,025
-457,270	-200,000	0,088	-0,000
-456,255	124,583	-0,014	0,013
-455,241	105,875	-0,041	0,036
-454,226	-2,628	-0,063	-0,033
-453,211	800,000	0,010	0,026
-452,197	239,806	-0,036	-0,044
-451,182	800,000	0,041	0,097
-450,168	-101,381	-0,112	0,020
-449,153	-200,000	0,003	-0,035
-448,138	143,583	-0,028	-0,028
-447,124	-200,000	0,031	-0,135
-446,109	-158,330	-0,007	-0,000
-445,095	-200,000	0,018	-0,065
-444,080	-57,213	0,087	-0,028
-443,065	310,021	-0,030	0,041
-442,051	87,634	-0,084	-0,068
-441,036	800,000	-0,050	-0,104
-440,022	29,385	0,037	-0,023
-439,007	800,000	0,009	-0,020
-437,992	-95,317	0,171	0,033
-436,978	406,630	-0,010	0,015
-435,963	-200,000	-0,007	0,031
-434,949	133,333	-0,065	0,061
-433,934	90,580	-0,061	0,050
-432,919	42,406	-0,107	-0,072
-431,905	-19,995	0,060	0,027
-430,890	800,000	0,105	-0,238
-429,876	-200,000	0,002	0,240
-428,861	-200,000	-0,006	0,084
-427,846	136,247	0,030	-0,028
-426,832	-1,463	-0,066	0,034
-425,817	273,147	-0,026	-0,034
-424,803	800,000	-0,056	-0,149
-423,788	-25,291	0,083	-0,036
-422,773	800,000	-0,015	0,043
-421,759	800,000	0,086	0,189
-420,744	-40,448	0,153	0,058
-419,730	17,404	-0,044	-0,026
-418,715	-128,273	0,054	0,006
-417,701	-89,267	-0,160	0,034
-416,686	-200,000	0,030	0,126
-415,671	180,862	0,060	0,065
-414,657	-104,263	0,159	-0,027
-413,642	215,982	-0,018	-0,021
-412,628	94,746	-0,016	0,013
-411,613	800,000	-0,029	-0,086
-410,598	-200,000	0,007	0,051
-409,584	179,998	0,076	-0,082
-408,569	-200,000	0,014	-0,071
-407,555	-92,706	0,217	0,044
-406,540	126,992	-0,048	-0,044
-405,525	733,136	0,036	-0,071
-404,511	-99,136	-0,143	-0,026
-403,496	-200,000	-0,036	-0,117
-402,482	800,000	0,033	-0,083
-401,467	-136,120	0,147	-0,013
-400,452	146,241	-0,025	-0,024
-399,438	-72,368	-0,077	-0,021
-398,423	-200,000	-0,031	-0,121
-397,409	-200,000	-0,018	0,101
-396,394	-200,000	-0,003	0,018
-395,379	-73,917	-0,023	0,006
-394,365	151,534	-0,087	0,087
-393,350	-200,000	0,011	0,060
-392,336	-200,000	0,016	0,053
-391,321	-200,000	0,021	-0,087
-390,306	-33,559	-0,125	-0,050
-389,292	-200,000	0,008	0,048
-388,277	308,927	0,010	0,013
-387,263	115,566	0,056	-0,050
-386,248	197,890	-0,073	0,082
-385,233	100,830	-0,039	0,033
-384,219	-199,316	0,117	-0,000
-383,204	800,000	-0,027	0,062
-382,190	-67,354	-0,038	-0,011
-381,175	800,000	-0,051	0,111
-380,160	487,067	-0,044	0,074
-379,146	-200,000	0,007	0,068
-378,131	4,462	0,055	0,029
-377,117	232,772	0,067	0,081
-376,102	800,000	-0,088	0,220
-375,088	13,417	-0,118	0,067
-374,073	-22,286	0,032	0,014
-373,058	-83,596	-0,051	-0,012
-372,044	-2,698	-0,046	-0,024
-371,029	-200,000	-0,021	-0,082
-370,015	195,870	0,084	0,094
-369,000	89,562	-0,020	0,016
-367,985	-200,000	0,021	0,095
-366,971	800,000	-0,041	0,131
-365,956	-63,511	0,135	0,040
-364,942	-83,109	0,083	-0,019
-363,927	-200,000	0,019	0,123
-362,912	-200,000	0,009	0,090
-361,898	-155,613	0,032	0,002
-360,883	174,797	-0,034	-0,037
-359,869	800,000	0,074	-0,179
-358,854	270,167	-0,027	0,035
-357,839	-131,253	0,173	0,017
-356,825	-200,000	-0,001	0,074
-355,810	82,177	0,036	-0,029
-354,796	800,000	-0,067	-0,155
-353,781	-200,000	-0,064	0,227
-352,766	-45,668	0,082	-0,030
-351,752	-165,603	0,079	0,002
-350,737	591,901	0,120	0,218
-349,723	-200,000	-0,037	-0,194
-348,708	478,494	-0,025	0,041
-347,693	519,702	-0,067	0,116
-346,679	205,157	0,050	0,057
-345,664	55,886	-0,040	-0,028
-344,650	-200,000	-0,008	-0,063
-343,635	-200,000	0,010	0,090
-342,620	-200,000	-0,020	0,077
-341,606	0,723	-0,087	-0,046
-340,591	-102,426	0,036	-0,006
-339,577	800,000	0,023	0,066
-338,562	-2,987	-0,103	-0,052
-337,548	-200,000	0,018	-0,092
-336,533	800,000	0,064	0,144
-335,518	507,926	0,101	-0,173
-334,504	-200,000	0,028	-0,131
-333,489	371,116	-0,003	0,005
-332,475	-1,680	-0,120	-0,062
-331,460	156,321	-0,138	-0,139
-330,445	547,053	0,082	-0,144
-329,431	423,958	0,047	-0,075
-328,416	-200,000	0,005	-0,090
-327,402	103,815	0,055	-0,047
-326,387	800,000	0,053	0,169
-325,372	121,090	-0,161	-0,147
-324,358	300,785	-0,063	-0,085
-323,343	101,767	0,146	-0,124
-322,329	800,000	0,049	0,110
-321,314	-200,000	0,017	0,199
-320,299	-200,000	-0,002	-0,009
-319,285	-95,640	0,031	0,006
-318,270	145,261	0,094	0,092
-317,256	318,123	-0,044	-0,061
-316,241	29,353	0,061	-0,038
-315,226	260,041	0,064	0,081
-314,212	343,724	0,086	0,124
-313,197	529,772	-0,048	0,084
-312,183	800,000	-0,027	0,074
-311,168	-200,000	-0,008	-0,098
-310,153	760,620	0,060	-0,120
-309,139	-124,129	0,076	0,009
-308,124	-107,029	-0,034	0,005
-307,110	-84,105	0,212	0,049
-306,095	82,825	-0,080	-0,063
-305,080	800,000	0,025	-0,065
-304,066	-200,000	-0,014	0,110
-303,051	153,923	0,033	-0,033
-302,037	51,728	0,027	-0,019
-301,022	-182,192	0,089	-0,001
-300,008	120,806	0,147	0,134
-298,993	89,046	-0,076	-0,062
-297,978	61,258	0,036	0,026
-296,964	-200,000	-0,003	-0,013
-295,949	15,574	-0,096	-0,055
-294,935	340,623	-0,064	0,092
-293,920	-200,000	-0,053	0,180
-292,905	-93,455	0,068	-0,014
-291,891	-150,043	0,093	0,005
-290,876	22,761	0,066	0,039
-289,862	-56,413	-0,072	-0,023
-288,847	-200,000	0,006	-0,067
-287,832	-82,400	0,161	-0,038
-286,818	755,917	-0,074	-0,147
-285,803	105,619	0,060	0,052
-284,789	204,790	0,123	0,140
-283,774	-200,000	0,005	0,052
-282,759	105,599	0,071	-0,061
-281,745	332,333	-0,048	0,068
-280,730	65,632	-0,132	-0,097
-279,716	28,994	-0,080	-0,049
-278,701	670,603	0,053	0,100
-277,686	800,000	0,023	0,060
-276,672	-51,123	0,021	-0,007
-275,657	800,000	-0,028	0,068
-274,643	150,067	-0,043	-0,043
-273,628	513,448	-0,032	-0,056
-272,613	-165,102	-0,055	-0,002
-271,599	-200,000	0,056	0,199
-270,584	68,300	0,011	0,008
-269,570	-13,727	-0,073	-0,034
-268,555	-30,719	0,100	0,041
-267,540	-115,720	-0,096	0,013
-266,526	800,000	-0,019	0,041
-265,511	-170,038	-0,136	0,003
-264,497	-200,000	0,003	0,137
-263,482	800,000	0,012	-0,031
-262,467	-65,921	0,077	0,022
-261,453	304,940	-0,055	0,075
-260,438	-200,000	-0,037	0,122
-259,424	29,794	0,111	-0,069
-258,409	-200,000	-0,022	-0,091
-257,395	-200,000	0,006	0,052
-256,380	160,515	0,028	-0,029
-255,365	-44,132	0,195	0,071
-254,351	446,662	-0,062	0,101
-253,336	92,763	-0,044	0,036
-252,322	141,626	-0,186	0,180
-251,307	-200,000	0,020	-0,197
-250,292	-36,424	-0,047	0,018
-249,278	800,000	-0,044	-0,108
-248,263	-79,143	-0,016	0,004
-247,249	66,345	0,108	0,080
-246,234	88,352	-0,098	0,079
-245,219	-93,012	-0,043	0,009
-244,205	-200,000	-0,026	-0,162
-243,190	-200,000	0,003	-0,046
-242,176	-60,634	0,134	0,041
-241,161	800,000	-0,036	0,097
-240,146	-79,575	-0,046	0,011
-239,132	-122,396	0,024	0,003
-238,117	-60,173	-0,033	-0,010
-237,103	124,448	-0,028	0,025
-236,088	-94,863	0,039	0,008
-235,073	-80,078	0,123	0,030
-234,059	-62,015	0,065	0,020
-233,044	12,412	0,091	0,051
-232,030	-200,000	-0,052	-0,241
-231,015	-200,000	-0,008	-0,089
-230,000	135,906	0,116	-0,110
-228,986	-133,369	-0,122	0,011
-227,971	529,788	0,012	-0,021
-226,957	-200,000	0,002	-0,142
-225,942	-200,000	0,043	0,154
-224,927	-115,203	-0,030	0,004
-223,913	86,748	0,128	-0,103
-222,898	241,634	-0,061	-0,075
-221,884	-2,085	-0,035	-0,018
-220,869	800,000	0,007	-0,021
-219,855	-63,019	0,017	-0,005
-218,840	86,650	-0,040	0,032
-217,825	691,772	-0,053	0,102
-216,811	484,009	0,054	-0,090
-215,796	57,566	-0,156	-0,111
-214,782	5,350	-0,027	-0,014
-213,767	-113,822	0,130	0,018
-212,752	-200,000	-0,001	0,060
-211,738	-117,050	0,074	0,010
-210,723	-89,299	0,017	-0,004
-209,709	800,000	-0,052	0,106
-208,694	566,305	-0,024	0,042
-207,679	-13,269	0,153	-0,072
-206,665	18,748	0,017	0,010
-205,650	-98,730	0,039	0,007
-204,636	286,574	0,131	0,173
-203,621	-200,000	-0,005	-0,031
-202,606	-97,970	0,064	-0,012
-201,592	-200,000	0,028	0,100
-200,577	305,248	-0,055	-0,074
-199,563	720,379	0,040	0,079
-198,548	150,597	0,058	0,057
-197,533	800,000	0,008	0,016
-196,519	-200,000	0,032	-0,122
-195,504	-85,117	-0,144	-0,033
-194,490	106,790	0,070	-0,061
-193,475	161,134	-0,056	-0,057
-192,460	76,600	-0,114	0,088
-191,446	-200,000	0,007	-0,026
-190,431	351,193	0,059	-0,085
-189,417	-200,000	0,047	-0,177
-188,402	323,414	0,044	-0,062
-187,387	-200,000	-0,016	-0,140
-186,373	-200,000	-0,028	0,116
-185,358	-62,985	-0,060	0,018
-184,344	-200,000	-0,026	-0,110
-183,329	-168,389	0,103	-0,003
-182,315	122,168	0,104	0,095
-181,300	128,837	-0,043	-0,040
-180,285	126,951	-0,031	-0,029
-179,271	-71,015	-0,064	0,017
-178,256	-11,325	0,128	0,061
-177,242	-148,397	-0,037	-0,002
-176,227	53,612	0,081	0,057
-175,212	-108,952	-0,009	0,001
-174,198	311,662	-0,050	0,068
-173,183	529,879	-0,084	-0,145
-172,169	-200,000	-0,008	-0,041
-171,154	-200,000	-0,003	-0,032
-170,139	-176,695	0,125	0,002
-169,125	-167,093	0,201	-0,006
-168,110	800,000	0,029	-0,087
-167,096	596,378	-0,047	0,086
-166,081	-69,597	0,084	0,023
-165,066	143,033	0,102	-0,099
-164,052	365,536	-0,010	0,015
-163,037	-58,157	-0,065	-0,021
-162,023	-200,000	-0,006	0,028
-161,008	-200,000	0,024	0,115
-159,993	656,519	-0,029	0,055
-158,979	-200,000	-0,026	-0,108
-157,964	-82,240	-0,131	-0,031
-156,950	30,057	-0,059	-0,037
-155,935	-78,495	-0,064	0,016
-154,920	-200,000	-0,024	-0,078
-153,906	236,990	-0,090	0,109
-152,891	-200,000	0,025	0,095
-151,877	228,300	-0,060	-0,071
-150,862	800,000	-0,016	-0,035
-149,847	-68,986	0,138	0,039
-148,833	311,961	0,022	-0,031
-147,818	54,007	-0,087	-0,061
-146,804	11,730	0,118	0,066
-145,789	-200,000	0,048	0,159
-144,775	-70,713	0,136	-0,037
-143,760	260,412	0,025	-0,032
-142,745	23,048	0,028	-0,017
-141,731	145,755	0,065	0,064
-140,716	-200,000	0,003	0,056
-139,702	38,880	0,106	0,068
-138,687	254,839	0,045	0,056
-137,672	-200,000	-0,030	0,103
-136,658	-8,442	-0,100	-0,049
-135,643	-98,329	0,071	-0,013
-134,629	-200,000	0,027	0,165
-133,614	5,278	0,049	0,026
-132,599	228,201	-0,061	0,073
-131,585	64,711	-0,144	0,105
-130,570	-200,000	0,022	0,072
-129,556	-200,000	-0,000	0,071
-128,541	-41,539	-0,111	0,041
-127,526	170,623	0,028	0,030
-126,512	314,644	0,044	0,060
-125,497	-47,926	0,053	0,019
-124,483	-53,092	0,100	-0,033
-123,468	48,508	0,051	-0,035
-122,453	-18,155	-0,095	-0,043
-121,439	-149,071	-0,132	0,008
-120,424	302,484	-0,038	0,051
-119,410	-75,677	-0,132	-0,034
-118,395	-200,000	0,018	0,083
-117,380	297,478	-0,057	0,077
-116,366	-154,784	-0,096	0,005
-115,351	222,595	-0,041	-0,049
-114,337	800,000	0,028	-0,075
-113,322	-20,672	0,044	0,020
-112,307	-50,854	0,011	0,004
-111,293	-126,678	-0,058	-0,006
-110,278	-143,205	-0,053	0,004
-109,264	-84,974	0,039	-0,009
-108,249	-10,277	-0,033	-0,016
-107,234	-200,000	0,019	-0,074
-106,220	-167,495	0,102	0,003
-105,205	467,905	0,030	0,050
-104,191	70,991	0,076	-0,057
-103,176	800,000	-0,008	0,016
-102,162	45,636	0,136	-0,091
-101,147	109,433	-0,065	-0,056
-100,132	-72,388	0,078	-0,021
-99,118	288,847	0,009	-0,012
-98,103	-200,000	0,003	-0,011
-97,089	-55,790	0,115	0,037
-96,074	-200,000	-0,001	-0,024
-95,059	-200,000	0,019	0,083
-94,045	1,091	-0,121	-0,063
-93,030	-200,000	-0,007	-0,170
-92,016	800,000	-0,038	0,080
-91,001	79,961	-0,102	0,080
-89,986	208,271	0,103	0,117
-88,972	-200,000	-0,019	0,107
-87,957	-200,000	0,010	0,078
-86,943	583,795	-0,047	0,083
-85,928	800,000	0,024	0,075
-84,913	-28,051	-0,036	-0,015
-83,899	-200,000	-0,000	0,014
-82,884	87,043	0,151	-0,121
-81,870	-110,005	0,077	0,012
-80,855	-200,000	0,006	0,032
-79,840	-111,595	0,147	0,021
-78,826	-200,000	0,008	-0,048
-77,811	-200,000	-0,010	0,148
-76,797	53,636	0,086	0,060
-75,782	-20,549	0,163	0,072
-74,767	-80,781	0,160	0,038
-73,753	-200,000	0,026	0,119
-72,738	-200,000	-0,017	-0,099
-71,724	40,134	-0,052	-0,034
-70,709	-31,583	-0,137	0,056
-69,694	-27,728	0,079	0,033
-68,680	-143,863	0,106	0,007
-67,665	66,874	0,093	0,068
-66,651	-94,543	-0,037	0,007
-65,636	-87,119	-0,103	0,023
-64,622	242,542	-0,050	-0,061
-63,607	158,246	-0,016	-0,016
-62,592	40,806	-0,027	0,018
-61,578	-200,000	-0,033	0,127
-60,563	-200,000	-0,032	0,159
-59,549	800,000	0,028	0,082
-58,534	-84,767	-1,373	-0,310
-57,519	548,854	-0,767	-1,337
-56,505	-200,000	-1,033	-4,655
-55,490	-48,584	0,581	-0,202
-54,476	800,000	5,129	12,136
-53,461	-200,000	15,011	263,454
-52,446	800,000	695,819	2222,318
-51,432	570,599	1618,354	2865,586
-50,417	121,174	1628,792	1469,399
-49,403	82,223	1284,850	1008,903
-48,388	38,034	1024,204	658,776
-47,373	22,661	984,486	582,556
-46,359	21,684	973,774	572,980
-45,344	20,292	969,484	565,871
-44,330	20,322	967,894	565,017
-43,315	20,103	966,578	563,511
-42,300	20,060	965,601	562,779
-41,286	20,093	964,598	562,280
-40,271	20,072	963,492	561,543
-39,257	20,095	962,680	561,124
-38,242	20,054	961,808	560,459
-37,227	20,050	960,987	559,946
-36,213	20,025	960,061	559,304
-35,198	19,989	959,197	558,660
-34,184	20,107	958,460	558,591
-33,169	20,006	957,502	557,684
-32,154	20,055	956,734	557,374
-31,140	20,088	955,753	556,886
-30,125	20,067	955,106	556,421
-29,111	20,023	954,199	555,728
-28,096	20,065	953,504	555,435
-27,082	19,971	952,999	554,817
-26,067	20,027	951,832	554,296
-25,052	20,007	951,250	553,872
-24,038	20,040	950,578	553,563
-23,023	20,036	949,922	553,145
-22,009	20,070	949,339	552,894
-20,994	20,105	948,594	552,550
-19,979	20,038	948,167	552,065
-18,965	20,031	947,340	551,539
-17,950	20,036	946,814	551,225
-16,936	19,969	946,211	550,641
-15,921	19,956	945,491	550,158
-14,906	19,887	944,896	549,569
-13,892	19,914	944,090	549,165
-12,877	19,894	943,589	548,786
-11,863	19,898	942,804	548,323
-10,848	19,946	942,347	548,188
-9,833	20,000	941,963	548,112
-8,819	19,978	941,448	547,721
-7,804	19,960	940,630	547,167
-6,790	19,899	940,165	546,680
-5,775	19,982	939,483	546,528
-4,760	19,930	938,827	545,958
-3,746	19,897	938,177	545,455
-2,731	19,725	937,654	544,584
-1,717	19,792	936,755	544,250
-0,702	19,742	936,149	543,718
0,313	19,526	935,534	543,499
1,327	22,651	933,637	552,210
2,342	31,947	794,676	494,778
3,356	29,255	450,507	276,411
4,371	-1,162	295,395	150,677
5,386	-5,295	276,540	137,108
6,400	-6,858	270,755	132,768
7,415	-7,444	268,552	131,132
8,429	-6,813	267,122	131,004
9,444	-6,970	266,359	130,474
10,459	-6,926	265,898	130,278
11,473	-7,064	265,294	129,843
12,488	-7,191	264,666	129,408
13,502	-6,934	264,134	129,371
14,517	-6,998	263,788	129,132
15,531	-6,947	263,480	129,016
16,546	-7,004	263,213	128,821
17,561	-6,856	262,672	128,680
18,575	-6,844	262,494	128,592
19,590	-6,851	262,087	128,374
20,604	-6,763	261,733	128,269
21,619	-6,823	261,507	128,092
22,634	-6,790	261,199	127,961
23,648	-6,894	260,903	127,710
24,663	-6,693	260,465	127,665
25,677	-6,843	260,262	127,420
26,692	-6,860	260,013	127,271
27,707	-6,730	259,826	127,285
28,721	-6,856	259,595	127,048
29,736	-6,825	259,312	126,925
30,750	-6,825	259,115	126,817
31,765	-6,875	258,787	126,601
32,780	-6,876	258,637	126,515
33,794	-6,859	258,281	126,345
34,809	-6,585	257,990	126,434
35,823	-6,892	257,928	126,121
36,838	-6,949	257,729	125,961
37,853	-6,973	257,445	125,790
38,867	-6,657	257,096	125,888
39,882	-6,930	256,941	125,559
40,896	-7,055	256,723	125,332
41,911	-6,903	256,563	125,376
42,926	-6,840	256,244	125,264
43,940	-6,889	255,875	125,031
44,955	-6,978	255,782	124,895
45,969	-7,075	255,565	124,693
46,984	-7,233	255,411	124,468
47,999	-7,344	255,145	124,230
49,013	-7,303	254,768	124,071
50,028	-7,440	254,605	123,860
51,042	-7,722	254,376	123,491
52,057	-7,700	254,200	123,414
53,071	-7,512	253,803	123,374
54,086	-7,789	253,833	123,136
55,101	-7,318	253,580	123,414
56,115	-7,316	253,458	123,345
57,130	-6,900	253,228	123,584
58,144	-6,637	253,118	123,748
59,159	-6,702	252,897	123,572
60,174	-6,800	252,867	123,461
61,188	-6,742	252,499	123,321
62,203	-6,809	252,246	123,128
63,217	-6,896	252,267	123,053
64,232	-6,773	251,915	122,976
65,247	-6,706	251,650	122,893
66,261	-6,862	251,420	122,636
67,276	-6,973	251,260	122,451
68,290	-7,123	250,857	122,115
69,305	-7,544	250,738	121,683
70,320	-7,359	250,655	121,791
71,334	-7,147	250,558	121,916
72,349	-6,707	250,259	122,137
73,363	-6,861	250,129	121,931
74,378	-6,667	249,657	121,855
75,393	-6,922	249,694	121,644
76,407	-6,993	249,489	121,474
77,422	-6,856	249,085	121,383
78,436	-6,832	249,078	121,388
79,451	-6,945	248,814	121,153
80,466	-6,864	248,449	121,033
81,480	-7,067	248,368	120,810
82,495	-7,056	248,031	120,645
83,509	-7,105	248,037	120,595
84,524	-7,020	247,740	120,513
85,539	-7,256	247,569	120,218
86,553	-7,299	247,429	120,104
87,568	-7,173	247,259	120,116
88,582	-7,097	247,084	120,085
89,597	-7,174	246,819	119,881
90,611	-7,071	246,673	119,886
91,626	-6,986	246,544	119,885
92,641	-6,757	246,360	119,977
93,655	-6,766	246,092	119,828
94,670	-6,929	245,943	119,609
95,684	-6,990	245,896	119,524
96,699	-6,952	245,435	119,321
97,714	-7,056	245,278	119,146
98,728	-7,298	245,269	118,928
99,743	-7,214	244,933	118,825
100,757	-7,180	244,761	118,759
101,772	-7,126	244,458	118,647
102,787	-7,185	244,405	118,562
103,801	-7,163	244,258	118,498
104,816	-7,015	244,184	118,575
105,830	-6,949	244,000	118,531
106,845	-6,829	243,728	118,487
107,860	-6,780	243,537	118,425
108,874	-6,979	243,388	118,176
109,889	-7,022	243,102	117,991
110,903	-7,064	242,892	117,844
111,918	-7,200	242,783	117,668
112,933	-7,061	242,614	117,691
113,947	-7,094	242,486	117,590
114,962	-7,120	242,371	117,503
115,976	-7,089	242,202	117,436
116,991	-7,050	242,023	117,371
118,006	-6,974	241,825	117,327
119,020	-6,926	241,659	117,275
120,035	-6,916	241,552	117,222
121,049	-6,671	241,329	117,306
122,064	-6,942	241,283	117,049
123,079	-7,080	240,932	116,754
124,093	-7,057	240,799	116,699
125,108	-7,156	240,465	116,445
126,122	-7,312	240,353	116,252
127,137	-7,309	240,129	116,136
128,151	-7,276	239,987	116,084
129,166	-7,270	239,768	115,973
130,181	-7,309	239,611	115,854
131,195	-7,305	239,478	115,783
132,210	-7,010	239,278	115,917
133,224	-7,029	239,326	115,914
134,239	-7,137	239,168	115,739
135,254	-6,920	238,705	115,682
136,268	-7,209	238,590	115,380
137,283	-7,346	238,408	115,171
138,297	-7,346	238,188	115,054
139,312	-7,393	237,922	114,877
140,327	-7,131	237,905	115,071
141,341	-6,855	237,925	115,295
142,356	-6,667	237,692	115,325
143,370	-6,606	237,603	115,321
144,385	-6,662	237,279	115,107
145,400	-6,795	237,172	114,938
146,414	-6,657	237,014	114,962
147,429	-6,827	236,824	114,722
148,443	-6,756	236,713	114,716
149,458	-6,954	236,480	114,433
150,473	-6,775	236,366	114,512
151,487	-6,840	236,156	114,348
152,502	-6,857	236,024	114,260
153,516	-6,585	235,707	114,314
154,531	-6,739	235,565	114,112
155,546	-6,750	235,568	114,095
156,560	-6,762	235,325	113,957
157,575	-6,984	235,207	113,712
158,589	-6,816	234,845	113,661
159,604	-6,721	234,716	113,665
160,619	-6,606	234,690	113,734
161,633	-6,663	234,570	113,619
162,648	-6,735	234,439	113,488
163,662	-6,679	234,144	113,381
164,677	-6,862	233,893	113,103
165,692	-6,756	233,836	113,149
166,706	-6,574	233,783	113,258
167,721	-6,548	233,506	113,135
168,735	-6,511	233,434	113,120
169,750	-6,638	233,307	112,947
170,764	-6,797	233,226	112,772
171,779	-6,864	232,931	112,566
172,794	-6,602	232,852	112,725
173,808	-6,778	232,547	112,429
174,823	-6,992	232,178	112,071
175,837	-7,273	232,181	111,840
176,852	-6,874	231,999	112,058
177,867	-6,715	231,813	112,083
178,881	-6,716	231,883	112,107
179,896	-6,761	231,838	112,039
180,910	-6,813	231,562	111,855
181,925	-6,661	231,517	111,942
182,940	-6,431	231,310	112,014
183,954	-6,693	231,073	111,683
184,969	-6,560	230,993	111,739
185,983	-6,549	230,752	111,621
186,998	-6,635	230,658	111,498
188,013	-6,513	230,434	111,475
189,027	-6,567	230,305	111,360
190,042	-6,292	230,070	111,452
191,056	-6,397	229,987	111,319
192,071	-6,545	229,868	111,137
193,086	-6,778	229,665	110,848
194,100	-6,684	229,356	110,761
195,115	-7,014	229,107	110,374
196,129	-7,246	229,071	110,167
197,144	-3,350	230,175	113,730
198,159	0,877	231,545	117,708
199,173	4,205	232,226	120,653
200,188	4,591	232,277	120,970
201,202	4,554	232,155	120,867
202,217	4,516	232,105	120,801
203,232	4,892	231,939	120,997
204,246	4,972	231,756	120,954
205,261	4,865	231,674	120,816
206,275	4,946	231,608	120,834
207,290	5,112	231,311	120,798
208,304	4,948	231,353	120,681
209,319	5,032	231,054	120,580
210,334	4,922	230,863	120,384
211,348	4,821	230,560	120,137
212,363	4,413	230,315	119,682
213,377	4,191	230,087	119,381
214,392	4,134	230,083	119,324
215,407	4,421	229,738	119,357
216,421	4,547	229,611	119,377
217,436	4,086	229,489	118,947
218,450	4,095	229,229	118,809
219,465	4,051	229,040	118,667
220,480	4,028	228,910	118,571
221,494	4,105	228,766	118,545
222,509	4,071	228,912	118,584
223,523	4,023	228,698	118,425
224,538	4,178	228,477	118,420
225,553	4,122	228,422	118,337
226,567	4,209	228,300	118,330
227,582	4,593	228,095	118,508
228,596	4,543	227,973	118,396
229,611	4,328	227,820	118,141
230,626	4,234	227,487	117,886
231,640	4,244	227,349	117,811
232,655	4,437	227,371	117,960
233,669	4,786	227,206	118,131
234,684	4,822	227,256	118,174
235,699	4,812	226,964	118,003
236,713	4,312	226,890	117,573
237,728	4,201	226,498	117,275
238,742	4,159	226,485	117,226
239,757	4,175	226,269	117,116
240,772	4,083	226,175	116,987
241,786	3,977	226,102	116,858
242,801	4,491	225,812	117,088
243,815	4,821	225,682	117,260
244,830	4,575	225,768	117,107
245,844	4,324	225,371	116,702
246,859	4,271	225,318	116,624
247,874	4,376	225,256	116,660
248,888	4,605	224,974	116,677
249,903	4,235	224,790	116,292
250,917	4,111	224,742	116,163
251,932	4,285	224,591	116,206
252,947	4,227	224,320	116,012
253,961	4,347	224,165	116,011
254,976	4,078	224,204	115,819
255,990	4,458	224,062	116,021
257,005	4,463	223,795	115,876
258,020	4,566	223,762	115,926
259,034	4,607	223,624	115,875
260,049	4,500	223,474	115,706
261,063	4,405	223,215	115,491
262,078	4,580	223,184	115,595
263,093	4,656	222,988	115,541
264,107	4,445	222,852	115,302
265,122	4,318	222,922	115,233
266,136	4,659	222,538	115,279
267,151	4,802	222,505	115,358
268,166	4,314	222,230	114,842
269,180	4,072	221,981	114,523
270,195	4,167	221,821	114,500
271,209	4,201	221,671	114,439
272,224	4,029	221,585	114,256
273,239	4,088	221,553	114,273
274,253	4,062	221,314	114,120
275,268	4,111	221,132	114,053
276,282	3,975	220,983	113,865
277,297	3,768	220,745	113,579
278,312	4,023	220,686	113,727
279,326	4,175	220,685	113,828
280,341	4,030	220,491	113,611
281,355	4,097	220,421	113,615
282,370	4,214	220,200	113,577
283,384	3,981	220,063	113,324
284,399	3,685	219,953	113,040
285,414	4,216	219,673	113,276
286,428	3,945	219,768	113,116
287,443	4,278	219,584	113,256
288,457	4,338	219,330	113,158
289,472	4,266	219,300	113,080
290,487	3,776	218,989	112,551
291,501	3,644	218,788	112,341
292,516	3,702	218,865	112,413
293,530	3,996	218,505	112,433
294,545	3,737	218,548	112,256
295,560	3,867	218,378	112,253
296,574	4,180	218,313	112,438
297,589	4,065	218,159	112,265
298,603	4,204	217,949	112,248
299,618	4,232	217,833	112,199
300,633	4,314	217,658	112,159
301,647	4,461	217,681	112,267
302,662	4,244	217,575	112,044
303,676	4,475	217,305	112,063
304,691	4,419	217,090	111,902
305,706	4,597	217,010	111,980
306,720	4,657	216,839	111,925
307,735	4,257	216,703	111,555
308,749	4,188	216,596	111,440
309,764	4,269	216,558	111,469
310,779	4,754	216,283	111,668
311,793	4,430	216,199	111,381
312,808	4,466	215,915	111,251
313,822	4,543	215,932	111,305
314,837	4,268	215,683	110,969
315,852	3,982	215,629	110,725
316,866	4,144	215,475	110,753
317,881	4,280	215,444	110,825
318,895	4,425	215,233	110,810
319,910	4,040	215,210	110,512
320,925	4,041	214,709	110,246
321,939	3,864	214,662	110,085
322,954	3,869	214,675	110,085
323,968	4,170	214,568	110,236
324,983	4,265	214,334	110,174
325,997	4,327	214,207	110,143
327,012	4,143	214,100	109,947
328,027	4,337	213,969	110,009
329,041	4,525	213,935	110,115
330,056	4,609	213,851	110,122
331,070	4,222	213,621	109,718
332,085	3,960	213,336	109,376
333,100	4,102	213,285	109,441
334,114	4,250	213,176	109,480
335,129	4,252	212,924	109,343
336,143	4,440	212,802	109,403
337,158	3,982	212,686	109,010
338,173	3,814	212,636	108,855
339,187	4,043	212,461	108,918
340,202	3,809	212,254	108,636
341,216	3,709	212,138	108,497
342,231	4,083	211,970	108,665
343,246	3,907	211,898	108,495
344,260	4,073	211,729	108,515
345,275	4,056	211,714	108,486
346,289	4,330	211,543	108,582
347,304	4,445	211,351	108,555
348,319	4,123	211,375	108,330
349,333	4,093	211,077	108,147
350,348	4,198	211,060	108,202
351,362	4,422	210,912	108,274
352,377	4,181	210,781	108,028
353,392	4,236	210,655	107,992
354,406	4,407	210,516	108,032
355,421	194,308	1343,537	1431,481
356,435	155,122	1481,647	1431,552
