DTS Sentinel unit serial number:	SN410029Multiplexer serial number:	ORYXHardware model number:	OX2-SRSoftware version number:	ORYX F/W v4,00 Oryx Data Collector v3.7.2.0data status	okinstallation	B6 Nyhavnadifferential loss correction	single-endedforward channel	channel 2reverse channel	N/Adate	2023/12/09time	13:05:08forward acquisition time	300,00reverse acquisition time	0,00gamma	499,1914k internal	0,3137k external	0,3137temperature offset calibration	1,0000default loss term (dB/km)	0,3820temperature slope calibration	1,0000multiplexer offset coefficient	1,0000multiplexer slope coefficient	1,0000fibre end	0,00T internal ref (°C)	19,85T ext. ref 1 (°C)	4,68T ext. ref 2 (°C)	4,64length (m)	temperature (°C)	Stokes	anti-Stokes-744,400	800,000	0,004	0,012
-743,385	-51,067	-0,396	0,137
-742,371	-39,648	0,102	-0,039
-741,356	78,880	-0,178	0,142
-740,342	284,217	0,036	0,048
-739,327	-103,717	-0,213	0,037
-738,312	156,026	-0,063	-0,065
-737,298	-141,326	-0,317	-0,024
-736,283	7,663	0,066	-0,037
-735,269	74,275	-0,280	0,218
-734,254	-100,630	0,017	-0,003
-733,239	-72,182	-0,387	-0,106
-732,225	-47,542	0,041	-0,015
-731,210	800,000	0,053	0,130
-730,196	-200,000	0,024	0,112
-729,181	-140,498	-0,067	0,005
-728,167	-200,000	0,007	0,095
-727,152	278,896	0,024	0,031
-726,137	-15,072	-0,121	-0,057
-725,123	-200,000	0,009	-0,031
-724,108	-61,440	-0,017	0,005
-723,094	87,717	-0,094	-0,077
-722,079	-200,000	-0,004	-0,025
-721,064	135,423	-0,019	0,018
-720,050	24,759	0,048	0,030
-719,035	447,890	-0,084	-0,138
-718,021	-5,687	-0,139	-0,070
-717,006	-67,700	-0,156	-0,045
-715,991	614,952	-0,073	-0,136
-714,977	296,266	0,113	-0,154
-713,962	-200,000	-0,008	0,040
-712,948	800,000	0,021	0,048
-711,933	-200,000	-0,012	-0,092
-710,918	276,396	-0,013	-0,017
-709,904	800,000	0,034	-0,100
-708,889	800,000	0,046	0,143
-707,875	24,987	0,133	-0,082
-706,860	-200,000	-0,005	0,031
-705,845	-200,000	-0,013	-0,066
-704,831	122,195	-0,022	-0,020
-703,816	-100,334	0,084	-0,015
-702,802	174,157	0,021	0,023
-701,787	266,398	0,104	-0,135
-700,772	407,802	-0,125	-0,197
-699,758	-122,987	-0,121	0,014
-698,743	139,269	0,042	-0,041
-697,729	-200,000	-0,012	-0,075
-696,714	27,365	0,123	-0,076
-695,699	-32,453	-0,056	-0,023
-694,685	140,910	-0,068	-0,067
-693,670	-200,000	-0,001	-0,158
-692,656	-200,000	0,004	0,071
-691,641	800,000	0,049	0,110
-690,627	151,815	0,010	0,010
-689,612	70,752	-0,004	0,003
-688,597	-60,186	0,102	-0,032
-687,583	-200,000	0,006	0,059
-686,568	-59,829	0,113	-0,035
-685,554	-123,919	0,039	0,005
-684,539	83,288	-0,091	0,074
-683,524	-57,992	-0,078	-0,025
-682,510	177,575	0,039	-0,043
-681,495	-200,000	-0,021	-0,069
-680,481	-200,000	-0,031	-0,125
-679,466	495,935	0,010	-0,018
-678,451	-18,196	0,011	-0,005
-677,437	-121,383	-0,098	-0,012
-676,422	-29,623	-0,049	0,021
-675,408	-19,026	0,048	-0,022
-674,393	800,000	0,018	0,055
-673,378	707,965	-0,065	-0,128
-672,364	142,334	0,049	-0,048
-671,349	-200,000	0,014	0,049
-670,335	76,982	-0,114	0,089
-669,320	235,961	0,108	-0,132
-668,305	800,000	0,027	-0,078
-667,291	-200,000	0,047	-0,184
-666,276	-62,490	-0,092	0,028
-665,262	-100,651	-0,253	-0,046
-664,247	-102,358	0,121	-0,021
-663,232	800,000	-0,013	-0,037
-662,218	-200,000	0,001	0,191
-661,203	-111,090	-0,107	-0,016
-660,189	800,000	0,050	-0,106
-659,174	-200,000	0,001	-0,077
-658,159	668,964	-0,060	-0,115
-657,145	-176,786	-0,063	0,001
-656,130	11,096	0,062	-0,035
-655,116	800,000	0,028	0,082
-654,101	237,101	-0,048	-0,059
-653,086	108,783	-0,061	0,054
-652,072	-23,210	-0,118	-0,052
-651,057	-200,000	-0,021	-0,108
-650,043	-106,102	-0,101	-0,017
-649,028	-200,000	-0,016	-0,052
-648,014	247,605	0,044	-0,055
-646,999	308,658	0,053	0,073
-645,984	-200,000	-0,027	0,136
-644,970	-11,162	-0,085	-0,041
-643,955	491,782	0,058	-0,098
-642,941	57,367	-0,100	0,072
-641,926	22,676	0,033	-0,020
-640,911	-97,602	-0,071	-0,013
-639,897	579,214	0,049	0,089
-638,882	-200,000	0,003	-0,035
-637,868	-200,000	0,009	0,069
-636,853	-183,092	0,073	0,001
-635,838	-200,000	0,016	-0,072
-634,824	-200,000	-0,007	-0,109
-633,809	-93,132	0,156	0,032
-632,795	-200,000	0,004	0,058
-631,780	-157,763	-0,063	-0,003
-630,765	85,914	0,084	0,068
-629,751	-200,000	-0,037	-0,178
-628,736	89,364	-0,095	-0,078
-627,722	18,193	0,042	0,025
-626,707	-122,541	0,030	0,004
-625,692	388,907	-0,049	0,076
-624,678	106,662	0,112	0,099
-623,663	-200,000	-0,033	0,133
-622,649	143,049	-0,038	-0,037
-621,634	52,849	-0,073	0,052
-620,619	-110,584	0,088	0,013
-619,605	-38,978	-0,193	0,075
-618,590	739,801	0,035	0,069
-617,576	-67,632	0,108	0,031
-616,561	-200,000	-0,004	0,028
-615,546	-35,762	-0,053	0,021
-614,532	158,539	0,154	-0,158
-613,517	-41,517	0,053	-0,020
-612,503	325,836	-0,043	0,060
-611,488	-40,684	0,010	0,004
-610,474	-109,536	-0,145	-0,022
-609,459	87,496	-0,016	-0,013
-608,444	-200,000	-0,019	-0,096
-607,430	-58,189	-0,062	-0,020
-606,415	800,000	0,064	-0,173
-605,401	645,089	-0,081	-0,154
-604,386	800,000	0,022	0,069
-603,371	293,043	-0,035	0,047
-602,357	800,000	-0,049	-0,111
-601,342	413,527	-0,042	-0,067
-600,328	-89,508	-0,174	-0,038
-599,313	-200,000	-0,008	0,170
-598,298	34,375	-0,156	-0,100
-597,284	-46,777	0,058	0,021
-596,269	229,714	-0,096	-0,116
-595,255	305,399	0,071	0,097
-594,240	526,753	0,038	0,066
-593,225	17,722	0,065	-0,038
-592,211	-151,996	-0,077	0,004
-591,196	61,854	0,123	0,091
-590,182	800,000	0,023	-0,061
-589,167	148,423	-0,005	0,005
-588,152	12,272	0,133	-0,075
-587,138	-70,658	-0,201	-0,056
-586,123	-40,361	0,037	-0,014
-585,109	-9,164	-0,198	0,097
-584,094	800,000	0,058	-0,138
-583,079	-68,243	-0,072	0,020
-582,065	250,489	0,078	0,098
-581,050	139,467	0,067	0,065
-580,036	448,359	-0,043	-0,070
-579,021	65,260	0,053	-0,040
-578,006	-65,081	0,159	0,047
-576,992	-92,708	-0,089	-0,018
-575,977	-20,196	0,071	-0,032
-574,963	-133,193	-0,018	0,002
-573,948	712,595	0,044	0,086
-572,934	800,000	-0,016	-0,040
-571,919	52,182	-0,132	0,093
-570,904	396,830	-0,075	-0,115
-569,890	-200,000	0,036	-0,143
-568,875	102,315	0,058	0,050
-567,861	-200,000	0,011	0,057
-566,846	-192,163	0,077	0,001
-565,831	546,275	0,059	0,104
-564,817	-121,815	-0,102	-0,012
-563,802	18,035	-0,033	0,020
-562,788	206,166	0,023	-0,027
-561,773	-200,000	-0,018	0,113
-560,758	113,524	0,099	0,089
-559,744	-110,970	0,120	0,018
-558,729	-200,000	-0,009	0,052
-557,715	-200,000	0,008	0,062
-556,700	-24,261	-0,158	-0,069
-555,685	524,158	-0,019	0,034
-554,671	-200,000	-0,003	-0,093
-553,656	-156,354	0,108	-0,005
-552,642	-72,650	0,172	-0,046
-551,627	-200,000	-0,007	0,048
-550,612	-8,682	-0,136	-0,067
-549,598	800,000	0,013	0,038
-548,583	-200,000	0,049	-0,168
-547,569	800,000	-0,028	-0,063
-546,554	-11,065	0,126	0,061
-545,539	265,048	0,031	-0,040
-544,525	105,071	0,045	0,039
-543,510	0,981	0,082	-0,043
-542,496	299,972	-0,120	-0,163
-541,481	73,534	-0,059	-0,045
-540,466	-60,207	-0,096	0,030
-539,452	-200,000	0,029	-0,127
-538,437	-41,564	-0,084	-0,032
-537,423	-17,169	-0,036	0,017
-536,408	-93,817	0,061	0,012
-535,393	-81,990	-0,062	-0,015
-534,379	-200,000	0,010	-0,055
-533,364	21,651	0,058	-0,035
-532,350	44,770	0,151	0,102
-531,335	-104,915	-0,126	-0,021
-530,321	154,602	0,086	-0,087
-529,306	489,577	0,034	0,058
-528,291	-45,674	-0,092	0,033
-527,277	-124,710	0,044	-0,005
-526,262	-82,620	0,117	0,028
-525,248	118,996	-0,104	-0,095
-524,233	49,045	0,124	-0,086
-523,218	-12,336	0,042	0,020
-522,204	30,807	-0,070	0,044
-521,189	-117,830	-0,090	0,012
-520,175	277,620	-0,044	-0,058
-519,160	-129,155	-0,145	-0,015
-518,145	-63,424	-0,119	0,036
-517,131	34,628	0,040	-0,026
-516,116	800,000	-0,038	-0,083
-515,102	405,092	0,018	-0,028
-514,087	-157,847	-0,094	-0,004
-513,072	-27,987	-0,023	-0,010
-512,058	-93,735	0,012	-0,002
-511,043	555,516	-0,094	0,167
-510,029	32,031	-0,093	0,059
-509,014	800,000	-0,021	-0,060
-507,999	-67,132	-0,181	-0,052
-506,985	-200,000	-0,002	-0,044
-505,970	-88,515	-0,136	0,030
-504,956	106,949	0,106	0,093
-503,941	120,977	-0,030	-0,028
-502,926	447,534	0,082	0,134
-501,912	160,554	0,073	0,075
-500,897	-139,991	-0,074	0,006
-499,883	-23,791	0,113	-0,049
-498,868	-103,755	-0,105	0,018
-497,853	-31,120	-0,196	-0,081
-496,839	-15,085	-0,049	0,023
-495,824	-27,576	0,022	-0,009
-494,810	34,389	0,074	0,047
-493,795	-200,000	0,005	0,071
-492,781	-48,647	-0,145	-0,051
-491,766	-200,000	0,000	-0,056
-490,751	-200,000	-0,006	-0,103
-489,737	308,647	-0,025	-0,034
-488,722	-29,034	0,102	0,043
-487,708	104,653	-0,062	-0,053
-486,693	800,000	-0,040	-0,113
-485,678	761,605	0,058	-0,117
-484,664	-66,367	-0,059	0,017
-483,649	-200,000	0,003	-0,016
-482,635	-200,000	-0,006	-0,094
-481,620	-76,877	0,086	0,022
-480,605	147,524	-0,054	-0,054
-479,591	-66,937	-0,079	-0,023
-478,576	161,838	-0,066	-0,068
-477,562	78,557	-0,091	-0,071
-476,547	-200,000	-0,005	-0,023
-475,532	93,589	-0,042	0,035
-474,518	344,243	-0,039	-0,057
-473,503	42,725	-0,125	-0,083
-472,489	-194,044	-0,104	0,001
-471,474	800,000	-0,019	0,042
-470,459	800,000	-0,018	-0,044
-469,445	-41,238	-0,192	-0,072
-468,430	-156,699	-0,030	-0,001
-467,416	265,739	-0,046	0,059
-466,401	109,446	-0,068	0,059
-465,386	-200,000	0,017	0,114
-464,372	-44,316	-0,192	-0,070
-463,357	-200,000	0,011	-0,050
-462,343	-200,000	0,020	-0,116
-461,328	-200,000	0,000	-0,126
-460,313	10,239	0,105	-0,058
-459,299	85,578	-0,016	0,013
-458,284	118,564	0,044	0,039
-457,270	448,166	0,038	0,061
-456,255	124,537	-0,065	-0,060
-455,241	89,759	-0,023	0,019
-454,226	-78,827	0,143	-0,035
-453,211	554,416	-0,058	0,104
-452,197	-83,308	-0,037	0,009
-451,182	70,586	0,098	-0,074
-450,168	-97,473	-0,160	0,030
-449,153	533,086	0,023	-0,040
-448,138	-200,000	-0,008	-0,079
-447,124	337,885	0,069	0,098
-446,109	80,960	-0,103	0,081
-445,095	25,720	0,052	0,032
-444,080	623,394	0,038	0,070
-443,065	-14,692	0,120	0,056
-442,051	-7,504	-0,128	0,063
-441,036	11,504	-0,087	-0,048
-440,022	380,480	-0,097	-0,146
-439,007	-6,075	0,074	-0,037
-437,992	172,714	-0,035	0,037
-436,978	224,695	0,083	0,099
-435,963	62,871	0,017	-0,012
-434,949	238,222	0,076	-0,092
-433,934	123,920	0,035	-0,032
-432,919	-15,643	0,052	0,024
-431,905	-184,551	-0,040	-0,000
-430,890	-65,401	0,115	-0,034
-429,876	-158,879	0,036	0,001
-428,861	235,524	-0,053	0,064
-427,846	663,301	-0,015	0,029
-426,832	24,235	-0,121	-0,073
-425,817	-200,000	-0,006	-0,021
-424,803	187,908	0,156	-0,170
-423,788	-120,393	0,132	0,016
-422,773	79,072	0,142	0,111
-421,759	-25,178	-0,039	-0,017
-420,744	18,381	0,030	-0,017
-419,730	-200,000	0,015	-0,072
-418,715	627,190	-0,011	-0,020
-417,701	178,743	-0,053	-0,056
-416,686	800,000	0,037	0,086
-415,671	-200,000	0,054	0,175
-414,657	45,728	-0,066	-0,045
-413,642	-84,075	0,161	-0,037
-412,628	-27,047	-0,099	0,042
-411,613	-200,000	-0,002	-0,043
-410,598	201,099	0,061	-0,069
-409,584	-161,304	0,098	0,004
-408,569	-27,433	-0,113	0,048
-407,555	-63,357	-0,085	0,026
-406,540	800,000	-0,030	0,065
-405,525	800,000	-0,048	0,130
-404,511	800,000	-0,026	0,055
-403,496	800,000	0,021	0,051
-402,482	-200,000	-0,000	-0,002
-401,467	-200,000	-0,047	0,176
-400,452	-0,786	0,031	0,016
-399,438	800,000	0,037	-0,079
-398,423	-200,000	-0,042	0,180
-397,409	-94,375	0,114	-0,022
-396,394	-200,000	0,008	0,048
-395,379	-200,000	0,010	0,044
-394,365	156,850	-0,027	-0,027
-393,350	-107,029	0,136	0,022
-392,336	26,394	0,082	0,050
-391,321	-61,299	-0,078	-0,024
-390,306	-169,571	0,020	0,001
-389,292	83,125	0,048	-0,038
-388,277	-200,000	-0,029	-0,094
-387,263	-200,000	0,007	0,141
-386,248	-117,319	-0,120	-0,016
-385,233	-3,968	-0,094	0,047
-384,219	41,682	-0,055	0,036
-383,204	264,024	-0,049	-0,062
-382,190	-118,866	0,044	-0,006
-381,175	274,488	-0,026	0,034
-380,160	-133,340	0,051	0,005
-379,146	800,000	0,087	0,222
-378,131	-200,000	-0,001	0,030
-377,117	-188,630	-0,057	0,001
-376,102	-51,987	-0,105	0,036
-375,088	-200,000	0,002	-0,084
-374,073	27,463	-0,046	-0,028
-373,058	87,108	-0,055	-0,045
-372,044	100,292	-0,089	-0,075
-371,029	294,397	0,051	0,069
-370,015	578,399	0,065	0,117
-369,000	-200,000	0,018	-0,121
-367,985	140,211	-0,112	0,108
-366,971	195,019	0,087	-0,096
-365,956	69,039	-0,137	0,103
-364,942	-126,862	0,196	0,021
-363,927	645,516	-0,041	-0,076
-362,912	-30,947	0,067	-0,028
-361,898	-138,042	0,108	0,009
-360,883	-4,418	-0,077	-0,039
-359,869	167,906	-0,031	0,033
-358,854	123,103	-0,128	-0,117
-357,839	54,675	0,132	0,093
-356,825	84,106	0,132	0,105
-355,810	233,130	0,038	0,045
-354,796	67,038	0,067	0,050
-353,781	-152,449	-0,023	-0,001
-352,766	-111,867	0,017	-0,003
-351,752	-200,000	-0,001	0,157
-350,737	-179,840	0,214	-0,003
-349,723	-41,029	0,130	-0,049
-348,708	364,797	0,033	-0,049
-347,693	-200,000	-0,017	-0,154
-346,679	19,956	-0,101	-0,060
-345,664	-179,549	-0,083	0,001
-344,650	114,312	-0,069	0,061
-343,635	165,406	0,036	-0,037
-342,620	800,000	0,005	0,015
-341,606	-200,000	0,031	-0,149
-340,591	-200,000	-0,028	-0,090
-339,577	-7,158	-0,033	-0,017
-338,562	-200,000	0,004	0,055
-337,548	-0,075	0,038	0,020
-336,533	115,678	0,109	0,097
-335,518	517,731	0,034	-0,059
-334,504	-200,000	0,024	0,077
-333,489	-79,150	-0,065	-0,016
-332,475	-37,057	-0,060	-0,023
-331,460	-24,249	0,055	-0,024
-330,445	-121,296	-0,109	-0,013
-329,431	800,000	-0,036	-0,076
-328,416	96,855	0,057	0,048
-327,402	-140,905	-0,159	-0,012
-326,387	64,135	-0,060	-0,044
-325,372	741,935	0,011	0,022
-324,358	104,080	0,087	0,074
-323,343	-200,000	-0,015	0,058
-322,329	10,621	-0,036	0,020
-321,314	-200,000	0,003	0,061
-320,299	191,601	0,023	0,025
-319,285	6,704	-0,023	0,013
-318,270	800,000	0,018	-0,046
-317,256	787,869	-0,056	0,113
-316,241	800,000	0,031	0,074
-315,226	-21,744	0,109	0,048
-314,212	-200,000	-0,010	0,229
-313,197	-121,955	0,099	0,012
-312,183	-200,000	-0,006	0,062
-311,168	15,043	-0,051	0,029
-310,153	-130,124	0,103	0,010
-309,139	-200,000	0,005	0,056
-308,124	-200,000	-0,027	0,090
-307,110	800,000	0,043	0,131
-306,095	800,000	0,034	-0,078
-305,080	-116,269	-0,092	0,012
-304,066	54,676	-0,075	0,052
-303,051	-63,392	0,091	-0,027
-302,037	-42,209	0,117	-0,044
-301,022	-20,161	0,045	-0,020
-300,008	-200,000	0,028	-0,124
-298,993	44,345	0,092	-0,062
-297,978	-56,315	0,073	-0,023
-296,964	-200,000	-0,002	-0,036
-295,949	-200,000	-0,051	-0,183
-294,935	-200,000	-0,033	-0,116
-293,920	-70,901	0,076	0,021
-292,905	161,107	0,071	0,072
-291,891	-200,000	-0,018	0,058
-290,876	-175,679	-0,016	0,000
-289,862	-200,000	-0,009	-0,134
-288,847	10,738	0,021	0,011
-287,832	-200,000	-0,004	0,142
-286,818	35,527	0,114	-0,073
-285,803	458,334	0,021	-0,034
-284,789	-200,000	0,002	-0,057
-283,774	156,653	0,045	0,045
-282,759	-94,309	-0,055	0,011
-281,745	800,000	0,032	0,071
-280,730	408,318	0,047	-0,072
-279,716	72,436	-0,103	-0,078
-278,701	248,025	-0,031	0,039
-277,686	162,230	0,058	0,060
-276,672	653,492	0,064	-0,120
-275,657	-200,000	-0,015	-0,131
-274,643	-200,000	-0,039	-0,149
-273,628	-138,223	0,081	-0,006
-272,613	-200,000	-0,019	-0,090
-271,599	41,863	0,091	-0,060
-270,584	-119,520	-0,059	0,007
-269,570	-200,000	0,034	0,119
-268,555	42,945	-0,111	0,074
-267,540	207,038	0,030	-0,034
-266,526	361,187	0,035	-0,052
-265,511	-183,751	-0,078	0,001
-264,497	360,130	-0,026	0,038
-263,482	467,435	0,057	0,093
-262,467	-76,384	0,208	0,053
-261,453	13,331	-0,023	0,013
-260,438	394,032	0,006	-0,009
-259,424	800,000	-0,016	-0,049
-258,409	182,520	-0,016	-0,017
-257,395	291,760	0,026	0,035
-256,380	131,537	0,119	0,111
-255,365	-131,464	-0,110	0,010
-254,351	800,000	0,032	-0,088
-253,336	-42,140	-0,110	0,041
-252,322	10,000	0,084	0,046
-251,307	-200,000	-0,008	-0,027
-250,292	222,886	0,051	-0,060
-249,278	97,704	0,039	-0,033
-248,263	-13,708	0,163	0,077
-247,249	193,261	-0,053	0,059
-246,234	-200,000	-0,002	-0,083
-245,219	-200,000	-0,035	-0,118
-244,205	-81,493	0,073	-0,017
-243,190	-200,000	0,023	0,100
-242,176	-200,000	0,030	0,131
-241,161	19,199	0,081	0,047
-240,146	336,513	0,145	0,206
-239,132	169,575	-0,045	-0,047
-238,117	-200,000	-0,257	0,001
-237,103	800,000	-0,052	-0,117
-236,088	138,952	0,057	-0,054
-235,073	-156,482	0,161	-0,007
-234,059	17,216	0,151	-0,087
-233,044	-200,000	0,022	-0,079
-232,030	171,956	-0,081	0,085
-231,015	288,122	0,057	-0,075
-230,000	50,573	-0,036	0,025
-228,986	472,833	0,018	0,030
-227,971	-57,654	0,042	0,013
-226,957	2,532	-0,130	-0,068
-225,942	612,295	-0,051	0,093
-224,927	-68,818	-0,159	0,044
-223,913	800,000	0,050	0,113
-222,898	800,000	-0,029	0,080
-221,884	438,194	-0,023	0,036
-220,869	-121,766	0,129	0,015
-219,855	-200,000	-0,003	-0,056
-218,840	92,432	0,080	-0,066
-217,825	48,010	0,107	0,073
-216,811	37,007	-0,065	-0,042
-215,796	-142,602	-0,026	0,002
-214,782	-5,822	-0,117	-0,058
-213,767	-115,892	-0,165	-0,022
-212,752	-200,000	-0,001	-0,053
-211,738	21,134	-0,054	0,032
-210,723	119,393	-0,114	0,102
-209,709	-200,000	-0,010	-0,057
-208,694	247,323	0,061	-0,075
-207,679	128,117	0,076	0,070
-206,665	-120,552	-0,125	-0,015
-205,650	25,589	0,127	-0,076
-204,636	-1,029	0,144	-0,074
-203,621	13,329	-0,058	-0,033
-202,606	293,588	-0,080	0,106
-201,592	377,581	-0,047	-0,069
-200,577	-119,090	0,111	-0,014
-199,563	-62,640	0,093	0,028
-198,548	407,370	0,072	0,111
-197,533	-17,865	-0,076	0,035
-196,519	210,926	-0,038	0,043
-195,504	-103,323	0,185	-0,031
-194,490	-130,819	-0,072	0,007
-193,475	274,336	-0,133	-0,171
-192,460	-200,000	-0,000	-0,113
-191,446	0,223	0,062	0,032
-190,431	800,000	0,067	0,195
-189,417	-53,639	0,076	0,025
-188,402	505,825	-0,043	0,073
-187,387	-47,909	-0,150	-0,052
-186,373	-200,000	-0,002	0,011
-185,358	91,733	0,036	-0,029
-184,344	-200,000	0,046	0,186
-183,329	800,000	0,045	0,100
-182,315	-151,559	-0,076	-0,004
-181,300	44,314	0,104	0,069
-180,285	-107,144	0,063	-0,010
-179,271	-44,987	-0,073	-0,026
-178,256	-200,000	0,012	-0,054
-177,242	94,873	-0,096	-0,079
-176,227	-131,808	-0,132	0,012
-175,212	256,345	0,052	-0,065
-174,198	800,000	0,065	0,161
-173,183	-115,782	0,064	0,009
-172,169	-200,000	0,004	-0,036
-171,154	-130,668	-0,069	0,007
-170,139	357,368	0,038	-0,055
-169,125	800,000	0,048	0,135
-168,110	270,483	0,037	-0,048
-167,096	85,642	0,043	-0,034
-166,081	63,101	-0,088	0,064
-165,066	-200,000	0,027	-0,190
-164,052	-132,725	-0,137	-0,013
-163,037	-38,555	-0,025	0,010
-162,023	-200,000	0,038	0,163
-161,008	800,000	-0,015	-0,047
-159,993	11,091	-0,052	0,029
-158,979	-40,270	0,163	0,061
-157,964	-31,349	0,124	-0,050
-156,950	-22,110	-0,038	-0,017
-155,935	436,307	0,063	0,100
-154,920	2,416	0,019	-0,010
-153,906	320,148	0,057	-0,079
-152,891	-135,430	-0,117	-0,010
-151,877	-200,000	-0,036	0,137
-150,862	-200,000	-0,017	0,068
-149,847	-200,000	-0,017	-0,065
-148,833	800,000	-0,041	-0,110
-147,818	388,479	0,008	-0,011
-146,804	-37,690	-0,169	0,065
-145,789	-4,091	0,175	-0,088
-144,775	462,604	0,045	-0,073
-143,760	-170,417	0,093	-0,002
-142,745	-31,250	0,093	-0,038
-141,731	-200,000	0,043	-0,216
-140,716	259,106	0,047	-0,058
-139,702	-64,928	0,058	-0,017
-138,687	-156,273	-0,053	0,002
-137,672	-107,545	-0,087	-0,014
-136,658	199,345	0,087	-0,096
-135,643	800,000	-0,022	-0,055
-134,629	-200,000	-0,023	-0,089
-133,614	800,000	0,037	0,077
-132,599	577,308	-0,057	-0,102
-131,585	15,799	0,033	-0,019
-130,570	476,133	-0,032	0,052
-129,556	206,341	-0,093	-0,105
-128,541	9,862	-0,095	-0,052
-127,526	800,000	0,023	0,059
-126,512	800,000	-0,060	0,140
-125,497	31,035	0,151	0,093
-124,483	113,571	-0,118	-0,103
-123,468	-105,130	-0,165	0,027
-122,453	639,317	0,081	-0,151
-121,439	221,233	-0,084	-0,098
-120,424	57,982	0,051	0,036
-119,410	278,257	0,016	-0,020
-118,395	-84,972	0,102	-0,023
-117,380	235,071	-0,118	0,142
-116,366	-144,958	0,144	-0,009
-115,351	-200,000	-0,006	0,055
-114,337	74,850	0,058	0,044
-113,322	416,706	-0,050	-0,077
-112,307	800,000	0,051	-0,110
-111,293	-86,033	0,036	0,008
-110,278	362,809	0,099	0,144
-109,264	-191,596	-0,087	0,001
-108,249	-172,376	0,062	0,001
-107,234	-10,303	-0,048	0,023
-106,220	-200,000	-0,009	0,108
-105,205	800,000	-0,008	-0,027
-104,191	-200,000	0,021	-0,144
-103,176	-200,000	0,029	0,109
-102,162	651,554	-0,046	-0,086
-101,147	-200,000	0,002	-0,032
-100,132	800,000	-0,050	0,123
-99,118	102,459	0,027	0,023
-98,103	800,000	-0,025	-0,050
-97,089	152,065	0,061	0,060
-96,074	12,823	-0,062	-0,035
-95,059	-200,000	-0,005	-0,056
-94,045	27,000	0,074	-0,045
-93,030	160,661	-0,124	0,126
-92,016	265,941	0,033	-0,042
-91,001	-18,151	0,048	-0,022
-89,986	2,665	-0,076	-0,040
-88,972	61,507	-0,079	0,056
-87,957	86,456	0,064	0,051
-86,943	185,252	-0,055	-0,059
-85,928	-87,773	0,081	-0,018
-84,913	800,000	0,052	-0,166
-83,899	-85,282	-0,122	0,027
-82,884	745,756	0,032	-0,062
-81,870	-34,394	0,145	-0,057
-80,855	490,445	0,036	-0,060
-79,840	-26,076	0,101	-0,043
-78,826	170,133	-0,120	0,125
-77,811	-200,000	0,001	-0,115
-76,797	-10,040	-0,040	-0,019
-75,782	-200,000	-0,002	0,038
-74,767	-63,201	0,071	-0,021
-73,753	-200,000	-0,020	0,241
-72,738	800,000	0,002	-0,006
-71,724	800,000	-0,028	0,065
-70,709	-121,414	-0,060	0,007
-69,694	36,859	0,081	0,052
-68,680	-200,000	0,024	0,185
-67,665	0,453	0,056	-0,029
-66,651	-88,218	-0,061	0,013
-65,636	-109,134	-0,198	-0,030
-64,622	736,528	-0,084	0,164
-63,607	112,311	-0,090	-0,079
-62,592	-113,650	-0,118	0,016
-61,578	-200,000	-0,033	-0,199
-60,563	-200,000	-0,012	-0,097
-59,549	-200,000	-0,012	0,053
-58,534	-85,044	-1,722	-0,387
-57,519	513,301	-0,691	-1,169
-56,505	-200,000	-0,983	-4,686
-55,490	18,415	0,543	-0,312
-54,476	800,000	5,323	12,065
-53,461	-200,000	15,283	262,723
-52,446	800,000	700,417	2209,726
-51,432	552,027	1622,422	2825,507
-50,417	119,406	1628,529	1456,028
-49,403	78,413	1284,010	989,761
-48,388	37,270	1023,657	653,681
-47,373	22,337	984,201	579,407
-46,359	21,389	973,412	569,923
-45,344	20,125	968,925	563,147
-44,330	20,158	967,565	562,442
-43,315	19,917	966,124	560,795
-42,300	19,939	965,075	560,235
-41,286	19,899	964,061	559,494
-40,271	19,893	963,295	559,011
-39,257	19,932	962,337	558,558
-38,242	19,872	961,391	557,792
-37,227	19,885	960,695	557,407
-36,213	19,884	959,695	556,803
-35,198	19,870	958,829	556,232
-34,184	19,916	957,934	555,840
-33,169	19,861	957,146	555,182
-32,154	19,883	956,228	554,699
-31,140	19,963	955,238	554,362
-30,125	19,947	954,492	553,856
-29,111	19,937	953,751	553,371
-28,096	19,901	953,075	552,839
-27,082	19,918	952,391	552,476
-26,067	19,869	951,598	551,839
-25,052	19,807	951,063	551,305
-24,038	19,845	950,157	550,882
-23,023	19,832	949,545	550,462
-22,009	19,896	948,889	550,265
-20,994	19,917	948,245	549,936
-19,979	19,895	947,833	549,606
-18,965	19,886	947,068	549,113
-17,950	19,925	946,521	548,896
-16,936	19,875	945,819	548,310
-15,921	19,806	945,285	547,758
-14,906	19,739	944,504	547,070
-13,892	19,755	943,789	546,686
-12,877	19,731	943,333	546,324
-11,863	19,698	942,510	545,721
-10,848	19,745	942,152	545,640
-9,833	19,873	941,502	545,647
-8,819	19,897	940,952	545,384
-7,804	19,811	940,312	544,718
-6,790	19,769	939,896	544,324
-5,775	19,827	939,071	544,009
-4,760	19,806	938,522	543,600
-3,746	19,818	937,858	543,233
-2,731	19,628	937,061	542,149
-1,717	19,611	936,277	541,621
-0,702	19,631	935,482	541,203
0,313	19,394	935,070	541,033
1,327	22,320	933,417	549,234
2,342	31,310	794,173	491,159
3,356	28,856	450,709	275,030
4,371	-0,162	295,868	151,438
5,386	-4,403	277,115	137,793
6,400	-5,588	271,536	133,901
7,415	-5,936	269,239	132,434
8,429	-5,915	267,830	131,748
9,444	-6,037	267,060	131,246
10,459	-5,912	266,225	130,938
11,473	-6,129	265,687	130,463
12,488	-6,272	265,240	130,102
13,502	-6,438	264,586	129,619
14,517	-6,436	264,209	129,424
15,531	-6,509	263,656	129,076
16,546	-6,615	263,334	128,811
17,561	-6,595	262,986	128,647
18,575	-6,576	262,714	128,520
19,590	-6,889	262,440	128,092
20,604	-6,668	261,962	128,046
21,619	-6,637	261,593	127,883
22,634	-6,856	261,317	127,539
23,648	-6,721	261,039	127,513
24,663	-6,794	260,831	127,335
25,677	-6,723	260,515	127,233
26,692	-6,717	260,296	127,120
27,707	-6,755	259,951	126,907
28,721	-6,867	259,776	126,710
29,736	-6,783	259,435	126,608
30,750	-6,780	259,198	126,483
31,765	-6,860	258,892	126,251
32,780	-6,866	258,673	126,128
33,794	-6,891	258,529	126,024
34,809	-6,840	258,180	125,888
35,823	-6,850	257,957	125,759
36,838	-6,929	257,708	125,557
37,853	-6,890	257,551	125,503
38,867	-6,954	257,183	125,256
39,882	-6,849	256,951	125,225
40,896	-6,948	256,796	125,051
41,911	-7,068	256,646	124,861
42,926	-6,870	256,355	124,883
43,940	-7,012	256,137	124,640
44,955	-7,152	255,856	124,370
45,969	-7,229	255,780	124,254
46,984	-7,177	255,377	124,092
47,999	-7,509	255,010	123,613
49,013	-7,603	254,846	123,441
50,028	-7,613	254,520	123,263
51,042	-7,836	254,407	123,003
52,057	-7,773	254,061	122,880
53,071	-7,812	253,895	122,754
54,086	-7,660	253,854	122,855
55,101	-7,428	253,535	122,892
56,115	-7,334	253,625	123,006
57,130	-6,718	253,548	123,492
58,144	-6,439	253,346	123,626
59,159	-6,522	253,065	123,405
60,174	-6,306	252,918	123,510
61,188	-6,417	252,657	123,275
62,203	-6,663	252,441	122,946
63,217	-6,644	252,167	122,818
64,232	-6,706	251,982	122,663
65,247	-6,378	251,759	122,826
66,261	-6,693	251,702	122,517
67,276	-6,901	251,163	122,064
68,290	-7,238	251,028	121,698
69,305	-7,191	250,813	121,624
70,320	-7,203	250,554	121,477
71,334	-6,955	250,519	121,663
72,349	-6,605	250,358	121,872
73,363	-6,569	250,272	121,851
74,378	-6,485	249,983	121,771
75,393	-6,548	249,669	121,554
76,407	-6,714	249,477	121,307
77,422	-6,680	249,236	121,208
78,436	-6,691	249,102	121,123
79,451	-6,824	249,113	121,005
80,466	-6,871	248,704	120,755
81,480	-6,921	248,300	120,505
82,495	-7,030	248,228	120,367
83,509	-7,021	248,113	120,308
84,524	-7,060	247,830	120,127
85,539	-7,277	247,555	119,800
86,553	-7,209	247,484	119,812
87,568	-7,067	247,231	119,799
88,582	-7,248	247,227	119,634
89,597	-7,090	246,964	119,629
90,611	-7,024	246,757	119,574
91,626	-6,731	246,611	119,739
92,641	-6,692	246,526	119,720
93,655	-6,752	246,208	119,504
94,670	-6,786	245,974	119,351
95,684	-7,090	245,929	119,064
96,699	-6,975	245,819	119,097
97,714	-6,944	245,415	118,916
98,728	-7,118	245,266	118,688
99,743	-7,220	245,140	118,531
100,757	-7,233	244,786	118,338
101,772	-7,082	244,649	118,388
102,787	-7,100	244,519	118,299
103,801	-6,760	244,380	118,505
104,816	-6,909	244,356	118,358
105,830	-6,663	244,144	118,450
106,845	-6,636	244,056	118,419
107,860	-6,785	243,849	118,184
108,874	-6,763	243,519	118,032
109,889	-6,668	243,308	117,998
110,903	-6,796	243,017	117,740
111,918	-6,932	243,023	117,620
112,933	-6,746	242,706	117,610
113,947	-6,689	242,605	117,598
114,962	-6,714	242,436	117,485
115,976	-6,811	242,200	117,280
116,991	-6,841	242,046	117,170
118,006	-6,719	241,931	117,205
119,020	-6,607	241,737	117,192
120,035	-6,853	241,712	116,967
121,049	-6,789	241,600	116,955
122,064	-6,645	241,284	116,910
123,079	-6,859	241,222	116,694
124,093	-6,979	240,856	116,408
125,108	-7,236	240,611	116,068
126,122	-7,205	240,245	115,907
127,137	-7,372	240,223	115,750
128,151	-7,284	240,124	115,764
129,166	-7,097	239,903	115,799
130,181	-7,102	239,661	115,668
131,195	-7,274	239,498	115,439
132,210	-7,019	239,555	115,664
133,224	-6,871	239,301	115,652
134,239	-6,840	239,296	115,664
135,254	-6,592	238,963	115,694
136,268	-6,749	238,715	115,437
137,283	-6,993	238,295	115,025
138,297	-7,378	238,240	114,677
139,312	-7,369	238,090	114,602
140,327	-6,968	238,089	114,916
141,341	-6,456	238,012	115,283
142,356	-6,320	237,944	115,349
143,370	-6,343	237,560	115,134
144,385	-6,295	237,515	115,140
145,400	-6,369	237,442	115,035
146,414	-6,355	237,162	114,901
147,429	-6,417	236,949	114,738
148,443	-6,583	236,853	114,547
149,458	-6,338	236,696	114,658
150,473	-6,329	236,468	114,544
151,487	-6,315	236,338	114,483
152,502	-6,486	236,189	114,263
153,516	-6,542	236,129	114,179
154,531	-6,613	235,866	113,985
155,546	-6,465	235,598	113,964
156,560	-6,491	235,427	113,850
157,575	-6,556	235,259	113,706
158,589	-6,331	235,057	113,778
159,604	-6,370	234,951	113,685
160,619	-6,235	234,813	113,716
161,633	-6,085	234,574	113,710
162,648	-6,181	234,542	113,608
163,662	-6,306	234,285	113,374
164,677	-6,602	234,257	113,115
165,692	-6,398	234,010	113,148
166,706	-6,248	233,947	113,226
167,721	-6,286	233,707	113,070
168,735	-6,192	233,711	113,136
169,750	-6,376	233,539	112,897
170,764	-6,211	233,339	112,921
171,779	-6,231	233,104	112,781
172,794	-6,176	233,077	112,801
173,808	-6,293	232,648	112,491
174,823	-7,213	232,548	111,708
175,837	-7,146	232,319	111,641
176,852	-6,662	232,410	112,055
177,867	-6,375	232,164	112,153
178,881	-6,342	232,095	112,136
179,896	-6,383	232,009	112,052
180,910	-6,417	231,741	111,886
181,925	-6,336	231,678	111,909
182,940	-6,167	231,328	111,862
183,954	-6,138	231,471	111,944
184,969	-6,144	231,282	111,838
185,983	-6,310	230,970	111,547
186,998	-6,311	230,875	111,490
188,013	-6,088	230,664	111,553
189,027	-5,846	230,554	111,678
190,042	-5,836	230,323	111,565
191,056	-5,914	230,176	111,422
192,071	-5,931	230,013	111,320
193,086	-5,895	229,892	111,280
194,100	-5,887	229,883	111,272
195,115	-5,888	229,681	111,164
196,129	-6,332	229,514	110,728
197,144	-2,657	230,555	114,083
198,159	1,130	231,699	117,598
199,173	3,390	232,201	119,608
200,188	3,689	232,082	119,769
201,202	3,544	231,933	119,569
202,217	3,868	231,860	119,773
203,232	4,102	231,865	119,948
204,246	4,116	231,686	119,855
205,261	4,289	231,437	119,850
206,275	4,572	231,322	119,999
207,290	4,393	231,202	119,788
208,304	4,430	231,202	119,805
209,319	4,567	230,992	119,792
210,334	4,443	230,672	119,520
211,348	4,021	230,414	119,049
212,363	3,758	230,239	118,745
213,377	3,619	229,980	118,493
214,392	3,633	229,839	118,421
215,407	3,681	229,813	118,434
216,421	3,742	229,549	118,334
217,436	3,777	229,304	118,225
218,450	3,130	229,274	117,701
219,465	3,251	229,044	117,665
220,480	3,430	228,932	117,734
221,494	3,476	228,749	117,665
222,509	3,588	228,660	117,695
223,523	3,672	228,523	117,678
224,538	3,589	228,299	117,488
225,553	3,483	228,251	117,372
226,567	3,564	228,161	117,377
227,582	3,835	227,988	117,486
228,596	3,983	227,866	117,525
229,611	3,752	227,683	117,244
230,626	3,316	227,471	116,792
231,640	3,307	227,224	116,647
232,655	3,836	227,214	117,035
233,669	4,211	227,240	117,323
234,684	4,247	227,061	117,248
235,699	3,953	226,846	116,903
236,713	3,715	226,662	116,617
237,728	3,721	226,444	116,499
238,742	3,316	226,292	116,103
239,757	3,537	226,065	116,144
240,772	3,612	226,038	116,177
241,786	3,680	225,865	116,129
242,801	3,761	225,689	116,089
243,815	4,082	225,644	116,298
244,830	3,945	225,565	116,143
245,844	3,705	225,154	115,740
246,859	3,820	225,162	115,821
247,874	4,061	225,090	115,956
248,888	4,344	224,749	115,982
249,903	4,083	224,709	115,755
250,917	3,518	224,626	115,277
251,932	3,574	224,448	115,218
252,947	3,523	224,355	115,122
253,961	3,576	224,143	115,042
254,976	3,460	224,041	114,892
255,990	3,661	223,790	114,904
257,005	3,810	223,831	115,027
258,020	3,826	223,617	114,918
259,034	4,207	223,455	115,109
260,049	3,862	223,406	114,816
261,063	3,582	223,309	114,547
262,078	3,831	223,165	114,649
263,093	3,969	223,043	114,679
264,107	3,880	222,761	114,457
265,122	3,761	222,807	114,382
266,136	3,967	222,617	114,427
267,151	3,880	222,574	114,330
268,166	3,760	222,086	113,980
269,180	3,402	221,898	113,608
270,195	3,457	221,642	113,508
271,209	3,366	221,671	113,445
272,224	3,561	221,503	113,494
273,239	3,639	221,437	113,507
274,253	3,491	221,208	113,270
275,268	3,405	221,072	113,127
276,282	3,354	220,874	112,978
277,297	3,171	220,673	112,730
278,312	3,323	220,651	112,821
279,326	3,585	220,442	112,897
280,341	3,597	220,360	112,854
281,355	3,715	220,204	112,851
282,370	3,303	220,198	112,535
283,384	3,296	219,793	112,313
284,399	3,179	219,685	112,161
285,414	3,335	219,509	112,176
286,428	3,350	219,505	112,174
287,443	3,663	219,543	112,413
288,457	3,710	219,277	112,302
289,472	3,498	219,159	112,076
290,487	3,258	218,919	111,768
291,501	3,032	218,752	111,508
292,516	3,330	218,573	111,624
293,530	3,510	218,474	111,695
294,545	3,438	218,404	111,596
295,560	3,501	218,188	111,522
296,574	3,690	218,132	111,620
297,589	3,511	218,026	111,426
298,603	3,600	217,946	111,441
299,618	3,774	217,779	111,471
300,633	3,620	217,595	111,256
301,647	4,013	217,526	111,495
302,662	3,945	217,495	111,420
303,676	3,912	217,259	111,265
304,691	3,719	217,198	111,085
305,706	3,880	216,929	111,053
306,720	3,832	216,859	110,973
307,735	3,504	216,582	110,585
308,749	3,419	216,570	110,508
309,764	4,020	216,351	110,819
310,779	3,986	216,314	110,766
311,793	3,821	216,100	110,528
312,808	3,780	215,973	110,423
313,822	3,610	215,755	110,180
314,837	3,518	215,721	110,087
315,852	3,319	215,550	109,847
316,866	3,646	215,549	110,071
317,881	3,725	215,223	109,951
318,895	3,863	215,125	109,990
319,910	3,608	214,876	109,671
320,925	3,294	214,926	109,462
321,939	3,076	214,625	109,143
322,954	3,094	214,486	109,076
323,968	3,831	214,411	109,553
324,983	3,611	214,386	109,374
325,997	3,903	214,328	109,543
327,012	3,877	214,137	109,417
328,027	3,761	213,835	109,170
329,041	3,942	213,899	109,322
330,056	3,907	213,694	109,183
331,070	3,844	213,471	109,014
332,085	3,602	213,256	108,723
333,100	3,534	213,167	108,620
334,114	3,787	212,970	108,688
335,129	3,637	212,966	108,571
336,143	3,481	212,769	108,351
337,158	3,393	212,681	108,234
338,173	3,516	212,521	108,229
339,187	3,485	212,332	108,102
340,202	3,317	212,240	107,927
341,216	3,204	211,937	107,684
342,231	3,214	212,052	107,740
343,246	3,397	211,716	107,688
344,260	3,460	211,619	107,673
345,275	3,300	211,602	107,542
346,289	3,668	211,574	107,777
347,304	3,495	211,397	107,556
348,319	3,495	211,166	107,429
349,333	3,707	210,973	107,469
350,348	3,581	210,985	107,378
351,362	3,684	210,869	107,381
352,377	4,001	210,698	107,507
353,392	3,504	210,583	107,091
354,406	3,634	210,537	107,149
355,421	195,661	1341,597	1429,130
356,435	156,268	1479,463	1429,199
