DTS Sentinel unit serial number:	SN410029Multiplexer serial number:	ORYXHardware model number:	OX2-SRSoftware version number:	ORYX F/W v4,00 Oryx Data Collector v3.7.2.0data status	okinstallation	B6 Nyhavnadifferential loss correction	single-endedforward channel	channel 2reverse channel	N/Adate	2023/12/10time	12:10:08forward acquisition time	300,00reverse acquisition time	0,00gamma	499,1914k internal	0,3123k external	0,3123temperature offset calibration	1,0000default loss term (dB/km)	0,3820temperature slope calibration	1,0000multiplexer offset coefficient	1,0000multiplexer slope coefficient	1,0000fibre end	0,00T internal ref (°C)	22,75T ext. ref 1 (°C)	6,66T ext. ref 2 (°C)	6,68length (m)	temperature (°C)	Stokes	anti-Stokes-744,400	-173,696	0,161	0,003
-743,385	131,208	-0,225	0,215
-742,371	-3,386	0,110	0,057
-741,356	45,482	-0,277	0,190
-740,342	-155,986	0,105	0,005
-739,327	-48,364	-0,232	0,083
-738,312	-146,331	0,134	-0,009
-737,298	-101,037	-0,330	0,060
-736,283	-200,000	0,018	0,096
-735,269	42,029	-0,315	0,213
-734,254	91,128	0,151	-0,126
-733,239	-102,610	-0,531	-0,094
-732,225	-34,705	0,098	-0,040
-731,210	387,366	0,028	0,043
-730,196	-200,000	0,007	-0,092
-729,181	-120,554	-0,114	0,014
-728,167	-132,661	0,028	-0,003
-727,152	-200,000	-0,017	-0,072
-726,137	304,415	-0,038	-0,053
-725,123	-162,072	0,075	0,003
-724,108	186,054	-0,082	-0,091
-723,094	-85,425	-0,094	-0,022
-722,079	-200,000	0,043	-0,147
-721,064	-200,000	-0,001	-0,059
-720,050	334,776	0,079	-0,114
-719,035	-200,000	-0,008	-0,068
-718,021	436,894	-0,122	-0,199
-717,006	2,928	-0,177	0,096
-715,991	-200,000	-0,008	-0,027
-714,977	-35,126	-0,014	0,006
-713,962	-200,000	-0,002	-0,149
-712,948	-15,540	0,049	0,023
-711,933	83,036	-0,035	-0,028
-710,918	164,427	0,046	0,049
-709,904	114,730	-0,071	0,065
-708,889	-134,503	-0,179	-0,016
-707,875	95,880	-0,060	-0,051
-706,860	-104,627	0,059	-0,010
-705,845	758,294	0,061	-0,123
-704,831	-200,000	-0,008	-0,117
-703,816	298,894	0,009	-0,012
-702,802	-12,201	0,152	-0,074
-701,787	43,232	-0,221	-0,150
-700,772	-64,573	-0,128	-0,039
-699,758	800,000	0,018	-0,039
-698,743	-113,969	0,124	-0,018
-697,729	-200,000	-0,017	0,077
-696,714	463,145	0,094	0,156
-695,699	-200,000	-0,019	-0,072
-694,685	-200,000	0,011	-0,088
-693,670	-200,000	-0,071	0,000
-692,656	-11,564	-0,060	-0,029
-691,641	681,217	0,032	-0,062
-690,627	28,117	0,112	0,070
-689,612	-200,000	0,014	-0,079
-688,597	-145,104	-0,121	0,008
-687,583	-13,651	-0,081	-0,039
-686,568	-122,321	-0,167	0,020
-685,554	0,655	-0,030	-0,016
-684,539	-93,239	0,126	-0,026
-683,524	367,590	0,096	0,144
-682,510	105,512	-0,049	0,043
-681,495	140,210	-0,016	-0,016
-680,481	800,000	0,039	-0,088
-679,466	-200,000	-0,025	-0,116
-678,451	-74,186	0,179	-0,048
-677,437	631,842	0,009	0,016
-676,422	800,000	0,039	0,087
-675,408	238,325	-0,131	0,162
-674,393	152,563	0,037	0,038
-673,378	-82,224	0,131	0,031
-672,364	800,000	0,039	-0,082
-671,349	-200,000	0,022	-0,122
-670,335	29,096	0,078	0,049
-669,320	-156,098	0,112	-0,005
-668,305	-137,257	0,122	0,010
-667,291	800,000	-0,069	0,170
-666,276	121,509	-0,041	-0,038
-665,262	800,000	-0,030	0,082
-664,247	-200,000	-0,017	-0,119
-663,232	-73,203	0,035	-0,009
-662,218	642,174	0,076	0,145
-661,203	572,760	-0,030	0,055
-660,189	-200,000	-0,017	-0,073
-659,174	742,443	0,024	-0,048
-658,159	320,106	-0,013	0,018
-657,145	296,608	-0,069	-0,094
-656,130	46,844	0,020	-0,013
-655,116	230,778	0,100	0,122
-654,101	65,895	0,070	0,052
-653,086	-83,359	-0,077	-0,018
-652,072	621,682	-0,044	-0,083
-651,057	188,899	-0,023	-0,026
-650,043	800,000	-0,015	0,045
-649,028	79,281	-0,139	-0,110
-648,014	125,277	0,054	0,050
-646,999	-200,000	-0,003	0,195
-645,984	650,504	0,017	-0,032
-644,970	-57,602	0,116	0,038
-643,955	154,975	0,033	0,034
-642,941	80,352	0,055	-0,044
-641,926	63,782	-0,124	0,092
-640,911	-13,115	-0,086	0,042
-639,897	-200,000	-0,004	0,041
-638,882	240,262	0,084	0,104
-637,868	-136,403	0,098	0,008
-636,853	-68,237	-0,202	-0,058
-635,838	-86,750	-0,069	0,016
-634,824	800,000	-0,048	-0,129
-633,809	800,000	0,038	0,096
-632,795	665,225	0,058	0,111
-631,780	260,245	0,048	-0,061
-630,765	-27,500	0,029	-0,013
-629,751	800,000	0,054	-0,127
-628,736	800,000	0,045	-0,120
-627,722	-115,084	0,017	0,002
-626,707	-97,353	0,133	-0,026
-625,692	-200,000	-0,014	0,089
-624,678	-68,094	0,067	-0,019
-623,663	-200,000	-0,004	0,072
-622,649	102,951	-0,123	-0,106
-621,634	320,550	-0,076	-0,108
-620,619	155,077	0,067	-0,068
-619,605	-200,000	0,001	0,048
-618,590	325,112	-0,102	-0,145
-617,576	337,411	0,011	-0,016
-616,561	-39,291	-0,053	-0,020
-615,546	296,800	0,059	-0,081
-614,532	-200,000	0,003	-0,042
-613,517	46,072	-0,039	-0,027
-612,503	471,992	0,098	-0,164
-611,488	-145,837	0,056	-0,004
-610,474	-200,000	0,005	0,084
-609,459	-200,000	-0,021	0,141
-608,444	-200,000	-0,025	-0,091
-607,430	80,964	0,116	-0,093
-606,415	-200,000	0,012	-0,089
-605,401	-200,000	0,033	-0,123
-604,386	-11,501	-0,023	-0,011
-603,371	370,388	-0,011	-0,017
-602,357	-35,996	0,065	0,026
-601,342	-44,322	-0,053	0,019
-600,328	62,696	-0,042	-0,031
-599,313	-200,000	0,025	0,083
-598,298	44,337	-0,043	0,029
-597,284	77,668	0,075	0,059
-596,269	63,224	0,014	0,011
-595,255	-137,049	-0,082	-0,007
-594,240	13,228	-0,062	-0,035
-593,225	-16,324	-0,106	-0,050
-592,211	800,000	-0,005	0,013
-591,196	-92,626	0,116	0,024
-590,182	-200,000	0,032	0,164
-589,167	-200,000	-0,037	0,124
-588,152	-4,247	0,081	-0,041
-587,138	-200,000	-0,009	-0,108
-586,123	-200,000	-0,015	-0,149
-585,109	-114,146	0,045	-0,006
-584,094	-139,746	-0,116	-0,009
-583,079	69,836	0,011	-0,008
-582,065	407,586	0,078	0,123
-581,050	800,000	0,029	0,067
-580,036	-200,000	-0,023	0,089
-579,021	-54,121	-0,159	-0,053
-578,006	-39,179	-0,080	0,031
-576,992	426,682	-0,061	-0,097
-575,977	800,000	0,034	-0,081
-574,963	-50,812	-0,065	-0,023
-573,948	780,439	-0,014	-0,029
-572,934	800,000	-0,028	0,059
-571,919	-50,916	-0,079	0,027
-570,904	-200,000	0,011	-0,205
-569,890	765,040	-0,033	0,066
-568,875	66,680	-0,053	0,040
-567,861	75,038	0,059	0,046
-566,846	-118,782	-0,069	-0,009
-565,831	-200,000	-0,014	0,069
-564,817	483,156	-0,044	-0,074
-563,802	256,070	-0,018	-0,023
-562,788	800,000	-0,057	-0,142
-561,773	-200,000	0,016	-0,129
-560,758	147,863	-0,064	0,064
-559,744	-162,142	0,031	0,001
-558,729	-14,167	0,026	0,013
-557,715	25,036	-0,112	0,069
-556,700	-89,907	-0,087	-0,019
-555,685	96,089	-0,077	-0,065
-554,671	570,090	-0,081	0,147
-553,656	800,000	0,063	0,140
-552,642	-44,110	-0,103	-0,038
-551,627	15,436	0,162	-0,094
-550,612	211,309	-0,066	-0,077
-549,598	206,970	0,071	-0,082
-548,583	800,000	0,045	-0,104
-547,569	266,190	0,067	0,087
-546,554	251,108	-0,088	0,111
-545,539	-200,000	0,012	-0,043
-544,525	400,401	0,080	-0,125
-543,510	104,032	-0,044	-0,038
-542,496	-200,000	0,012	-0,068
-541,481	-200,000	-0,006	-0,124
-540,466	-200,000	0,009	0,054
-539,452	-200,000	0,009	-0,139
-538,437	128,317	-0,102	0,096
-537,423	-200,000	-0,000	0,041
-536,408	314,730	-0,005	0,007
-535,393	-44,925	-0,079	-0,029
-534,379	-200,000	-0,017	-0,243
-533,364	-10,953	-0,132	-0,064
-532,350	-70,854	0,066	-0,018
-531,335	-116,530	-0,038	0,005
-530,321	-11,634	0,074	0,036
-529,306	800,000	0,053	-0,128
-528,291	-47,773	-0,053	0,019
-527,277	-200,000	-0,163	-0,000
-526,262	517,735	0,016	-0,027
-525,248	50,851	0,021	-0,015
-524,233	-14,159	-0,122	0,058
-523,218	166,631	-0,079	0,083
-522,204	694,729	-0,044	0,086
-521,189	-200,000	0,014	-0,066
-520,175	11,011	-0,161	-0,091
-519,160	-113,443	-0,042	0,006
-518,145	359,476	0,046	-0,068
-517,131	-63,633	-0,119	-0,036
-516,116	-149,340	0,137	-0,008
-515,102	-99,586	-0,049	0,009
-514,087	-200,000	0,007	-0,108
-513,072	161,284	-0,041	0,043
-512,058	28,778	0,108	-0,067
-511,043	-59,757	-0,020	0,006
-510,029	-100,540	0,160	-0,029
-509,014	296,815	-0,043	0,059
-507,999	54,395	0,059	-0,042
-506,985	-122,627	-0,104	0,012
-505,970	274,049	0,049	0,064
-504,956	188,185	-0,091	0,101
-503,941	276,990	0,050	0,065
-502,926	183,105	0,054	0,059
-501,912	-19,135	-0,048	-0,022
-500,897	-5,952	0,090	-0,045
-499,883	-61,651	-0,114	0,035
-498,868	-94,212	-0,053	-0,011
-497,853	-36,942	-0,023	-0,009
-496,839	800,000	-0,020	0,042
-495,824	165,688	0,038	-0,040
-494,810	-21,016	-0,107	-0,048
-493,795	434,661	0,021	0,034
-492,781	-93,756	-0,125	-0,025
-491,766	-49,805	0,031	0,011
-490,751	134,150	-0,097	-0,093
-489,737	-176,351	-0,135	0,003
-488,722	68,142	0,038	0,028
-487,708	-200,000	-0,053	0,212
-486,693	-200,000	-0,004	0,044
-485,678	-200,000	0,006	0,052
-484,664	-200,000	0,005	0,044
-483,649	564,030	-0,068	-0,123
-482,635	-46,195	-0,076	-0,027
-481,620	-168,929	-0,105	0,003
-480,605	-200,000	0,007	0,035
-479,591	367,978	-0,023	0,035
-478,576	126,688	-0,037	0,034
-477,562	-99,812	0,056	-0,010
-476,547	38,752	0,144	-0,095
-475,532	800,000	0,015	-0,030
-474,518	-116,842	-0,169	-0,023
-473,503	232,640	0,081	-0,099
-472,489	120,518	-0,018	0,017
-471,474	-154,747	-0,064	-0,003
-470,459	175,260	-0,022	-0,024
-469,445	-200,000	0,027	-0,138
-468,430	-114,806	0,013	0,002
-467,416	307,636	-0,028	0,039
-466,401	-36,038	0,134	-0,053
-465,386	115,457	0,082	0,074
-464,372	214,177	-0,079	0,092
-463,357	690,191	-0,073	0,141
-462,343	57,117	-0,077	-0,055
-461,328	-200,000	-0,015	0,072
-460,313	261,065	0,034	0,044
-459,299	39,984	-0,056	-0,037
-458,284	144,883	0,072	0,071
-457,270	-200,000	-0,005	-0,076
-456,255	-200,000	0,015	-0,187
-455,241	-77,686	-0,096	-0,024
-454,226	-69,434	0,095	0,027
-453,211	242,051	0,019	-0,023
-452,197	-200,000	-0,003	-0,110
-451,182	142,248	0,092	0,090
-450,168	-30,367	0,153	-0,064
-449,153	-47,742	-0,088	-0,031
-448,138	238,943	-0,085	-0,104
-447,124	-121,021	-0,075	0,009
-446,109	66,831	0,181	0,136
-445,095	279,892	0,064	0,084
-444,080	-14,354	0,066	-0,031
-443,065	307,462	0,088	0,121
-442,051	419,970	-0,071	-0,112
-441,036	-123,446	-0,138	0,016
-440,022	-200,000	-0,035	-0,175
-439,007	306,834	-0,045	0,061
-437,992	800,000	0,042	0,131
-436,978	-184,894	0,137	0,002
-435,963	-200,000	-0,001	0,066
-434,949	-200,000	0,001	0,081
-433,934	148,843	0,027	-0,027
-432,919	-200,000	-0,001	-0,073
-431,905	-105,670	0,053	-0,009
-430,890	-200,000	-0,008	0,152
-429,876	99,714	-0,082	0,070
-428,861	-58,151	0,032	-0,010
-427,846	-84,082	-0,094	0,022
-426,832	-128,560	-0,101	0,010
-425,817	-87,080	0,138	-0,031
-424,803	-172,484	0,139	0,003
-423,788	-71,580	0,050	-0,014
-422,773	14,085	0,132	0,076
-421,759	373,680	-0,054	0,082
-420,744	-200,000	0,013	-0,068
-419,730	-200,000	-0,020	-0,067
-418,715	363,739	-0,041	0,061
-417,701	-144,203	-0,042	-0,003
-416,686	-58,351	-0,079	-0,025
-415,671	-200,000	-0,021	-0,139
-414,657	-200,000	0,042	-0,192
-413,642	800,000	0,028	-0,073
-412,628	25,375	-0,028	0,017
-411,613	20,242	-0,069	-0,041
-410,598	-200,000	0,027	-0,162
-409,584	574,087	-0,052	0,094
-408,569	-200,000	0,003	0,020
-407,555	-59,477	-0,057	0,018
-406,540	-30,304	0,074	-0,031
-405,525	-27,649	-0,105	-0,045
-404,511	-33,538	-0,056	-0,023
-403,496	-200,000	0,005	0,017
-402,482	800,000	-0,059	0,162
-401,467	-59,233	0,083	-0,026
-400,452	-59,435	0,103	0,032
-399,438	-37,818	0,112	0,044
-398,423	181,854	-0,018	0,020
-397,409	-166,336	0,051	0,002
-396,394	254,660	0,059	-0,075
-395,379	-122,366	0,120	0,014
-394,365	-200,000	0,031	0,100
-393,350	-92,799	0,179	0,037
-392,336	800,000	0,026	0,064
-391,321	-200,000	0,014	0,112
-390,306	-200,000	0,016	0,083
-389,292	-12,255	-0,059	0,028
-388,277	55,637	-0,163	0,116
-387,263	-3,802	0,203	-0,103
-386,248	-200,000	0,055	-0,186
-385,233	47,933	0,034	-0,023
-384,219	800,000	0,025	0,052
-383,204	800,000	0,013	0,035
-382,190	-127,318	-0,079	-0,008
-381,175	15,353	0,137	0,079
-380,160	730,498	0,021	0,041
-379,146	-12,410	-0,112	0,053
-378,131	800,000	0,071	0,196
-377,117	800,000	0,043	0,088
-376,102	372,209	0,065	0,097
-375,088	-200,000	-0,016	0,072
-374,073	-200,000	0,045	-0,254
-373,058	144,587	0,019	0,019
-372,044	292,939	0,055	0,074
-371,029	800,000	-0,024	0,054
-370,015	-200,000	0,022	0,152
-369,000	800,000	-0,048	-0,100
-367,985	-67,805	-0,114	-0,033
-366,971	-49,312	-0,020	0,007
-365,956	775,263	0,037	-0,075
-364,942	-163,253	0,139	0,005
-363,927	351,887	0,066	0,096
-362,912	245,682	-0,026	-0,033
-361,898	-114,399	0,079	0,011
-360,883	-200,000	-0,000	-0,016
-359,869	-200,000	0,021	-0,101
-358,854	-84,559	0,088	-0,020
-357,839	800,000	0,028	-0,059
-356,825	800,000	-0,021	0,069
-355,810	-69,931	-0,083	0,023
-354,796	523,485	0,062	0,108
-353,781	592,301	0,039	0,072
-352,766	19,189	0,114	-0,067
-351,752	-200,000	0,010	0,170
-350,737	800,000	-0,054	0,172
-349,723	-200,000	-0,001	0,083
-348,708	-200,000	-0,001	-0,032
-347,693	237,858	-0,049	0,059
-346,679	-200,000	-0,000	-0,047
-345,664	800,000	-0,029	-0,074
-344,650	-29,237	0,059	-0,025
-343,635	455,925	0,117	0,191
-342,620	800,000	0,015	-0,032
-341,606	800,000	-0,074	0,178
-340,591	-13,596	-0,146	0,069
-339,577	-147,036	0,027	0,002
-338,562	-200,000	-0,032	-0,153
-337,548	800,000	0,057	-0,181
-336,533	169,684	0,059	0,061
-335,518	-200,000	-0,001	-0,101
-334,504	-200,000	0,008	0,037
-333,489	589,565	0,039	0,071
-332,475	516,951	-0,036	-0,062
-331,460	622,479	0,068	0,126
-330,445	800,000	-0,020	0,046
-329,431	-200,000	0,002	-0,027
-328,416	-70,984	0,050	0,014
-327,402	-200,000	-0,014	0,059
-326,387	155,368	-0,044	-0,045
-325,372	0,522	-0,018	0,009
-324,358	-200,000	-0,036	-0,118
-323,343	-164,725	-0,035	-0,001
-322,329	-24,726	-0,012	-0,005
-321,314	-200,000	-0,022	-0,120
-320,299	319,514	0,078	-0,109
-319,285	-174,069	0,075	-0,002
-318,270	262,557	0,027	-0,034
-317,256	-200,000	0,010	0,085
-316,241	61,570	0,042	0,030
-315,226	800,000	0,021	-0,061
-314,212	-49,789	0,031	-0,011
-313,197	80,135	-0,039	0,031
-312,183	-200,000	-0,004	0,042
-311,168	-200,000	-0,023	0,110
-310,153	-200,000	-0,021	-0,071
-309,139	800,000	-0,049	-0,149
-308,124	-136,522	-0,056	0,005
-307,110	46,333	0,174	-0,118
-306,095	-52,417	-0,157	0,053
-305,080	800,000	0,021	0,046
-304,066	-200,000	-0,001	0,070
-303,051	131,802	-0,028	-0,026
-302,037	-85,360	0,110	0,025
-301,022	54,691	0,050	0,036
-300,008	167,825	0,095	0,099
-298,993	775,476	0,099	0,199
-297,978	-129,567	-0,068	-0,007
-296,964	457,790	0,133	-0,217
-295,949	-2,947	-0,059	-0,030
-294,935	800,000	-0,026	-0,069
-293,920	6,517	0,084	-0,046
-292,905	520,992	-0,033	-0,056
-291,891	6,542	-0,076	-0,041
-290,876	72,040	-0,013	-0,010
-289,862	207,792	0,099	0,114
-288,847	-48,700	-0,094	0,033
-287,832	-200,000	0,000	-0,031
-286,818	-200,000	0,009	-0,037
-285,803	57,230	0,028	0,020
-284,789	153,097	-0,054	0,054
-283,774	-200,000	-0,003	-0,015
-282,759	-149,360	-0,040	0,002
-281,745	366,932	-0,018	-0,027
-280,730	-200,000	0,029	-0,106
-279,716	-19,324	-0,092	0,042
-278,701	150,422	0,028	0,028
-277,686	131,102	-0,031	0,029
-276,672	4,000	-0,051	-0,027
-275,657	-166,388	0,098	0,003
-274,643	-13,507	-0,075	-0,035
-273,628	329,987	-0,116	-0,164
-272,613	-123,787	0,079	0,009
-271,599	-5,878	0,055	0,027
-270,584	-118,690	0,070	0,009
-269,570	36,570	-0,131	0,084
-268,555	800,000	-0,019	0,047
-267,540	800,000	0,045	-0,107
-266,526	-200,000	0,000	-0,165
-265,511	-200,000	0,022	0,118
-264,497	155,513	0,101	0,102
-263,482	457,062	-0,029	0,047
-262,467	-114,909	-0,041	0,006
-261,453	-111,779	-0,128	-0,019
-260,438	-72,828	-0,046	0,012
-259,424	-64,343	-0,027	0,008
-258,409	-121,795	-0,089	-0,011
-257,395	-200,000	0,004	-0,013
-256,380	-200,000	0,041	0,149
-255,365	298,595	-0,073	0,099
-254,351	201,313	0,042	0,047
-253,336	-65,705	0,162	0,047
-252,322	-200,000	-0,016	-0,069
-251,307	-200,000	-0,025	-0,089
-250,292	16,765	-0,031	-0,018
-249,278	-65,656	0,102	-0,030
-248,263	-200,000	0,012	0,043
-247,249	800,000	-0,028	0,074
-246,234	-200,000	-0,018	-0,088
-245,219	-106,112	0,078	-0,013
-244,205	-102,782	-0,051	0,009
-243,190	-127,419	-0,069	0,007
-242,176	800,000	0,051	0,147
-241,161	65,449	0,127	0,094
-240,146	-111,987	-0,066	0,010
-239,132	-94,377	-0,070	-0,014
-238,117	800,000	-0,030	-0,063
-237,103	27,547	-0,203	-0,124
-236,088	-200,000	-0,005	0,079
-235,073	-49,497	0,015	-0,005
-234,059	-12,337	0,203	-0,097
-233,044	720,548	0,070	0,136
-232,030	-24,911	0,021	0,009
-231,015	-200,000	0,045	0,241
-230,000	59,358	-0,110	-0,079
-228,986	800,000	0,021	-0,052
-227,971	318,685	0,100	-0,139
-226,957	251,678	0,065	-0,080
-225,942	7,502	-0,066	0,036
-224,927	-200,000	-0,006	-0,113
-223,913	-200,000	-0,025	-0,246
-222,898	-39,936	-0,046	0,017
-221,884	-126,680	0,094	0,010
-220,869	800,000	-0,044	0,139
-219,855	532,990	-0,086	0,149
-218,840	-200,000	0,058	0,253
-217,825	-93,314	0,079	-0,016
-216,811	800,000	0,034	-0,078
-215,796	-96,552	-0,069	-0,013
-214,782	723,419	0,030	0,058
-213,767	-106,348	-0,006	-0,001
-212,752	-200,000	-0,003	0,045
-211,738	-167,761	0,082	0,002
-210,723	607,268	-0,023	-0,042
-209,709	789,763	-0,048	0,097
-208,694	800,000	0,056	0,162
-207,679	205,170	0,132	-0,150
-206,665	-200,000	-0,018	0,134
-205,650	147,672	0,070	-0,069
-204,636	-120,476	-0,080	0,010
-203,621	184,288	0,013	-0,014
-202,606	371,683	-0,058	-0,086
-201,592	-200,000	0,023	-0,143
-200,577	61,854	-0,041	0,030
-199,563	205,800	0,059	-0,067
-198,548	128,459	0,088	0,082
-197,533	-178,443	0,087	0,001
-196,519	132,696	0,067	0,063
-195,504	-200,000	-0,004	-0,037
-194,490	775,091	-0,075	-0,149
-193,475	240,575	-0,091	-0,111
-192,460	524,105	-0,079	-0,135
-191,446	355,812	-0,047	-0,068
-190,431	800,000	-0,030	0,063
-189,417	13,244	-0,009	-0,005
-188,402	-44,378	0,080	-0,029
-187,387	47,924	-0,130	-0,088
-186,373	115,924	-0,033	0,030
-185,358	-2,667	0,075	0,038
-184,344	-200,000	0,021	0,110
-183,329	58,603	0,016	0,011
-182,315	-182,410	0,202	-0,003
-181,300	-200,000	0,008	0,199
-180,285	-66,651	0,062	0,018
-179,271	-200,000	-0,111	0,000
-178,256	0,876	-0,018	-0,009
-177,242	138,964	-0,057	-0,054
-176,227	-153,443	0,090	0,004
-175,212	2,187	-0,048	0,025
-174,198	-101,859	0,109	-0,019
-173,183	-19,328	0,053	0,024
-172,169	-56,758	-0,088	-0,028
-171,154	246,383	-0,056	0,069
-170,139	10,048	0,031	0,017
-169,125	-200,000	-0,041	0,199
-168,110	19,389	0,046	0,027
-167,096	240,650	0,093	-0,113
-166,081	-79,056	-0,071	-0,017
-165,066	525,339	-0,051	0,087
-164,052	-200,000	-0,002	-0,010
-163,037	-64,253	0,073	-0,022
-162,023	16,408	-0,062	0,035
-161,008	800,000	0,025	0,061
-159,993	-171,967	0,120	-0,003
-158,979	-200,000	0,028	-0,159
-157,964	213,786	-0,038	0,044
-156,950	-39,460	-0,068	-0,026
-155,935	144,959	-0,119	-0,116
-154,920	-200,000	0,007	0,066
-153,906	395,524	0,085	0,130
-152,891	-96,528	-0,121	-0,023
-151,877	-47,933	0,062	0,022
-150,862	800,000	0,056	-0,140
-149,847	237,275	0,047	-0,057
-148,833	-62,525	-0,039	0,012
-147,818	40,813	0,110	0,072
-146,804	800,000	-0,019	0,041
-145,789	-200,000	0,037	0,249
-144,775	-70,134	-0,131	0,036
-143,760	-200,000	0,003	0,029
-142,745	-200,000	0,017	0,095
-141,731	-200,000	0,017	-0,129
-140,716	183,890	0,100	-0,108
-139,702	-52,317	-0,082	-0,027
-138,687	668,996	0,015	0,029
-137,672	-79,282	0,121	0,030
-136,658	-34,024	-0,171	-0,068
-135,643	800,000	-0,050	-0,105
-134,629	-200,000	0,003	0,028
-133,614	598,235	0,045	0,081
-132,599	-8,717	-0,074	0,036
-131,585	800,000	-0,023	-0,060
-130,570	487,510	0,066	-0,110
-129,556	-200,000	0,021	-0,118
-128,541	-200,000	0,012	-0,046
-127,526	-200,000	-0,023	0,118
-126,512	-1,827	-0,047	-0,024
-125,497	661,024	-0,023	0,043
-124,483	800,000	-0,051	0,142
-123,468	552,977	-0,068	0,119
-122,453	-169,197	0,047	0,001
-121,439	-100,145	0,060	0,011
-120,424	627,583	0,050	0,092
-119,410	-200,000	-0,001	0,058
-118,395	584,605	0,042	0,076
-117,380	-200,000	0,002	0,074
-116,366	-200,000	0,004	-0,025
-115,351	65,313	0,048	-0,036
-114,337	93,296	-0,063	0,051
-113,322	503,580	-0,089	0,150
-112,307	120,148	0,124	-0,112
-111,293	800,000	-0,051	-0,126
-110,278	231,101	0,078	-0,093
-109,264	296,806	-0,046	-0,061
-108,249	-69,246	-0,131	-0,036
-107,234	-200,000	0,004	0,025
-106,220	-86,354	0,148	-0,033
-105,205	48,006	0,097	-0,066
-104,191	800,000	-0,028	-0,063
-103,176	86,080	0,015	-0,012
-102,162	-200,000	0,002	-0,071
-101,147	800,000	-0,038	-0,095
-100,132	152,449	-0,091	-0,091
-99,118	37,625	-0,063	0,041
-98,103	-200,000	-0,005	0,021
-97,089	-200,000	-0,002	0,088
-96,074	-184,361	0,125	0,001
-95,059	-200,000	-0,012	-0,063
-94,045	-200,000	-0,020	-0,141
-93,030	-200,000	-0,005	0,027
-92,016	-200,000	0,017	0,166
-91,001	-43,633	-0,175	0,064
-89,986	299,059	0,090	0,120
-88,972	-98,688	0,081	0,015
-87,957	210,420	0,056	0,065
-86,943	522,936	-0,070	0,121
-85,928	-200,000	-0,007	-0,043
-84,913	350,406	-0,078	-0,113
-83,899	-200,000	0,002	0,074
-82,884	79,595	0,093	0,073
-81,870	73,314	0,096	0,073
-80,855	64,300	-0,060	0,044
-79,840	652,508	0,103	0,193
-78,826	3,357	0,030	0,016
-77,811	362,838	0,009	0,014
-76,797	-200,000	0,019	0,108
-75,782	-200,000	-0,017	-0,081
-74,767	-200,000	0,022	0,072
-73,753	800,000	0,031	0,074
-72,738	-200,000	0,006	-0,109
-71,724	587,546	-0,041	-0,074
-70,709	92,660	-0,108	0,088
-69,694	62,883	-0,024	0,017
-68,680	188,794	-0,008	-0,008
-67,665	594,252	0,037	-0,067
-66,651	-26,132	0,067	0,029
-65,636	182,686	-0,056	-0,060
-64,622	27,971	-0,069	0,042
-63,607	-9,922	0,085	-0,041
-62,592	800,000	-0,032	0,094
-61,578	-61,577	0,064	0,019
-60,563	-86,698	0,126	0,028
-59,549	262,694	-0,049	0,061
-58,534	-131,344	-1,378	-0,131
-57,519	379,018	-0,948	-1,413
-56,505	-200,000	-0,956	-4,363
-55,490	29,439	0,576	-0,355
-54,476	800,000	5,033	11,956
-53,461	-200,000	13,328	252,768
-52,446	-200,000	688,675	2274,124
-51,432	598,932	1623,572	2934,489
-50,417	121,248	1637,353	1479,428
-49,403	73,460	1291,507	980,042
-48,388	38,487	1025,936	662,303
-47,373	24,648	983,381	589,268
-46,359	23,860	973,114	580,504
-45,344	22,938	968,854	574,923
-44,330	22,966	967,339	574,094
-43,315	22,782	965,962	572,652
-42,300	22,793	964,794	571,974
-41,286	22,773	964,080	571,461
-40,271	22,760	963,166	570,855
-39,257	22,792	962,044	570,273
-38,242	22,692	961,214	569,432
-37,227	22,732	960,349	569,029
-36,213	22,765	959,421	568,560
-35,198	22,675	958,764	567,860
-34,184	22,740	957,941	567,558
-33,169	22,721	957,191	567,030
-32,154	22,745	956,125	566,454
-31,140	22,805	955,183	566,067
-30,125	22,813	954,564	565,704
-29,111	22,797	953,645	565,086
-28,096	22,880	952,874	564,874
-27,082	22,827	952,296	564,338
-26,067	22,757	951,604	563,681
-25,052	22,802	950,774	563,309
-24,038	22,746	950,237	562,791
-23,023	22,743	949,592	562,377
-22,009	22,852	948,666	562,155
-20,994	22,801	948,471	561,854
-19,979	22,929	947,351	561,578
-18,965	22,751	947,020	560,791
-17,950	22,832	946,443	560,685
-16,936	22,774	945,582	559,968
-15,921	22,737	945,006	559,485
-14,906	22,733	944,310	559,038
-13,892	22,699	943,579	558,477
-12,877	22,677	942,945	558,006
-11,863	22,638	942,322	557,492
-10,848	22,681	941,787	557,290
-9,833	22,722	941,472	557,214
-8,819	22,724	940,914	556,867
-7,804	22,704	940,002	556,243
-6,790	22,655	939,694	555,881
-5,775	22,728	938,897	555,621
-4,760	22,712	938,243	555,161
-3,746	22,675	937,769	554,739
-2,731	22,568	937,047	553,952
-1,717	22,526	936,212	553,304
-0,702	22,519	935,615	552,907
0,313	22,312	934,853	552,639
1,327	25,399	932,980	561,200
2,342	35,256	797,517	506,006
3,356	33,463	452,262	284,221
4,371	2,328	293,766	153,573
5,386	-2,309	274,561	139,136
6,400	-3,660	268,632	134,868
7,415	-4,291	266,344	133,127
8,429	-3,877	264,922	132,783
9,444	-4,094	264,216	132,219
10,459	-3,996	263,475	131,926
11,473	-4,101	262,861	131,512
12,488	-4,065	262,332	131,268
13,502	-4,312	261,796	130,765
14,517	-4,284	261,436	130,598
15,531	-4,012	260,869	130,548
16,546	-4,189	260,722	130,304
17,561	-4,173	260,336	130,114
18,575	-4,051	260,070	130,079
19,590	-4,240	259,726	129,726
20,604	-4,108	259,417	129,678
21,619	-4,185	259,066	129,423
22,634	-4,137	258,703	129,272
23,648	-4,226	258,334	128,997
24,663	-4,294	258,231	128,873
25,677	-4,199	258,017	128,839
26,692	-4,399	257,711	128,498
27,707	-4,029	257,429	128,674
28,721	-4,110	257,142	128,447
29,736	-4,481	256,863	127,968
30,750	-4,364	256,582	127,920
31,765	-4,365	256,408	127,821
32,780	-4,207	256,022	127,757
33,794	-4,295	256,013	127,663
34,809	-4,108	255,664	127,643
35,823	-4,377	255,586	127,355
36,838	-4,213	255,276	127,334
37,853	-4,187	255,059	127,237
38,867	-4,350	254,844	126,975
39,882	-4,418	254,571	126,769
40,896	-4,327	254,236	126,670
41,911	-4,479	254,182	126,499
42,926	-4,384	253,943	126,452
43,940	-4,430	253,651	126,254
44,955	-4,459	253,340	126,063
45,969	-4,501	253,144	125,918
46,984	-4,514	252,806	125,728
47,999	-4,822	252,585	125,339
49,013	-4,910	252,218	125,069
50,028	-5,001	252,162	124,951
51,042	-5,021	251,675	124,681
52,057	-5,123	251,645	124,567
53,071	-5,217	251,558	124,432
54,086	-4,968	251,329	124,522
55,101	-4,959	251,085	124,399
56,115	-4,649	251,133	124,678
57,130	-4,323	251,016	124,891
58,144	-4,053	250,772	124,990
59,159	-3,905	250,488	124,966
60,174	-4,175	250,503	124,729
61,188	-4,015	250,158	124,684
62,203	-4,091	250,063	124,560
63,217	-4,411	249,899	124,193
64,232	-4,236	249,672	124,219
65,247	-4,095	249,202	124,095
66,261	-4,092	249,092	124,031
67,276	-4,479	248,864	123,576
68,290	-4,656	248,634	123,300
69,305	-4,525	248,310	123,240
70,320	-4,760	248,279	123,013
71,334	-4,302	248,107	123,307
72,349	-4,301	247,927	123,207
73,363	-4,014	247,863	123,409
74,378	-3,973	247,592	123,298
75,393	-4,068	247,396	123,109
76,407	-4,221	247,242	122,891
77,422	-4,178	246,983	122,788
78,436	-4,003	246,758	122,813
79,451	-4,072	246,659	122,694
80,466	-4,181	246,315	122,420
81,480	-4,406	246,068	122,097
82,495	-4,613	246,023	121,889
83,509	-4,428	245,823	121,935
84,524	-4,539	245,510	121,676
85,539	-4,728	245,391	121,446
86,553	-4,556	245,046	121,409
87,568	-4,651	244,908	121,250
88,582	-4,737	244,991	121,209
89,597	-4,508	244,526	121,160
90,611	-4,309	244,453	121,280
91,626	-4,245	244,379	121,286
92,641	-4,493	244,285	121,020
93,655	-4,344	243,844	120,916
94,670	-4,287	243,742	120,901
95,684	-4,528	243,602	120,621
96,699	-4,330	243,483	120,716
97,714	-4,456	243,267	120,493
98,728	-4,507	243,082	120,348
99,743	-4,628	242,691	120,043
100,757	-4,694	242,575	119,920
101,772	-4,627	242,371	119,865
102,787	-4,320	242,087	119,968
103,801	-4,457	241,985	119,793
104,816	-4,447	241,952	119,774
105,830	-4,419	241,801	119,712
106,845	-4,057	241,611	119,906
107,860	-4,236	241,397	119,642
108,874	-4,386	241,144	119,382
109,889	-4,512	240,942	119,167
110,903	-4,258	240,760	119,276
111,918	-4,614	240,678	118,932
112,933	-4,556	240,483	118,873
113,947	-4,266	240,450	119,084
114,962	-4,247	240,133	118,932
115,976	-4,509	240,011	118,646
116,991	-4,390	239,843	118,650
118,006	-4,307	239,707	118,640
119,020	-4,294	239,455	118,516
120,035	-4,023	239,517	118,757
121,049	-4,172	239,230	118,483
122,064	-4,097	238,947	118,393
123,079	-4,069	238,821	118,343
124,093	-4,266	238,661	118,093
125,108	-4,478	238,497	117,829
126,122	-4,698	238,026	117,406
127,137	-4,824	237,974	117,267
128,151	-4,646	237,819	117,325
129,166	-4,497	237,654	117,354
130,181	-4,703	237,512	117,107
131,195	-4,688	237,337	117,022
132,210	-4,447	237,168	117,124
133,224	-4,265	236,975	117,164
134,239	-4,050	236,787	117,235
135,254	-4,285	236,740	117,012
136,268	-4,523	236,575	116,727
137,283	-4,647	236,385	116,523
138,297	-4,762	235,961	116,211
139,312	-5,030	235,970	115,990
140,327	-4,441	235,730	116,335
141,341	-3,844	235,773	116,826
142,356	-4,099	235,694	116,571
143,370	-3,998	235,543	116,568
144,385	-3,832	235,264	116,552
145,400	-3,754	235,100	116,523
146,414	-3,733	234,886	116,424
147,429	-4,053	234,792	116,110
148,443	-3,986	234,648	116,082
149,458	-4,086	234,558	115,948
150,473	-3,903	234,308	115,960
151,487	-3,936	233,963	115,753
152,502	-3,960	234,002	115,742
153,516	-3,831	233,797	115,734
154,531	-4,009	233,638	115,503
155,546	-3,884	233,290	115,420
156,560	-4,056	233,294	115,274
157,575	-4,042	233,025	115,143
158,589	-4,077	232,837	115,012
159,604	-3,860	232,774	115,142
160,619	-3,873	232,609	115,040
161,633	-3,937	232,550	114,950
162,648	-3,746	232,281	114,957
163,662	-3,966	232,237	114,752
164,677	-4,300	232,167	114,443
165,692	-4,022	232,011	114,575
166,706	-3,849	231,727	114,561
167,721	-3,920	231,600	114,433
168,735	-3,840	231,389	114,381
169,750	-3,942	231,302	114,248
170,764	-4,001	231,128	114,105
171,779	-3,834	231,007	114,167
172,794	-3,719	230,797	114,143
173,808	-4,031	230,600	113,791
174,823	-4,385	230,335	113,372
175,837	-4,591	230,102	113,086
176,852	-4,041	230,020	113,466
177,867	-3,839	230,083	113,645
178,881	-3,817	229,924	113,574
179,896	-3,933	229,873	113,448
180,910	-3,914	229,538	113,286
181,925	-3,883	229,485	113,275
182,940	-3,776	229,336	113,275
183,954	-3,774	229,119	113,159
184,969	-3,710	228,981	113,130
185,983	-3,730	228,720	112,976
186,998	-3,741	228,751	112,972
188,013	-3,699	228,617	112,929
189,027	-3,719	228,426	112,809
190,042	-3,778	228,253	112,667
191,056	-3,802	228,007	112,518
192,071	-3,551	227,942	112,670
193,086	-3,774	227,703	112,369
194,100	-3,630	227,683	112,460
195,115	-4,038	227,404	111,998
196,129	-4,399	227,012	111,517
197,144	-1,496	227,950	114,212
198,159	2,476	229,122	117,870
199,173	4,196	229,381	119,325
200,188	4,250	229,293	119,311
201,202	4,223	229,237	119,249
202,217	4,397	229,111	119,308
203,232	4,518	228,982	119,324
204,246	4,879	228,723	119,457
205,261	4,595	228,702	119,216
206,275	4,937	228,582	119,406
207,290	4,950	228,385	119,303
208,304	4,920	228,289	119,219
209,319	4,947	228,177	119,170
210,334	4,839	227,916	118,940
211,348	4,649	227,665	118,653
212,363	4,322	227,402	118,255
213,377	3,936	227,269	117,879
214,392	4,122	227,177	117,964
215,407	4,048	227,140	117,877
216,421	4,215	226,907	117,874
217,436	4,048	226,653	117,603
218,450	3,740	226,354	117,203
219,465	3,931	226,207	117,262
220,480	3,762	226,272	117,156
221,494	3,871	226,157	117,169
222,509	3,983	226,133	117,231
223,523	3,984	225,683	116,989
224,538	3,973	225,598	116,926
225,553	4,182	225,595	117,072
226,567	4,085	225,398	116,886
227,582	4,162	225,369	116,920
228,596	4,588	225,171	117,129
229,611	4,439	224,855	116,842
230,626	3,813	224,787	116,322
231,640	3,801	224,622	116,217
232,655	4,230	224,503	116,470
233,669	4,613	224,495	116,744
234,684	4,694	224,375	116,733
235,699	4,281	224,145	116,291
236,713	4,384	223,928	116,246
237,728	4,012	223,721	115,848
238,742	3,871	223,465	115,599
239,757	4,004	223,359	115,634
240,772	4,334	223,061	115,717
241,786	3,897	223,144	115,421
242,801	4,323	223,174	115,746
243,815	4,228	222,988	115,569
244,830	4,498	222,795	115,661
245,844	4,087	222,598	115,240
246,859	4,075	222,460	115,150
247,874	4,522	222,122	115,298
248,888	4,294	222,307	115,213
249,903	4,309	221,921	115,014
250,917	4,328	221,831	114,972
251,932	4,001	221,676	114,637
252,947	3,962	221,498	114,506
253,961	3,696	221,441	114,268
254,976	3,979	221,309	114,401
255,990	4,150	221,172	114,447
257,005	4,211	221,142	114,466
258,020	4,306	221,029	114,468
259,034	4,434	220,868	114,469
260,049	4,392	220,754	114,369
261,063	4,411	220,557	114,271
262,078	4,367	220,354	114,123
263,093	4,332	220,401	114,111
264,107	4,226	220,162	113,899
265,122	4,400	219,963	113,914
266,136	4,568	219,868	113,979
267,151	4,480	219,754	113,845
268,166	4,206	219,401	113,450
269,180	3,693	219,345	113,033
270,195	4,034	219,017	113,104
271,209	3,790	219,083	112,949
272,224	4,074	218,873	113,040
273,239	4,163	218,739	113,025
274,253	4,118	218,634	112,928
275,268	3,990	218,497	112,754
276,282	3,880	218,085	112,451
277,297	3,687	218,131	112,323
278,312	3,657	218,016	112,232
279,326	3,986	217,836	112,370
280,341	4,128	217,682	112,384
281,355	4,006	217,688	112,288
282,370	3,928	217,509	112,128
283,384	4,102	217,184	112,078
284,399	3,933	217,125	111,914
285,414	3,735	216,902	111,645
286,428	3,963	216,906	111,804
287,443	4,043	216,788	111,791
288,457	4,131	216,712	111,805
289,472	4,060	216,476	111,622
290,487	3,554	216,300	111,155
291,501	3,520	216,055	110,994
292,516	3,671	216,007	111,069
293,530	3,719	215,916	111,047
294,545	3,674	215,800	110,945
295,560	3,813	215,689	110,979
296,574	3,816	215,547	110,898
297,589	3,942	215,343	110,873
298,603	4,152	215,247	110,966
299,618	4,193	215,064	110,891
300,633	4,151	214,952	110,793
301,647	4,381	214,987	110,967
302,662	4,320	214,770	110,801
303,676	4,255	214,668	110,692
304,691	4,328	214,378	110,585
305,706	4,376	214,286	110,562
306,720	4,259	214,198	110,422
307,735	4,040	213,993	110,150
308,749	3,931	213,855	109,992
309,764	4,163	213,860	110,151
310,779	4,422	213,634	110,209
311,793	4,146	213,562	109,965
312,808	4,170	213,369	109,872
313,822	4,310	213,196	109,874
314,837	4,159	213,018	109,664
315,852	3,922	212,749	109,348
316,866	3,996	212,893	109,465
317,881	4,351	212,826	109,673
318,895	3,973	212,597	109,277
319,910	3,983	212,304	109,123
320,925	3,847	212,086	108,905
321,939	3,549	212,026	108,654
322,954	3,664	211,775	108,597
323,968	3,894	211,951	108,840
324,983	4,334	211,662	108,993
325,997	4,404	211,627	109,015
327,012	4,149	211,447	108,732
328,027	4,180	211,301	108,670
329,041	4,337	211,308	108,774
330,056	4,501	211,177	108,813
331,070	4,108	210,840	108,353
332,085	3,687	210,768	108,010
333,100	3,963	210,576	108,096
334,114	4,048	210,564	108,140
335,129	4,006	210,210	107,919
336,143	3,793	210,150	107,729
337,158	3,957	209,968	107,741
338,173	3,895	209,882	107,644
339,187	3,828	209,659	107,473
340,202	3,683	209,558	107,310
341,216	3,758	209,351	107,247
342,231	3,946	209,343	107,365
343,246	3,737	209,200	107,136
344,260	3,840	209,149	107,172
345,275	4,247	209,069	107,405
346,289	3,868	208,922	107,056
347,304	4,118	208,866	107,192
348,319	4,087	208,542	106,995
349,333	4,212	208,418	107,008
350,348	4,169	208,310	106,913
351,362	4,296	208,232	106,952
352,377	4,093	208,240	106,806
353,392	4,113	208,031	106,702
354,406	3,900	207,853	106,455
355,421	193,431	1346,952	1434,133
356,435	154,290	1485,859	1434,261
