DTS Sentinel unit serial number:	SN410029Multiplexer serial number:	ORYXHardware model number:	OX2-SRSoftware version number:	ORYX F/W v4,00 Oryx Data Collector v3.7.2.0data status	okinstallation	B6 Nyhavnadifferential loss correction	single-endedforward channel	channel 2reverse channel	N/Adate	2023/12/08time	04:45:08forward acquisition time	300,00reverse acquisition time	0,00gamma	499,1914k internal	0,3165k external	0,3165temperature offset calibration	1,0000default loss term (dB/km)	0,3820temperature slope calibration	1,0000multiplexer offset coefficient	1,0000multiplexer slope coefficient	1,0000fibre end	0,00T internal ref (°C)	13,04T ext. ref 1 (°C)	-3,79T ext. ref 2 (°C)	-3,78length (m)	temperature (°C)	Stokes	anti-Stokes-744,400	121,165	0,182	0,167
-743,385	-135,714	-0,319	-0,027
-742,371	87,625	0,024	-0,020
-741,356	-99,448	-0,328	0,060
-740,342	-32,518	0,104	0,042
-739,327	-152,813	-0,281	0,014
-738,312	-61,464	0,050	0,015
-737,298	-101,844	-0,320	-0,056
-736,283	-42,660	0,144	0,054
-735,269	-31,688	-0,181	0,074
-734,254	800,000	0,053	0,143
-733,239	-53,646	-0,508	-0,170
-732,225	-105,594	0,235	-0,039
-731,210	68,591	0,011	0,008
-730,196	190,666	-0,083	-0,092
-729,181	160,454	0,011	-0,011
-728,167	125,254	-0,070	0,065
-727,152	-49,424	-0,038	0,013
-726,137	132,435	-0,152	-0,144
-725,123	-91,751	-0,108	-0,022
-724,108	206,893	-0,041	-0,048
-723,094	800,000	-0,010	0,031
-722,079	317,137	0,020	0,027
-721,064	-158,846	-0,082	0,003
-720,050	97,491	-0,125	-0,106
-719,035	281,770	0,019	-0,025
-718,021	-200,000	0,044	-0,190
-717,006	152,226	-0,055	-0,055
-715,991	77,189	-0,129	-0,101
-714,977	-192,228	-0,090	-0,001
-713,962	-200,000	0,032	-0,168
-712,948	-149,435	-0,025	0,001
-711,933	800,000	0,042	0,088
-710,918	191,397	0,098	0,108
-709,904	-200,000	-0,003	0,067
-708,889	10,589	-0,035	-0,019
-707,875	800,000	0,018	-0,054
-706,860	12,707	0,166	0,094
-705,845	39,195	-0,060	0,039
-704,831	-38,141	-0,075	0,029
-703,816	-140,870	-0,098	0,007
-702,802	40,820	0,127	-0,084
-701,787	117,927	-0,076	0,069
-700,772	247,270	-0,071	-0,088
-699,758	318,369	0,050	-0,069
-698,743	126,695	0,044	0,041
-697,729	116,483	0,057	-0,051
-696,714	39,942	-0,232	-0,153
-695,699	251,266	-0,044	-0,055
-694,685	347,232	-0,012	-0,018
-693,670	800,000	-0,044	0,110
-692,656	486,885	-0,019	0,032
-691,641	-200,000	0,045	0,173
-690,627	-37,869	-0,046	-0,018
-689,612	-65,822	0,076	-0,022
-688,597	-200,000	0,005	-0,102
-687,583	-144,533	-0,095	0,006
-686,568	-200,000	0,006	0,137
-685,554	-200,000	-0,015	-0,071
-684,539	-200,000	0,022	0,134
-683,524	800,000	-0,003	0,006
-682,510	-116,534	0,131	0,018
-681,495	16,124	-0,149	-0,086
-680,481	42,086	-0,121	-0,080
-679,466	800,000	-0,055	-0,146
-678,451	-91,608	-0,109	0,022
-677,437	-200,000	0,008	0,126
-676,422	253,713	-0,096	0,121
-675,408	681,521	-0,014	0,027
-674,393	800,000	0,095	-0,216
-673,378	35,435	-0,047	-0,030
-672,364	-200,000	-0,021	-0,194
-671,349	-37,216	-0,160	0,063
-670,335	102,971	0,066	-0,057
-669,320	339,030	-0,008	0,011
-668,305	-96,268	-0,041	0,008
-667,291	-200,000	-0,017	0,101
-666,276	83,322	-0,068	0,054
-665,262	315,294	-0,054	-0,074
-664,247	-21,860	-0,035	-0,016
-663,232	-17,877	-0,089	-0,041
-662,218	-46,846	0,145	-0,052
-661,203	-144,390	-0,152	0,010
-660,189	397,344	-0,058	0,088
-659,174	15,172	-0,106	-0,061
-658,159	161,757	0,038	-0,039
-657,145	19,223	-0,094	-0,055
-656,130	-200,000	0,003	0,107
-655,116	-75,918	0,070	-0,018
-654,101	-66,897	0,081	-0,023
-653,086	27,351	-0,063	-0,038
-652,072	88,482	-0,035	0,028
-651,057	382,996	0,049	0,074
-650,043	800,000	-0,029	-0,065
-649,028	209,486	-0,026	-0,030
-648,014	-75,934	0,082	0,021
-646,999	-200,000	0,030	-0,134
-645,984	164,500	-0,063	-0,065
-644,970	800,000	0,085	-0,173
-643,955	329,677	-0,044	0,063
-642,941	-59,924	-0,085	0,026
-641,926	-29,414	-0,032	-0,013
-640,911	800,000	-0,060	-0,132
-639,897	-200,000	-0,011	-0,062
-638,882	82,858	0,022	0,017
-637,868	231,518	-0,080	0,096
-636,853	355,924	-0,096	0,140
-635,838	800,000	-0,029	-0,078
-634,824	-200,000	0,013	-0,101
-633,809	53,618	0,055	0,039
-632,795	-109,675	0,072	-0,011
-631,780	450,409	0,085	-0,137
-630,765	80,020	-0,079	-0,062
-629,751	81,620	-0,041	0,033
-628,736	80,301	-0,099	-0,078
-627,722	-200,000	0,035	0,119
-626,707	361,261	0,063	0,093
-625,692	-200,000	0,000	0,018
-624,678	95,101	0,026	-0,021
-623,663	-108,443	0,142	0,022
-622,649	-39,691	-0,146	-0,056
-621,634	-92,488	0,045	-0,009
-620,619	-200,000	0,005	-0,072
-619,605	-200,000	0,011	-0,037
-618,590	-131,896	0,084	-0,008
-617,576	-64,871	0,069	0,020
-616,561	53,016	-0,043	-0,030
-615,546	-60,868	-0,088	0,027
-614,532	-200,000	0,017	-0,100
-613,517	-110,574	0,110	0,017
-612,503	-6,770	-0,036	0,018
-611,488	-83,991	0,137	-0,032
-610,474	800,000	-0,024	0,050
-609,459	-200,000	0,025	0,095
-608,444	-200,000	-0,008	-0,101
-607,430	-56,202	0,026	-0,008
-606,415	256,028	0,029	0,036
-605,401	157,076	0,020	0,021
-604,386	56,567	-0,067	-0,048
-603,371	144,820	0,028	0,028
-602,357	685,163	-0,052	-0,100
-601,342	-11,522	-0,193	-0,093
-600,328	800,000	0,042	-0,118
-599,313	101,427	0,014	0,012
-598,298	236,157	0,027	-0,032
-597,284	-200,000	0,002	0,090
-596,269	39,582	-0,046	-0,030
-595,255	-200,000	-0,005	0,096
-594,240	-114,656	-0,054	0,008
-593,225	-200,000	-0,001	-0,111
-592,211	-200,000	-0,026	-0,159
-591,196	-200,000	0,022	-0,078
-590,182	145,406	-0,029	-0,028
-589,167	-200,000	-0,008	0,062
-588,152	-127,796	-0,156	0,016
-587,138	-200,000	0,043	0,198
-586,123	-200,000	0,003	-0,118
-585,109	-200,000	-0,002	0,119
-584,094	8,829	-0,050	-0,027
-583,079	199,989	0,061	-0,068
-582,065	322,657	-0,097	0,136
-581,050	800,000	0,008	-0,021
-580,036	-95,636	0,130	0,025
-579,021	800,000	-0,040	-0,086
-578,006	246,480	0,082	0,101
-576,992	88,330	0,069	-0,056
-575,977	55,643	-0,021	0,015
-574,963	327,886	0,078	0,109
-573,948	-200,000	-0,015	0,076
-572,934	6,389	0,110	-0,059
-571,919	713,179	-0,034	-0,066
-570,904	-200,000	0,039	-0,197
-569,890	-78,529	-0,062	-0,015
-568,875	141,485	-0,028	-0,027
-567,861	-106,696	-0,053	-0,009
-566,846	81,371	0,127	0,100
-565,831	147,203	0,063	-0,062
-564,817	-174,303	-0,101	0,002
-563,802	387,480	0,120	-0,181
-562,788	800,000	-0,057	0,123
-561,773	281,504	-0,046	0,061
-560,758	315,190	-0,051	-0,070
-559,744	-200,000	0,010	0,048
-558,729	46,716	0,141	-0,096
-557,715	-72,555	-0,152	0,041
-556,700	-97,135	0,085	-0,016
-555,685	-99,164	-0,148	0,027
-554,671	13,480	0,044	-0,025
-553,656	584,625	0,041	0,073
-552,642	-200,000	-0,008	0,093
-551,627	14,784	0,015	0,008
-550,612	-69,918	-0,105	-0,029
-549,598	-200,000	0,014	-0,132
-548,583	-200,000	0,001	-0,065
-547,569	-200,000	0,003	0,068
-546,554	-66,849	0,159	0,045
-545,539	-155,138	0,066	0,003
-544,525	72,213	-0,019	0,015
-543,510	1,967	0,102	0,054
-542,496	-32,490	-0,129	0,052
-541,481	93,962	0,067	-0,055
-540,466	244,509	-0,086	-0,106
-539,452	482,004	0,079	-0,131
-538,437	160,279	-0,034	-0,034
-537,423	-43,281	0,009	0,003
-536,408	-38,195	-0,084	-0,032
-535,393	-94,956	-0,206	0,040
-534,379	-25,473	-0,039	-0,017
-533,364	-162,525	0,032	-0,001
-532,350	-150,107	-0,096	0,005
-531,335	30,790	0,088	0,055
-530,321	6,774	-0,087	-0,047
-529,306	-46,189	0,054	0,019
-528,291	-67,659	-0,073	-0,021
-527,277	-200,000	-0,005	-0,061
-526,262	48,078	-0,067	-0,045
-525,248	-200,000	0,000	0,043
-524,233	-185,543	0,134	0,001
-523,218	-200,000	0,019	0,068
-522,204	46,421	0,179	0,121
-521,189	-200,000	-0,015	0,050
-520,175	-13,502	0,073	0,034
-519,160	-52,399	-0,133	0,045
-518,145	-4,145	0,028	0,014
-517,131	105,645	-0,036	0,031
-516,116	-164,136	0,171	0,006
-515,102	-85,997	-0,109	0,024
-514,087	-57,746	-0,097	0,031
-513,072	-200,000	-0,024	0,113
-512,058	-200,000	0,012	0,087
-511,043	35,658	-0,077	0,049
-510,029	122,717	-0,041	-0,037
-509,014	-200,000	0,006	0,076
-507,999	800,000	0,031	0,076
-506,985	-60,366	-0,051	-0,016
-505,970	7,939	0,079	-0,043
-504,956	534,623	-0,073	-0,127
-503,941	60,942	0,038	-0,028
-502,926	800,000	0,050	0,133
-501,912	587,447	-0,034	-0,061
-500,897	-200,000	-0,006	-0,132
-499,883	394,265	0,075	-0,113
-498,868	130,655	-0,050	-0,047
-497,853	371,773	0,003	-0,004
-496,839	118,430	-0,031	0,028
-495,824	-53,640	0,147	0,049
-494,810	616,933	-0,010	-0,019
-493,795	368,595	0,040	-0,059
-492,781	-200,000	-0,007	0,146
-491,766	-200,000	-0,006	-0,023
-490,751	-200,000	0,020	-0,187
-489,737	-15,496	0,075	0,035
-488,722	800,000	-0,028	0,066
-487,708	303,127	0,038	-0,051
-486,693	-144,169	-0,018	-0,001
-485,678	114,422	-0,155	-0,137
-484,664	800,000	0,064	-0,147
-483,649	-23,790	-0,092	-0,040
-482,635	-8,436	-0,066	-0,032
-481,620	-200,000	-0,028	0,127
-480,605	-200,000	0,039	0,191
-479,591	399,923	0,044	-0,067
-478,576	32,743	-0,071	-0,045
-477,562	-70,556	-0,106	-0,029
-476,547	258,446	-0,111	-0,139
-475,532	-200,000	-0,005	0,039
-474,518	250,140	0,029	0,036
-473,503	-131,610	0,058	-0,005
-472,489	10,162	-0,060	0,033
-471,474	207,244	-0,020	-0,023
-470,459	-111,108	-0,035	-0,005
-469,445	60,030	0,122	-0,087
-468,430	800,000	0,046	0,120
-467,416	-67,047	-0,082	0,023
-466,401	14,491	0,063	-0,036
-465,386	800,000	0,044	-0,101
-464,372	-61,899	-0,106	0,032
-463,357	800,000	0,006	0,013
-462,343	-103,790	-0,084	0,014
-461,328	390,960	-0,027	-0,042
-460,313	-200,000	0,009	-0,052
-459,299	519,659	-0,028	0,048
-458,284	58,734	-0,031	0,022
-457,270	-81,136	-0,074	0,018
-456,255	-200,000	-0,014	-0,068
-455,241	174,782	-0,043	0,045
-454,226	800,000	0,080	-0,169
-453,211	-75,596	-0,023	-0,006
-452,197	347,788	-0,076	-0,110
-451,182	-115,707	0,158	-0,021
-450,168	-72,389	-0,056	0,015
-449,153	-200,000	-0,022	-0,120
-448,138	759,307	-0,018	-0,036
-447,124	120,402	-0,040	-0,036
-446,109	-200,000	0,018	-0,119
-445,095	-150,150	0,199	0,011
-444,080	30,252	0,096	0,059
-443,065	800,000	0,084	0,223
-442,051	163,592	0,072	0,073
-441,036	-200,000	0,002	-0,076
-440,022	163,415	0,045	0,046
-439,007	200,669	0,081	-0,091
-437,992	-200,000	0,008	-0,037
-436,978	-200,000	0,027	0,152
-435,963	-81,936	0,043	-0,010
-434,949	-135,042	-0,107	0,009
-433,934	611,184	-0,070	-0,128
-432,919	-200,000	-0,000	0,056
-431,905	-200,000	0,002	0,089
-430,890	-20,896	0,068	0,030
-429,876	745,803	0,052	0,101
-428,861	-191,661	-0,129	0,001
-427,846	800,000	-0,011	0,029
-426,832	534,013	-0,035	-0,060
-425,817	-38,766	0,087	-0,033
-424,803	-200,000	-0,007	-0,073
-423,788	-116,392	0,004	-0,000
-422,773	6,997	-0,060	-0,032
-421,759	780,673	0,026	-0,053
-420,744	-120,719	0,037	0,004
-419,730	626,872	-0,059	0,108
-418,715	-200,000	0,022	-0,152
-417,701	-200,000	0,002	0,102
-416,686	-6,955	-0,084	0,042
-415,671	-75,265	0,150	0,039
-414,657	-62,611	-0,092	0,028
-413,642	127,798	-0,062	0,057
-412,628	219,860	0,022	-0,026
-411,613	752,214	-0,012	0,023
-410,598	602,774	0,022	0,041
-409,584	-200,000	0,011	-0,103
-408,569	237,753	0,035	0,042
-407,555	198,466	0,070	-0,077
-406,540	-10,333	-0,055	-0,026
-405,525	46,473	-0,022	-0,015
-404,511	-138,997	-0,105	-0,008
-403,496	-178,103	-0,088	0,001
-402,482	-200,000	-0,022	-0,075
-401,467	270,761	0,113	0,145
-400,452	-200,000	0,008	0,030
-399,438	82,217	-0,050	-0,040
-398,423	435,466	0,037	0,059
-397,409	-200,000	0,116	0,000
-396,394	743,424	-0,025	-0,050
-395,379	28,051	-0,097	-0,059
-394,365	-50,192	0,120	-0,041
-393,350	-67,222	0,086	-0,024
-392,336	800,000	0,058	0,118
-391,321	-56,233	0,074	-0,024
-390,306	31,714	-0,031	0,019
-389,292	800,000	0,018	-0,052
-388,277	755,809	-0,039	-0,077
-387,263	127,756	0,053	0,049
-386,248	-92,664	0,059	-0,012
-385,233	-200,000	-0,022	0,080
-384,219	67,205	0,102	0,075
-383,204	-20,136	-0,185	-0,083
-382,190	-152,281	-0,064	-0,003
-381,175	34,484	0,143	0,091
-380,160	-41,693	-0,044	-0,016
-379,146	-61,454	-0,024	0,007
-378,131	222,721	0,067	0,078
-377,117	-160,548	0,055	-0,002
-376,102	-139,642	-0,125	0,010
-375,088	800,000	0,076	-0,197
-374,073	-92,815	-0,088	0,018
-373,058	-113,284	0,089	0,012
-372,044	358,902	-0,060	0,087
-371,029	800,000	0,015	0,038
-370,015	-141,791	-0,049	-0,004
-369,000	-200,000	-0,022	-0,073
-367,985	170,040	-0,039	-0,041
-366,971	43,481	-0,123	0,081
-365,956	-174,090	-0,163	0,003
-364,942	-148,193	0,100	0,006
-363,927	-90,308	0,037	0,008
-362,912	800,000	-0,059	-0,136
-361,898	-200,000	0,031	0,101
-360,883	-134,734	0,052	0,004
-359,869	-126,422	-0,063	-0,007
-358,854	-20,753	-0,088	0,039
-357,839	-77,282	0,095	0,024
-356,825	560,906	-0,093	0,164
-355,810	-0,906	0,099	0,051
-354,796	-178,697	-0,169	-0,003
-353,781	-62,759	0,116	0,034
-352,766	-9,504	-0,097	-0,047
-351,752	-200,000	0,003	0,056
-350,737	160,279	0,123	-0,124
-349,723	478,855	0,051	-0,083
-348,708	153,253	0,019	0,019
-347,693	469,943	0,035	-0,057
-346,679	-143,680	-0,138	-0,009
-345,664	800,000	-0,030	-0,076
-344,650	250,552	-0,073	-0,090
-343,635	38,711	-0,045	0,029
-342,620	-200,000	0,013	-0,049
-341,606	800,000	-0,061	0,150
-340,591	-25,935	-0,057	0,024
-339,577	59,152	0,128	-0,091
-338,562	-15,455	-0,081	0,037
-337,548	298,312	-0,039	-0,052
-336,533	-14,302	0,036	0,017
-335,518	-106,800	-0,038	-0,006
-334,504	-65,089	0,068	-0,020
-333,489	-200,000	0,021	-0,122
-332,475	244,582	-0,018	0,022
-331,460	148,657	-0,032	-0,031
-330,445	229,645	0,040	0,047
-329,431	800,000	-0,016	-0,037
-328,416	-200,000	0,001	-0,009
-327,402	-33,209	0,164	-0,066
-326,387	30,056	-0,130	0,080
-325,372	-44,291	-0,090	0,032
-324,358	-144,744	-0,149	0,010
-323,343	-74,054	-0,054	0,014
-322,329	-200,000	0,012	0,050
-321,314	-51,982	0,032	-0,011
-320,299	138,929	-0,036	0,034
-319,285	-200,000	-0,017	0,077
-318,270	-102,249	-0,154	-0,026
-317,256	360,291	0,016	0,024
-316,241	-126,574	0,107	0,011
-315,226	800,000	-0,034	0,079
-314,212	36,576	0,078	-0,050
-313,197	240,689	0,004	0,005
-312,183	20,895	-0,059	0,034
-311,168	452,528	0,024	0,038
-310,153	135,155	-0,039	-0,037
-309,139	-152,020	0,041	-0,002
-308,124	48,842	0,087	-0,059
-307,110	800,000	0,048	0,109
-306,095	-74,203	-0,144	-0,038
-305,080	109,520	-0,022	-0,019
-304,066	53,089	-0,106	0,073
-303,051	237,718	-0,069	-0,083
-302,037	-200,000	-0,039	0,171
-301,022	50,974	0,072	0,049
-300,008	-2,552	-0,004	0,002
-298,993	-200,000	-0,021	0,076
-297,978	103,007	0,030	-0,025
-296,964	59,173	-0,038	0,027
-295,949	800,000	0,033	-0,070
-294,935	134,565	-0,028	-0,027
-293,920	-200,000	-0,002	0,023
-292,905	362,537	0,057	0,083
-291,891	-51,087	0,087	0,029
-290,876	800,000	-0,014	0,029
-289,862	-103,416	0,052	-0,009
-288,847	-200,000	0,007	-0,121
-287,832	800,000	0,040	-0,102
-286,818	33,643	-0,055	-0,035
-285,803	655,336	0,071	0,133
-284,789	-14,431	-0,146	-0,068
-283,774	81,933	0,017	0,013
-282,759	66,899	-0,118	0,087
-281,745	746,962	0,035	0,068
-280,730	276,243	-0,074	-0,095
-279,716	800,000	0,030	0,078
-278,701	-200,000	-0,016	-0,070
-277,686	-200,000	0,057	0,225
-276,672	-200,000	0,034	0,111
-275,657	754,322	-0,034	0,067
-274,643	297,084	0,048	-0,063
-273,628	-200,000	0,016	-0,053
-272,613	-102,128	0,190	-0,033
-271,599	-169,123	-0,052	0,001
-270,584	191,832	0,122	0,133
-269,570	66,528	0,058	0,042
-268,555	-98,380	-0,084	0,015
-267,540	-200,000	0,008	0,071
-266,526	-109,489	0,085	-0,013
-265,511	189,033	0,058	0,063
-264,497	-200,000	0,012	0,066
-263,482	42,225	0,043	0,028
-262,467	12,375	-0,072	-0,040
-261,453	259,696	0,021	0,026
-260,438	159,938	-0,012	-0,012
-259,424	469,235	0,065	0,106
-258,409	800,000	0,059	0,166
-257,395	-23,988	0,081	0,035
-256,380	-200,000	-0,037	0,134
-255,365	-200,000	0,022	0,131
-254,351	-58,184	0,167	0,052
-253,336	311,910	0,080	-0,108
-252,322	10,164	-0,104	0,057
-251,307	-200,000	-0,025	0,103
-250,292	-137,211	0,128	-0,010
-249,278	286,804	0,058	-0,076
-248,263	473,549	-0,048	-0,078
-247,249	-1,284	-0,106	0,054
-246,234	119,064	-0,105	0,093
-245,219	5,277	0,022	0,012
-244,205	677,699	0,039	-0,073
-243,190	800,000	0,044	-0,116
-242,176	800,000	-0,026	-0,059
-241,161	-47,843	0,136	-0,047
-240,146	-58,051	-0,078	0,024
-239,132	423,853	0,030	0,047
-238,117	103,611	-0,200	-0,169
-237,103	-200,000	-0,008	-0,121
-236,088	85,111	-0,047	0,037
-235,073	800,000	0,025	0,072
-234,059	-200,000	0,014	-0,144
-233,044	81,611	0,066	-0,052
-232,030	170,316	0,150	0,154
-231,015	102,871	-0,044	-0,037
-230,000	692,440	0,023	0,044
-228,986	-90,016	-0,041	0,009
-227,971	179,540	0,085	-0,090
-226,957	84,947	0,089	0,070
-225,942	-99,874	0,044	0,008
-224,927	800,000	0,051	-0,128
-223,913	-78,526	0,076	0,019
-222,898	-50,480	0,016	-0,005
-221,884	464,948	0,024	-0,039
-220,869	329,534	0,062	-0,087
-219,855	800,000	0,033	0,098
-218,840	48,746	0,057	0,038
-217,825	-200,000	0,013	-0,061
-216,811	-116,174	0,103	0,014
-215,796	210,359	-0,044	-0,049
-214,782	-156,704	-0,095	-0,004
-213,767	-200,000	0,016	0,104
-212,752	-200,000	-0,007	0,152
-211,738	-9,812	-0,089	-0,043
-210,723	-200,000	-0,076	0,251
-209,709	-200,000	0,008	0,119
-208,694	585,984	0,092	-0,164
-207,679	800,000	-0,045	-0,102
-206,665	-200,000	0,025	0,156
-205,650	246,573	-0,070	-0,085
-204,636	29,194	0,151	-0,092
-203,621	800,000	0,039	-0,097
-202,606	-93,791	-0,140	-0,028
-201,592	-200,000	-0,041	-0,205
-200,577	6,297	0,030	0,016
-199,563	245,985	0,076	-0,092
-198,548	201,504	0,047	-0,052
-197,533	800,000	-0,039	0,077
-196,519	11,579	0,084	0,046
-195,504	-24,652	-0,080	-0,034
-194,490	-200,000	0,011	-0,068
-193,475	-21,882	-0,050	0,022
-192,460	-3,350	0,120	0,060
-191,446	432,865	0,043	-0,067
-190,431	800,000	-0,037	0,086
-189,417	-39,747	0,104	-0,039
-188,402	-111,989	0,086	-0,012
-187,387	421,307	-0,087	0,134
-186,373	345,334	0,114	-0,161
-185,358	127,953	-0,148	-0,136
-184,344	586,816	0,014	-0,024
-183,329	713,026	0,072	0,138
-182,315	86,061	0,070	-0,055
-181,300	757,879	0,032	0,063
-180,285	53,012	-0,068	-0,047
-179,271	-144,041	-0,062	0,004
-178,256	707,021	-0,081	0,154
-177,242	5,517	-0,044	-0,024
-176,227	800,000	0,062	0,136
-175,212	-61,496	-0,126	0,038
-174,198	-84,075	0,100	-0,023
-173,183	-152,530	-0,091	-0,005
-172,169	-16,098	-0,127	-0,058
-171,154	534,464	-0,060	-0,103
-170,139	99,611	-0,110	-0,092
-169,125	22,447	0,033	0,019
-168,110	800,000	0,072	0,206
-167,096	800,000	0,039	0,112
-166,081	252,365	0,051	0,063
-165,066	181,171	-0,046	-0,049
-164,052	-154,303	-0,130	-0,006
-163,037	-102,515	0,094	-0,016
-162,023	-148,013	0,095	0,006
-161,008	-63,135	-0,023	-0,007
-159,993	216,295	0,056	0,065
-158,979	-200,000	-0,020	-0,068
-157,964	-54,909	-0,077	-0,025
-156,950	-34,452	-0,063	0,025
-155,935	-18,324	0,056	-0,025
-154,920	100,128	-0,076	0,063
-153,906	-78,396	0,092	0,023
-152,891	102,620	-0,173	0,145
-151,877	17,346	0,093	0,053
-150,862	-200,000	0,012	-0,064
-149,847	-200,000	-0,034	-0,217
-148,833	361,303	-0,047	-0,068
-147,818	-200,000	0,011	0,148
-146,804	-200,000	0,000	-0,127
-145,789	-110,672	-0,140	-0,021
-144,775	70,105	0,145	0,107
-143,760	-200,000	-0,002	-0,029
-142,745	99,544	0,051	-0,042
-141,731	-16,842	0,151	0,068
-140,716	-114,818	0,155	0,021
-139,702	347,465	0,020	0,028
-138,687	336,870	0,066	0,092
-137,672	536,719	-0,039	-0,067
-136,658	-126,915	0,127	0,013
-135,643	85,781	0,111	-0,088
-134,629	62,776	-0,133	0,096
-133,614	86,798	0,082	0,065
-132,599	-143,967	-0,074	0,005
-131,585	-200,000	0,072	-0,238
-130,570	-200,000	-0,010	0,034
-129,556	18,630	0,108	-0,062
-128,541	175,207	-0,070	-0,073
-127,526	-200,000	-0,013	0,044
-126,512	-41,375	-0,089	0,033
-125,497	193,378	0,031	-0,034
-124,483	-200,000	0,007	0,121
-123,468	25,123	-0,070	0,042
-122,453	88,068	0,059	0,047
-121,439	86,704	-0,092	-0,073
-120,424	-200,000	0,016	-0,054
-119,410	-200,000	0,016	0,131
-118,395	-91,018	-0,093	-0,019
-117,380	2,128	0,068	0,035
-116,366	138,358	-0,085	0,080
-115,351	640,573	-0,054	0,099
-114,337	-74,171	-0,123	-0,032
-113,322	175,097	-0,053	0,055
-112,307	-138,290	0,092	-0,007
-111,293	360,854	0,040	-0,058
-110,278	800,000	-0,031	0,094
-109,264	14,919	-0,035	-0,020
-108,249	36,857	0,139	0,088
-107,234	95,135	-0,066	-0,054
-106,220	-48,788	-0,064	-0,022
-105,205	-31,903	0,190	0,076
-104,191	-69,948	-0,071	-0,019
-103,176	-200,000	0,007	0,051
-102,162	111,547	0,091	0,079
-101,147	514,014	-0,028	0,048
-100,132	62,036	0,112	0,080
-99,118	-200,000	0,020	-0,103
-98,103	68,882	-0,054	0,040
-97,089	-67,960	0,113	0,031
-96,074	377,556	-0,044	-0,065
-95,059	331,067	0,071	0,098
-94,045	92,099	0,033	-0,027
-93,030	74,393	-0,045	0,034
-92,016	69,498	-0,094	-0,069
-91,001	19,905	0,038	0,022
-89,986	800,000	0,054	0,165
-88,972	-30,997	-0,062	-0,025
-87,957	800,000	0,061	0,189
-86,943	-200,000	-0,004	0,058
-85,928	-90,096	-0,160	-0,033
-84,913	-22,920	-0,149	0,064
-83,899	-99,712	0,067	-0,012
-82,884	-200,000	-0,010	0,047
-81,870	-200,000	-0,027	0,155
-80,855	-128,242	0,067	0,007
-79,840	-200,000	-0,059	0,194
-78,826	43,166	-0,038	-0,025
-77,811	-149,726	-0,023	-0,001
-76,797	249,077	-0,051	0,062
-75,782	92,457	0,037	-0,030
-74,767	-200,000	-0,031	0,127
-73,753	441,224	-0,034	0,053
-72,738	800,000	0,014	-0,032
-71,724	-114,808	-0,033	0,004
-70,709	154,567	-0,116	-0,114
-69,694	289,425	-0,057	0,074
-68,680	114,587	0,124	0,108
-67,665	164,004	-0,050	0,050
-66,651	-200,000	-0,015	0,094
-65,636	-200,000	-0,001	0,049
-64,622	800,000	-0,023	0,067
-63,607	297,704	0,100	-0,132
-62,592	137,562	-0,020	0,018
-61,578	-3,581	0,098	-0,049
-60,563	-170,854	0,066	0,002
-59,549	129,136	-0,110	0,101
-58,534	25,104	-2,228	-1,321
-57,519	-200,000	-0,093	-0,627
-56,505	-200,000	-1,499	-5,174
-55,490	95,590	0,918	0,749
-54,476	800,000	5,311	12,111
-53,461	-200,000	18,942	320,675
-52,446	800,000	741,983	2324,726
-51,432	548,062	1654,978	2848,232
-50,417	109,539	1637,355	1404,095
-49,403	73,162	1287,868	962,945
-48,388	29,349	1029,561	624,735
-47,373	19,590	992,532	570,004
-46,359	16,874	980,082	553,917
-45,344	13,445	976,530	540,638
-44,330	13,773	975,006	540,849
-43,315	13,176	972,880	537,694
-42,300	13,064	971,918	536,774
-41,286	13,048	971,133	536,265
-40,271	13,046	970,016	535,622
-39,257	13,051	969,275	535,210
-38,242	13,006	968,396	534,556
-37,227	13,066	967,514	534,242
-36,213	12,981	966,759	533,527
-35,198	12,982	965,582	532,860
-34,184	13,065	965,099	532,841
-33,169	13,014	964,058	532,079
-32,154	13,075	963,022	531,685
-31,140	13,094	962,189	531,265
-30,125	13,105	961,401	530,845
-29,111	13,067	960,593	530,253
-28,096	13,059	959,933	529,845
-27,082	13,019	959,305	529,347
-26,067	13,111	958,500	529,177
-25,052	13,090	957,778	528,692
-24,038	13,097	957,035	528,282
-23,023	13,068	956,398	527,817
-22,009	13,106	955,957	527,675
-20,994	13,098	955,235	527,231
-19,979	13,072	954,695	526,826
-18,965	13,136	953,831	526,536
-17,950	13,093	953,497	526,191
-16,936	13,041	952,829	525,636
-15,921	13,006	952,110	525,107
-14,906	13,012	951,303	524,659
-13,892	12,963	950,756	524,180
-12,877	12,960	950,087	523,780
-11,863	12,989	949,395	523,470
-10,848	12,983	949,079	523,256
-9,833	13,096	948,379	523,209
-8,819	12,953	947,710	522,364
-7,804	13,080	946,933	522,320
-6,790	12,986	946,414	521,715
-5,775	13,008	946,087	521,582
-4,760	12,949	945,433	521,016
-3,746	12,951	944,662	520,575
-2,731	12,838	943,997	519,831
-1,717	12,835	943,210	519,367
-0,702	12,877	942,710	519,203
0,313	12,602	942,029	518,742
1,327	16,105	939,926	528,602
2,342	25,317	790,295	468,725
3,356	21,225	445,207	257,961
4,371	-7,885	298,749	143,695
5,386	-11,664	280,650	131,356
6,400	-13,011	275,075	127,469
7,415	-12,981	272,759	126,412
8,429	-13,213	271,206	125,466
9,444	-13,431	270,295	124,833
10,459	-13,144	269,617	124,773
11,473	-13,251	268,987	124,372
12,488	-13,189	268,508	124,196
13,502	-13,610	267,867	123,503
14,517	-13,293	267,369	123,552
15,531	-13,480	267,129	123,260
16,546	-13,261	266,655	123,230
17,561	-13,331	266,377	123,026
18,575	-13,217	265,996	122,942
19,590	-13,472	265,515	122,478
20,604	-13,257	265,295	122,561
21,619	-13,555	264,985	122,137
22,634	-13,371	264,627	122,127
23,648	-13,438	264,193	121,856
24,663	-13,152	263,948	121,990
25,677	-13,346	263,654	121,668
26,692	-13,502	263,447	121,421
27,707	-13,417	263,281	121,410
28,721	-13,544	262,967	121,142
29,736	-13,459	262,632	121,052
30,750	-13,429	262,353	120,940
31,765	-13,414	262,071	120,813
32,780	-13,475	261,901	120,669
33,794	-13,620	261,768	120,467
34,809	-13,595	261,536	120,372
35,823	-13,511	261,233	120,296
36,838	-13,514	261,023	120,187
37,853	-13,586	260,580	119,908
38,867	-13,656	260,517	119,806
39,882	-13,640	260,236	119,680
40,896	-13,513	259,881	119,618
41,911	-13,516	259,601	119,477
42,926	-13,603	259,416	119,303
43,940	-13,478	259,186	119,298
44,955	-13,523	259,017	119,170
45,969	-13,612	258,645	118,910
46,984	-13,827	258,607	118,692
47,999	-14,100	258,350	118,323
49,013	-14,273	257,951	117,978
50,028	-14,326	257,656	117,786
51,042	-14,519	257,406	117,492
52,057	-14,354	257,207	117,535
53,071	-14,484	257,048	117,338
54,086	-14,261	256,803	117,411
55,101	-14,190	256,718	117,423
56,115	-13,942	256,491	117,526
57,130	-13,599	256,455	117,798
58,144	-13,296	256,256	117,961
59,159	-13,208	256,018	117,917
60,174	-13,362	255,869	117,704
61,188	-13,358	255,583	117,565
62,203	-13,408	255,318	117,389
63,217	-13,305	255,085	117,362
64,232	-13,257	254,922	117,317
65,247	-13,337	254,669	117,121
66,261	-13,417	254,476	116,953
67,276	-13,583	254,123	116,637
68,290	-13,951	253,796	116,159
69,305	-14,037	253,708	116,034
70,320	-13,904	253,572	116,076
71,334	-13,582	253,375	116,253
72,349	-13,409	253,247	116,333
73,363	-13,137	252,993	116,439
74,378	-13,262	252,875	116,267
75,393	-13,255	252,643	116,156
76,407	-13,546	252,396	115,783
77,422	-13,333	252,030	115,787
78,436	-13,522	252,077	115,637
79,451	-13,528	251,715	115,455
80,466	-13,432	251,457	115,409
81,480	-13,749	251,227	115,022
82,495	-13,820	251,010	114,852
83,509	-13,685	251,001	114,953
84,524	-13,799	250,604	114,664
85,539	-13,808	250,298	114,506
86,553	-13,974	250,280	114,347
87,568	-13,662	250,004	114,475
88,582	-13,649	249,778	114,373
89,597	-13,640	249,653	114,312
90,611	-13,595	249,669	114,347
91,626	-13,290	249,416	114,480
92,641	-13,296	249,056	114,299
93,655	-13,582	248,894	113,973
94,670	-13,683	248,721	113,798
95,684	-13,638	248,617	113,779
96,699	-13,546	248,418	113,754
97,714	-13,789	248,072	113,382
98,728	-13,827	248,013	113,313
99,743	-13,929	247,587	113,022
100,757	-14,019	247,579	112,933
101,772	-13,819	247,261	112,946
102,787	-13,881	247,135	112,826
103,801	-13,788	247,077	112,868
104,816	-13,592	246,844	112,915
105,830	-13,335	246,575	112,997
106,845	-13,440	246,439	112,836
107,860	-13,617	246,230	112,583
108,874	-13,694	246,176	112,484
109,889	-13,600	245,907	112,429
110,903	-13,570	245,646	112,325
111,918	-13,658	245,383	112,122
112,933	-13,617	245,298	112,107
113,947	-13,545	245,079	112,057
114,962	-13,463	245,046	112,100
115,976	-13,507	244,841	111,959
116,991	-13,595	244,699	111,812
118,006	-13,562	244,409	111,696
119,020	-13,720	244,218	111,468
120,035	-13,548	244,194	111,590
121,049	-13,489	244,034	111,556
122,064	-13,495	243,765	111,417
123,079	-13,442	243,592	111,372
124,093	-13,763	243,513	111,062
125,108	-13,709	243,047	110,884
126,122	-13,971	242,815	110,553
127,137	-13,972	242,709	110,493
128,151	-13,877	242,538	110,484
129,166	-13,776	242,355	110,473
130,181	-13,885	242,187	110,298
131,195	-14,080	241,946	110,019
132,210	-13,757	241,842	110,226
133,224	-13,650	241,629	110,207
134,239	-13,275	241,468	110,429
135,254	-13,326	241,214	110,262
136,268	-13,825	241,004	109,750
137,283	-13,869	240,727	109,577
138,297	-14,058	240,622	109,366
139,312	-14,209	240,251	109,065
140,327	-13,718	240,358	109,502
141,341	-13,393	240,381	109,767
142,356	-13,107	240,030	109,829
143,370	-13,299	239,912	109,610
144,385	-13,185	239,900	109,687
145,400	-13,180	239,627	109,557
146,414	-13,106	239,488	109,543
147,429	-13,191	239,218	109,341
148,443	-13,223	239,049	109,228
149,458	-13,108	238,961	109,271
150,473	-13,192	238,608	109,032
151,487	-13,272	238,421	108,873
152,502	-13,127	238,345	108,945
153,516	-13,254	238,273	108,800
154,531	-13,499	238,206	108,563
155,546	-13,372	237,917	108,524
156,560	-13,299	237,626	108,439
157,575	-13,438	237,498	108,261
158,589	-13,245	237,385	108,354
159,604	-13,068	237,029	108,323
160,619	-12,728	237,035	108,588
161,633	-12,817	236,929	108,459
162,648	-12,980	236,492	108,119
163,662	-13,344	236,554	107,848
164,677	-13,192	236,369	107,874
165,692	-13,227	236,264	107,789
166,706	-13,267	236,182	107,710
167,721	-13,119	236,061	107,763
168,735	-12,926	235,821	107,797
169,750	-13,020	235,533	107,581
170,764	-12,795	235,316	107,651
171,779	-13,194	235,353	107,342
172,794	-13,214	235,092	107,198
173,808	-13,251	234,840	107,044
174,823	-13,940	234,650	106,403
175,837	-14,096	234,466	106,187
176,852	-13,313	234,449	106,788
177,867	-13,338	234,453	106,761
178,881	-13,198	234,108	106,704
179,896	-13,192	234,093	106,693
180,910	-13,055	233,934	106,718
181,925	-12,935	233,750	106,719
182,940	-13,093	233,540	106,490
183,954	-12,949	233,455	106,555
184,969	-12,992	233,233	106,410
185,983	-12,909	233,025	106,372
186,998	-12,873	232,931	106,347
188,013	-12,953	232,764	106,198
189,027	-12,845	232,685	106,237
190,042	-12,839	232,383	106,095
191,056	-12,940	232,312	105,974
192,071	-12,934	232,108	105,876
193,086	-13,035	232,000	105,739
194,100	-12,845	231,800	105,786
195,115	-13,329	231,280	105,163
196,129	-13,370	231,430	105,190
197,144	-7,849	233,303	110,358
198,159	-2,004	235,176	115,839
199,173	2,248	236,305	119,739
200,188	3,191	236,228	120,433
201,202	2,870	236,354	120,234
202,217	3,130	236,025	120,260
203,232	3,101	236,009	120,218
204,246	3,454	235,770	120,363
205,261	3,373	235,732	120,269
206,275	3,507	235,507	120,248
207,290	3,630	235,445	120,302
208,304	3,472	235,409	120,150
209,319	3,510	235,055	119,988
210,334	3,153	234,952	119,646
211,348	3,073	234,646	119,416
212,363	2,920	234,303	119,112
213,377	2,679	234,069	118,795
214,392	2,604	233,999	118,690
215,407	2,685	233,996	118,742
216,421	2,803	233,582	118,612
217,436	2,600	233,548	118,427
218,450	2,444	233,311	118,174
219,465	2,488	233,099	118,091
220,480	2,704	233,056	118,226
221,494	2,481	233,049	118,039
222,509	2,805	232,761	118,133
223,523	2,848	232,668	118,109
224,538	2,478	232,646	117,801
225,553	2,774	232,255	117,821
226,567	2,885	232,139	117,837
227,582	2,860	232,277	117,878
228,596	3,131	232,084	117,978
229,611	2,857	231,772	117,598
230,626	2,538	231,626	117,268
231,640	2,503	231,381	117,106
232,655	2,754	231,338	117,268
233,669	3,302	231,223	117,620
234,684	3,202	231,141	117,490
235,699	3,126	230,981	117,340
236,713	3,065	230,827	117,205
237,728	2,811	230,505	116,837
238,742	2,684	230,438	116,695
239,757	2,755	230,151	116,593
240,772	2,795	229,971	116,522
241,786	2,822	229,865	116,479
242,801	2,692	229,929	116,401
243,815	3,188	229,879	116,744
244,830	3,227	229,604	116,624
245,844	2,846	229,385	116,212
246,859	2,769	229,132	116,016
247,874	2,981	229,033	116,116
248,888	2,975	228,966	116,068
249,903	2,680	228,905	115,802
250,917	2,773	228,597	115,707
251,932	2,637	228,524	115,556
252,947	2,352	228,369	115,251
253,961	2,524	228,064	115,218
254,976	2,496	228,003	115,155
255,990	3,014	227,919	115,493
257,005	2,928	227,695	115,305
258,020	3,156	227,677	115,458
259,034	2,929	227,566	115,220
260,049	3,036	227,349	115,181
261,063	3,137	227,207	115,174
262,078	2,938	227,055	114,938
263,093	3,114	226,971	115,017
264,107	3,189	226,842	114,998
265,122	3,097	226,687	114,840
266,136	3,167	226,595	114,835
267,151	3,003	226,462	114,635
268,166	2,842	226,147	114,345
269,180	2,332	225,936	113,846
270,195	2,341	225,895	113,821
271,209	2,668	225,757	113,987
272,224	2,885	225,567	114,043
273,239	3,004	225,474	114,074
274,253	3,002	225,196	113,922
275,268	2,638	225,004	113,544
276,282	2,551	224,905	113,419
277,297	2,671	224,757	113,423
278,312	2,620	224,668	113,330
279,326	2,624	224,492	113,235
280,341	2,751	224,441	113,293
281,355	3,034	224,190	113,366
282,370	2,704	224,150	113,091
283,384	2,694	223,896	112,945
284,399	2,504	223,751	112,721
285,414	2,446	223,683	112,634
286,428	2,534	223,645	112,670
287,443	3,014	223,451	112,917
288,457	2,998	223,255	112,796
289,472	2,536	223,087	112,360
290,487	2,317	222,834	112,062
291,501	2,195	222,668	111,878
292,516	2,223	222,535	111,822
293,530	2,377	222,469	111,892
294,545	2,286	222,427	111,794
295,560	2,547	222,172	111,847
296,574	2,763	222,009	111,914
297,589	2,652	221,963	111,799
298,603	2,893	221,835	111,902
299,618	2,830	221,695	111,775
300,633	2,858	221,531	111,703
301,647	3,119	221,499	111,867
302,662	2,967	221,306	111,649
303,676	2,947	221,204	111,573
304,691	2,939	221,049	111,479
305,706	3,005	220,883	111,434
306,720	2,994	220,870	111,409
307,735	2,801	220,507	111,076
308,749	2,570	220,490	110,889
309,764	2,924	220,261	111,021
310,779	3,003	220,173	111,024
311,793	2,831	219,954	110,779
312,808	3,062	219,769	110,844
313,822	3,014	219,606	110,717
314,837	2,777	219,587	110,526
315,852	2,589	219,408	110,289
316,866	2,667	219,283	110,273
317,881	2,843	219,280	110,389
318,895	2,812	219,092	110,262
319,910	2,748	218,735	110,027
320,925	2,327	218,642	109,667
321,939	2,038	218,446	109,350
322,954	2,468	218,320	109,587
323,968	2,733	218,335	109,776
324,983	2,933	218,211	109,847
325,997	2,957	218,019	109,758
327,012	2,995	217,847	109,689
328,027	2,984	217,741	109,618
329,041	3,138	217,740	109,718
330,056	2,952	217,643	109,526
331,070	2,699	217,422	109,224
332,085	2,688	217,150	109,070
333,100	2,654	217,060	108,991
334,114	2,619	216,970	108,910
335,129	2,934	216,567	108,923
336,143	2,131	216,555	108,335
337,158	2,584	216,353	108,547
338,173	2,711	216,423	108,663
339,187	3,000	216,266	108,780
340,202	2,745	216,093	108,502
341,216	2,370	215,871	108,114
342,231	2,699	215,720	108,262
343,246	2,728	215,673	108,249
344,260	2,808	215,564	108,243
345,275	2,964	215,444	108,283
346,289	2,758	215,445	108,128
347,304	2,705	215,257	107,986
348,319	2,767	214,964	107,873
349,333	2,648	214,967	107,781
350,348	2,853	214,655	107,760
351,362	2,875	214,749	107,813
352,377	2,859	214,765	107,801
353,392	2,699	214,382	107,485
354,406	2,929	214,233	107,563
355,421	196,657	1315,362	1391,856
356,435	157,341	1449,463	1391,789
