DTS Sentinel unit serial number:	SN410029Multiplexer serial number:	ORYXHardware model number:	OX2-SRSoftware version number:	ORYX F/W v4,00 Oryx Data Collector v3.7.2.0data status	okinstallation	B6 Nyhavnadifferential loss correction	single-endedforward channel	channel 2reverse channel	N/Adate	2023/12/09time	03:20:08forward acquisition time	300,00reverse acquisition time	0,00gamma	499,1914k internal	0,3153k external	0,3153temperature offset calibration	1,0000default loss term (dB/km)	0,3820temperature slope calibration	1,0000multiplexer offset coefficient	1,0000multiplexer slope coefficient	1,0000fibre end	0,00T internal ref (°C)	16,27T ext. ref 1 (°C)	0,26T ext. ref 2 (°C)	0,25length (m)	temperature (°C)	Stokes	anti-Stokes-744,400	-151,125	0,043	0,002
-743,385	-136,523	-0,327	0,028
-742,371	189,534	0,059	0,066
-741,356	-5,926	-0,142	-0,071
-740,342	-116,969	0,141	0,019
-739,327	-116,351	-0,346	0,047
-738,312	-146,728	0,145	-0,009
-737,298	-179,135	-0,333	0,005
-736,283	-200,000	-0,005	0,052
-735,269	-35,483	-0,160	-0,064
-734,254	-79,992	0,037	-0,009
-733,239	-59,028	-0,575	-0,182
-732,225	-80,708	0,232	0,057
-731,210	-200,000	0,008	0,119
-730,196	380,637	-0,069	-0,104
-729,181	321,611	-0,078	-0,110
-728,167	339,632	0,028	-0,040
-727,152	-200,000	-0,021	-0,132
-726,137	271,461	-0,061	-0,080
-725,123	113,310	-0,026	-0,023
-724,108	280,236	-0,077	-0,102
-723,094	800,000	0,041	-0,110
-722,079	64,092	0,043	0,032
-721,064	41,995	-0,104	-0,069
-720,050	-172,136	0,134	0,003
-719,035	11,151	-0,051	0,029
-718,021	-7,035	-0,071	-0,036
-717,006	187,518	-0,066	-0,073
-715,991	519,383	-0,117	-0,203
-714,977	-200,000	0,020	0,090
-713,962	38,626	-0,100	-0,066
-712,948	-85,994	-0,118	-0,027
-711,933	661,742	0,039	-0,074
-710,918	-146,701	-0,148	-0,009
-709,904	800,000	-0,053	-0,114
-708,889	-200,000	-0,007	-0,032
-707,875	277,163	-0,096	-0,126
-706,860	-102,028	0,022	-0,004
-705,845	-200,000	-0,018	-0,236
-704,831	800,000	0,072	0,214
-703,816	645,210	0,004	-0,008
-702,802	-66,832	-0,218	0,063
-701,787	-200,000	0,021	-0,101
-700,772	123,069	0,004	-0,004
-699,758	-101,650	-0,129	-0,023
-698,743	1,832	0,067	0,036
-697,729	-200,000	0,006	0,053
-696,714	-200,000	0,018	0,103
-695,699	142,720	-0,068	0,067
-694,685	-200,000	0,036	-0,141
-693,670	125,297	0,039	0,036
-692,656	-200,000	0,011	0,041
-691,641	-36,938	0,146	0,058
-690,627	-200,000	-0,010	0,138
-689,612	650,169	-0,037	0,071
-688,597	-200,000	-0,003	-0,016
-687,583	-4,697	-0,063	-0,032
-686,568	257,781	-0,045	0,057
-685,554	200,131	-0,104	-0,118
-684,539	-200,000	-0,012	0,083
-683,524	-200,000	0,026	0,100
-682,510	27,362	-0,166	0,103
-681,495	-200,000	-0,009	-0,067
-680,481	-200,000	0,005	-0,064
-679,466	-4,269	0,083	0,042
-678,451	265,606	-0,068	-0,088
-677,437	22,505	0,134	-0,081
-676,422	61,080	0,099	0,073
-675,408	-200,000	-0,022	0,110
-674,393	325,448	-0,042	-0,059
-673,378	-200,000	-0,005	-0,104
-672,364	-2,585	0,092	-0,047
-671,349	-200,000	0,013	-0,109
-670,335	-200,000	-0,040	-0,146
-669,320	800,000	0,036	0,084
-668,305	-200,000	-0,022	0,112
-667,291	-100,513	-0,090	-0,016
-666,276	758,208	0,063	-0,127
-665,262	800,000	-0,061	-0,179
-664,247	-80,363	-0,143	0,035
-663,232	800,000	0,052	0,110
-662,218	-200,000	-0,021	-0,100
-661,203	723,976	-0,022	-0,043
-660,189	192,213	-0,086	-0,095
-659,174	-86,884	-0,091	-0,020
-658,159	-90,598	0,093	-0,020
-657,145	178,077	0,087	0,094
-656,130	204,176	-0,082	0,093
-655,116	-26,324	0,020	0,009
-654,101	-200,000	0,022	0,218
-653,086	43,263	-0,056	0,037
-652,072	800,000	0,026	-0,075
-651,057	126,190	0,057	0,053
-650,043	746,930	-0,059	0,117
-649,028	-200,000	0,006	-0,056
-648,014	-200,000	0,032	-0,106
-646,999	-166,095	0,124	-0,004
-645,984	280,047	-0,009	0,012
-644,970	-200,000	-0,015	0,131
-643,955	-21,997	-0,042	-0,019
-642,941	9,242	-0,038	0,021
-641,926	800,000	0,036	-0,098
-640,911	509,928	0,057	-0,098
-639,897	-200,000	0,060	-0,217
-638,882	138,550	0,016	-0,016
-637,868	52,330	-0,071	0,050
-636,853	142,791	-0,133	-0,130
-635,838	148,340	-0,070	-0,070
-634,824	-200,000	-0,005	-0,080
-633,809	-7,165	-0,072	-0,036
-632,795	-91,872	0,072	-0,015
-631,780	61,110	-0,104	-0,076
-630,765	800,000	0,006	0,014
-629,751	526,569	-0,076	-0,132
-628,736	572,818	0,102	-0,184
-627,722	122,328	-0,058	-0,053
-626,707	-29,644	0,027	-0,011
-625,692	-158,452	-0,065	-0,003
-624,678	-200,000	0,004	0,130
-623,663	-145,726	0,042	-0,003
-622,649	165,118	0,044	-0,046
-621,634	286,560	-0,021	-0,029
-620,619	-0,249	0,023	-0,012
-619,605	800,000	0,021	-0,066
-618,590	-200,000	-0,006	0,062
-617,576	8,971	0,184	0,102
-616,561	-109,183	-0,118	-0,018
-615,546	-139,954	-0,118	-0,009
-614,532	800,000	0,042	0,092
-613,517	693,501	-0,040	0,077
-612,503	29,906	0,043	0,027
-611,488	-200,000	0,018	-0,123
-610,474	-200,000	0,030	-0,131
-609,459	-106,963	-0,098	0,016
-608,444	-23,390	-0,084	-0,037
-607,430	800,000	0,044	0,111
-606,415	-200,000	0,023	-0,096
-605,401	182,637	0,024	0,026
-604,386	798,765	-0,049	-0,099
-603,371	35,478	0,045	0,029
-602,357	-119,267	-0,071	-0,009
-601,342	-85,653	0,025	-0,006
-600,328	800,000	0,027	-0,086
-599,313	-200,000	0,020	-0,080
-598,298	-200,000	-0,008	0,063
-597,284	-200,000	-0,025	0,080
-596,269	349,258	0,130	0,190
-595,255	-57,479	0,086	-0,028
-594,240	129,835	-0,098	-0,092
-593,225	-1,203	-0,098	-0,051
-592,211	-200,000	0,042	-0,145
-591,196	-200,000	-0,009	-0,067
-590,182	-200,000	0,001	0,058
-589,167	526,154	0,037	0,064
-588,152	146,821	0,071	0,070
-587,138	-123,081	0,095	0,011
-586,123	800,000	-0,057	-0,167
-585,109	10,735	-0,044	-0,025
-584,094	-200,000	-0,016	-0,057
-583,079	-200,000	0,010	0,085
-582,065	-83,482	0,097	0,023
-581,050	52,328	-0,013	0,009
-580,036	384,576	-0,024	-0,037
-579,021	-11,673	0,056	-0,027
-578,006	227,461	0,064	0,076
-576,992	-101,831	-0,071	-0,013
-575,977	-135,101	0,121	0,011
-574,963	20,259	-0,047	0,028
-573,948	-95,968	-0,045	0,009
-572,934	159,249	0,073	-0,075
-571,919	-191,845	-0,065	-0,000
-570,904	-38,416	-0,074	-0,029
-569,890	-200,000	0,024	-0,111
-568,875	-50,122	0,051	0,017
-567,861	800,000	-0,016	0,049
-566,846	800,000	-0,045	-0,120
-565,831	43,088	0,056	0,037
-564,817	191,797	-0,057	-0,064
-563,802	-151,703	-0,075	0,004
-562,788	800,000	0,077	0,157
-561,773	800,000	-0,019	-0,052
-560,758	19,173	0,102	-0,060
-559,744	274,454	0,009	0,011
-558,729	-200,000	-0,020	-0,110
-557,715	703,133	-0,048	-0,093
-556,700	-7,292	-0,079	0,039
-555,685	800,000	0,028	-0,059
-554,671	-200,000	0,003	0,029
-553,656	-33,522	-0,086	0,035
-552,642	-200,000	0,052	0,193
-551,627	800,000	-0,041	0,123
-550,612	-200,000	-0,009	0,072
-549,598	800,000	-0,020	0,042
-548,583	-13,141	-0,129	-0,061
-547,569	800,000	0,069	-0,162
-546,554	-56,405	0,083	0,027
-545,539	-112,100	-0,080	0,012
-544,525	732,939	0,024	0,047
-543,510	51,560	-0,154	0,107
-542,496	166,194	0,023	-0,024
-541,481	-156,750	-0,156	-0,007
-540,466	800,000	0,015	0,049
-539,452	764,174	0,076	0,152
-538,437	800,000	-0,016	0,040
-537,423	13,462	0,031	0,018
-536,408	14,508	-0,023	-0,013
-535,393	139,074	-0,044	0,042
-534,379	755,134	0,023	-0,046
-533,364	-200,000	0,011	-0,053
-532,350	-4,345	-0,044	-0,022
-531,335	264,531	0,098	0,125
-530,321	800,000	-0,077	0,165
-529,306	135,402	-0,054	-0,051
-528,291	-22,500	-0,108	-0,047
-527,277	-200,000	-0,018	-0,074
-526,262	128,330	-0,079	-0,073
-525,248	361,920	-0,067	-0,098
-524,233	-200,000	0,007	-0,025
-523,218	308,339	0,050	-0,069
-522,204	76,557	0,075	-0,058
-521,189	-200,000	0,018	-0,115
-520,175	258,259	-0,020	0,026
-519,160	800,000	-0,040	-0,083
-518,145	-168,202	-0,049	0,001
-517,131	83,397	0,049	0,039
-516,116	-15,847	0,062	0,029
-515,102	431,710	-0,061	-0,096
-514,087	800,000	-0,018	-0,051
-513,072	-200,000	0,013	-0,217
-512,058	-200,000	0,009	-0,115
-511,043	-23,312	-0,120	0,053
-510,029	-200,000	0,032	0,112
-509,014	259,079	-0,079	-0,100
-507,999	74,600	0,096	-0,074
-506,985	-145,143	-0,051	-0,003
-505,970	85,452	-0,073	-0,059
-504,956	-171,536	0,092	-0,002
-503,941	-145,888	0,094	0,006
-502,926	346,831	-0,040	-0,057
-501,912	-61,010	0,048	-0,015
-500,897	-93,579	0,109	0,022
-499,883	-200,000	-0,041	-0,134
-498,868	471,058	0,035	-0,058
-497,853	136,593	0,057	-0,055
-496,839	11,248	0,125	0,070
-495,824	-47,894	-0,056	-0,020
-494,810	800,000	0,017	-0,053
-493,795	-112,381	-0,092	0,013
-492,781	553,644	0,028	0,050
-491,766	-7,247	-0,144	0,071
-490,751	260,506	-0,047	0,060
-489,737	800,000	-0,006	0,018
-488,722	101,333	-0,069	0,059
-487,708	-68,853	0,068	0,019
-486,693	576,485	-0,071	0,128
-485,678	-97,149	0,040	-0,007
-484,664	615,907	-0,059	-0,109
-483,649	313,754	0,061	-0,083
-482,635	331,145	-0,109	0,154
-481,620	62,698	0,077	-0,056
-480,605	-200,000	-0,005	0,127
-479,591	-200,000	0,006	0,098
-478,576	-200,000	0,020	-0,085
-477,562	-65,244	0,018	-0,005
-476,547	184,706	-0,040	0,043
-475,532	-117,727	-0,166	-0,022
-474,518	-43,277	0,102	-0,037
-473,503	-34,787	0,040	0,016
-472,489	65,419	0,051	0,037
-471,474	-200,000	0,009	-0,089
-470,459	-200,000	-0,006	0,057
-469,445	-200,000	-0,021	-0,083
-468,430	174,014	0,013	-0,014
-467,416	800,000	0,022	0,053
-466,401	309,952	0,119	0,163
-465,386	-30,216	0,077	-0,032
-464,372	59,851	0,081	0,059
-463,357	34,313	-0,033	-0,021
-462,343	800,000	-0,039	-0,095
-461,328	-130,082	0,049	-0,005
-460,313	78,913	-0,114	0,089
-459,299	-5,411	0,132	0,066
-458,284	173,867	-0,112	0,118
-457,270	-200,000	-0,002	-0,064
-456,255	282,120	0,032	-0,042
-455,241	24,992	-0,090	-0,054
-454,226	170,604	0,030	-0,031
-453,211	800,000	-0,060	-0,139
-452,197	719,453	-0,017	-0,034
-451,182	547,126	-0,055	0,096
-450,168	16,207	0,031	0,018
-449,153	800,000	-0,052	0,115
-448,138	630,030	0,050	-0,093
-447,124	-40,993	0,037	0,014
-446,109	19,039	-0,062	-0,036
-445,095	-200,000	0,018	0,083
-444,080	-200,000	0,001	-0,030
-443,065	61,006	-0,108	0,078
-442,051	-124,914	-0,052	0,006
-441,036	160,410	-0,055	-0,056
-440,022	-95,448	-0,058	-0,011
-439,007	-112,105	0,174	-0,025
-437,992	-155,690	0,018	0,001
-436,978	6,641	-0,033	-0,018
-435,963	800,000	-0,051	0,109
-434,949	-200,000	-0,046	-0,158
-433,934	359,469	0,084	-0,123
-432,919	-115,902	-0,131	-0,018
-431,905	502,467	-0,026	-0,044
-430,890	-157,441	-0,047	0,002
-429,876	503,345	-0,058	0,097
-428,861	800,000	-0,005	-0,012
-427,846	-111,481	0,009	0,001
-426,832	-7,405	0,074	0,036
-425,817	115,563	0,074	-0,066
-424,803	-23,980	-0,106	-0,046
-423,788	-200,000	-0,008	0,083
-422,773	-105,736	-0,036	-0,006
-421,759	472,961	0,035	-0,058
-420,744	-31,734	-0,146	0,059
-419,730	800,000	-0,023	0,055
-418,715	-200,000	0,029	0,103
-417,701	800,000	0,036	-0,091
-416,686	152,035	0,126	-0,125
-415,671	-52,927	0,018	0,006
-414,657	309,135	0,096	0,131
-413,642	722,200	-0,034	-0,066
-412,628	38,078	-0,130	-0,084
-411,613	-200,000	0,000	-0,168
-410,598	-200,000	0,003	-0,070
-409,584	800,000	0,060	-0,140
-408,569	96,620	-0,031	0,026
-407,555	-200,000	-0,022	0,079
-406,540	-118,248	0,010	-0,001
-405,525	129,405	-0,095	0,089
-404,511	-200,000	0,048	-0,166
-403,496	800,000	0,022	0,051
-402,482	226,383	0,034	0,041
-401,467	-200,000	0,025	-0,140
-400,452	168,664	-0,055	0,057
-399,438	-3,767	0,069	0,035
-398,423	77,803	-0,044	0,034
-397,409	800,000	0,026	-0,076
-396,394	-200,000	-0,031	-0,109
-395,379	315,609	-0,025	0,035
-394,365	55,453	0,151	0,106
-393,350	15,681	-0,054	-0,031
-392,336	-63,327	0,149	-0,045
-391,321	2,725	-0,097	-0,051
-390,306	-38,498	-0,102	-0,039
-389,292	-90,403	-0,031	-0,006
-388,277	-3,501	0,060	-0,030
-387,263	-200,000	0,010	0,101
-386,248	115,734	0,087	0,078
-385,233	-37,022	0,021	0,008
-384,219	246,202	-0,058	-0,072
-383,204	-108,045	-0,062	0,010
-382,190	59,643	0,032	-0,023
-381,175	230,029	-0,037	-0,044
-380,160	-200,000	-0,003	-0,075
-379,146	-12,228	0,052	0,025
-378,131	-200,000	-0,012	-0,045
-377,117	-26,554	0,101	-0,043
-376,102	-200,000	-0,022	0,136
-375,088	157,645	0,044	0,044
-374,073	-84,117	0,140	-0,032
-373,058	137,250	0,075	-0,071
-372,044	501,230	-0,083	0,140
-371,029	76,214	0,142	-0,109
-370,015	-76,303	0,116	-0,030
-369,000	800,000	0,046	-0,111
-367,985	800,000	-0,047	-0,107
-366,971	-35,719	-0,086	-0,034
-365,956	800,000	-0,013	-0,039
-364,942	-34,611	0,135	0,053
-363,927	-0,533	-0,036	-0,019
-362,912	13,904	0,085	-0,048
-361,898	-147,510	0,069	0,004
-360,883	800,000	-0,023	-0,056
-359,869	-200,000	-0,045	0,000
-358,854	192,223	-0,048	-0,052
-357,839	417,254	-0,067	-0,104
-356,825	-200,000	0,020	0,078
-355,810	-69,232	0,153	-0,043
-354,796	352,168	-0,088	-0,127
-353,781	-200,000	0,034	-0,130
-352,766	403,922	-0,082	-0,126
-351,752	-112,412	0,121	0,017
-350,737	-200,000	-0,003	0,014
-349,723	-73,802	0,040	0,011
-348,708	-55,403	-0,116	0,037
-347,693	542,032	0,079	-0,138
-346,679	-200,000	-0,004	-0,166
-345,664	-97,738	0,074	-0,014
-344,650	-200,000	-0,010	-0,092
-343,635	-30,793	0,050	-0,020
-342,620	-95,470	0,036	0,007
-341,606	104,760	0,109	0,093
-340,591	461,363	0,027	-0,044
-339,577	-200,000	-0,032	0,129
-338,562	-22,084	-0,102	-0,045
-337,548	-25,419	0,142	-0,061
-336,533	-114,043	-0,053	-0,007
-335,518	-122,164	-0,123	0,014
-334,504	800,000	-0,047	0,106
-333,489	470,176	-0,062	0,102
-332,475	800,000	-0,027	0,064
-331,460	-17,135	-0,009	0,004
-330,445	-167,233	0,091	-0,003
-329,431	132,986	0,033	0,031
-328,416	362,401	-0,048	0,070
-327,402	-200,000	0,012	0,078
-326,387	431,507	0,031	0,049
-325,372	-44,082	-0,138	-0,050
-324,358	42,151	-0,056	-0,037
-323,343	486,444	-0,006	-0,011
-322,329	773,456	0,006	-0,012
-321,314	800,000	0,022	-0,068
-320,299	800,000	-0,027	0,067
-319,285	-11,675	0,089	0,042
-318,270	325,589	0,062	-0,087
-317,256	-200,000	-0,039	0,176
-316,241	182,781	0,059	0,063
-315,226	800,000	0,045	0,105
-314,212	76,485	0,090	0,070
-313,197	-200,000	0,011	0,140
-312,183	644,070	-0,077	0,143
-311,168	-200,000	-0,003	-0,063
-310,153	-27,772	-0,176	-0,074
-309,139	381,936	0,044	0,066
-308,124	723,684	-0,036	-0,070
-307,110	128,097	0,090	0,083
-306,095	-171,485	0,118	0,003
-305,080	-93,534	0,100	0,020
-304,066	-200,000	0,004	-0,017
-303,051	234,970	-0,134	-0,161
-302,037	-200,000	-0,020	-0,154
-301,022	170,680	-0,024	0,025
-300,008	800,000	0,052	0,118
-298,993	-200,000	0,028	0,208
-297,978	-200,000	0,003	0,171
-296,964	161,367	-0,034	0,035
-295,949	-20,806	-0,001	0,000
-294,935	-59,282	-0,117	-0,036
-293,920	106,972	0,088	0,076
-292,905	-200,000	0,001	0,013
-291,891	262,491	0,107	0,135
-290,876	-200,000	0,023	0,081
-289,862	2,980	-0,096	0,051
-288,847	-200,000	-0,016	-0,061
-287,832	-200,000	0,028	-0,179
-286,818	-200,000	-0,002	-0,061
-285,803	130,149	0,040	-0,037
-284,789	35,114	-0,089	0,056
-283,774	-200,000	-0,042	0,202
-282,759	800,000	0,020	-0,058
-281,745	-112,223	-0,050	-0,007
-280,730	-200,000	-0,001	0,005
-279,716	-200,000	0,015	-0,158
-278,701	800,000	0,029	0,078
-277,686	175,918	-0,013	-0,014
-276,672	4,574	0,132	-0,070
-275,657	132,066	-0,054	0,050
-274,643	-39,602	0,057	0,021
-273,628	-58,755	-0,091	0,028
-272,613	-200,000	0,032	0,134
-271,599	-122,288	0,112	0,013
-270,584	-41,590	0,078	-0,029
-269,570	328,862	0,089	0,124
-268,555	-200,000	0,013	0,057
-267,540	-48,166	0,077	-0,027
-266,526	-67,517	-0,073	0,020
-265,511	132,360	-0,042	0,040
-264,497	-97,563	-0,050	0,009
-263,482	279,482	0,065	0,085
-262,467	177,462	-0,072	0,076
-261,453	-119,640	0,145	0,018
-260,438	-200,000	-0,003	-0,095
-259,424	99,387	0,089	-0,075
-258,409	165,460	-0,046	-0,047
-257,395	800,000	-0,028	-0,076
-256,380	232,367	0,081	-0,096
-255,365	136,202	-0,041	0,038
-254,351	379,907	-0,038	-0,056
-253,336	51,181	0,073	-0,050
-252,322	51,765	0,146	0,100
-251,307	800,000	0,033	-0,089
-250,292	-200,000	0,031	-0,121
-249,278	-96,352	0,028	0,005
-248,263	19,193	-0,035	0,020
-247,249	541,121	0,036	0,063
-246,234	-200,000	0,018	-0,092
-245,219	-100,037	-0,181	-0,032
-244,205	116,420	0,059	-0,052
-243,190	626,122	0,011	0,020
-242,176	800,000	0,015	0,035
-241,161	-22,705	-0,084	0,036
-240,146	-76,872	-0,118	-0,030
-239,132	235,759	0,102	0,122
-238,117	-200,000	-0,008	0,051
-237,103	20,024	-0,063	-0,037
-236,088	-67,909	-0,116	-0,032
-235,073	525,108	0,066	0,113
-234,059	-200,000	0,053	0,215
-233,044	23,954	-0,046	0,028
-232,030	-71,044	-0,104	0,028
-231,015	97,517	-0,096	0,080
-230,000	-11,312	-0,052	0,025
-228,986	176,228	0,029	-0,030
-227,971	474,194	-0,038	0,062
-226,957	-200,000	-0,051	0,177
-225,942	198,681	0,077	0,085
-224,927	800,000	-0,017	0,052
-223,913	89,523	0,054	0,044
-222,898	800,000	0,046	-0,145
-221,884	215,307	-0,051	0,058
-220,869	536,135	0,083	0,143
-219,855	80,996	0,042	-0,033
-218,840	151,930	-0,078	-0,077
-217,825	800,000	0,022	0,046
-216,811	-106,859	0,105	0,017
-215,796	40,875	-0,041	0,027
-214,782	222,313	-0,133	0,155
-213,767	-200,000	0,029	0,103
-212,752	291,031	0,042	0,056
-211,738	800,000	0,054	0,151
-210,723	-54,937	-0,121	0,039
-209,709	351,380	-0,073	-0,104
-208,694	-200,000	-0,039	0,125
-207,679	67,024	-0,108	0,079
-206,665	-93,253	0,074	0,015
-205,650	-57,042	0,097	0,031
-204,636	-126,931	0,142	-0,015
-203,621	-200,000	-0,025	-0,080
-202,606	-200,000	-0,004	0,046
-201,592	292,532	0,022	0,030
-200,577	-12,334	-0,084	-0,039
-199,563	-200,000	-0,009	-0,035
-198,548	-200,000	0,003	-0,075
-197,533	-200,000	0,030	0,118
-196,519	546,091	0,058	0,100
-195,504	-40,802	-0,087	-0,032
-194,490	-200,000	0,001	0,031
-193,475	-97,148	-0,108	0,020
-192,460	800,000	-0,072	0,171
-191,446	248,550	-0,011	0,013
-190,431	800,000	0,018	0,048
-189,417	769,606	-0,051	-0,102
-188,402	44,049	0,034	0,023
-187,387	474,067	-0,031	0,050
-186,373	-191,585	-0,203	-0,001
-185,358	-34,211	0,109	0,043
-184,344	-77,675	0,152	-0,038
-183,329	-11,975	-0,058	0,027
-182,315	-50,887	-0,180	-0,061
-181,300	206,785	0,068	0,076
-180,285	-200,000	-0,017	-0,195
-179,271	-200,000	-0,001	-0,047
-178,256	60,542	0,078	-0,056
-177,242	-84,073	-0,049	0,011
-176,227	-200,000	-0,007	-0,049
-175,212	84,054	0,123	-0,097
-174,198	103,156	0,127	-0,108
-173,183	-200,000	-0,003	-0,034
-172,169	521,768	-0,037	0,062
-171,154	-123,503	-0,121	0,014
-170,139	679,724	-0,049	0,092
-169,125	634,443	0,023	0,043
-168,110	58,536	0,028	0,020
-167,096	-76,440	0,076	0,019
-166,081	-142,351	-0,149	0,010
-165,066	-200,000	0,029	-0,158
-164,052	800,000	-0,060	0,120
-163,037	288,699	-0,040	0,052
-162,023	203,131	0,078	-0,087
-161,008	228,154	-0,003	-0,003
-159,993	-200,000	0,005	0,059
-158,979	800,000	-0,053	0,127
-157,964	86,977	0,047	0,037
-156,950	370,666	0,038	-0,056
-155,935	392,539	0,059	0,089
-154,920	347,217	0,060	0,085
-153,906	800,000	0,099	0,267
-152,891	-200,000	-0,023	0,149
-151,877	800,000	-0,050	-0,124
-150,862	0,321	0,002	-0,001
-149,847	-21,164	0,058	0,026
-148,833	-55,837	0,072	0,023
-147,818	10,413	0,157	0,086
-146,804	393,407	-0,091	0,137
-145,789	-200,000	-0,013	0,056
-144,775	95,320	0,009	0,008
-143,760	-152,802	-0,067	-0,003
-142,745	-141,530	-0,161	0,012
-141,731	-120,716	-0,093	-0,011
-140,716	94,714	0,041	-0,034
-139,702	56,625	-0,018	-0,013
-138,687	164,523	0,043	-0,044
-137,672	144,937	0,062	-0,060
-136,658	373,883	0,033	-0,048
-135,643	800,000	0,079	-0,187
-134,629	800,000	0,023	-0,052
-133,614	-200,000	-0,018	-0,062
-132,599	59,785	0,064	-0,046
-131,585	-200,000	-0,009	-0,136
-130,570	-14,383	-0,105	-0,049
-129,556	-104,165	0,173	-0,029
-128,541	800,000	-0,024	-0,062
-127,526	79,654	-0,059	-0,046
-126,512	-95,133	0,135	-0,026
-125,497	52,361	0,079	0,054
-124,483	24,299	-0,058	0,034
-123,468	127,046	0,109	0,099
-122,453	800,000	0,034	0,096
-121,439	90,582	-0,130	-0,105
-120,424	-200,000	0,003	0,071
-119,410	-200,000	0,023	0,123
-118,395	-200,000	0,004	0,038
-117,380	-200,000	-0,010	0,056
-116,366	-200,000	0,004	0,095
-115,351	12,454	-0,087	0,048
-114,337	-36,182	0,167	-0,065
-113,322	-177,877	-0,191	0,003
-112,307	776,710	0,048	-0,094
-111,293	-200,000	0,015	-0,056
-110,278	-200,000	0,036	0,130
-109,264	-116,584	0,125	-0,016
-108,249	-200,000	0,018	0,130
-107,234	57,812	-0,124	0,087
-106,220	800,000	-0,043	-0,090
-105,205	800,000	0,040	0,097
-104,191	198,874	-0,070	0,078
-103,176	302,247	0,134	0,178
-102,162	592,753	0,047	0,084
-101,147	-12,986	0,046	0,022
-100,132	-21,564	-0,005	0,002
-99,118	-24,954	-0,149	-0,063
-98,103	56,813	-0,034	0,024
-97,089	252,693	0,071	-0,087
-96,074	-97,201	-0,140	-0,026
-95,059	800,000	-0,050	-0,152
-94,045	99,087	0,028	0,023
-93,030	175,450	-0,051	0,054
-92,016	-200,000	-0,002	0,026
-91,001	-200,000	-0,039	0,142
-89,986	62,104	0,119	-0,085
-88,972	-73,901	-0,072	-0,019
-87,957	800,000	-0,037	-0,081
-86,943	-54,822	0,065	0,021
-85,928	-94,928	-0,041	0,008
-84,913	112,265	-0,054	-0,047
-83,899	254,181	0,071	-0,087
-82,884	-200,000	0,010	0,099
-81,870	-122,731	-0,048	0,005
-80,855	-200,000	-0,010	-0,037
-79,840	288,779	-0,057	-0,074
-78,826	17,161	0,163	-0,093
-77,811	148,373	-0,074	-0,072
-76,797	800,000	0,039	-0,105
-75,782	-157,133	-0,089	-0,004
-74,767	-191,122	0,182	-0,001
-73,753	-186,127	-0,182	-0,002
-72,738	-180,569	-0,083	-0,001
-71,724	800,000	-0,055	0,145
-70,709	93,467	-0,116	0,095
-69,694	8,528	0,093	0,050
-68,680	-72,061	-0,131	-0,035
-67,665	800,000	0,009	-0,022
-66,651	157,612	0,106	0,105
-65,636	295,594	0,077	-0,102
-64,622	51,538	-0,125	-0,085
-63,607	-200,000	0,022	-0,122
-62,592	52,444	-0,047	-0,032
-61,578	54,832	-0,050	0,035
-60,563	-200,000	-0,005	-0,039
-59,549	-2,807	0,076	0,038
-58,534	4,887	-1,963	-1,035
-57,519	-200,000	-0,165	-0,912
-56,505	-200,000	-1,265	-4,988
-55,490	-57,544	0,792	0,248
-54,476	800,000	5,245	12,518
-53,461	-200,000	17,105	274,947
-52,446	800,000	718,720	2186,675
-51,432	528,773	1632,106	2778,802
-50,417	111,982	1626,469	1411,785
-49,403	75,588	1286,459	975,342
-48,388	33,066	1031,660	641,144
-47,373	20,156	994,008	574,949
-46,359	18,807	982,318	563,714
-45,344	16,554	978,137	553,876
-44,330	16,719	976,742	553,610
-43,315	16,310	974,990	551,251
-42,300	16,315	974,028	550,700
-41,286	16,293	972,908	549,976
-40,271	16,287	971,920	549,376
-39,257	16,329	970,981	548,958
-38,242	16,346	970,367	548,647
-37,227	16,295	969,608	548,028
-36,213	16,316	968,506	547,452
-35,198	16,305	967,737	546,960
-34,184	16,357	967,056	546,721
-33,169	16,304	965,982	545,922
-32,154	16,327	965,222	545,545
-31,140	16,319	964,117	544,872
-30,125	16,351	963,421	544,563
-29,111	16,332	962,670	544,055
-28,096	16,341	962,106	543,742
-27,082	16,241	961,504	543,057
-26,067	16,238	960,749	542,601
-25,052	16,328	959,691	542,273
-24,038	16,319	959,121	541,898
-23,023	16,230	958,480	541,228
-22,009	16,301	957,783	541,042
-20,994	16,356	957,197	540,866
-19,979	16,298	956,689	540,371
-18,965	16,376	955,806	540,101
-17,950	16,317	955,213	539,557
-16,936	16,237	954,666	538,967
-15,921	16,213	954,016	538,503
-14,906	16,196	953,309	538,029
-13,892	16,135	952,807	537,529
-12,877	16,120	952,028	537,019
-11,863	16,170	951,274	536,733
-10,848	16,171	950,824	536,459
-9,833	16,250	950,400	536,452
-8,819	16,264	949,640	536,046
-7,804	16,201	948,794	535,347
-6,790	16,214	948,309	535,095
-5,775	16,194	947,776	534,707
-4,760	16,246	947,119	534,481
-3,746	16,251	946,368	534,052
-2,731	16,011	945,860	532,979
-1,717	16,056	945,358	532,819
-0,702	16,006	944,612	532,220
0,313	15,853	943,845	532,105
1,327	19,355	941,957	542,088
2,342	28,800	796,566	483,511
3,356	25,802	448,764	267,893
4,371	-3,899	297,068	147,492
5,386	-8,110	278,376	134,187
6,400	-9,384	272,691	130,245
7,415	-9,573	270,364	128,947
8,429	-9,576	268,963	128,264
9,444	-9,492	267,996	127,869
10,459	-9,657	267,445	127,444
11,473	-9,904	266,856	126,926
12,488	-9,914	266,360	126,669
13,502	-10,255	265,672	126,021
14,517	-9,994	265,355	126,096
15,531	-10,078	264,857	125,772
16,546	-10,121	264,594	125,597
17,561	-10,131	264,159	125,370
18,575	-10,042	263,866	125,300
19,590	-9,924	263,397	125,173
20,604	-10,147	263,291	124,910
21,619	-10,126	262,803	124,687
22,634	-10,161	262,469	124,486
23,648	-10,313	262,196	124,209
24,663	-10,283	262,001	124,133
25,677	-10,124	261,549	124,049
26,692	-10,142	261,310	123,909
27,707	-10,109	261,016	123,787
28,721	-10,249	260,820	123,558
29,736	-10,324	260,627	123,390
30,750	-10,299	260,338	123,264
31,765	-10,344	260,103	123,102
32,780	-10,189	259,743	123,058
33,794	-10,200	259,516	122,929
34,809	-10,200	259,249	122,792
35,823	-10,432	259,009	122,462
36,838	-10,498	258,998	122,388
37,853	-10,327	258,666	122,371
38,867	-10,391	258,308	122,134
39,882	-10,326	258,148	122,105
40,896	-10,265	257,904	122,033
41,911	-10,591	257,746	121,660
42,926	-10,362	257,418	121,695
43,940	-10,406	257,126	121,508
44,955	-10,612	256,987	121,250
45,969	-10,682	256,846	121,112
46,984	-10,864	256,522	120,789
47,999	-11,116	256,130	120,373
49,013	-11,195	255,913	120,191
50,028	-11,158	255,565	120,049
51,042	-11,342	255,366	119,785
52,057	-11,518	255,260	119,570
53,071	-11,231	255,016	119,696
54,086	-11,168	254,903	119,686
55,101	-11,022	254,643	119,681
56,115	-10,730	254,384	119,803
57,130	-10,319	254,481	120,194
58,144	-10,044	254,343	120,357
59,159	-10,055	254,133	120,238
60,174	-9,979	253,853	120,160
61,188	-10,099	253,625	119,938
62,203	-10,279	253,488	119,706
63,217	-10,128	253,128	119,657
64,232	-10,282	253,060	119,480
65,247	-10,061	252,793	119,534
66,261	-10,011	252,323	119,344
67,276	-10,679	252,278	118,738
68,290	-10,630	251,998	118,638
69,305	-10,897	251,741	118,276
70,320	-10,794	251,446	118,216
71,334	-10,471	251,344	118,434
72,349	-10,209	251,309	118,631
73,363	-10,176	251,213	118,603
74,378	-10,191	250,851	118,409
75,393	-10,181	250,629	118,303
76,407	-10,384	250,545	118,079
77,422	-10,453	250,338	117,912
78,436	-10,111	249,944	118,007
79,451	-10,151	249,829	117,909
80,466	-10,355	249,492	117,566
81,480	-10,512	249,321	117,341
82,495	-10,597	249,188	117,196
83,509	-10,548	248,979	117,129
84,524	-10,567	248,807	117,021
85,539	-10,811	248,587	116,701
86,553	-10,742	248,265	116,598
87,568	-10,644	248,268	116,671
88,582	-10,532	247,859	116,563
89,597	-10,623	247,715	116,408
90,611	-10,523	247,737	116,493
91,626	-10,286	247,587	116,612
92,641	-10,276	247,311	116,480
93,655	-10,460	247,137	116,233
94,670	-10,605	246,839	115,961
95,684	-10,595	246,694	115,890
96,699	-10,529	246,481	115,835
97,714	-10,430	246,277	115,811
98,728	-10,790	246,054	115,395
99,743	-10,780	245,775	115,263
100,757	-10,886	245,629	115,095
101,772	-10,636	245,468	115,218
102,787	-10,576	245,246	115,154
103,801	-10,709	245,215	115,018
104,816	-10,540	245,105	115,097
105,830	-10,436	245,085	115,164
106,845	-10,222	244,719	115,160
107,860	-10,421	244,500	114,881
108,874	-10,311	244,154	114,800
109,889	-10,374	244,133	114,727
110,903	-10,280	243,849	114,661
111,918	-10,450	243,691	114,436
112,933	-10,482	243,616	114,364
113,947	-10,437	243,276	114,231
114,962	-10,432	243,247	114,212
115,976	-10,285	242,882	114,152
116,991	-10,419	242,876	114,028
118,006	-10,192	242,612	114,081
119,020	-10,254	242,411	113,925
120,035	-10,354	242,512	113,881
121,049	-10,090	242,137	113,911
122,064	-10,274	242,105	113,734
123,079	-10,191	241,884	113,688
124,093	-10,394	241,552	113,356
125,108	-10,707	241,420	113,028
126,122	-10,796	241,222	112,852
127,137	-10,949	240,844	112,540
128,151	-10,842	240,676	112,539
129,166	-10,732	240,718	112,639
130,181	-10,741	240,404	112,474
131,195	-10,765	240,157	112,329
132,210	-10,478	240,156	112,552
133,224	-10,509	240,069	112,476
134,239	-10,484	239,782	112,352
135,254	-10,324	239,611	112,392
136,268	-10,655	239,488	112,056
137,283	-10,898	239,190	111,709
138,297	-10,924	238,879	111,533
139,312	-10,945	238,724	111,433
140,327	-10,573	238,943	111,827
141,341	-10,033	238,724	112,151
142,356	-9,855	238,549	112,202
143,370	-9,973	238,392	112,024
144,385	-10,017	238,285	111,928
145,400	-9,796	238,096	112,007
146,414	-9,937	237,877	111,781
147,429	-10,046	237,564	111,537
148,443	-9,941	237,610	111,632
149,458	-9,983	237,329	111,457
150,473	-9,938	237,156	111,401
151,487	-10,087	236,971	111,185
152,502	-9,999	236,854	111,191
153,516	-9,921	236,711	111,176
154,531	-10,081	236,454	110,918
155,546	-10,131	236,405	110,845
156,560	-10,131	235,997	110,644
157,575	-9,930	235,762	110,684
158,589	-10,206	235,813	110,478
159,604	-9,987	235,614	110,549
160,619	-9,921	235,542	110,558
161,633	-9,907	235,403	110,494
162,648	-9,645	235,133	110,566
163,662	-9,820	235,085	110,394
164,677	-10,192	234,805	109,957
165,692	-10,023	234,853	110,104
166,706	-9,975	234,636	110,031
167,721	-9,702	234,487	110,168
168,735	-9,718	234,223	110,021
169,750	-9,841	234,157	109,883
170,764	-10,095	234,053	109,624
171,779	-9,969	233,754	109,573
172,794	-9,713	233,617	109,701
173,808	-9,989	233,291	109,321
174,823	-10,448	232,998	108,812
175,837	-10,782	232,989	108,536
176,852	-10,365	232,813	108,772
177,867	-9,983	232,770	109,043
178,881	-9,845	232,631	109,076
179,896	-9,842	232,506	109,010
180,910	-9,897	232,432	108,923
181,925	-9,881	232,060	108,751
182,940	-9,595	231,971	108,923
183,954	-10,007	232,044	108,625
184,969	-9,764	231,645	108,619
185,983	-9,728	231,699	108,663
186,998	-9,679	231,544	108,619
188,013	-9,638	231,310	108,531
189,027	-9,719	231,189	108,402
190,042	-9,822	231,152	108,295
191,056	-9,571	230,836	108,332
192,071	-9,443	230,679	108,348
193,086	-9,753	230,537	108,031
194,100	-9,610	230,462	108,097
195,115	-9,488	230,265	108,090
196,129	-9,118	230,264	108,366
197,144	-4,545	231,823	112,659
198,159	0,019	233,274	116,929
199,173	3,213	234,008	119,791
200,188	3,628	233,945	120,072
201,202	3,691	233,734	120,002
202,217	3,975	233,556	120,122
203,232	4,088	233,634	120,240
204,246	3,896	233,599	120,060
205,261	3,950	233,364	119,972
206,275	4,292	233,197	120,141
207,290	4,238	233,208	120,094
208,304	4,011	233,110	119,856
209,319	4,052	232,783	119,709
210,334	4,135	232,475	119,605
211,348	3,836	232,300	119,272
212,363	3,713	231,899	118,961
213,377	3,269	231,966	118,640
214,392	3,401	231,732	118,612
215,407	3,589	231,543	118,650
216,421	3,625	231,374	118,581
217,436	3,353	231,202	118,272
218,450	3,140	231,053	118,020
219,465	2,988	230,898	117,814
220,480	3,148	230,620	117,785
221,494	2,919	230,641	117,608
222,509	3,299	230,548	117,843
223,523	3,430	230,227	117,769
224,538	3,345	230,081	117,619
225,553	3,466	229,871	117,594
226,567	3,224	229,884	117,404
227,582	3,672	229,839	117,715
228,596	3,718	229,675	117,655
229,611	3,516	229,447	117,373
230,626	3,187	229,247	117,008
231,640	3,263	228,990	116,926
232,655	3,439	229,126	117,119
233,669	3,956	229,149	117,515
234,684	3,883	228,923	117,333
235,699	3,543	228,730	116,964
236,713	3,414	228,399	116,687
237,728	3,371	228,210	116,547
238,742	3,426	227,970	116,456
239,757	3,439	228,012	116,477
240,772	3,320	227,763	116,249
241,786	3,131	227,621	116,022
242,801	3,782	227,524	116,456
243,815	4,063	227,374	116,582
244,830	3,955	227,194	116,398
245,844	3,409	227,014	115,882
246,859	3,158	227,034	115,692
247,874	3,444	226,949	115,855
248,888	3,604	226,668	115,822
249,903	3,557	226,449	115,664
250,917	3,508	226,366	115,574
251,932	3,420	226,110	115,367
252,947	3,134	225,904	115,036
253,961	3,269	225,936	115,144
254,976	3,416	225,651	115,099
255,990	3,551	225,585	115,156
257,005	3,542	225,562	115,128
258,020	3,669	225,299	115,078
259,034	3,725	225,323	115,122
260,049	3,572	225,115	114,892
261,063	3,512	224,970	114,762
262,078	3,708	224,850	114,837
263,093	3,785	224,696	114,806
264,107	3,820	224,551	114,747
265,122	3,766	224,395	114,618
266,136	3,918	224,420	114,734
267,151	4,032	224,128	114,659
268,166	3,572	223,771	114,123
269,180	3,231	223,639	113,793
270,195	3,075	223,534	113,613
271,209	3,003	223,556	113,561
272,224	3,351	223,419	113,739
273,239	3,361	223,188	113,619
274,253	3,370	222,973	113,506
275,268	3,191	222,765	113,258
276,282	3,185	222,657	113,188
277,297	2,972	222,515	112,948
278,312	3,089	222,457	112,996
279,326	3,501	222,209	113,163
280,341	3,501	222,111	113,104
281,355	3,290	222,142	112,954
282,370	3,688	221,812	113,069
283,384	3,311	221,618	112,682
284,399	3,058	221,489	112,420
285,414	3,196	221,315	112,424
286,428	3,490	221,370	112,658
287,443	3,501	221,220	112,579
288,457	3,439	221,063	112,444
289,472	3,555	220,676	112,322
290,487	2,858	220,674	111,801
291,501	2,894	220,444	111,700
292,516	3,142	220,332	111,815
293,530	3,242	220,238	111,831
294,545	3,273	220,106	111,776
295,560	3,240	219,878	111,626
296,574	3,336	219,784	111,638
297,589	3,202	219,832	111,555
298,603	3,565	219,591	111,688
299,618	3,415	219,459	111,501
300,633	3,538	219,391	111,546
301,647	3,770	219,262	111,640
302,662	3,715	219,105	111,509
303,676	3,656	218,871	111,338
304,691	3,671	218,753	111,278
305,706	3,508	218,752	111,149
306,720	3,712	218,446	111,132
307,735	3,510	218,208	110,855
308,749	3,318	218,174	110,689
309,764	3,564	218,191	110,865
310,779	3,768	217,981	110,897
311,793	3,621	217,755	110,666
312,808	3,587	217,604	110,555
313,822	3,540	217,573	110,495
314,837	3,278	217,429	110,223
315,852	3,228	217,153	110,038
316,866	3,550	217,094	110,229
317,881	3,540	217,017	110,173
318,895	3,419	216,826	109,980
319,910	3,222	216,586	109,707
320,925	2,818	216,521	109,375
321,939	3,097	216,411	109,509
322,954	3,440	216,232	109,654
323,968	3,555	216,176	109,698
324,983	3,833	215,951	109,773
325,997	3,829	215,895	109,732
327,012	3,667	215,662	109,488
328,027	3,416	215,647	109,292
329,041	3,705	215,629	109,479
330,056	3,768	215,470	109,433
331,070	3,647	215,170	109,186
332,085	3,247	215,000	108,805
333,100	3,102	214,865	108,624
334,114	3,433	214,706	108,769
335,129	3,547	214,599	108,785
336,143	3,339	214,473	108,565
337,158	3,367	214,388	108,532
338,173	3,503	214,278	108,563
339,187	3,398	213,964	108,320
340,202	3,065	213,690	107,936
341,216	2,984	213,736	107,893
342,231	3,125	213,685	107,956
343,246	3,441	213,412	108,032
344,260	3,289	213,335	107,876
345,275	3,108	213,422	107,784
346,289	3,420	213,158	107,860
347,304	3,733	212,922	107,951
348,319	3,445	212,899	107,727
349,333	3,211	212,818	107,512
350,348	3,305	212,677	107,497
351,362	3,833	212,405	107,721
352,377	3,452	212,390	107,436
353,392	3,427	212,281	107,354
354,406	3,325	212,087	107,175
355,421	195,549	1341,042	1420,944
356,435	156,221	1478,582	1420,935
