DTS Sentinel unit serial number:	SN410029Multiplexer serial number:	ORYXHardware model number:	OX2-SRSoftware version number:	ORYX F/W v4,00 Oryx Data Collector v3.7.2.0data status	okinstallation	B6 Nyhavnadifferential loss correction	single-endedforward channel	channel 2reverse channel	N/Adate	2023/12/10time	09:50:08forward acquisition time	300,00reverse acquisition time	0,00gamma	499,1914k internal	0,3123k external	0,3123temperature offset calibration	1,0000default loss term (dB/km)	0,3820temperature slope calibration	1,0000multiplexer offset coefficient	1,0000multiplexer slope coefficient	1,0000fibre end	0,00T internal ref (°C)	22,56T ext. ref 1 (°C)	6,34T ext. ref 2 (°C)	6,34length (m)	temperature (°C)	Stokes	anti-Stokes-744,400	341,087	-0,034	-0,050
-743,385	-97,759	-0,278	0,053
-742,371	-200,000	0,023	-0,112
-741,356	31,679	-0,258	0,165
-740,342	-15,335	0,061	-0,029
-739,327	-109,244	-0,356	0,056
-738,312	-200,000	0,025	-0,117
-737,298	-48,931	-0,231	0,082
-736,283	-59,445	-0,066	0,021
-735,269	229,904	-0,170	0,207
-734,254	-200,000	-0,013	0,122
-733,239	22,368	-0,335	-0,204
-732,225	-37,652	0,117	-0,046
-731,210	-30,050	0,114	0,048
-730,196	-157,439	0,088	-0,004
-729,181	-119,733	-0,060	0,008
-728,167	-200,000	-0,030	0,149
-727,152	800,000	0,050	0,149
-726,137	351,684	-0,056	-0,083
-725,123	143,102	-0,076	0,075
-724,108	-67,339	-0,138	-0,040
-723,094	-200,000	-0,034	-0,123
-722,079	-200,000	-0,040	0,142
-721,064	33,520	0,039	-0,025
-720,050	439,634	-0,022	0,036
-719,035	-200,000	0,004	0,115
-718,021	-116,144	-0,123	-0,017
-717,006	592,295	-0,047	-0,087
-715,991	151,712	0,092	0,093
-714,977	-200,000	0,004	-0,086
-713,962	-103,302	0,061	-0,011
-712,948	-148,352	-0,070	0,004
-711,933	252,219	0,007	0,009
-710,918	213,450	-0,044	0,052
-709,904	101,075	-0,069	-0,059
-708,889	-41,150	0,066	-0,025
-707,875	-200,000	0,027	-0,202
-706,860	135,886	0,039	-0,038
-705,845	216,215	-0,043	-0,050
-704,831	-180,402	0,121	0,002
-703,816	-200,000	-0,004	0,032
-702,802	30,082	-0,088	0,056
-701,787	-22,783	0,088	0,039
-700,772	-200,000	-0,010	-0,169
-699,758	69,506	0,102	0,078
-698,743	-200,000	0,033	0,123
-697,729	-83,585	0,144	0,034
-696,714	251,963	-0,132	0,168
-695,699	-72,543	0,071	0,019
-694,685	800,000	0,032	-0,104
-693,670	800,000	-0,055	0,139
-692,656	-159,937	-0,027	-0,001
-691,641	285,656	0,088	-0,118
-690,627	588,424	-0,043	-0,079
-689,612	287,105	-0,038	0,051
-688,597	786,368	0,053	-0,110
-687,583	800,000	-0,064	-0,137
-686,568	652,622	-0,075	-0,143
-685,554	-11,060	-0,123	-0,060
-684,539	-200,000	0,050	-0,207
-683,524	217,235	0,025	0,030
-682,510	-97,033	0,084	-0,016
-681,495	20,881	-0,043	-0,026
-680,481	800,000	-0,033	-0,077
-679,466	143,077	-0,156	-0,155
-678,451	121,747	-0,038	-0,036
-677,437	-152,421	0,054	0,003
-676,422	-59,530	0,108	0,034
-675,408	-0,824	-0,115	0,061
-674,393	2,342	-0,083	-0,044
-673,378	478,831	-0,051	-0,085
-672,364	119,990	0,043	-0,040
-671,349	158,348	-0,033	-0,034
-670,335	62,152	-0,208	-0,154
-669,320	126,607	0,099	0,094
-668,305	117,630	0,071	-0,065
-667,291	-64,794	-0,066	-0,020
-666,276	203,405	0,069	-0,079
-665,262	139,751	-0,053	-0,052
-664,247	-5,245	-0,067	-0,034
-663,232	-102,092	0,014	0,002
-662,218	-200,000	-0,002	0,099
-661,203	-200,000	0,001	0,080
-660,189	-200,000	-0,008	0,089
-659,174	-109,674	-0,064	0,010
-658,159	43,567	0,036	0,024
-657,145	186,640	-0,017	-0,019
-656,130	-200,000	0,003	-0,120
-655,116	387,893	0,030	0,046
-654,101	435,332	-0,025	0,041
-653,086	-200,000	-0,017	0,060
-652,072	409,600	-0,094	-0,149
-651,057	270,293	-0,028	-0,037
-650,043	-200,000	0,017	-0,270
-649,028	-87,350	0,079	-0,018
-648,014	72,199	-0,070	-0,054
-646,999	-26,877	0,091	0,039
-645,984	-94,648	-0,147	0,029
-644,970	644,749	0,032	-0,060
-643,955	2,142	-0,134	-0,072
-642,941	168,930	0,043	0,046
-641,926	800,000	0,045	-0,111
-640,911	-132,591	0,161	-0,015
-639,897	14,426	0,076	-0,044
-638,882	-52,522	-0,149	-0,051
-637,868	-200,000	0,030	0,111
-636,853	-200,000	-0,006	0,089
-635,838	126,168	-0,062	0,058
-634,824	800,000	0,028	-0,076
-633,809	155,672	0,046	0,047
-632,795	800,000	0,042	0,088
-631,780	91,078	0,098	-0,082
-630,765	-145,662	-0,061	-0,004
-629,751	-80,504	-0,130	-0,032
-628,736	188,209	-0,081	-0,090
-627,722	51,546	0,069	0,049
-626,707	-200,000	-0,020	-0,079
-625,692	70,598	-0,051	0,039
-624,678	171,557	-0,098	0,105
-623,663	-63,994	-0,176	-0,053
-622,649	800,000	-0,027	-0,059
-621,634	-200,000	-0,002	-0,071
-620,619	308,380	-0,038	-0,052
-619,605	800,000	0,027	-0,060
-618,590	-200,000	0,005	0,034
-617,576	800,000	-0,068	0,177
-616,561	-120,000	-0,059	0,007
-615,546	186,530	-0,009	0,010
-614,532	57,158	-0,094	-0,068
-613,517	-67,133	0,093	-0,027
-612,503	-43,667	-0,062	-0,023
-611,488	8,924	0,105	-0,058
-610,474	-77,628	0,046	-0,012
-609,459	-200,000	-0,016	0,066
-608,444	800,000	-0,054	0,127
-607,430	-138,138	-0,166	0,013
-606,415	-200,000	0,015	-0,135
-605,401	-200,000	-0,003	-0,058
-604,386	-73,704	0,013	0,003
-603,371	576,857	-0,041	-0,075
-602,357	800,000	-0,050	0,114
-601,342	-200,000	0,001	0,040
-600,328	800,000	-0,053	-0,133
-599,313	242,566	-0,068	0,085
-598,298	26,389	-0,030	-0,019
-597,284	800,000	-0,039	-0,082
-596,269	800,000	-0,008	-0,020
-595,255	599,182	-0,028	-0,052
-594,240	4,161	0,050	-0,027
-593,225	-70,078	0,009	-0,003
-592,211	-200,000	0,030	-0,099
-591,196	-185,454	-0,128	-0,001
-590,182	94,635	0,024	-0,020
-589,167	70,767	0,057	0,044
-588,152	-200,000	-0,036	0,146
-587,138	-200,000	0,003	0,055
-586,123	75,449	-0,021	0,016
-585,109	-200,000	0,027	-0,181
-584,094	506,867	-0,078	-0,135
-583,079	-200,000	0,000	0,106
-582,065	800,000	-0,053	-0,126
-581,050	342,114	-0,049	-0,071
-580,036	280,017	0,030	-0,040
-579,021	-13,453	-0,109	-0,052
-578,006	261,519	-0,071	-0,091
-576,992	273,230	-0,015	0,020
-575,977	338,466	-0,042	0,061
-574,963	167,556	0,113	0,119
-573,948	800,000	-0,055	0,148
-572,934	-129,223	0,085	-0,009
-571,919	-10,547	-0,044	-0,021
-570,904	187,844	-0,042	0,047
-569,890	83,700	-0,142	-0,114
-568,875	120,482	-0,133	0,123
-567,861	332,066	0,042	0,060
-566,846	-118,493	-0,080	0,010
-565,831	-200,000	-0,005	-0,066
-564,817	472,194	-0,021	-0,035
-563,802	142,829	-0,042	-0,042
-562,788	-79,731	-0,110	-0,027
-561,773	-36,686	0,007	0,003
-560,758	800,000	0,077	0,178
-559,744	128,664	-0,047	0,045
-558,729	-136,642	-0,118	-0,010
-557,715	514,948	0,038	-0,066
-556,700	261,747	-0,069	0,089
-555,685	-200,000	-0,013	-0,186
-554,671	37,026	0,087	-0,057
-553,656	6,387	0,040	0,022
-552,642	344,866	0,078	0,113
-551,627	112,822	-0,057	0,051
-550,612	228,335	-0,104	0,125
-549,598	531,776	-0,028	0,049
-548,583	-200,000	-0,027	0,196
-547,569	-200,000	-0,005	0,042
-546,554	-200,000	0,042	0,141
-545,539	-200,000	-0,015	0,166
-544,525	800,000	0,036	-0,077
-543,510	-200,000	-0,014	-0,061
-542,496	-24,985	-0,054	-0,023
-541,481	800,000	-0,009	-0,022
-540,466	474,781	0,025	-0,042
-539,452	-6,622	0,069	0,035
-538,437	-200,000	-0,003	0,106
-537,423	-200,000	0,038	0,191
-536,408	-200,000	-0,002	0,147
-535,393	-97,715	0,113	-0,021
-534,379	46,189	-0,030	-0,021
-533,364	800,000	0,047	-0,122
-532,350	194,332	0,097	0,109
-531,335	-143,228	0,100	-0,007
-530,321	119,020	0,130	0,118
-529,306	-131,704	0,118	-0,011
-528,291	-125,193	-0,052	-0,006
-527,277	-126,055	0,053	-0,006
-526,262	-73,822	-0,087	0,023
-525,248	329,303	0,013	-0,018
-524,233	339,214	0,049	0,070
-523,218	-15,502	0,033	-0,016
-522,204	263,372	-0,094	-0,121
-521,189	76,735	-0,042	-0,033
-520,175	121,623	-0,042	-0,039
-519,160	289,587	-0,068	0,092
-518,145	98,310	0,106	0,090
-517,131	800,000	0,026	0,060
-516,116	-200,000	0,001	0,083
-515,102	1,493	0,113	-0,060
-514,087	-200,000	0,018	0,067
-513,072	-200,000	-0,021	-0,075
-512,058	255,420	-0,035	-0,044
-511,043	-162,218	0,102	0,004
-510,029	-199,889	-0,117	0,000
-509,014	-101,584	-0,101	0,018
-507,999	-200,000	-0,014	0,090
-506,985	-22,322	-0,045	-0,020
-505,970	110,493	-0,043	0,038
-504,956	88,643	-0,032	-0,026
-503,941	197,695	0,017	0,019
-502,926	240,841	-0,049	0,060
-501,912	-13,915	0,036	0,017
-500,897	800,000	-0,012	-0,033
-499,883	-53,896	-0,071	-0,024
-498,868	-77,900	0,040	-0,010
-497,853	-28,320	-0,110	-0,047
-496,839	-9,889	-0,017	-0,008
-495,824	1,042	0,060	-0,032
-494,810	260,025	0,028	-0,036
-493,795	106,266	0,096	-0,084
-492,781	292,778	-0,084	0,113
-491,766	245,841	-0,031	0,039
-490,751	800,000	0,024	0,067
-489,737	-31,547	-0,149	0,062
-488,722	151,722	0,035	0,035
-487,708	-159,804	-0,016	0,001
-486,693	-31,337	-0,042	0,017
-485,678	241,048	-0,098	-0,121
-484,664	800,000	0,021	0,046
-483,649	422,383	0,011	0,017
-482,635	-47,306	0,055	0,020
-481,620	481,406	-0,005	0,009
-480,605	414,188	0,093	0,146
-479,591	27,333	0,090	-0,056
-478,576	616,662	-0,019	0,035
-477,562	356,585	-0,025	0,037
-476,547	800,000	-0,053	-0,110
-475,532	103,147	0,039	-0,034
-474,518	363,707	0,045	-0,067
-473,503	-4,733	0,172	0,087
-472,489	47,354	0,101	-0,069
-471,474	306,993	0,024	0,033
-470,459	-68,240	-0,120	-0,034
-469,445	347,728	0,049	-0,072
-468,430	19,338	-0,071	0,042
-467,416	-127,724	0,077	-0,008
-466,401	635,395	-0,011	-0,020
-465,386	800,000	0,016	0,047
-464,372	-200,000	0,002	-0,009
-463,357	402,806	-0,013	0,020
-462,343	67,591	0,085	-0,064
-461,328	-98,061	-0,122	-0,023
-460,313	800,000	0,034	0,076
-459,299	25,928	0,080	0,049
-458,284	327,895	0,042	0,060
-457,270	111,020	0,024	-0,021
-456,255	-126,226	-0,067	0,007
-455,241	-49,969	0,048	-0,017
-454,226	300,015	-0,081	0,110
-453,211	-200,000	0,009	-0,044
-452,197	199,889	0,132	0,149
-451,182	-107,956	0,118	0,019
-450,168	76,252	0,031	-0,024
-449,153	800,000	-0,034	-0,106
-448,138	-131,308	-0,139	-0,013
-447,124	-200,000	-0,014	-0,106
-446,109	-123,929	0,092	-0,011
-445,095	268,599	-0,048	0,063
-444,080	87,897	-0,115	-0,094
-443,065	210,579	0,113	-0,131
-442,051	61,738	0,078	-0,057
-441,036	-200,000	0,014	-0,086
-440,022	142,582	-0,067	-0,066
-439,007	65,033	-0,106	-0,079
-437,992	-71,757	0,120	-0,033
-436,978	-140,199	-0,139	0,011
-435,963	11,095	0,069	0,039
-434,949	268,235	0,097	0,125
-433,934	308,593	-0,066	0,092
-432,919	118,858	-0,069	-0,063
-431,905	745,269	-0,052	-0,104
-430,890	473,968	0,056	0,093
-429,876	-200,000	0,012	0,062
-428,861	-95,634	0,077	0,015
-427,846	166,251	-0,086	-0,090
-426,832	-200,000	0,013	-0,141
-425,817	-116,304	-0,085	-0,011
-424,803	-128,256	-0,079	0,008
-423,788	-200,000	-0,030	0,103
-422,773	-200,000	0,006	0,054
-421,759	74,030	0,050	-0,038
-420,744	307,605	0,071	-0,098
-419,730	-64,426	-0,082	-0,024
-418,715	800,000	0,031	-0,085
-417,701	-136,605	-0,101	0,008
-416,686	800,000	0,040	-0,130
-415,671	158,268	0,029	-0,029
-414,657	-200,000	0,011	0,091
-413,642	-18,235	0,071	0,033
-412,628	-32,414	-0,103	-0,042
-411,613	-105,341	-0,069	-0,011
-410,598	-200,000	0,009	-0,048
-409,584	-45,147	0,163	-0,059
-408,569	-87,173	0,064	-0,014
-407,555	221,088	0,084	-0,099
-406,540	229,254	0,065	0,078
-405,525	-141,759	-0,028	-0,002
-404,511	-200,000	0,033	-0,122
-403,496	-200,000	-0,034	-0,160
-402,482	-200,000	0,019	0,089
-401,467	247,072	-0,077	0,096
-400,452	728,660	0,028	-0,056
-399,438	130,160	-0,053	0,050
-398,423	-23,033	0,082	-0,036
-397,409	-132,098	0,014	0,001
-396,394	-119,361	-0,104	-0,013
-395,379	172,901	0,084	-0,089
-394,365	224,321	0,065	0,077
-393,350	68,955	-0,087	0,066
-392,336	141,937	0,013	-0,013
-391,321	-200,000	-0,009	-0,045
-390,306	-82,114	0,073	0,017
-389,292	-166,639	-0,039	-0,001
-388,277	800,000	-0,038	-0,095
-387,263	-200,000	-0,024	-0,146
-386,248	253,139	0,042	0,053
-385,233	-16,749	0,077	-0,036
-384,219	-107,915	-0,076	0,012
-383,204	800,000	-0,026	-0,057
-382,190	24,876	-0,150	0,091
-381,175	51,038	-0,060	-0,042
-380,160	-100,255	0,254	0,046
-379,146	23,118	0,092	0,056
-378,131	-1,050	0,072	-0,037
-377,117	40,162	0,063	0,042
-376,102	800,000	-0,075	0,170
-375,088	42,476	-0,111	-0,074
-374,073	-144,178	0,078	-0,005
-373,058	205,160	-0,087	0,100
-372,044	335,048	0,075	0,107
-371,029	428,744	-0,047	0,075
-370,015	31,817	-0,147	0,093
-369,000	-46,664	-0,065	0,023
-367,985	-200,000	-0,014	-0,255
-366,971	-200,000	-0,009	-0,162
-365,956	51,987	-0,121	-0,085
-364,942	43,218	0,136	0,091
-363,927	212,059	0,067	-0,077
-362,912	-53,412	-0,084	-0,028
-361,898	-104,273	-0,039	0,007
-360,883	-119,303	-0,113	-0,014
-359,869	-24,653	-0,143	-0,062
-358,854	-12,549	0,099	-0,047
-357,839	46,245	0,124	0,084
-356,825	-90,111	0,064	0,014
-355,810	-200,000	-0,016	0,087
-354,796	412,570	-0,014	-0,022
-353,781	443,599	-0,018	0,029
-352,766	-200,000	-0,017	-0,068
-351,752	303,646	0,013	0,018
-350,737	-200,000	0,001	0,151
-349,723	-200,000	0,022	0,078
-348,708	800,000	-0,054	0,123
-347,693	-47,790	0,063	0,022
-346,679	97,407	-0,063	-0,053
-345,664	-39,534	0,102	-0,039
-344,650	149,934	-0,046	0,046
-343,635	393,801	-0,082	0,125
-342,620	-119,817	0,094	-0,012
-341,606	-73,567	0,056	0,015
-340,591	-68,813	-0,056	-0,016
-339,577	490,039	-0,101	-0,169
-338,562	-200,000	-0,012	-0,119
-337,548	-200,000	-0,024	-0,097
-336,533	-80,113	0,138	-0,034
-335,518	142,954	-0,044	-0,043
-334,504	-6,660	-0,052	-0,026
-333,489	104,992	-0,061	0,053
-332,475	-70,322	-0,108	-0,030
-331,460	-78,855	0,093	-0,023
-330,445	-200,000	-0,007	0,081
-329,431	456,869	0,027	-0,044
-328,416	465,199	0,053	-0,087
-327,402	374,091	-0,086	0,129
-326,387	570,253	-0,032	-0,057
-325,372	279,859	-0,027	0,035
-324,358	-55,269	0,140	0,046
-323,343	-200,000	0,031	-0,150
-322,329	-135,209	0,039	0,003
-321,314	201,132	0,128	-0,144
-320,299	800,000	0,033	-0,091
-319,285	-1,968	0,078	0,040
-318,270	-200,000	-0,026	0,150
-317,256	93,421	-0,006	0,005
-316,241	97,111	0,108	0,090
-315,226	-200,000	-0,005	-0,073
-314,212	145,166	-0,088	-0,086
-313,197	-181,852	0,110	0,002
-312,183	-156,366	-0,123	0,006
-311,168	-200,000	0,009	-0,054
-310,153	-148,454	0,150	-0,009
-309,139	-57,426	0,116	0,037
-308,124	800,000	-0,083	0,198
-307,110	-200,000	-0,009	0,068
-306,095	251,211	0,086	0,107
-305,080	-129,421	-0,123	-0,012
-304,066	24,111	0,063	-0,038
-303,051	-56,647	-0,162	-0,052
-302,037	41,618	-0,011	0,008
-301,022	362,161	0,068	-0,100
-300,008	-142,169	0,077	0,006
-298,993	800,000	0,049	0,123
-297,978	-142,839	0,114	0,008
-296,964	70,584	-0,111	-0,084
-295,949	81,055	0,043	0,034
-294,935	-34,083	0,065	-0,026
-293,920	75,734	-0,059	0,046
-292,905	-44,528	-0,046	0,017
-291,891	200,262	0,082	0,092
-290,876	427,196	-0,078	0,124
-289,862	199,465	-0,056	0,063
-288,847	800,000	0,034	-0,098
-287,832	-173,508	-0,141	0,003
-286,818	27,660	-0,027	-0,017
-285,803	-38,589	-0,046	0,018
-284,789	-200,000	0,015	0,111
-283,774	19,295	0,133	0,078
-282,759	-119,627	-0,085	-0,011
-281,745	267,827	-0,127	-0,164
-280,730	65,760	0,060	-0,044
-279,716	-53,809	-0,092	-0,030
-278,701	102,976	0,051	-0,044
-277,686	-200,000	-0,009	0,103
-276,672	355,977	0,063	0,092
-275,657	63,247	-0,074	0,054
-274,643	-114,330	0,026	0,004
-273,628	192,339	-0,036	-0,039
-272,613	36,896	-0,064	0,042
-271,599	-6,133	0,146	0,073
-270,584	139,901	-0,019	0,018
-269,570	209,368	-0,064	-0,074
-268,555	85,161	-0,048	-0,038
-267,540	260,611	0,048	0,061
-266,526	238,989	-0,116	-0,142
-265,511	800,000	0,044	0,120
-264,497	-200,000	-0,026	-0,128
-263,482	800,000	0,068	0,179
-262,467	338,175	0,095	0,135
-261,453	229,252	0,128	0,153
-260,438	800,000	-0,020	-0,053
-259,424	348,245	-0,059	-0,085
-258,409	664,342	-0,025	0,047
-257,395	800,000	-0,083	0,169
-256,380	-200,000	-0,003	0,101
-255,365	-120,193	0,095	-0,012
-254,351	142,134	0,041	0,040
-253,336	800,000	-0,027	-0,057
-252,322	66,312	-0,065	-0,048
-251,307	-60,682	0,108	0,033
-250,292	183,606	0,088	-0,095
-249,278	-44,712	0,068	-0,025
-248,263	-87,772	0,046	-0,010
-247,249	254,342	0,128	0,160
-246,234	-71,550	0,051	-0,014
-245,219	683,027	-0,060	-0,115
-244,205	579,117	-0,083	-0,149
-243,190	800,000	0,045	-0,097
-242,176	37,188	0,024	0,015
-241,161	-17,063	-0,068	-0,031
-240,146	-200,000	0,007	0,049
-239,132	94,600	-0,010	0,008
-238,117	800,000	0,029	-0,086
-237,103	-200,000	0,005	-0,184
-236,088	-200,000	0,010	-0,089
-235,073	-46,373	-0,146	0,052
-234,059	-57,788	0,054	0,017
-233,044	-68,518	0,170	0,048
-232,030	-94,143	-0,129	0,026
-231,015	57,073	-0,093	-0,066
-230,000	-163,311	0,037	0,001
-228,986	-93,886	-0,209	-0,042
-227,971	-167,447	-0,049	-0,001
-226,957	-164,372	-0,078	-0,003
-225,942	-115,598	-0,060	0,008
-224,927	800,000	0,054	0,112
-223,913	101,607	0,012	-0,010
-222,898	332,244	0,051	-0,071
-221,884	314,140	-0,062	-0,085
-220,869	800,000	0,026	0,054
-219,855	11,109	0,126	0,070
-218,840	56,720	0,067	-0,047
-217,825	77,907	-0,076	0,059
-216,811	-8,608	-0,129	-0,063
-215,796	307,085	-0,116	-0,158
-214,782	583,012	-0,014	-0,025
-213,767	-200,000	-0,000	-0,065
-212,752	-200,000	-0,000	0,067
-211,738	104,550	0,148	0,127
-210,723	-17,034	0,077	0,036
-209,709	168,949	-0,020	0,021
-208,694	134,778	-0,096	-0,091
-207,679	63,489	0,044	0,032
-206,665	-54,889	0,081	0,027
-205,650	91,672	0,091	0,075
-204,636	-119,887	0,288	0,036
-203,621	-111,564	-0,079	-0,012
-202,606	350,257	0,032	-0,046
-201,592	-108,098	-0,054	0,009
-200,577	-142,811	-0,087	0,006
-199,563	-143,687	0,141	0,010
-198,548	541,263	0,065	0,114
-197,533	800,000	0,072	0,150
-196,519	153,587	0,078	0,078
-195,504	800,000	-0,017	-0,036
-194,490	800,000	0,012	0,025
-193,475	800,000	-0,020	-0,054
-192,460	-58,941	0,080	0,025
-191,446	-87,358	0,096	0,021
-190,431	-200,000	-0,035	0,132
-189,417	29,038	0,178	-0,110
-188,402	-200,000	0,016	-0,111
-187,387	-102,810	-0,033	0,006
-186,373	-200,000	0,005	0,020
-185,358	-200,000	-0,010	0,093
-184,344	575,417	-0,055	-0,098
-183,329	-70,327	-0,083	-0,023
-182,315	-200,000	0,036	0,137
-181,300	-200,000	-0,003	0,009
-180,285	800,000	-0,043	-0,124
-179,271	321,608	-0,035	-0,049
-178,256	800,000	-0,025	-0,079
-177,242	133,537	0,008	-0,007
-176,227	-200,000	-0,003	0,015
-175,212	-200,000	-0,006	0,074
-174,198	-60,394	0,125	-0,039
-173,183	94,979	-0,060	-0,050
-172,169	-200,000	-0,061	-0,202
-171,154	183,074	-0,171	-0,185
-170,139	-92,072	0,015	-0,003
-169,125	7,414	0,112	-0,061
-168,110	800,000	0,026	0,070
-167,096	1,036	0,138	0,072
-166,081	427,903	-0,053	-0,084
-165,066	-52,746	0,144	-0,048
-164,052	-72,150	-0,046	-0,012
-163,037	-106,418	-0,025	0,004
-162,023	-189,028	0,099	-0,001
-161,008	-99,187	0,024	0,004
-159,993	-200,000	-0,018	0,101
-158,979	20,829	0,125	-0,074
-157,964	-200,000	0,022	-0,120
-156,950	354,208	-0,037	0,053
-155,935	115,974	0,049	-0,044
-154,920	14,580	0,054	0,031
-153,906	800,000	-0,079	0,191
-152,891	-104,870	0,096	0,016
-151,877	-175,489	-0,110	-0,002
-150,862	300,527	0,026	-0,035
-149,847	345,738	0,038	-0,055
-148,833	18,562	0,047	0,027
-147,818	71,574	-0,122	0,092
-146,804	-200,000	-0,009	0,066
-145,789	299,623	0,044	0,059
-144,775	-50,895	0,038	-0,013
-143,760	132,754	-0,034	-0,032
-142,745	-80,334	0,034	-0,008
-141,731	-200,000	-0,015	-0,052
-140,716	-200,000	-0,002	0,029
-139,702	8,722	-0,066	-0,036
-138,687	168,692	0,008	0,008
-137,672	-148,870	0,077	0,004
-136,658	800,000	0,045	-0,122
-135,643	-200,000	-0,001	0,123
-134,629	-109,800	-0,033	0,005
-133,614	45,452	0,117	-0,079
-132,599	426,269	-0,120	0,189
-131,585	-18,236	0,218	0,099
-130,570	427,477	0,012	0,019
-129,556	10,291	-0,057	0,032
-128,541	-169,569	0,166	0,004
-127,526	-9,430	-0,137	0,066
-126,512	800,000	-0,033	0,088
-125,497	47,224	-0,054	0,037
-124,483	224,100	0,061	0,072
-123,468	800,000	-0,020	0,052
-122,453	171,871	0,042	-0,044
-121,439	497,173	0,043	-0,072
-120,424	92,099	0,029	0,024
-119,410	229,949	-0,044	0,053
-118,395	639,658	-0,071	0,132
-117,380	210,209	0,041	0,047
-116,366	-22,601	0,054	0,024
-115,351	0,559	-0,069	0,036
-114,337	-93,534	-0,155	-0,031
-113,322	-200,000	-0,036	0,124
-112,307	-56,272	0,074	0,024
-111,293	228,159	0,108	0,128
-110,278	-64,444	0,074	0,022
-109,264	-200,000	-0,003	0,045
-108,249	-91,500	-0,159	0,033
-107,234	21,630	-0,076	0,045
-106,220	800,000	-0,004	-0,009
-105,205	46,939	-0,112	-0,076
-104,191	-44,639	-0,019	-0,007
-103,176	800,000	0,015	0,036
-102,162	800,000	-0,030	0,079
-101,147	95,350	0,100	-0,083
-100,132	800,000	0,077	-0,182
-99,118	-49,534	0,054	-0,019
-98,103	-152,252	-0,052	-0,003
-97,089	-21,050	0,092	0,041
-96,074	561,940	-0,050	0,088
-95,059	-115,879	0,074	-0,010
-94,045	385,989	-0,081	0,122
-93,030	129,736	0,101	0,094
-92,016	139,560	-0,073	-0,070
-91,001	379,786	-0,055	0,083
-89,986	-189,468	0,093	-0,001
-88,972	-44,452	-0,049	0,018
-87,957	-200,000	0,027	0,127
-86,943	-73,941	0,085	-0,022
-85,928	800,000	-0,031	-0,087
-84,913	104,506	-0,063	0,054
-83,899	53,983	0,039	0,027
-82,884	398,507	0,011	0,017
-81,870	-200,000	0,012	0,121
-80,855	90,687	0,108	-0,088
-79,840	-200,000	0,018	-0,144
-78,826	72,892	-0,115	-0,087
-77,811	131,598	0,136	-0,127
-76,797	462,654	0,087	-0,142
-75,782	800,000	0,024	-0,075
-74,767	800,000	-0,064	-0,144
-73,753	461,291	0,012	-0,020
-72,738	-200,000	-0,011	0,095
-71,724	245,830	-0,050	0,062
-70,709	-200,000	0,030	-0,102
-69,694	-200,000	-0,012	0,122
-68,680	-41,383	0,096	-0,036
-67,665	-88,776	0,062	0,013
-66,651	800,000	-0,015	0,044
-65,636	203,295	0,047	-0,053
-64,622	146,528	-0,114	0,111
-63,607	635,425	-0,070	-0,129
-62,592	-88,170	0,117	0,025
-61,578	-200,000	-0,011	0,067
-60,563	10,046	0,050	0,028
-59,549	373,928	-0,117	0,174
-58,534	-90,397	-1,372	-0,286
-57,519	396,585	-0,966	-1,469
-56,505	-200,000	-0,867	-4,340
-55,490	102,183	0,566	-0,480
-54,476	800,000	4,988	11,831
-53,461	-200,000	13,499	253,170
-52,446	-200,000	688,932	2267,291
-51,432	595,614	1622,614	2926,154
-50,417	120,630	1636,030	1475,198
-49,403	73,643	1290,034	979,598
-48,388	38,364	1024,798	661,104
-47,373	24,513	982,147	588,041
-46,359	23,778	971,932	579,490
-45,344	22,778	967,875	573,781
-44,330	22,692	966,319	572,555
-43,315	22,593	964,937	571,391
-42,300	22,574	963,948	570,721
-41,286	22,608	962,887	570,181
-40,271	22,558	962,061	569,504
-39,257	22,564	960,975	568,860
-38,242	22,502	960,333	568,257
-37,227	22,565	959,272	567,811
-36,213	22,504	958,434	567,095
-35,198	22,482	957,700	566,566
-34,184	22,574	956,900	566,368
-33,169	22,546	955,953	565,695
-32,154	22,622	955,090	565,405
-31,140	22,634	954,135	564,858
-30,125	22,649	953,384	564,438
-29,111	22,684	952,485	563,995
-28,096	22,605	951,937	563,395
-27,082	22,578	951,312	562,916
-26,067	22,581	950,463	562,403
-25,052	22,618	949,891	562,160
-24,038	22,574	949,288	561,640
-23,023	22,581	948,561	561,209
-22,009	22,664	947,785	560,994
-20,994	22,662	947,210	560,623
-19,979	22,673	946,511	560,222
-18,965	22,624	945,856	559,657
-17,950	22,636	945,342	559,369
-16,936	22,561	944,610	558,674
-15,921	22,520	943,996	558,157
-14,906	22,492	943,258	557,611
-13,892	22,473	942,660	557,175
-12,877	22,502	942,125	556,929
-11,863	22,447	941,470	556,344
-10,848	22,429	940,948	555,956
-9,833	22,527	940,515	555,990
-8,819	22,529	939,709	555,497
-7,804	22,498	938,941	554,924
-6,790	22,465	938,550	554,567
-5,775	22,501	937,919	554,284
-4,760	22,517	937,254	553,921
-3,746	22,502	936,667	553,503
-2,731	22,323	936,002	552,522
-1,717	22,302	935,256	551,995
-0,702	22,318	934,596	551,636
0,313	22,135	933,923	551,493
1,327	25,156	931,960	559,786
2,342	34,775	796,753	504,213
3,356	32,858	452,028	283,142
4,371	1,969	293,917	153,279
5,386	-2,496	274,942	139,142
6,400	-4,036	269,010	134,699
7,415	-4,634	266,656	132,958
8,429	-4,220	265,223	132,611
9,444	-4,267	264,444	132,167
10,459	-4,244	263,821	131,864
11,473	-4,245	263,260	131,572
12,488	-4,348	262,712	131,193
13,502	-4,583	262,292	130,759
14,517	-4,544	261,878	130,575
15,531	-4,436	261,327	130,386
16,546	-4,471	261,241	130,301
17,561	-4,448	260,850	130,115
18,575	-4,524	260,487	129,854
19,590	-4,566	260,033	129,578
20,604	-4,237	259,771	129,731
21,619	-4,501	259,430	129,312
22,634	-4,431	259,038	129,168
23,648	-4,508	258,805	128,972
24,663	-4,492	258,438	128,792
25,677	-4,503	258,264	128,683
26,692	-4,525	258,153	128,597
27,707	-4,578	257,790	128,358
28,721	-4,455	257,494	128,308
29,736	-4,557	257,201	128,060
30,750	-4,649	257,000	127,867
31,765	-4,476	256,840	127,929
32,780	-4,462	256,587	127,805
33,794	-4,636	256,405	127,548
34,809	-4,497	256,072	127,495
35,823	-4,580	255,853	127,301
36,838	-4,561	255,591	127,176
37,853	-4,600	255,374	127,022
38,867	-4,562	255,112	126,914
39,882	-4,643	254,879	126,716
40,896	-4,497	254,615	126,701
41,911	-4,566	254,428	126,537
42,926	-4,667	254,294	126,370
43,940	-4,604	253,961	126,248
44,955	-4,651	253,887	126,160
45,969	-4,562	253,604	126,085
46,984	-4,759	253,297	125,750
47,999	-5,027	252,909	125,313
49,013	-5,266	252,763	125,021
50,028	-5,276	252,517	124,879
51,042	-5,226	252,337	124,823
52,057	-5,343	252,210	124,647
53,071	-5,263	251,884	124,545
54,086	-5,197	251,783	124,541
55,101	-4,990	251,703	124,669
56,115	-4,887	251,445	124,619
57,130	-4,512	251,404	124,912
58,144	-4,218	251,249	125,078
59,159	-4,165	250,919	124,947
60,174	-4,369	250,811	124,707
61,188	-4,369	250,562	124,572
62,203	-4,380	250,381	124,461
63,217	-4,575	250,193	124,189
64,232	-4,635	249,999	124,030
65,247	-4,457	249,709	124,029
66,261	-4,217	249,440	124,090
67,276	-4,480	249,248	123,757
68,290	-4,924	249,043	123,266
69,305	-4,822	248,690	123,166
70,320	-4,813	248,512	123,075
71,334	-4,664	248,554	123,212
72,349	-4,469	248,310	123,246
73,363	-4,406	248,224	123,246
74,378	-4,323	247,960	123,175
75,393	-4,331	247,719	123,037
76,407	-4,666	247,701	122,733
77,422	-4,674	247,613	122,671
78,436	-4,459	247,175	122,626
79,451	-4,438	246,959	122,526
80,466	-4,531	246,803	122,358
81,480	-4,542	246,457	122,167
82,495	-4,733	246,259	121,897
83,509	-4,697	246,148	121,861
84,524	-4,511	245,942	121,905
85,539	-4,850	245,635	121,456
86,553	-4,842	245,370	121,321
87,568	-4,793	245,411	121,372
88,582	-4,659	245,078	121,308
89,597	-4,646	244,993	121,266
90,611	-4,541	244,880	121,288
91,626	-4,464	244,684	121,244
92,641	-4,537	244,488	121,076
93,655	-4,659	244,276	120,858
94,670	-4,576	244,150	120,854
95,684	-4,709	243,939	120,628
96,699	-4,600	243,749	120,614
97,714	-4,651	243,598	120,486
98,728	-4,603	243,297	120,366
99,743	-4,873	243,135	120,051
100,757	-5,001	242,897	119,816
101,772	-4,811	242,743	119,887
102,787	-4,726	242,588	119,871
103,801	-4,753	242,393	119,742
104,816	-4,611	242,288	119,797
105,830	-4,582	242,246	119,789
106,845	-4,467	242,006	119,755
107,860	-4,423	241,715	119,637
108,874	-4,561	241,648	119,479
109,889	-4,619	241,407	119,301
110,903	-4,669	241,227	119,160
111,918	-4,616	240,961	119,062
112,933	-4,466	240,772	119,082
113,947	-4,643	240,715	118,897
114,962	-4,526	240,525	118,889
115,976	-4,529	240,356	118,792
116,991	-4,649	240,219	118,615
118,006	-4,540	240,029	118,600
119,020	-4,574	239,994	118,544
120,035	-4,604	239,863	118,444
121,049	-4,496	239,652	118,419
122,064	-4,461	239,489	118,356
123,079	-4,577	239,316	118,165
124,093	-4,711	239,043	117,910
125,108	-4,564	238,726	117,863
126,122	-4,940	238,524	117,447
127,137	-5,130	238,396	117,218
128,151	-4,916	238,258	117,314
129,166	-4,646	238,119	117,454
130,181	-4,696	237,943	117,317
131,195	-5,042	237,845	116,977
132,210	-4,800	237,578	117,032
133,224	-4,558	237,359	117,110
134,239	-4,526	237,252	117,073
135,254	-4,447	237,209	117,105
136,268	-4,606	236,880	116,803
137,283	-4,827	236,572	116,462
138,297	-4,873	236,359	116,310
139,312	-4,990	236,140	116,098
140,327	-4,769	236,254	116,321
141,341	-4,340	236,191	116,626
142,356	-4,268	236,081	116,619
143,370	-4,193	235,818	116,539
144,385	-4,122	235,667	116,511
145,400	-4,092	235,525	116,455
146,414	-4,105	235,310	116,328
147,429	-4,235	235,197	116,157
148,443	-4,338	234,930	115,932
149,458	-4,108	234,848	116,066
150,473	-4,200	234,577	115,848
151,487	-4,398	234,443	115,613
152,502	-4,139	234,307	115,742
153,516	-4,151	234,151	115,645
154,531	-4,190	233,987	115,523
155,546	-4,297	233,789	115,330
156,560	-4,425	233,677	115,163
157,575	-4,530	233,434	114,949
158,589	-4,454	233,355	114,960
159,604	-4,236	233,265	115,079
160,619	-4,234	233,071	114,974
161,633	-4,127	232,854	114,942
162,648	-4,070	232,509	114,806
163,662	-4,221	232,618	114,731
164,677	-4,294	232,237	114,475
165,692	-4,353	232,300	114,449
166,706	-3,877	231,984	114,659
167,721	-4,079	231,827	114,411
168,735	-4,149	231,860	114,362
169,750	-4,083	231,702	114,326
170,764	-4,425	231,528	113,960
171,779	-4,173	231,371	114,072
172,794	-4,147	231,236	114,015
173,808	-4,230	231,041	113,844
174,823	-4,671	230,655	113,297
175,837	-4,917	230,463	113,000
176,852	-4,303	230,475	113,477
177,867	-4,054	230,391	113,621
178,881	-4,097	230,320	113,542
179,896	-3,962	230,087	113,523
180,910	-4,008	229,843	113,356
181,925	-3,867	229,708	113,390
182,940	-3,963	229,545	113,225
183,954	-3,961	229,490	113,188
184,969	-4,082	229,475	113,076
185,983	-3,884	229,231	113,101
186,998	-3,991	229,037	112,911
188,013	-4,083	228,939	112,782
189,027	-3,878	228,705	112,815
190,042	-3,899	228,469	112,673
191,056	-3,925	228,522	112,669
192,071	-3,923	228,206	112,505
193,086	-3,987	228,158	112,421
194,100	-3,927	227,906	112,333
195,115	-4,086	227,503	112,002
196,129	-4,792	227,444	111,418
197,144	-1,185	228,506	114,724
198,159	2,904	229,599	118,439
199,173	4,120	229,907	119,531
200,188	4,056	229,699	119,362
201,202	4,137	229,527	119,326
202,217	4,358	229,534	119,490
203,232	4,519	229,409	119,539
204,246	4,592	229,164	119,457
205,261	4,742	229,175	119,568
206,275	4,863	229,065	119,593
207,290	4,987	228,852	119,567
208,304	4,902	228,696	119,409
209,319	4,761	228,616	119,248
210,334	4,652	228,259	118,967
211,348	4,479	228,124	118,753
212,363	4,196	227,782	118,347
213,377	3,730	227,859	118,019
214,392	4,061	227,488	118,070
215,407	3,909	227,514	117,957
216,421	4,176	227,339	118,060
217,436	3,980	227,039	117,744
218,450	3,768	226,761	117,427
219,465	3,545	226,792	117,262
220,480	3,555	226,612	117,166
221,494	3,665	226,469	117,166
222,509	3,937	226,311	117,281
223,523	3,833	226,248	117,159
224,538	3,760	226,049	116,989
225,553	3,921	225,939	117,045
226,567	4,146	225,832	117,149
227,582	4,162	225,736	117,102
228,596	4,290	225,627	117,132
229,611	3,931	225,374	116,717
230,626	3,853	225,085	116,499
231,640	4,048	224,866	116,523
232,655	4,207	224,894	116,647
233,669	4,311	224,955	116,747
234,684	4,419	224,789	116,732
235,699	4,315	224,500	116,493
236,713	4,172	224,298	116,270
237,728	3,901	224,118	115,962
238,742	3,879	223,951	115,849
239,757	3,843	223,766	115,716
240,772	3,827	223,675	115,646
241,786	3,806	223,625	115,594
242,801	3,921	223,633	115,675
243,815	4,380	223,342	115,858
244,830	4,396	223,108	115,738
245,844	4,163	222,992	115,494
246,859	4,027	222,869	115,318
247,874	4,096	222,692	115,267
248,888	4,180	222,520	115,231
249,903	4,142	222,284	115,070
250,917	4,101	222,303	115,038
251,932	4,047	222,127	114,898
252,947	3,838	221,978	114,654
253,961	4,008	221,705	114,629
254,976	3,976	221,635	114,559
255,990	4,150	221,599	114,660
257,005	4,019	221,479	114,490
258,020	4,133	221,490	114,571
259,034	4,553	221,261	114,754
260,049	4,439	221,034	114,541
261,063	4,181	220,895	114,267
262,078	4,524	220,841	114,484
263,093	4,347	220,655	114,246
264,107	4,189	220,545	114,062
265,122	4,298	220,330	114,022
266,136	4,434	220,284	114,087
267,151	4,437	220,048	113,957
268,166	4,061	219,946	113,618
269,180	3,666	219,602	113,138
270,195	3,865	219,556	113,251
271,209	4,095	219,420	113,341
272,224	3,935	219,305	113,153
273,239	3,994	219,114	113,088
274,253	3,660	219,106	112,827
275,268	3,903	218,732	112,804
276,282	3,726	218,542	112,566
277,297	3,371	218,489	112,268
278,312	3,604	218,452	112,410
279,326	4,133	218,319	112,718
280,341	4,023	218,155	112,544
281,355	3,806	218,094	112,344
282,370	4,096	217,850	112,419
283,384	3,952	217,522	112,136
284,399	3,468	217,498	111,760
285,414	3,583	217,431	111,800
286,428	4,072	217,269	112,062
287,443	4,299	217,185	112,174
288,457	4,041	217,110	111,937
289,472	3,716	216,994	111,631
290,487	3,455	216,631	111,245
291,501	3,485	216,472	111,175
292,516	3,534	216,279	111,102
293,530	3,704	216,219	111,185
294,545	3,841	216,175	111,251
295,560	3,897	215,909	111,145
296,574	3,766	215,860	111,015
297,589	3,906	215,793	111,072
298,603	3,954	215,607	111,001
299,618	4,058	215,511	111,017
300,633	4,040	215,318	110,894
301,647	4,471	215,247	111,158
302,662	4,163	215,232	110,919
303,676	4,220	215,064	110,863
304,691	4,306	214,828	110,793
305,706	4,117	214,842	110,655
306,720	4,312	214,708	110,716
307,735	3,962	214,345	110,268
308,749	3,670	214,328	110,040
309,764	3,951	214,245	110,190
310,779	4,477	213,938	110,398
311,793	3,979	213,873	109,998
312,808	4,168	213,801	110,087
313,822	4,117	213,662	109,969
314,837	4,006	213,505	109,799
315,852	3,722	213,245	109,453
316,866	4,103	213,191	109,687
317,881	4,188	212,970	109,624
318,895	4,175	213,052	109,646
319,910	4,039	212,722	109,371
320,925	3,481	212,576	108,890
321,939	3,283	212,444	108,672
322,954	3,811	212,244	108,934
323,968	3,974	212,285	109,061
324,983	3,994	212,243	109,044
325,997	4,079	212,123	109,033
327,012	4,055	211,946	108,915
328,027	3,896	211,833	108,735
329,041	4,161	211,704	108,846
330,056	4,677	211,533	109,113
331,070	3,868	211,339	108,432
332,085	3,518	211,219	108,114
333,100	3,847	210,943	108,195
334,114	4,055	210,842	108,280
335,129	3,943	210,660	108,099
336,143	3,754	210,640	107,946
337,158	3,623	210,463	107,753
338,173	3,765	210,385	107,804
339,187	3,687	210,229	107,659
340,202	3,583	209,969	107,444
341,216	3,602	209,800	107,361
342,231	3,983	209,573	107,501
343,246	3,635	209,578	107,251
344,260	3,788	209,536	107,327
345,275	3,757	209,477	107,265
346,289	4,024	209,254	107,328
347,304	4,079	209,171	107,314
348,319	3,895	208,998	107,087
349,333	3,842	208,908	106,995
350,348	3,908	208,747	106,949
351,362	4,025	208,781	107,039
352,377	4,089	208,510	106,935
353,392	3,798	208,482	106,708
354,406	4,079	208,300	106,801
355,421	193,667	1347,769	1435,682
356,435	154,500	1486,706	1435,803
