DTS Sentinel unit serial number:	SN410029Multiplexer serial number:	ORYXHardware model number:	OX2-SRSoftware version number:	ORYX F/W v4,00 Oryx Data Collector v3.7.2.0data status	okinstallation	B6 Nyhavnadifferential loss correction	single-endedforward channel	channel 2reverse channel	N/Adate	2023/12/10time	08:00:08forward acquisition time	300,00reverse acquisition time	0,00gamma	499,1914k internal	0,3123k external	0,3123temperature offset calibration	1,0000default loss term (dB/km)	0,3820temperature slope calibration	1,0000multiplexer offset coefficient	1,0000multiplexer slope coefficient	1,0000fibre end	0,00T internal ref (°C)	22,58T ext. ref 1 (°C)	6,32T ext. ref 2 (°C)	6,33length (m)	temperature (°C)	Stokes	anti-Stokes-744,400	61,910	-0,114	-0,085
-743,385	-37,933	-0,252	0,099
-742,371	218,250	0,029	-0,035
-741,356	23,820	-0,190	0,116
-740,342	-200,000	0,011	0,058
-739,327	3,651	-0,170	0,092
-738,312	-77,550	0,021	0,005
-737,298	69,762	-0,184	0,141
-736,283	48,849	0,159	-0,111
-735,269	57,464	-0,146	0,106
-734,254	-39,736	0,106	-0,041
-733,239	-34,003	-0,428	-0,174
-732,225	179,208	0,134	-0,146
-731,210	-3,965	-0,062	0,032
-730,196	800,000	-0,046	-0,111
-729,181	-63,279	-0,079	0,024
-728,167	126,741	0,016	0,015
-727,152	800,000	-0,037	-0,085
-726,137	-74,054	-0,188	0,050
-725,123	-73,758	-0,065	-0,017
-724,108	-79,558	0,176	-0,044
-723,094	-200,000	0,007	-0,041
-722,079	123,491	-0,056	-0,052
-721,064	-33,202	0,032	-0,013
-720,050	505,041	-0,046	-0,079
-719,035	349,204	0,032	-0,047
-718,021	37,280	-0,098	0,065
-717,006	446,207	0,079	-0,130
-715,991	-58,243	-0,021	0,007
-714,977	28,651	0,036	0,023
-713,962	-89,138	-0,100	0,022
-712,948	-200,000	-0,012	0,118
-711,933	-200,000	-0,020	-0,072
-710,918	4,190	0,043	0,023
-709,904	55,662	-0,035	-0,026
-708,889	-39,758	-0,034	-0,013
-707,875	-73,716	-0,105	0,028
-706,860	-92,850	-0,095	-0,019
-705,845	143,875	0,077	0,076
-704,831	-154,596	-0,152	0,007
-703,816	-125,452	0,053	-0,006
-702,802	800,000	0,042	-0,107
-701,787	-200,000	-0,010	-0,061
-700,772	329,145	-0,027	-0,039
-699,758	-172,005	-0,139	0,003
-698,743	-200,000	0,006	0,056
-697,729	134,507	0,082	0,079
-696,714	354,066	-0,005	-0,007
-695,699	-200,000	0,024	-0,079
-694,685	-0,781	-0,122	-0,064
-693,670	800,000	0,032	-0,088
-692,656	800,000	-0,019	0,062
-691,641	-200,000	0,020	-0,072
-690,627	800,000	0,054	-0,139
-689,612	127,638	-0,067	-0,063
-688,597	591,629	-0,084	0,154
-687,583	-164,666	0,025	-0,001
-686,568	-200,000	0,034	-0,172
-685,554	-40,180	-0,088	0,034
-684,539	-200,000	-0,001	-0,044
-683,524	193,266	-0,129	-0,146
-682,510	-34,197	0,104	0,042
-681,495	77,199	-0,091	0,072
-680,481	800,000	-0,077	-0,223
-679,466	-200,000	-0,046	-0,245
-678,451	32,693	-0,147	-0,094
-677,437	250,857	0,058	0,074
-676,422	25,481	0,040	-0,025
-675,408	-124,706	-0,109	0,012
-674,393	-110,206	-0,065	-0,010
-673,378	-78,303	-0,183	-0,046
-672,364	190,182	-0,079	-0,088
-671,349	448,132	-0,023	-0,037
-670,335	-200,000	0,014	-0,062
-669,320	64,093	-0,135	0,101
-668,305	564,789	0,056	-0,101
-667,291	800,000	0,033	0,108
-666,276	-200,000	-0,010	0,082
-665,262	138,555	-0,103	-0,101
-664,247	-52,325	-0,068	0,023
-663,232	800,000	-0,044	-0,099
-662,218	35,580	0,156	0,102
-661,203	-200,000	-0,044	-0,167
-660,189	462,752	-0,061	-0,102
-659,174	-13,089	-0,121	-0,058
-658,159	-200,000	-0,004	-0,110
-657,145	-200,000	0,024	0,081
-656,130	-200,000	-0,013	-0,092
-655,116	239,627	-0,021	0,026
-654,101	22,440	0,096	-0,058
-653,086	-88,829	-0,077	0,017
-652,072	-200,000	0,004	-0,078
-651,057	754,062	-0,028	-0,057
-650,043	-200,000	0,023	-0,122
-649,028	294,793	0,037	0,051
-648,014	-53,842	-0,023	-0,008
-646,999	544,951	-0,026	0,046
-645,984	-200,000	0,003	0,117
-644,970	13,564	-0,148	0,085
-643,955	10,556	-0,092	0,052
-642,941	99,577	0,073	-0,062
-641,926	62,331	-0,102	-0,075
-640,911	138,878	0,082	0,080
-639,897	-200,000	0,007	-0,036
-638,882	141,931	0,126	-0,124
-637,868	-130,345	-0,041	0,004
-636,853	-140,106	-0,074	-0,006
-635,838	-2,648	-0,054	-0,028
-634,824	-200,000	-0,025	-0,145
-633,809	248,220	0,050	-0,063
-632,795	-112,626	-0,120	-0,018
-631,780	-11,940	0,090	-0,043
-630,765	-200,000	0,000	0,042
-629,751	362,328	-0,051	0,076
-628,736	385,372	-0,092	-0,142
-627,722	558,893	-0,049	0,087
-626,707	-112,202	-0,068	0,010
-625,692	71,100	-0,107	0,082
-624,678	-63,174	0,136	-0,041
-623,663	800,000	-0,026	0,069
-622,649	20,621	0,058	-0,035
-621,634	-60,268	0,089	-0,028
-620,619	800,000	-0,033	-0,097
-619,605	206,769	-0,045	-0,052
-618,590	54,975	0,031	0,022
-617,576	554,080	-0,018	-0,032
-616,561	-49,344	0,080	0,028
-615,546	-191,141	-0,151	0,001
-614,532	84,578	0,070	-0,057
-613,517	-48,562	0,064	0,023
-612,503	-73,554	0,028	-0,008
-611,488	39,538	0,148	-0,098
-610,474	-200,000	0,004	-0,044
-609,459	-111,063	0,140	0,021
-608,444	175,234	0,075	-0,080
-607,430	-20,304	-0,173	-0,079
-606,415	59,901	-0,125	-0,091
-605,401	576,095	0,036	0,065
-604,386	-200,000	0,018	0,078
-603,371	414,923	-0,081	0,128
-602,357	-14,749	-0,084	0,040
-601,342	340,322	0,033	-0,048
-600,328	-24,993	-0,217	-0,095
-599,313	800,000	-0,032	-0,096
-598,298	5,019	0,177	-0,096
-597,284	-200,000	-0,004	-0,060
-596,269	-91,567	0,076	0,016
-595,255	800,000	-0,022	0,053
-594,240	157,940	-0,018	0,019
-593,225	221,739	-0,154	-0,184
-592,211	800,000	-0,031	0,069
-591,196	-200,000	-0,023	0,078
-590,182	800,000	0,057	0,145
-589,167	504,823	0,011	0,019
-588,152	60,452	0,058	-0,043
-587,138	-113,287	-0,108	0,015
-586,123	-114,361	-0,128	-0,018
-585,109	-200,000	0,026	0,131
-584,094	-200,000	0,011	-0,073
-583,079	284,476	-0,018	-0,024
-582,065	81,699	0,070	-0,056
-581,050	798,810	0,022	-0,045
-580,036	-200,000	-0,016	0,068
-579,021	392,498	-0,047	0,073
-578,006	800,000	-0,003	0,007
-576,992	-182,084	0,162	0,002
-575,977	-103,149	0,128	-0,022
-574,963	800,000	0,048	0,105
-573,948	-200,000	-0,002	0,086
-572,934	-83,247	-0,124	-0,029
-571,919	-200,000	0,004	-0,062
-570,904	84,480	0,029	-0,024
-569,890	755,201	-0,014	-0,027
-568,875	-47,598	0,157	-0,056
-567,861	723,701	-0,009	-0,017
-566,846	800,000	-0,022	0,057
-565,831	-115,994	0,115	-0,016
-564,817	106,328	-0,036	-0,032
-563,802	-38,752	-0,084	0,033
-562,788	-200,000	0,009	0,032
-561,773	115,505	-0,049	0,044
-560,758	-200,000	-0,019	0,090
-559,744	-21,688	-0,091	-0,041
-558,729	-200,000	0,009	0,039
-557,715	-169,511	-0,076	-0,002
-556,700	-181,731	0,051	-0,001
-555,685	-19,413	0,094	-0,043
-554,671	37,458	0,068	-0,045
-553,656	-66,750	-0,007	-0,002
-552,642	19,100	-0,042	0,025
-551,627	56,124	0,133	0,095
-550,612	50,230	-0,123	0,086
-549,598	-43,581	-0,111	-0,041
-548,583	-100,329	0,170	0,031
-547,569	320,787	-0,036	0,050
-546,554	-200,000	-0,000	0,015
-545,539	29,071	-0,075	-0,047
-544,525	800,000	-0,007	0,015
-543,510	572,045	-0,050	-0,090
-542,496	57,307	-0,049	-0,035
-541,481	38,433	0,073	0,048
-540,466	-160,103	0,157	0,006
-539,452	626,323	0,018	0,033
-538,437	501,744	-0,024	-0,041
-537,423	700,290	-0,038	0,074
-536,408	-200,000	-0,034	-0,163
-535,393	-140,098	-0,116	-0,009
-534,379	310,294	-0,085	-0,118
-533,364	-153,069	0,151	-0,008
-532,350	800,000	-0,019	-0,052
-531,335	-200,000	-0,003	0,020
-530,321	-134,180	-0,091	-0,008
-529,306	-66,509	-0,124	-0,036
-528,291	465,429	-0,080	-0,133
-527,277	-200,000	0,020	-0,080
-526,262	-27,616	-0,167	-0,072
-525,248	3,690	-0,097	-0,052
-524,233	-180,649	-0,033	-0,000
-523,218	-200,000	0,000	-0,048
-522,204	35,697	-0,112	0,073
-521,189	157,236	-0,097	0,100
-520,175	800,000	0,045	0,111
-519,160	-8,141	-0,012	0,006
-518,145	109,098	-0,166	-0,147
-517,131	800,000	-0,033	-0,084
-516,116	189,023	0,059	0,065
-515,102	46,118	-0,030	0,021
-514,087	-160,305	0,084	-0,003
-513,072	15,235	-0,123	-0,071
-512,058	-200,000	-0,004	0,044
-511,043	182,001	0,025	0,028
-510,029	-200,000	-0,021	0,110
-509,014	679,415	-0,091	0,175
-507,999	-124,764	0,138	-0,016
-506,985	452,985	-0,009	0,015
-505,970	297,823	-0,108	-0,148
-504,956	-200,000	0,023	-0,102
-503,941	-122,924	-0,100	0,012
-502,926	352,246	0,039	0,058
-501,912	-118,652	0,134	-0,017
-500,897	574,525	0,044	0,079
-499,883	-187,752	0,062	0,001
-498,868	-34,012	-0,077	-0,031
-497,853	56,832	-0,113	0,081
-496,839	800,000	-0,015	0,043
-495,824	-55,212	0,050	-0,017
-494,810	-200,000	-0,027	0,093
-493,795	172,634	-0,076	-0,081
-492,781	-200,000	-0,012	-0,068
-491,766	17,435	0,069	-0,040
-490,751	125,275	0,065	-0,061
-489,737	-23,573	-0,118	-0,052
-488,722	800,000	-0,026	0,076
-487,708	111,326	0,135	0,120
-486,693	514,119	0,050	0,086
-485,678	-115,872	-0,136	0,019
-484,664	217,974	-0,058	0,068
-483,649	800,000	0,015	0,041
-482,635	-200,000	-0,139	0,000
-481,620	-200,000	-0,014	0,073
-480,605	28,358	-0,092	-0,057
-479,591	325,041	-0,057	0,081
-478,576	499,214	0,076	0,130
-477,562	58,625	-0,019	-0,014
-476,547	800,000	-0,043	-0,102
-475,532	267,174	-0,045	0,058
-474,518	-200,000	-0,015	0,057
-473,503	524,451	0,032	-0,056
-472,489	-90,233	0,213	0,045
-471,474	112,002	-0,037	0,033
-470,459	7,570	-0,101	0,056
-469,445	31,126	0,033	-0,021
-468,430	-80,829	-0,122	-0,030
-467,416	579,366	0,043	-0,078
-466,401	-200,000	-0,014	-0,131
-465,386	-77,284	0,073	0,019
-464,372	134,463	0,077	-0,073
-463,357	-48,439	0,048	-0,017
-462,343	185,599	-0,081	0,089
-461,328	-124,727	0,026	0,003
-460,313	-200,000	-0,039	0,167
-459,299	256,267	-0,049	-0,062
-458,284	-75,532	-0,065	0,017
-457,270	-200,000	-0,008	0,121
-456,255	-92,406	0,005	0,001
-455,241	-200,000	-0,006	-0,090
-454,226	-200,000	0,010	-0,146
-453,211	-145,286	0,108	0,007
-452,197	-200,000	-0,008	0,089
-451,182	58,399	0,050	0,036
-450,168	-200,000	-0,049	-0,186
-449,153	113,650	-0,106	0,095
-448,138	-155,577	-0,166	-0,008
-447,124	44,687	-0,164	-0,111
-446,109	-11,176	0,064	-0,031
-445,095	-10,702	0,126	0,061
-444,080	525,977	0,045	0,078
-443,065	267,738	0,018	-0,023
-442,051	60,228	0,042	-0,031
-441,036	-200,000	-0,005	-0,050
-440,022	44,956	-0,040	-0,027
-439,007	-200,000	0,012	0,083
-437,992	-200,000	-0,015	0,091
-436,978	-200,000	0,022	0,097
-435,963	-125,814	0,079	-0,009
-434,949	-36,735	0,123	-0,048
-433,934	-200,000	-0,012	-0,090
-432,919	4,971	0,104	0,056
-431,905	634,426	0,043	-0,080
-430,890	-200,000	0,024	0,102
-429,876	800,000	-0,027	-0,066
-428,861	800,000	0,011	0,029
-427,846	90,768	0,075	0,062
-426,832	97,503	-0,121	-0,102
-425,817	262,616	-0,022	-0,028
-424,803	161,881	-0,047	0,049
-423,788	-127,837	-0,091	0,010
-422,773	800,000	-0,023	-0,067
-421,759	-99,507	0,027	-0,005
-420,744	-200,000	0,004	0,030
-419,730	-50,511	-0,101	-0,035
-418,715	800,000	-0,037	-0,076
-417,701	152,099	0,051	-0,052
-416,686	27,533	-0,032	0,020
-415,671	-200,000	0,019	0,116
-414,657	800,000	0,032	0,088
-413,642	800,000	0,035	0,074
-412,628	352,478	0,042	0,061
-411,613	-23,607	-0,106	-0,046
-410,598	181,711	-0,099	-0,107
-409,584	218,364	0,036	-0,043
-408,569	-34,750	0,118	0,047
-407,555	-200,000	0,007	-0,061
-406,540	-50,403	-0,101	-0,035
-405,525	406,454	0,107	-0,166
-404,511	218,725	-0,027	0,031
-403,496	-78,166	-0,079	-0,020
-402,482	800,000	-0,031	-0,093
-401,467	776,746	-0,036	0,072
-400,452	800,000	-0,062	0,171
-399,438	800,000	0,053	0,148
-398,423	-55,840	0,130	-0,043
-397,409	-24,787	-0,112	0,049
-396,394	800,000	-0,019	-0,051
-395,379	-106,372	-0,063	-0,010
-394,365	51,037	0,134	-0,093
-393,350	322,671	0,077	0,109
-392,336	117,485	0,160	0,144
-391,321	451,643	-0,045	-0,073
-390,306	238,003	0,048	-0,059
-389,292	177,256	0,019	0,021
-388,277	-124,554	0,068	-0,008
-387,263	65,733	0,049	0,037
-386,248	-65,518	0,083	0,024
-385,233	-200,000	0,001	0,038
-384,219	122,583	-0,088	-0,081
-383,204	800,000	0,044	-0,102
-382,190	-200,000	0,008	-0,104
-381,175	-121,239	-0,018	0,002
-380,160	-81,633	0,045	0,011
-379,146	177,479	0,113	-0,121
-378,131	-200,000	0,025	-0,137
-377,117	-116,080	0,095	0,013
-376,102	70,264	-0,083	-0,063
-375,088	-200,000	0,002	-0,203
-374,073	800,000	0,020	0,058
-373,058	-184,187	-0,094	0,001
-372,044	220,676	-0,062	0,073
-371,029	-200,000	0,024	0,223
-370,015	221,266	0,106	0,126
-369,000	-200,000	-0,008	0,068
-367,985	-200,000	-0,206	0,000
-366,971	25,758	0,047	-0,029
-365,956	76,030	0,071	-0,055
-364,942	71,536	-0,095	0,073
-363,927	800,000	-0,045	0,112
-362,912	293,683	0,031	0,042
-361,898	109,144	0,094	-0,083
-360,883	9,855	-0,099	0,055
-359,869	-122,146	-0,053	-0,006
-358,854	410,141	0,068	0,106
-357,839	102,111	-0,081	-0,069
-356,825	143,883	0,009	-0,009
-355,810	-200,000	0,008	0,053
-354,796	-200,000	0,015	-0,079
-353,781	4,829	0,033	0,018
-352,766	-127,823	-0,147	0,015
-351,752	-15,614	0,052	-0,024
-350,737	75,021	0,052	0,040
-349,723	-34,737	0,058	0,023
-348,708	560,878	-0,043	0,077
-347,693	122,879	-0,069	-0,064
-346,679	800,000	-0,048	-0,121
-345,664	-65,098	-0,080	0,024
-344,650	-109,881	0,023	-0,004
-343,635	-45,819	-0,008	0,003
-342,620	398,897	0,086	0,133
-341,606	93,700	0,066	0,055
-340,591	207,207	0,059	-0,067
-339,577	-77,109	-0,078	0,020
-338,562	800,000	0,022	0,062
-337,548	229,478	-0,066	0,080
-336,533	-133,963	-0,027	-0,002
-335,518	800,000	0,107	0,260
-334,504	-200,000	0,005	0,107
-333,489	-200,000	-0,009	0,062
-332,475	-200,000	0,005	-0,066
-331,460	206,529	0,059	-0,068
-330,445	-200,000	-0,004	0,027
-329,431	-200,000	0,006	0,036
-328,416	800,000	-0,044	0,131
-327,402	154,899	0,073	0,073
-326,387	-200,000	-0,062	-0,230
-325,372	135,984	-0,022	0,021
-324,358	-58,847	0,051	-0,016
-323,343	-200,000	-0,038	-0,213
-322,329	156,778	0,033	-0,034
-321,314	-200,000	0,038	0,210
-320,299	-56,572	0,148	-0,048
-319,285	-74,078	0,142	0,038
-318,270	800,000	0,040	0,085
-317,256	51,184	-0,141	-0,098
-316,241	141,777	-0,124	0,121
-315,226	800,000	-0,046	-0,135
-314,212	20,485	-0,099	0,058
-313,197	-146,655	0,078	0,005
-312,183	-131,146	-0,034	-0,003
-311,168	51,342	0,014	-0,010
-310,153	-200,000	-0,011	-0,074
-309,139	290,918	0,031	-0,041
-308,124	800,000	0,024	0,067
-307,110	702,712	0,030	0,057
-306,095	-200,000	-0,016	-0,055
-305,080	800,000	0,030	-0,065
-304,066	-200,000	-0,010	-0,046
-303,051	426,110	-0,044	-0,069
-302,037	-103,734	0,047	-0,008
-301,022	469,685	-0,068	0,112
-300,008	-49,703	0,015	0,005
-298,993	264,075	-0,092	-0,117
-297,978	19,277	0,098	-0,057
-296,964	-44,155	-0,083	-0,030
-295,949	146,169	-0,032	-0,032
-294,935	800,000	-0,007	-0,021
-293,920	-200,000	0,037	-0,131
-292,905	88,120	0,034	0,028
-291,891	-200,000	0,014	0,152
-290,876	55,535	0,131	0,092
-289,862	-26,443	0,094	-0,040
-288,847	-200,000	-0,015	-0,187
-287,832	-19,546	0,117	-0,053
-286,818	-29,514	0,103	0,043
-285,803	70,078	0,108	0,081
-284,789	800,000	0,049	0,129
-283,774	800,000	-0,049	0,100
-282,759	258,061	0,044	0,056
-281,745	147,695	-0,033	-0,033
-280,730	-200,000	-0,005	0,077
-279,716	1,177	-0,066	0,034
-278,701	150,831	-0,054	0,054
-277,686	-200,000	0,031	0,127
-276,672	83,225	-0,018	0,014
-275,657	740,741	-0,065	0,127
-274,643	-139,235	-0,102	-0,008
-273,628	114,923	-0,069	0,061
-272,613	800,000	0,011	-0,027
-271,599	-12,635	-0,007	-0,003
-270,584	256,619	0,015	-0,018
-269,570	100,639	0,031	-0,027
-268,555	-165,153	-0,049	0,002
-267,540	-128,873	-0,042	-0,004
-266,526	102,499	0,111	-0,095
-265,511	299,018	0,054	-0,073
-264,497	-200,000	-0,009	0,115
-263,482	273,569	0,052	0,068
-262,467	-200,000	0,017	0,081
-261,453	800,000	0,037	0,086
-260,438	-200,000	-0,028	-0,096
-259,424	-200,000	-0,016	-0,214
-258,409	-15,288	0,062	-0,029
-257,395	724,323	0,091	0,178
-256,380	67,516	0,121	-0,090
-255,365	-200,000	-0,029	-0,096
-254,351	-200,000	-0,018	-0,082
-253,336	-200,000	0,007	-0,061
-252,322	800,000	0,027	-0,068
-251,307	-96,541	0,053	0,010
-250,292	108,320	0,125	0,109
-249,278	-67,440	-0,022	0,006
-248,263	-59,778	0,050	-0,016
-247,249	-45,327	-0,080	0,029
-246,234	-200,000	0,011	0,118
-245,219	-36,846	-0,077	0,030
-244,205	-126,643	-0,073	-0,008
-243,190	16,614	0,031	-0,018
-242,176	-15,871	0,096	-0,044
-241,161	262,848	-0,083	-0,106
-240,146	800,000	0,031	0,092
-239,132	155,429	-0,033	-0,033
-238,117	800,000	0,029	0,082
-237,103	14,961	-0,120	-0,068
-236,088	800,000	-0,035	-0,075
-235,073	44,866	0,091	0,061
-234,059	-30,420	0,031	0,013
-233,044	121,675	-0,111	0,101
-232,030	149,497	0,011	0,011
-231,015	-142,569	0,088	-0,006
-230,000	582,511	0,044	0,079
-228,986	-94,415	0,178	-0,035
-227,971	19,391	0,007	-0,004
-226,957	284,681	-0,074	0,098
-225,942	112,051	0,112	-0,099
-224,927	56,110	-0,056	-0,040
-223,913	800,000	0,028	-0,092
-222,898	-200,000	-0,007	-0,057
-221,884	-79,751	-0,079	-0,019
-220,869	-141,321	0,061	0,004
-219,855	-48,083	0,092	-0,032
-218,840	-47,134	0,029	-0,010
-217,825	-103,999	0,018	-0,003
-216,811	-55,890	-0,091	-0,030
-215,796	154,761	0,026	0,026
-214,782	29,572	-0,009	-0,006
-213,767	73,352	-0,054	-0,041
-212,752	-120,955	0,037	-0,004
-211,738	14,274	0,130	-0,074
-210,723	-111,060	-0,136	-0,020
-209,709	800,000	-0,027	-0,074
-208,694	-18,918	-0,121	0,055
-207,679	243,719	0,093	0,114
-206,665	-63,418	0,061	0,018
-205,650	-55,588	-0,116	0,038
-204,636	-113,267	0,054	0,008
-203,621	185,942	-0,049	-0,053
-202,606	-87,365	-0,061	-0,013
-201,592	240,560	-0,022	-0,026
-200,577	-200,000	0,013	-0,069
-199,563	22,421	-0,134	-0,080
-198,548	800,000	-0,055	0,130
-197,533	-200,000	-0,011	0,156
-196,519	15,917	0,020	-0,011
-195,504	-79,839	0,018	-0,004
-194,490	-200,000	-0,011	-0,072
-193,475	732,744	-0,085	-0,167
-192,460	382,050	0,051	0,077
-191,446	511,423	-0,022	0,038
-190,431	286,927	-0,036	-0,048
-189,417	-30,859	-0,067	0,027
-188,402	-33,719	0,080	-0,032
-187,387	273,553	-0,060	-0,078
-186,373	-87,082	0,040	0,009
-185,358	166,736	0,019	-0,019
-184,344	395,328	0,061	0,093
-183,329	-46,921	0,112	0,040
-182,315	-200,000	-0,006	-0,076
-181,300	-110,098	-0,114	-0,017
-180,285	-200,000	-0,006	-0,107
-179,271	778,855	-0,045	0,090
-178,256	800,000	0,086	0,203
-177,242	68,511	0,069	-0,052
-176,227	800,000	-0,023	0,059
-175,212	-200,000	0,030	0,145
-174,198	-153,551	0,127	0,006
-173,183	800,000	-0,025	-0,050
-172,169	-32,201	0,018	-0,007
-171,154	-200,000	-0,001	-0,047
-170,139	-95,501	0,079	0,015
-169,125	124,973	-0,042	-0,039
-168,110	-172,041	0,106	-0,002
-167,096	348,871	0,032	-0,046
-166,081	-163,393	0,056	-0,002
-165,066	90,094	-0,095	-0,078
-164,052	414,978	0,034	-0,053
-163,037	800,000	-0,029	0,077
-162,023	121,287	0,080	0,072
-161,008	507,179	0,032	0,055
-159,993	-200,000	-0,011	-0,074
-158,979	-200,000	0,004	-0,105
-157,964	-52,370	0,100	-0,034
-156,950	-54,218	0,106	-0,035
-155,935	214,518	0,131	-0,152
-154,920	23,937	0,109	-0,065
-153,906	-59,423	0,049	0,015
-152,891	-84,009	-0,038	0,009
-151,877	101,094	0,013	0,011
-150,862	800,000	-0,011	0,030
-149,847	-38,335	-0,050	-0,019
-148,833	85,238	0,015	-0,012
-147,818	-37,019	-0,031	-0,012
-146,804	79,024	0,007	0,005
-145,789	762,895	-0,053	0,104
-144,775	-200,000	0,003	0,084
-143,760	708,054	0,060	-0,116
-142,745	52,806	-0,134	0,093
-141,731	50,730	-0,068	-0,047
-140,716	-40,065	-0,093	-0,035
-139,702	701,714	0,111	0,213
-138,687	-63,689	-0,054	0,016
-137,672	-27,609	-0,073	0,031
-136,658	715,467	0,031	0,061
-135,643	800,000	-0,019	0,053
-134,629	800,000	0,039	-0,117
-133,614	94,858	0,072	0,059
-132,599	800,000	0,018	-0,056
-131,585	-200,000	-0,017	0,237
-130,570	648,198	0,031	0,058
-129,556	232,795	0,030	0,037
-128,541	-200,000	-0,028	-0,149
-127,526	-16,087	-0,037	0,017
-126,512	449,082	0,093	0,150
-125,497	-77,693	0,013	0,003
-124,483	-200,000	0,044	0,153
-123,468	85,296	-0,062	0,050
-122,453	156,104	0,029	-0,030
-121,439	800,000	0,055	-0,135
-120,424	386,666	0,040	0,061
-119,410	463,127	-0,025	0,040
-118,395	227,025	0,103	0,122
-117,380	-132,717	0,148	-0,014
-116,366	360,518	0,049	-0,071
-115,351	67,410	0,069	-0,051
-114,337	-67,923	-0,131	-0,037
-113,322	122,566	0,068	-0,062
-112,307	344,680	-0,100	-0,144
-111,293	-200,000	-0,006	0,048
-110,278	-200,000	0,017	0,135
-109,264	800,000	-0,029	-0,063
-108,249	3,580	0,022	0,011
-107,234	-94,058	-0,088	-0,017
-106,220	800,000	0,037	0,075
-105,205	800,000	0,038	-0,095
-104,191	518,367	-0,064	-0,109
-103,176	-73,913	0,115	-0,030
-102,162	244,492	-0,096	0,118
-101,147	-200,000	-0,002	0,054
-100,132	50,665	0,038	0,026
-99,118	-124,960	-0,136	-0,015
-98,103	191,282	0,090	0,099
-97,089	-200,000	0,026	0,100
-96,074	-26,065	0,105	-0,045
-95,059	-200,000	-0,020	-0,081
-94,045	-82,914	-0,123	0,029
-93,030	800,000	-0,016	0,038
-92,016	-200,000	0,003	-0,020
-91,001	300,062	0,020	0,027
-89,986	-200,000	0,011	0,060
-88,972	33,026	0,043	0,027
-87,957	-56,217	0,056	-0,018
-86,943	-200,000	-0,006	0,192
-85,928	262,548	-0,084	-0,106
-84,913	84,781	0,043	-0,034
-83,899	467,316	-0,047	-0,077
-82,884	170,973	-0,061	-0,064
-81,870	-25,114	-0,064	-0,027
-80,855	-200,000	-0,010	0,126
-79,840	212,035	-0,080	-0,091
-78,826	800,000	-0,042	-0,129
-77,811	800,000	-0,031	-0,098
-76,797	45,076	0,084	0,056
-75,782	-29,894	-0,028	-0,012
-74,767	-200,000	0,041	0,134
-73,753	800,000	0,065	-0,155
-72,738	-200,000	0,016	0,062
-71,724	-200,000	-0,001	0,057
-70,709	113,929	-0,035	-0,031
-69,694	323,133	-0,042	0,059
-68,680	38,836	0,057	0,037
-67,665	-109,782	0,039	-0,006
-66,651	-200,000	-0,134	-0,000
-65,636	-104,450	0,134	-0,022
-64,622	-122,419	-0,081	0,009
-63,607	48,197	0,076	-0,052
-62,592	-29,051	-0,061	0,025
-61,578	548,637	-0,017	-0,029
-60,563	555,691	-0,070	0,123
-59,549	-24,423	-0,113	0,049
-58,534	-151,859	-1,234	0,065
-57,519	640,731	-0,772	-1,432
-56,505	-200,000	-0,864	-4,365
-55,490	131,157	0,574	-0,535
-54,476	800,000	5,049	11,786
-53,461	-200,000	13,396	253,616
-52,446	-200,000	689,157	2268,777
-51,432	595,276	1622,961	2926,108
-50,417	120,745	1636,051	1475,756
-49,403	73,542	1290,225	979,329
-48,388	38,383	1025,001	661,297
-47,373	24,519	982,513	588,278
-46,359	23,740	972,189	579,516
-45,344	22,828	968,020	574,028
-44,330	22,750	966,488	572,840
-43,315	22,665	964,917	571,610
-42,300	22,598	964,108	570,889
-41,286	22,578	963,380	570,369
-40,271	22,602	962,029	569,626
-39,257	22,586	961,271	569,102
-38,242	22,549	960,424	568,458
-37,227	22,591	959,481	568,014
-36,213	22,600	958,523	567,455
-35,198	22,587	957,807	566,965
-34,184	22,614	957,135	566,631
-33,169	22,538	956,259	565,847
-32,154	22,650	955,340	565,642
-31,140	22,603	954,550	564,998
-30,125	22,620	953,821	564,598
-29,111	22,649	952,670	563,990
-28,096	22,632	952,111	563,582
-27,082	22,584	951,531	563,063
-26,067	22,572	950,807	562,572
-25,052	22,604	950,010	562,180
-24,038	22,645	949,221	561,824
-23,023	22,630	948,783	561,494
-22,009	22,639	948,057	561,072
-20,994	22,699	947,401	560,853
-19,979	22,643	946,753	560,266
-18,965	22,601	946,299	559,844
-17,950	22,632	945,609	559,510
-16,936	22,566	944,908	558,861
-15,921	22,534	944,275	558,364
-14,906	22,532	943,364	557,797
-13,892	22,520	942,782	557,391
-12,877	22,535	942,095	557,012
-11,863	22,475	941,459	556,425
-10,848	22,486	941,137	556,246
-9,833	22,539	940,760	556,171
-8,819	22,561	940,117	555,836
-7,804	22,503	939,247	555,116
-6,790	22,495	938,743	554,771
-5,775	22,599	938,032	554,659
-4,760	22,505	937,395	553,962
-3,746	22,514	936,876	553,661
-2,731	22,301	936,438	552,707
-1,717	22,346	935,535	552,294
-0,702	22,367	934,794	551,903
0,313	22,150	934,014	551,589
1,327	25,238	931,974	560,048
2,342	34,832	796,532	504,219
3,356	32,841	451,713	282,917
4,371	1,872	293,755	153,096
5,386	-2,605	274,553	138,842
6,400	-4,169	268,785	134,462
7,415	-4,561	266,292	132,843
8,429	-4,264	265,157	132,537
9,444	-4,308	264,231	132,022
10,459	-4,247	263,669	131,785
11,473	-4,395	263,158	131,384
12,488	-4,398	262,509	131,045
13,502	-4,477	262,038	130,727
14,517	-4,400	261,431	130,482
15,531	-4,285	261,307	130,512
16,546	-4,312	260,788	130,217
17,561	-4,244	260,378	130,061
18,575	-4,373	260,171	129,831
19,590	-4,548	259,948	129,551
20,604	-4,214	259,514	129,623
21,619	-4,737	259,280	129,026
22,634	-4,308	258,864	129,190
23,648	-4,303	258,556	129,030
24,663	-4,352	258,242	128,818
25,677	-4,366	258,163	128,754
26,692	-4,309	257,799	128,613
27,707	-4,451	257,489	128,320
28,721	-4,410	257,199	128,201
29,736	-4,405	257,053	128,121
30,750	-4,440	256,782	127,943
31,765	-4,465	256,558	127,798
32,780	-4,465	256,299	127,658
33,794	-4,344	256,012	127,611
34,809	-4,418	255,795	127,426
35,823	-4,447	255,710	127,346
36,838	-4,469	255,432	127,177
37,853	-4,701	255,158	126,825
38,867	-4,662	255,060	126,799
39,882	-4,692	254,792	126,629
40,896	-4,494	254,490	126,641
41,911	-4,441	254,315	126,589
42,926	-4,371	253,972	126,468
43,940	-4,689	253,876	126,132
44,955	-4,505	253,621	126,154
45,969	-4,666	253,357	125,871
46,984	-4,748	253,118	125,669
47,999	-4,827	252,861	125,462
49,013	-4,996	252,629	125,189
50,028	-5,338	252,288	124,711
51,042	-5,168	252,062	124,736
52,057	-5,275	251,834	124,520
53,071	-5,118	251,704	124,580
54,086	-5,053	251,583	124,566
55,101	-5,123	251,485	124,445
56,115	-4,749	251,339	124,685
57,130	-4,471	251,106	124,798
58,144	-3,949	250,856	125,113
59,159	-4,220	250,809	124,845
60,174	-4,248	250,582	124,696
61,188	-4,292	250,495	124,604
62,203	-4,266	250,238	124,488
63,217	-4,325	249,882	124,248
64,232	-4,453	249,877	124,126
65,247	-4,468	249,595	123,961
66,261	-4,384	249,250	123,851
67,276	-4,466	248,977	123,634
68,290	-4,838	248,915	123,275
69,305	-4,809	248,632	123,148
70,320	-4,847	248,408	122,994
71,334	-4,396	248,061	123,195
72,349	-4,352	248,078	123,230
73,363	-4,161	247,967	123,326
74,378	-4,213	247,833	123,204
75,393	-4,371	247,520	122,904
76,407	-4,419	247,426	122,805
77,422	-4,489	247,179	122,612
78,436	-4,236	246,879	122,667
79,451	-4,267	246,835	122,608
80,466	-4,530	246,470	122,194
81,480	-4,744	246,375	121,954
82,495	-4,660	246,209	121,933
83,509	-4,724	246,121	121,823
84,524	-4,771	245,714	121,571
85,539	-4,727	245,517	121,501
86,553	-4,628	245,210	121,421
87,568	-4,570	245,209	121,459
88,582	-4,626	244,967	121,281
89,597	-4,585	244,632	121,139
90,611	-4,306	244,534	121,313
91,626	-4,257	244,515	121,334
92,641	-4,448	244,371	121,092
93,655	-4,665	244,194	120,811
94,670	-4,343	243,833	120,892
95,684	-4,691	243,751	120,549
96,699	-4,485	243,505	120,588
97,714	-4,701	243,434	120,363
98,728	-4,633	243,106	120,246
99,743	-4,737	242,961	120,077
100,757	-5,021	242,733	119,718
101,772	-4,797	242,541	119,799
102,787	-4,806	242,444	119,732
103,801	-4,698	242,317	119,749
104,816	-4,609	242,135	119,721
105,830	-4,436	241,861	119,719
106,845	-4,451	241,897	119,714
107,860	-4,632	241,718	119,464
108,874	-4,534	241,335	119,345
109,889	-4,479	241,188	119,307
110,903	-4,566	240,939	119,102
111,918	-4,790	240,781	118,829
112,933	-4,486	240,644	119,002
113,947	-4,496	240,545	118,933
114,962	-4,488	240,537	118,925
115,976	-4,393	240,111	118,781
116,991	-4,377	240,076	118,767
118,006	-4,552	239,753	118,453
119,020	-4,446	239,784	118,545
120,035	-4,424	239,611	118,467
121,049	-4,124	239,327	118,562
122,064	-4,323	239,268	118,358
123,079	-4,491	239,009	118,083
124,093	-4,691	238,851	117,831
125,108	-4,719	238,530	117,640
126,122	-4,613	238,246	117,575
127,137	-4,789	238,207	117,402
128,151	-4,766	238,083	117,349
129,166	-4,836	237,908	117,195
130,181	-4,961	237,800	117,031
131,195	-4,865	237,494	116,947
132,210	-4,696	237,346	117,001
133,224	-4,341	237,198	117,205
134,239	-4,332	236,976	117,092
135,254	-4,360	236,926	117,034
136,268	-4,589	236,534	116,645
137,283	-4,885	236,475	116,367
138,297	-4,724	236,137	116,320
139,312	-5,030	236,092	116,041
140,327	-4,595	235,914	116,293
141,341	-4,396	235,925	116,448
142,356	-4,319	235,786	116,432
143,370	-4,471	235,709	116,261
144,385	-4,196	235,473	116,355
145,400	-4,087	235,367	116,379
146,414	-4,268	235,080	116,083
147,429	-4,089	234,820	116,087
148,443	-4,119	234,637	115,962
149,458	-4,132	234,542	115,894
150,473	-4,046	234,359	115,862
151,487	-4,319	234,201	115,556
152,502	-4,348	234,037	115,442
153,516	-4,232	234,001	115,506
154,531	-4,222	233,881	115,445
155,546	-4,217	233,654	115,326
156,560	-4,231	233,472	115,215
157,575	-4,559	233,291	114,855
158,589	-4,294	232,991	114,907
159,604	-4,269	233,037	114,939
160,619	-4,020	232,828	115,024
161,633	-3,911	232,597	114,985
162,648	-4,004	232,470	114,839
163,662	-4,006	232,411	114,797
164,677	-4,271	232,102	114,426
165,692	-4,141	231,977	114,456
166,706	-4,140	231,936	114,426
167,721	-4,154	231,694	114,286
168,735	-4,100	231,660	114,302
169,750	-4,106	231,385	114,151
170,764	-4,088	231,224	114,076
171,779	-4,321	231,159	113,851
172,794	-4,097	230,942	113,909
173,808	-4,268	230,846	113,717
174,823	-4,714	230,454	113,165
175,837	-4,914	230,310	112,927
176,852	-4,422	230,167	113,231
177,867	-4,217	230,127	113,363
178,881	-4,108	230,006	113,378
179,896	-4,249	230,043	113,276
180,910	-4,075	229,789	113,276
181,925	-3,952	229,601	113,270
182,940	-4,072	229,356	113,045
183,954	-3,968	229,302	113,090
184,969	-3,948	229,255	113,072
185,983	-3,861	228,955	112,982
186,998	-3,800	228,736	112,911
188,013	-3,782	228,604	112,850
189,027	-3,845	228,411	112,696
190,042	-4,196	228,385	112,401
191,056	-3,945	228,084	112,436
192,071	-4,040	228,169	112,395
193,086	-4,107	227,741	112,122
194,100	-4,101	227,580	112,037
195,115	-4,118	227,331	111,892
196,129	-4,605	227,245	111,464
197,144	-1,889	228,098	113,973
198,159	1,884	229,122	117,402
199,173	3,774	229,626	119,116
200,188	4,034	229,501	119,242
201,202	4,398	229,300	119,409
202,217	4,276	229,342	119,326
203,232	4,515	229,113	119,381
204,246	4,600	229,013	119,384
205,261	4,673	228,963	119,403
206,275	4,672	228,836	119,326
207,290	4,976	228,665	119,460
208,304	5,023	228,463	119,380
209,319	4,956	228,332	119,250
210,334	4,737	228,101	118,950
211,348	4,470	227,892	118,625
212,363	4,081	227,666	118,199
213,377	3,926	227,398	117,930
214,392	3,885	227,265	117,819
215,407	3,863	227,284	117,801
216,421	4,130	227,012	117,854
217,436	4,071	226,828	117,703
218,450	3,788	226,642	117,380
219,465	3,717	226,447	117,214
220,480	3,654	226,389	117,125
221,494	3,759	226,153	117,073
222,509	4,054	226,037	117,227
223,523	3,858	225,851	116,971
224,538	3,856	225,734	116,899
225,553	4,010	225,635	116,954
226,567	3,872	225,516	116,777
227,582	4,094	225,538	116,947
228,596	4,327	225,468	117,077
229,611	4,255	225,052	116,796
230,626	3,926	224,858	116,436
231,640	3,898	224,758	116,352
232,655	4,013	224,714	116,406
233,669	4,598	224,682	116,821
234,684	4,538	224,571	116,708
235,699	4,395	224,253	116,424
236,713	4,168	224,052	116,139
237,728	3,936	223,778	115,812
238,742	3,731	223,629	115,570
239,757	3,952	223,421	115,618
240,772	3,984	223,444	115,644
241,786	3,824	223,311	115,444
242,801	4,086	223,179	115,563
243,815	4,300	223,191	115,719
244,830	4,238	223,049	115,588
245,844	4,179	222,705	115,356
246,859	3,812	222,606	115,019
247,874	4,175	222,410	115,180
248,888	4,416	222,259	115,271
249,903	4,107	222,212	115,006
250,917	3,960	222,080	114,818
251,932	4,023	221,757	114,687
252,947	3,791	221,756	114,503
253,961	3,967	221,465	114,474
254,976	4,150	221,353	114,542
255,990	4,166	221,274	114,503
257,005	4,048	221,175	114,354
258,020	4,079	221,109	114,333
259,034	4,324	221,037	114,467
260,049	4,325	220,875	114,373
261,063	4,136	220,656	114,110
262,078	4,441	220,387	114,186
263,093	4,597	220,356	114,275
264,107	4,543	220,182	114,136
265,122	4,369	220,128	113,968
266,136	4,240	220,055	113,826
267,151	4,452	219,885	113,884
268,166	4,012	219,577	113,390
269,180	3,851	219,411	113,175
270,195	3,921	219,285	113,152
271,209	3,588	219,199	112,852
272,224	3,942	219,110	113,056
273,239	4,065	218,916	113,037
274,253	4,007	218,615	112,829
275,268	3,606	218,534	112,483
276,282	3,564	218,506	112,428
277,297	3,831	218,160	112,435
278,312	3,816	218,057	112,361
279,326	4,054	218,024	112,508
280,341	4,032	217,924	112,430
281,355	4,012	217,698	112,289
282,370	3,856	217,578	112,103
283,384	3,601	217,449	111,841
284,399	3,616	217,031	111,627
285,414	3,650	217,136	111,696
286,428	3,683	217,130	111,707
287,443	4,059	216,966	111,886
288,457	3,963	216,892	111,768
289,472	4,074	216,576	111,676
290,487	3,754	216,300	111,291
291,501	3,371	216,278	110,993
292,516	3,582	216,167	111,079
293,530	3,522	216,179	111,031
294,545	3,632	215,769	110,890
295,560	3,806	215,739	110,991
296,574	3,893	215,593	110,968
297,589	3,983	215,447	110,949
298,603	3,894	215,476	110,889
299,618	3,987	215,260	110,836
300,633	4,044	215,180	110,826
301,647	4,001	215,135	110,762
302,662	3,952	215,073	110,684
303,676	4,220	214,774	110,713
304,691	3,943	214,679	110,455
305,706	4,158	214,474	110,494
306,720	4,036	214,413	110,366
307,735	3,834	214,135	110,068
308,749	3,930	213,996	110,055
309,764	3,977	214,035	110,099
310,779	4,179	213,943	110,186
311,793	4,246	213,549	110,022
312,808	4,317	213,509	110,042
313,822	3,959	213,554	109,800
314,837	3,841	213,288	109,569
315,852	3,671	212,963	109,271
316,866	4,125	212,890	109,547
317,881	4,100	212,913	109,531
318,895	4,237	212,739	109,529
319,910	4,076	212,577	109,322
320,925	3,680	212,257	108,866
321,939	3,471	212,072	108,614
322,954	3,621	212,019	108,683
323,968	3,975	211,980	108,904
324,983	4,009	211,883	108,869
325,997	4,153	211,712	108,873
327,012	3,941	211,617	108,665
328,027	4,239	211,530	108,821
329,041	4,401	211,434	108,876
330,056	4,501	211,309	108,873
331,070	3,814	211,093	108,268
332,085	3,610	210,762	107,945
333,100	3,942	210,639	108,106
334,114	4,123	210,606	108,206
335,129	4,087	210,467	108,100
336,143	4,011	210,146	107,871
337,158	3,853	210,220	107,789
338,173	3,987	210,066	107,795
339,187	3,888	209,798	107,578
340,202	3,658	209,814	107,416
341,216	3,653	209,577	107,281
342,231	3,619	209,431	107,174
343,246	3,585	209,383	107,115
344,260	3,707	209,319	107,159
345,275	3,924	209,077	107,176
346,289	4,027	209,030	107,214
347,304	4,103	208,836	107,158
348,319	3,927	208,922	107,070
349,333	3,865	208,629	106,868
350,348	4,082	208,363	106,872
351,362	4,203	208,507	107,021
352,377	4,147	208,260	106,846
353,392	4,022	208,079	106,657
354,406	4,148	207,983	106,685
355,421	193,842	1345,306	1433,623
356,435	154,649	1483,983	1433,747
