DTS Sentinel unit serial number:	SN410029Multiplexer serial number:	ORYXHardware model number:	OX2-SRSoftware version number:	ORYX F/W v4,00 Oryx Data Collector v3.7.2.0data status	okinstallation	B6 Nyhavnadifferential loss correction	single-endedforward channel	channel 2reverse channel	N/Adate	2023/12/11time	01:20:08forward acquisition time	300,00reverse acquisition time	0,00gamma	499,1914k internal	0,3122k external	0,3122temperature offset calibration	1,0000default loss term (dB/km)	0,3820temperature slope calibration	1,0000multiplexer offset coefficient	1,0000multiplexer slope coefficient	1,0000fibre end	0,00T internal ref (°C)	22,14T ext. ref 1 (°C)	5,42T ext. ref 2 (°C)	5,45length (m)	temperature (°C)	Stokes	anti-Stokes-744,400	24,782	0,082	-0,050
-743,385	-6,705	-0,323	0,164
-742,371	259,561	0,116	0,149
-741,356	545,237	-0,135	0,242
-740,342	-134,322	0,209	-0,019
-739,327	-71,179	-0,267	0,074
-738,312	255,861	0,101	-0,130
-737,298	-123,844	-0,055	0,006
-736,283	79,766	0,067	-0,054
-735,269	388,668	-0,128	0,198
-734,254	17,228	-0,036	0,021
-733,239	-25,230	-0,369	0,162
-732,225	-31,150	0,083	-0,035
-731,210	487,982	-0,055	-0,094
-730,196	126,557	-0,060	-0,056
-729,181	26,837	0,079	0,049
-728,167	-125,246	-0,087	-0,010
-727,152	-200,000	-0,002	-0,045
-726,137	-38,583	-0,154	0,060
-725,123	-200,000	-0,012	0,070
-724,108	-200,000	-0,044	-0,186
-723,094	61,837	-0,102	-0,076
-722,079	800,000	-0,038	-0,079
-721,064	-18,209	-0,058	0,027
-720,050	-200,000	0,013	-0,133
-719,035	315,212	-0,046	0,065
-718,021	57,084	-0,145	-0,105
-717,006	2,910	-0,128	-0,069
-715,991	54,442	-0,140	-0,100
-714,977	-200,000	-0,001	-0,036
-713,962	800,000	-0,055	-0,128
-712,948	63,638	-0,065	0,049
-711,933	-111,053	0,099	0,015
-710,918	-200,000	-0,002	-0,078
-709,904	-99,610	-0,126	-0,023
-708,889	-77,839	-0,058	-0,015
-707,875	-118,004	-0,138	0,018
-706,860	271,120	0,110	-0,145
-705,845	548,872	0,012	-0,021
-704,831	287,457	0,041	0,055
-703,816	124,344	-0,017	0,016
-702,802	-72,352	-0,090	0,025
-701,787	169,035	-0,134	-0,142
-700,772	-200,000	-0,020	-0,178
-699,758	-200,000	0,001	-0,057
-698,743	-64,736	0,060	0,018
-697,729	-200,000	-0,025	0,111
-696,714	-200,000	0,003	0,050
-695,699	72,027	0,087	-0,068
-694,685	-5,766	-0,046	0,023
-693,670	94,445	-0,067	-0,057
-692,656	800,000	0,036	-0,093
-691,641	67,291	-0,068	-0,051
-690,627	-200,000	-0,004	0,062
-689,612	166,786	0,040	0,043
-688,597	557,826	-0,076	0,138
-687,583	81,487	-0,017	0,013
-686,568	-112,449	-0,131	0,019
-685,554	-64,826	-0,059	0,018
-684,539	-52,208	0,146	-0,050
-683,524	800,000	0,072	0,162
-682,510	-200,000	-0,024	-0,107
-681,495	24,619	-0,105	-0,065
-680,481	800,000	-0,023	-0,070
-679,466	-58,721	-0,167	0,053
-678,451	-38,125	-0,070	-0,027
-677,437	132,106	-0,054	-0,052
-676,422	-80,291	0,084	0,021
-675,408	-11,434	0,078	-0,038
-674,393	285,182	-0,013	0,018
-673,378	-200,000	-0,022	-0,095
-672,364	300,841	0,036	0,050
-671,349	-96,338	0,075	-0,015
-670,335	800,000	0,016	-0,051
-669,320	800,000	-0,038	-0,092
-668,305	-135,726	0,184	0,016
-667,291	62,438	-0,149	-0,111
-666,276	613,708	0,060	-0,113
-665,262	648,011	-0,062	-0,118
-664,247	800,000	0,009	-0,020
-663,232	-19,446	-0,047	-0,022
-662,218	-47,345	-0,101	-0,036
-661,203	800,000	0,045	0,121
-660,189	241,073	0,032	-0,040
-659,174	252,964	-0,040	-0,051
-658,159	316,787	0,065	-0,092
-657,145	18,720	-0,061	0,036
-656,130	93,101	-0,106	0,089
-655,116	126,961	-0,030	0,028
-654,101	800,000	-0,002	-0,007
-653,086	800,000	0,042	-0,097
-652,072	-64,876	-0,111	0,033
-651,057	211,813	-0,053	-0,063
-650,043	-200,000	0,015	0,074
-649,028	-200,000	-0,011	-0,126
-648,014	-143,841	0,091	0,006
-646,999	-200,000	0,021	-0,113
-645,984	-200,000	-0,012	-0,094
-644,970	-118,042	-0,144	-0,019
-643,955	-200,000	0,011	-0,153
-642,941	-200,000	-0,020	-0,194
-641,926	-99,603	0,173	0,032
-640,911	-98,984	0,089	-0,017
-639,897	-88,874	-0,068	-0,015
-638,882	63,910	0,085	0,064
-637,868	-56,093	0,077	-0,025
-636,853	-200,000	0,017	-0,114
-635,838	356,520	0,033	0,049
-634,824	38,895	-0,087	-0,058
-633,809	-112,872	-0,049	0,007
-632,795	-200,000	0,018	0,101
-631,780	-57,862	0,063	-0,020
-630,765	-55,364	-0,191	-0,063
-629,751	-200,000	0,019	-0,071
-628,736	-200,000	-0,018	0,207
-627,722	732,862	-0,053	0,105
-626,707	208,515	0,057	-0,066
-625,692	-32,157	-0,033	-0,014
-624,678	-200,000	0,047	0,180
-623,663	-200,000	0,019	-0,156
-622,649	121,452	-0,020	-0,019
-621,634	185,180	-0,085	-0,094
-620,619	94,701	0,034	0,029
-619,605	800,000	0,008	-0,023
-618,590	-200,000	-0,006	0,100
-617,576	27,600	0,111	-0,069
-616,561	800,000	-0,010	0,022
-615,546	113,076	-0,028	-0,025
-614,532	-25,299	-0,178	-0,078
-613,517	464,525	-0,034	0,056
-612,503	-200,000	-0,001	0,057
-611,488	-200,000	-0,024	-0,122
-610,474	-127,118	0,070	-0,008
-609,459	19,456	0,045	0,027
-608,444	-47,946	0,136	-0,048
-607,430	66,519	-0,038	0,028
-606,415	141,477	-0,068	-0,067
-605,401	-154,215	0,070	-0,003
-604,386	-200,000	-0,009	0,051
-603,371	65,019	0,091	0,068
-602,357	-200,000	-0,030	0,131
-601,342	596,761	-0,101	-0,186
-600,328	800,000	0,029	-0,086
-599,313	-49,065	-0,103	-0,036
-598,298	-200,000	0,023	0,083
-597,284	323,885	0,031	-0,044
-596,269	-200,000	-0,003	0,122
-595,255	800,000	0,022	0,056
-594,240	-200,000	-0,009	0,062
-593,225	-74,240	0,036	-0,010
-592,211	275,920	-0,080	0,106
-591,196	-97,997	0,064	-0,012
-590,182	800,000	0,033	0,088
-589,167	800,000	-0,044	-0,123
-588,152	123,455	0,093	0,087
-587,138	65,390	-0,053	-0,040
-586,123	-200,000	-0,006	-0,149
-585,109	116,955	0,023	0,021
-584,094	-127,761	-0,022	-0,002
-583,079	83,562	0,083	0,067
-582,065	67,368	0,011	0,009
-581,050	-200,000	-0,024	0,093
-580,036	-150,627	-0,031	-0,002
-579,021	8,787	-0,046	0,026
-578,006	-66,885	-0,032	-0,009
-576,992	445,098	-0,042	-0,069
-575,977	381,966	-0,065	-0,099
-574,963	-200,000	-0,027	0,121
-573,948	-200,000	0,005	0,034
-572,934	10,196	0,027	-0,015
-571,919	-200,000	0,007	-0,148
-570,904	380,864	0,062	0,095
-569,890	800,000	-0,015	0,037
-568,875	594,784	-0,036	0,066
-567,861	-200,000	-0,001	-0,080
-566,846	800,000	-0,039	0,098
-565,831	-200,000	0,001	-0,021
-564,817	155,449	-0,091	-0,093
-563,802	800,000	-0,045	-0,101
-562,788	-200,000	-0,055	-0,225
-561,773	286,665	0,037	-0,050
-560,758	-200,000	-0,012	-0,078
-559,744	800,000	0,017	0,039
-558,729	-200,000	0,008	-0,082
-557,715	-105,858	-0,155	-0,026
-556,700	-200,000	-0,002	0,017
-555,685	-109,935	0,119	-0,018
-554,671	800,000	0,075	-0,157
-553,656	-200,000	0,002	-0,023
-552,642	800,000	0,027	0,078
-551,627	-177,530	-0,018	-0,000
-550,612	-81,088	-0,068	-0,017
-549,598	267,436	-0,032	-0,041
-548,583	505,158	0,032	0,054
-547,569	-54,971	-0,162	-0,054
-546,554	-87,159	-0,031	-0,007
-545,539	-200,000	-0,021	-0,112
-544,525	-200,000	0,035	-0,119
-543,510	-120,120	0,120	0,015
-542,496	-163,068	-0,108	-0,004
-541,481	75,725	-0,069	-0,054
-540,466	338,714	0,070	0,101
-539,452	149,993	0,113	0,113
-538,437	135,632	0,079	0,076
-537,423	174,899	-0,090	0,097
-536,408	118,960	-0,024	-0,022
-535,393	293,065	0,091	-0,123
-534,379	-7,134	-0,114	-0,057
-533,364	-200,000	0,017	-0,061
-532,350	550,427	0,062	-0,110
-531,335	-57,877	-0,164	-0,053
-530,321	113,811	0,023	0,021
-529,306	-200,000	-0,017	0,065
-528,291	-31,843	-0,048	0,020
-527,277	75,980	-0,075	-0,058
-526,262	-8,868	-0,010	0,005
-525,248	800,000	-0,044	0,121
-524,233	228,700	0,053	-0,064
-523,218	168,547	-0,032	0,034
-522,204	-200,000	-0,028	0,128
-521,189	85,803	-0,163	-0,133
-520,175	-103,954	0,085	-0,015
-519,160	157,597	-0,040	-0,041
-518,145	-164,152	-0,039	-0,001
-517,131	-117,659	0,112	0,015
-516,116	-50,333	0,034	-0,012
-515,102	466,701	-0,017	-0,028
-514,087	-200,000	0,010	0,132
-513,072	51,988	-0,071	0,050
-512,058	-200,000	0,014	0,208
-511,043	-200,000	-0,021	0,144
-510,029	-86,052	0,126	-0,029
-509,014	-200,000	-0,012	0,064
-507,999	-200,000	-0,015	-0,143
-506,985	800,000	-0,009	0,027
-505,970	239,379	-0,029	0,036
-504,956	290,828	-0,082	-0,110
-503,941	2,534	0,070	-0,037
-502,926	800,000	0,021	0,060
-501,912	-92,488	-0,023	-0,005
-500,897	-113,052	0,019	-0,003
-499,883	108,959	-0,093	-0,082
-498,868	-21,240	-0,116	0,052
-497,853	36,563	-0,109	0,071
-496,839	-200,000	-0,019	0,137
-495,824	-155,526	0,067	-0,003
-494,810	800,000	-0,026	-0,055
-493,795	203,048	0,086	-0,098
-492,781	-200,000	-0,012	0,058
-491,766	-200,000	0,020	-0,067
-490,751	51,354	-0,025	0,017
-489,737	800,000	0,060	0,124
-488,722	-200,000	-0,011	0,099
-487,708	800,000	0,033	0,078
-486,693	319,808	0,034	-0,048
-485,678	-200,000	0,015	-0,111
-484,664	-49,476	-0,122	-0,043
-483,649	129,829	-0,055	0,051
-482,635	-78,759	-0,059	-0,015
-481,620	-200,000	-0,003	0,053
-480,605	-200,000	0,005	0,055
-479,591	800,000	0,030	0,094
-478,576	-25,771	-0,065	0,028
-477,562	-200,000	-0,006	-0,097
-476,547	36,827	-0,076	-0,050
-475,532	98,769	-0,047	-0,040
-474,518	254,219	0,102	-0,129
-473,503	198,774	-0,025	-0,029
-472,489	800,000	-0,048	-0,103
-471,474	-14,211	0,099	0,047
-470,459	145,241	-0,036	-0,036
-469,445	771,235	-0,021	-0,043
-468,430	193,892	0,052	-0,058
-467,416	11,283	-0,068	0,038
-466,401	-200,000	0,005	0,079
-465,386	800,000	0,085	0,183
-464,372	273,836	0,061	0,079
-463,357	116,007	0,034	-0,031
-462,343	403,531	-0,031	-0,048
-461,328	-39,294	0,031	-0,012
-460,313	-6,213	0,123	0,062
-459,299	-166,166	0,091	0,003
-458,284	-73,064	-0,082	-0,022
-457,270	77,883	-0,149	0,117
-456,255	-81,636	-0,110	0,026
-455,241	-102,973	-0,067	0,012
-454,226	740,027	-0,020	0,039
-453,211	-177,351	0,061	-0,001
-452,197	-51,911	0,105	0,036
-451,182	66,602	-0,137	0,102
-450,168	165,957	0,034	0,036
-449,153	755,796	0,037	-0,074
-448,138	-200,000	0,001	-0,153
-447,124	-92,903	-0,226	-0,046
-446,109	-159,098	-0,140	0,006
-445,095	-80,044	0,053	0,013
-444,080	469,039	-0,063	-0,104
-443,065	800,000	0,031	0,085
-442,051	342,267	0,028	-0,040
-441,036	-60,254	-0,143	0,045
-440,022	246,766	-0,105	-0,131
-439,007	-126,270	0,087	0,009
-437,992	305,114	-0,057	0,079
-436,978	-43,836	-0,055	-0,020
-435,963	-200,000	-0,007	0,060
-434,949	40,031	-0,129	0,085
-433,934	-200,000	0,021	0,145
-432,919	-27,160	0,019	-0,008
-431,905	34,105	0,098	-0,063
-430,890	-104,871	0,148	-0,025
-429,876	-146,866	-0,054	0,003
-428,861	80,900	0,043	0,034
-427,846	-200,000	-0,021	0,069
-426,832	800,000	-0,001	-0,004
-425,817	800,000	0,051	-0,142
-424,803	800,000	-0,017	0,054
-423,788	800,000	0,040	0,122
-422,773	-200,000	0,013	0,046
-421,759	800,000	0,055	0,147
-420,744	-200,000	-0,002	0,053
-419,730	-103,813	-0,080	0,014
-418,715	-80,244	-0,057	-0,014
-417,701	778,897	-0,019	0,038
-416,686	-200,000	0,006	-0,059
-415,671	-200,000	0,054	-0,220
-414,657	288,396	0,041	0,055
-413,642	78,225	-0,045	-0,036
-412,628	24,848	0,002	0,002
-411,613	-23,608	0,056	0,025
-410,598	56,337	-0,098	-0,070
-409,584	392,976	-0,027	0,041
-408,569	800,000	0,036	0,112
-407,555	498,521	-0,021	-0,036
-406,540	525,556	0,021	0,037
-405,525	14,927	-0,087	-0,050
-404,511	-143,066	0,031	0,002
-403,496	172,334	-0,073	0,077
-402,482	-200,000	0,004	0,094
-401,467	14,856	0,138	0,079
-400,452	-1,377	-0,049	-0,025
-399,438	-103,880	0,068	0,012
-398,423	-200,000	-0,001	0,025
-397,409	768,075	0,049	-0,099
-396,394	34,702	-0,014	-0,009
-395,379	472,155	-0,019	-0,031
-394,365	-200,000	0,009	0,093
-393,350	-200,000	0,004	-0,092
-392,336	85,273	-0,049	-0,039
-391,321	630,976	-0,024	-0,045
-390,306	-77,108	0,072	0,018
-389,292	-200,000	-0,026	-0,114
-388,277	124,378	0,026	-0,024
-387,263	458,804	-0,026	0,043
-386,248	-200,000	0,022	0,089
-385,233	800,000	-0,009	0,022
-384,219	-200,000	-0,006	-0,057
-383,204	214,318	0,065	-0,076
-382,190	122,098	-0,062	0,057
-381,175	-28,336	0,208	-0,088
-380,160	-200,000	-0,001	-0,011
-379,146	800,000	0,035	0,080
-378,131	-16,580	-0,097	-0,045
-377,117	800,000	-0,022	-0,070
-376,102	72,005	-0,044	-0,034
-375,088	-50,227	-0,078	-0,027
-374,073	9,674	0,021	-0,011
-373,058	-200,000	-0,008	-0,053
-372,044	122,732	-0,039	0,036
-371,029	-80,190	-0,015	-0,004
-370,015	-77,654	-0,062	0,016
-369,000	-129,646	-0,073	-0,007
-367,985	252,006	-0,025	-0,032
-366,971	324,133	-0,066	0,093
-365,956	-200,000	-0,005	0,063
-364,942	158,865	0,116	0,118
-363,927	-200,000	0,002	0,176
-362,912	6,648	-0,036	-0,020
-361,898	-103,628	-0,075	0,013
-360,883	-6,152	0,082	0,041
-359,869	169,427	-0,030	-0,032
-358,854	-69,063	-0,083	-0,023
-357,839	618,534	-0,045	-0,083
-356,825	210,697	0,087	0,100
-355,810	-155,282	-0,032	0,002
-354,796	565,223	-0,021	0,038
-353,781	-196,171	0,132	-0,001
-352,766	-140,838	0,096	0,007
-351,752	104,621	0,065	-0,057
-350,737	-84,071	0,154	0,036
-349,723	-100,377	0,022	0,004
-348,708	207,507	-0,056	0,065
-347,693	800,000	-0,019	-0,061
-346,679	-200,000	-0,025	-0,125
-345,664	-43,220	-0,063	-0,023
-344,650	767,776	0,050	-0,100
-343,635	-120,518	0,089	0,011
-342,620	-56,864	0,072	0,023
-341,606	800,000	0,035	0,108
-340,591	88,085	-0,064	-0,052
-339,577	486,799	-0,037	-0,061
-338,562	267,658	-0,039	-0,050
-337,548	800,000	0,032	-0,070
-336,533	564,795	-0,023	0,041
-335,518	398,835	0,080	-0,123
-334,504	-82,696	0,122	-0,029
-333,489	541,460	0,026	0,046
-332,475	-158,766	-0,105	0,004
-331,460	-200,000	-0,002	-0,053
-330,445	59,912	0,064	0,047
-329,431	-200,000	-0,007	0,162
-328,416	800,000	0,029	0,089
-327,402	-76,237	0,052	0,013
-326,387	-47,024	-0,053	-0,019
-325,372	-136,867	0,061	0,005
-324,358	-100,005	0,057	-0,010
-323,343	-132,516	-0,107	-0,010
-322,329	67,780	0,020	0,015
-321,314	56,274	0,182	0,129
-320,299	-13,483	0,071	0,034
-319,285	-200,000	-0,011	0,046
-318,270	18,841	0,105	0,062
-317,256	-200,000	-0,006	-0,173
-316,241	-97,075	0,061	-0,012
-315,226	192,080	0,137	0,152
-314,212	-200,000	-0,020	-0,095
-313,197	349,997	0,041	0,060
-312,183	57,678	0,066	-0,047
-311,168	-200,000	-0,003	-0,038
-310,153	-200,000	-0,027	-0,162
-309,139	348,498	0,070	0,102
-308,124	800,000	-0,038	0,103
-307,110	-200,000	0,012	0,051
-306,095	-200,000	-0,010	0,054
-305,080	166,454	0,114	0,119
-304,066	-200,000	0,009	-0,048
-303,051	-9,600	-0,116	0,056
-302,037	800,000	0,054	-0,160
-301,022	-99,755	-0,129	0,023
-300,008	-200,000	0,045	0,148
-298,993	251,600	-0,059	0,073
-297,978	597,063	-0,034	0,061
-296,964	4,830	0,045	-0,024
-295,949	-45,307	-0,169	0,061
-294,935	800,000	-0,080	-0,216
-293,920	156,304	-0,073	-0,074
-292,905	-58,392	0,143	-0,045
-291,891	130,633	0,043	-0,040
-290,876	401,393	0,034	-0,053
-289,862	-79,211	-0,046	0,011
-288,847	-84,726	-0,105	-0,024
-287,832	16,569	0,094	0,054
-286,818	-56,662	-0,033	-0,010
-285,803	396,238	0,049	0,076
-284,789	153,501	-0,059	-0,059
-283,774	27,628	0,105	0,065
-282,759	-62,518	0,032	-0,010
-281,745	-77,793	-0,144	0,036
-280,730	-200,000	0,034	0,000
-279,716	303,828	0,095	-0,129
-278,701	-200,000	0,026	-0,151
-277,686	127,386	0,127	0,118
-276,672	11,057	-0,074	0,041
-275,657	423,868	-0,017	0,027
-274,643	493,880	0,044	-0,074
-273,628	800,000	-0,072	-0,165
-272,613	-200,000	0,012	0,077
-271,599	52,948	0,115	0,080
-270,584	62,132	0,061	0,044
-269,570	-94,122	0,095	-0,019
-268,555	800,000	-0,012	-0,030
-267,540	-200,000	-0,012	0,102
-266,526	-107,853	0,082	-0,013
-265,511	-200,000	-0,013	-0,079
-264,497	-80,535	-0,077	-0,019
-263,482	-200,000	-0,002	0,170
-262,467	74,541	-0,028	0,022
-261,453	77,365	-0,123	0,096
-260,438	-200,000	0,004	-0,018
-259,424	445,026	-0,101	-0,162
-258,409	800,000	-0,038	-0,121
-257,395	334,488	0,065	-0,093
-256,380	-200,000	-0,006	0,093
-255,365	-64,508	-0,020	0,006
-254,351	338,204	0,068	-0,097
-253,336	-110,438	0,169	-0,025
-252,322	34,057	-0,161	-0,102
-251,307	-102,325	0,063	-0,011
-250,292	202,769	-0,066	0,074
-249,278	13,149	-0,048	0,027
-248,263	-78,498	0,103	-0,025
-247,249	-200,000	-0,016	0,086
-246,234	-46,307	0,050	0,018
-245,219	715,576	-0,061	0,119
-244,205	-118,355	0,138	-0,018
-243,190	74,596	0,031	0,024
-242,176	-200,000	0,012	-0,041
-241,161	-144,737	0,153	0,010
-240,146	-57,250	0,061	0,020
-239,132	5,548	0,200	0,108
-238,117	-166,981	-0,085	0,002
-237,103	38,624	-0,059	0,039
-236,088	585,806	0,026	-0,047
-235,073	11,824	0,135	-0,076
-234,059	417,784	0,048	-0,075
-233,044	175,222	0,022	-0,023
-232,030	166,435	-0,050	-0,052
-231,015	649,147	0,020	0,038
-230,000	32,417	-0,137	0,087
-228,986	800,000	0,051	0,158
-227,971	-200,000	0,013	0,075
-226,957	-200,000	-0,039	0,128
-225,942	102,566	0,079	0,068
-224,927	368,291	-0,061	0,091
-223,913	-200,000	-0,021	-0,190
-222,898	180,605	0,092	0,099
-221,884	-51,976	0,162	-0,055
-220,869	76,522	0,096	-0,075
-219,855	800,000	0,032	-0,085
-218,840	180,881	0,108	-0,116
-217,825	-200,000	-0,006	-0,075
-216,811	-54,414	-0,088	-0,029
-215,796	-200,000	-0,002	0,023
-214,782	21,304	-0,014	-0,008
-213,767	171,716	0,032	0,034
-212,752	-200,000	0,002	0,093
-211,738	-50,636	0,094	0,032
-210,723	-41,326	-0,100	0,037
-209,709	23,544	-0,073	-0,044
-208,694	481,871	-0,021	-0,034
-207,679	-84,195	0,025	0,006
-206,665	-59,161	-0,145	0,045
-205,650	689,125	0,072	0,138
-204,636	228,108	-0,045	0,053
-203,621	-109,084	0,077	0,012
-202,606	-87,499	0,048	0,010
-201,592	800,000	-0,033	-0,071
-200,577	-70,602	0,097	-0,027
-199,563	447,114	0,052	-0,084
-198,548	-24,130	0,063	-0,027
-197,533	-79,874	-0,087	-0,021
-196,519	31,540	0,064	0,040
-195,504	800,000	-0,059	0,124
-194,490	194,004	-0,057	0,063
-193,475	-67,078	-0,026	-0,007
-192,460	-26,363	0,071	0,030
-191,446	-105,461	-0,154	0,025
-190,431	-157,081	0,158	0,007
-189,417	800,000	0,034	0,092
-188,402	27,955	0,104	-0,064
-187,387	95,009	0,065	-0,054
-186,373	-7,139	-0,024	0,012
-185,358	62,009	-0,046	-0,033
-184,344	30,344	-0,074	-0,046
-183,329	255,390	-0,025	0,031
-182,315	-200,000	-0,030	-0,113
-181,300	280,998	-0,061	0,080
-180,285	266,567	0,018	-0,023
-179,271	-15,517	-0,226	-0,105
-178,256	186,907	0,038	-0,041
-177,242	345,536	0,056	0,080
-176,227	165,915	0,062	0,064
-175,212	289,275	-0,034	0,046
-174,198	-91,805	-0,095	0,019
-173,183	-53,575	-0,102	0,034
-172,169	741,333	0,068	-0,134
-171,154	-54,977	-0,075	-0,025
-170,139	336,538	-0,046	-0,065
-169,125	-71,481	0,065	0,017
-168,110	800,000	-0,066	0,178
-167,096	-44,289	-0,142	0,052
-166,081	3,159	-0,115	-0,061
-165,066	800,000	0,029	-0,091
-164,052	307,034	0,096	-0,131
-163,037	800,000	0,020	0,061
-162,023	-84,244	0,105	-0,024
-161,008	776,595	0,055	0,109
-159,993	107,798	0,028	0,024
-158,979	-60,690	0,029	0,009
-157,964	577,925	-0,048	-0,086
-156,950	489,728	-0,042	-0,070
-155,935	135,560	-0,032	-0,030
-154,920	800,000	-0,031	0,084
-153,906	-110,710	-0,130	-0,019
-152,891	52,425	0,030	-0,021
-151,877	367,315	0,013	-0,019
-150,862	800,000	-0,073	-0,205
-149,847	101,722	-0,042	0,035
-148,833	35,547	-0,018	0,012
-147,818	-174,301	0,220	0,005
-146,804	-70,348	0,075	0,021
-145,789	-200,000	0,029	0,134
-144,775	689,086	-0,048	-0,092
-143,760	-138,532	-0,126	0,010
-142,745	351,293	0,050	0,072
-141,731	-200,000	0,045	0,167
-140,716	67,482	0,066	0,049
-139,702	-67,827	0,120	-0,034
-138,687	-46,622	-0,011	0,004
-137,672	270,685	-0,059	-0,075
-136,658	33,946	-0,044	-0,028
-135,643	800,000	-0,068	-0,156
-134,629	11,029	-0,141	0,078
-133,614	273,011	0,022	0,029
-132,599	-200,000	-0,026	0,138
-131,585	776,453	-0,051	0,101
-130,570	-45,298	0,087	0,031
-129,556	800,000	-0,063	-0,147
-128,541	-44,796	-0,149	0,054
-127,526	800,000	-0,025	0,051
-126,512	-64,725	-0,041	0,012
-125,497	168,451	-0,069	-0,071
-124,483	-188,719	0,012	0,000
-123,468	-200,000	0,020	0,124
-122,453	80,198	-0,060	-0,047
-121,439	-43,980	-0,101	0,037
-120,424	-200,000	0,004	0,038
-119,410	-200,000	0,013	0,171
-118,395	456,116	0,084	0,137
-117,380	-131,006	0,077	-0,007
-116,366	231,618	-0,020	0,024
-115,351	9,708	-0,080	0,044
-114,337	408,350	-0,046	0,071
-113,322	-200,000	0,014	0,145
-112,307	78,463	0,040	-0,031
-111,293	-73,363	-0,070	0,018
-110,278	241,997	0,070	-0,086
-109,264	800,000	-0,016	0,042
-108,249	-1,237	0,111	0,057
-107,234	-93,325	-0,099	0,020
-106,220	800,000	-0,057	0,129
-105,205	800,000	-0,008	0,019
-104,191	-179,925	-0,029	-0,000
-103,176	-200,000	-0,009	-0,101
-102,162	800,000	-0,029	0,086
-101,147	800,000	-0,027	0,055
-100,132	800,000	0,034	0,072
-99,118	-64,175	-0,130	0,038
-98,103	-28,656	0,019	-0,008
-97,089	-46,930	0,227	0,080
-96,074	-100,803	-0,128	0,023
-95,059	-112,368	0,121	0,017
-94,045	-117,083	0,064	0,008
-93,030	800,000	0,024	-0,058
-92,016	355,778	-0,116	-0,169
-91,001	800,000	0,036	0,094
-89,986	800,000	-0,033	0,066
-88,972	161,454	0,019	0,019
-87,957	211,870	-0,049	-0,057
-86,943	800,000	0,060	-0,127
-85,928	-80,295	-0,027	-0,006
-84,913	21,893	-0,105	-0,062
-83,899	-119,680	0,077	0,010
-82,884	-125,065	-0,024	0,003
-81,870	73,604	0,132	0,101
-80,855	800,000	-0,081	0,200
-79,840	233,435	-0,041	0,049
-78,826	353,703	0,017	-0,025
-77,811	-200,000	-0,006	-0,086
-76,797	-58,565	0,236	0,074
-75,782	-121,170	0,112	-0,014
-74,767	104,627	0,095	0,081
-73,753	-48,741	-0,080	0,028
-72,738	59,887	0,040	0,029
-71,724	162,234	0,063	0,064
-70,709	164,233	0,040	0,041
-69,694	43,846	-0,018	0,012
-68,680	-200,000	0,016	0,147
-67,665	-91,539	-0,122	0,025
-66,651	489,899	0,075	0,126
-65,636	79,775	-0,102	-0,080
-64,622	215,880	-0,095	-0,109
-63,607	7,140	-0,092	-0,049
-62,592	141,404	-0,051	0,049
-61,578	-117,489	0,126	0,016
-60,563	-200,000	0,038	0,000
-59,549	800,000	-0,019	-0,057
-58,534	-164,501	-1,243	-0,040
-57,519	516,542	-0,811	-1,382
-56,505	-200,000	-0,993	-4,597
-55,490	111,592	0,508	-0,445
-54,476	800,000	5,052	11,853
-53,461	-200,000	14,023	254,610
-52,446	-200,000	691,844	2256,162
-51,432	586,442	1623,635	2910,857
-50,417	118,527	1634,664	1464,349
-49,403	73,036	1288,747	976,408
-48,388	37,722	1024,438	658,863
-47,373	24,189	982,266	587,192
-46,359	23,386	971,841	578,302
-45,344	22,387	967,485	572,421
-44,330	22,342	966,102	571,432
-43,315	22,154	964,767	570,006
-42,300	22,153	963,634	569,310
-41,286	22,172	962,740	568,821
-40,271	22,162	961,553	568,065
-39,257	22,202	960,721	567,681
-38,242	22,148	959,743	566,906
-37,227	22,144	959,002	566,433
-36,213	22,129	958,097	565,826
-35,198	22,140	957,256	565,344
-34,184	22,171	956,407	564,919
-33,169	22,111	955,692	564,282
-32,154	22,204	954,932	564,112
-31,140	22,235	953,898	563,577
-30,125	22,206	953,031	562,950
-29,111	22,139	952,410	562,344
-28,096	22,215	951,523	562,042
-27,082	22,181	950,924	561,558
-26,067	22,149	950,056	560,921
-25,052	22,163	949,266	560,475
-24,038	22,194	948,716	560,228
-23,023	22,229	948,074	559,941
-22,009	22,234	947,522	559,607
-20,994	22,202	946,869	559,095
-19,979	22,176	946,222	558,609
-18,965	22,229	945,497	558,330
-17,950	22,162	944,888	557,734
-16,936	22,108	944,351	557,222
-15,921	22,114	943,576	556,761
-14,906	22,069	942,842	556,163
-13,892	22,065	942,213	555,758
-12,877	21,991	941,752	555,227
-11,863	22,036	940,937	554,867
-10,848	22,053	940,522	554,656
-9,833	22,103	940,260	554,637
-8,819	22,125	939,541	554,261
-7,804	22,110	938,696	553,691
-6,790	22,111	938,099	553,321
-5,775	22,098	937,626	552,980
-4,760	22,082	936,981	552,528
-3,746	22,067	936,410	552,120
-2,731	21,909	935,665	551,162
-1,717	21,884	935,022	550,679
-0,702	21,868	934,145	550,092
0,313	21,646	933,674	549,945
1,327	24,872	931,570	558,807
2,342	34,545	796,010	503,262
3,356	32,210	451,955	282,191
4,371	0,979	294,438	152,588
5,386	-3,399	275,256	138,481
6,400	-4,836	269,434	134,202
7,415	-5,552	267,053	132,344
8,429	-5,158	265,954	132,149
9,444	-4,983	265,088	131,868
10,459	-5,091	264,406	131,418
11,473	-5,189	263,754	130,993
12,488	-5,115	263,182	130,765
13,502	-5,261	262,695	130,379
14,517	-5,210	262,333	130,234
15,531	-5,014	261,965	130,216
16,546	-4,997	261,613	130,045
17,561	-5,051	261,228	129,793
18,575	-5,073	261,064	129,681
19,590	-5,006	260,523	129,461
20,604	-5,027	260,432	129,385
21,619	-5,016	260,093	129,215
22,634	-4,955	259,634	129,030
23,648	-5,041	259,435	128,843
24,663	-4,998	259,109	128,708
25,677	-5,100	258,903	128,503
26,692	-5,114	258,663	128,360
27,707	-5,176	258,431	128,178
28,721	-5,004	258,137	128,174
29,736	-5,133	257,826	127,893
30,750	-4,925	257,602	127,956
31,765	-4,990	257,315	127,744
32,780	-5,054	257,092	127,565
33,794	-5,011	256,870	127,481
34,809	-5,001	256,601	127,346
35,823	-4,916	256,328	127,274
36,838	-4,873	256,011	127,143
37,853	-5,149	256,009	126,887
38,867	-5,196	255,757	126,710
39,882	-5,320	255,423	126,424
40,896	-5,074	255,278	126,557
41,911	-5,038	254,931	126,405
42,926	-5,069	254,691	126,248
43,940	-5,190	254,518	126,045
44,955	-5,188	254,272	125,913
45,969	-5,277	254,147	125,763
46,984	-5,322	253,888	125,584
47,999	-5,436	253,408	125,236
49,013	-5,746	253,484	124,991
50,028	-5,809	253,112	124,742
51,042	-5,829	252,855	124,587
52,057	-5,946	252,615	124,356
53,071	-5,877	252,524	124,360
54,086	-5,888	252,121	124,141
55,101	-5,611	252,182	124,400
56,115	-5,502	252,000	124,394
57,130	-4,924	251,827	124,797
58,144	-4,903	251,774	124,778
59,159	-5,008	251,577	124,579
60,174	-4,976	251,323	124,470
61,188	-5,073	251,119	124,274
62,203	-4,947	250,748	124,188
63,217	-4,993	250,635	124,081
64,232	-5,070	250,460	123,918
65,247	-4,952	250,265	123,911
66,261	-4,999	250,064	123,760
67,276	-5,316	249,815	123,354
68,290	-5,338	249,556	123,196
69,305	-5,593	249,241	122,811
70,320	-5,307	249,137	122,994
71,334	-5,262	249,189	123,047
72,349	-4,960	248,918	123,161
73,363	-5,104	248,732	122,935
74,378	-5,089	248,617	122,879
75,393	-5,058	248,308	122,742
76,407	-4,923	248,110	122,748
77,422	-5,185	247,893	122,407
78,436	-5,041	247,774	122,460
79,451	-5,024	247,541	122,349
80,466	-5,005	247,181	122,176
81,480	-5,304	247,034	121,838
82,495	-5,262	246,732	121,714
83,509	-5,240	246,700	121,706
84,524	-5,207	246,333	121,542
85,539	-5,425	246,242	121,302
86,553	-5,258	246,077	121,352
87,568	-5,247	245,765	121,195
88,582	-5,263	245,652	121,116
89,597	-5,336	245,440	120,939
90,611	-5,168	245,256	120,979
91,626	-5,188	245,185	120,916
92,641	-5,074	245,038	120,929
93,655	-5,158	244,825	120,743
94,670	-5,185	244,616	120,606
95,684	-5,088	244,405	120,573
96,699	-5,142	244,324	120,476
97,714	-5,337	244,049	120,167
98,728	-5,302	243,750	120,038
99,743	-5,435	243,563	119,824
100,757	-5,465	243,445	119,731
101,772	-5,496	243,322	119,634
102,787	-5,399	243,032	119,561
103,801	-5,461	242,995	119,481
104,816	-5,133	242,664	119,580
105,830	-4,988	242,593	119,655
106,845	-4,983	242,334	119,520
107,860	-5,001	242,315	119,485
108,874	-5,088	241,949	119,222
109,889	-5,345	241,825	118,938
110,903	-5,400	241,630	118,785
111,918	-5,339	241,395	118,710
112,933	-5,234	241,308	118,744
113,947	-5,140	241,265	118,789
114,962	-5,129	241,007	118,661
115,976	-5,211	240,808	118,485
116,991	-5,225	240,721	118,420
118,006	-5,046	240,324	118,361
119,020	-5,151	240,344	118,274
120,035	-5,125	240,233	118,230
121,049	-5,092	240,028	118,146
122,064	-5,084	239,935	118,096
123,079	-4,919	239,541	118,027
124,093	-5,248	239,398	117,677
125,108	-5,593	239,298	117,334
126,122	-5,597	239,069	117,209
127,137	-5,663	238,890	117,056
128,151	-5,420	238,683	117,143
129,166	-5,460	238,511	117,015
130,181	-5,370	238,147	116,900
131,195	-5,518	238,077	116,734
132,210	-5,299	237,995	116,862
133,224	-5,107	237,837	116,930
134,239	-5,164	237,690	116,801
135,254	-5,367	237,618	116,591
136,268	-5,133	237,185	116,557
137,283	-5,511	237,128	116,213
138,297	-5,760	236,828	115,854
139,312	-5,705	236,657	115,805
140,327	-5,410	236,602	116,005
141,341	-4,825	236,503	116,419
142,356	-4,965	236,455	116,272
143,370	-4,855	236,234	116,241
144,385	-4,812	236,112	116,206
145,400	-4,747	235,898	116,143
146,414	-5,024	235,877	115,899
147,429	-4,939	235,575	115,808
148,443	-4,962	235,447	115,716
149,458	-4,869	235,111	115,615
150,473	-4,989	235,146	115,526
151,487	-5,056	234,888	115,336
152,502	-5,156	234,726	115,166
153,516	-4,874	234,562	115,301
154,531	-5,007	234,482	115,144
155,546	-4,942	234,248	115,071
156,560	-5,097	234,140	114,884
157,575	-5,077	233,837	114,742
158,589	-5,031	233,641	114,671
159,604	-4,849	233,511	114,743
160,619	-4,663	233,366	114,809
161,633	-4,858	233,246	114,585
162,648	-4,804	233,264	114,626
163,662	-4,877	233,073	114,464
164,677	-5,029	232,882	114,239
165,692	-4,939	232,633	114,179
166,706	-4,853	232,557	114,199
167,721	-4,695	232,310	114,192
168,735	-4,706	232,364	114,200
169,750	-4,872	232,004	113,882
170,764	-4,989	231,959	113,758
171,779	-4,703	231,779	113,884
172,794	-4,939	231,660	113,629
173,808	-5,095	231,407	113,373
174,823	-5,480	230,987	112,854
175,837	-5,503	230,878	112,773
176,852	-4,998	230,852	113,147
177,867	-4,901	230,725	113,151
178,881	-5,157	230,696	112,925
179,896	-4,801	230,413	113,056
180,910	-4,892	230,375	112,955
181,925	-4,764	230,166	112,943
182,940	-4,865	230,125	112,834
183,954	-4,804	229,890	112,756
184,969	-4,777	229,813	112,730
185,983	-4,741	229,718	112,701
186,998	-4,859	229,583	112,533
188,013	-4,667	229,380	112,573
189,027	-4,657	229,171	112,468
190,042	-4,562	228,953	112,425
191,056	-4,651	228,671	112,208
192,071	-4,689	228,627	112,147
193,086	-4,792	228,525	112,006
194,100	-4,832	228,293	111,851
195,115	-5,152	227,892	111,397
196,129	-5,802	227,613	110,748
197,144	-2,186	228,764	114,107
198,159	2,395	229,945	118,253
199,173	4,112	230,482	119,855
200,188	4,217	230,535	119,954
201,202	4,326	230,273	119,891
202,217	4,409	230,203	119,909
203,232	4,745	230,081	120,095
204,246	4,936	229,847	120,111
205,261	4,888	229,769	120,022
206,275	4,971	229,645	120,011
207,290	5,000	229,659	120,031
208,304	4,966	229,368	119,841
209,319	5,065	229,302	119,873
210,334	4,970	228,904	119,580
211,348	4,649	228,783	119,258
212,363	4,281	228,537	118,836
213,377	4,180	228,362	118,657
214,392	4,192	228,178	118,560
215,407	4,135	227,958	118,391
216,421	4,227	227,894	118,418
217,436	4,004	227,707	118,139
218,450	3,882	227,548	117,953
219,465	3,901	227,277	117,816
220,480	3,963	227,344	117,888
221,494	3,883	227,046	117,662
222,509	3,953	227,025	117,694
223,523	3,895	226,827	117,537
224,538	3,995	226,612	117,491
225,553	4,131	226,526	117,539
226,567	4,133	226,418	117,475
227,582	4,234	226,381	117,522
228,596	4,348	226,297	117,555
229,611	4,144	225,937	117,202
230,626	3,834	225,779	116,874
231,640	3,911	225,475	116,765
232,655	4,390	225,456	117,108
233,669	4,413	225,597	117,188
234,684	4,661	225,401	117,264
235,699	4,665	225,031	117,064
236,713	4,324	225,093	116,827
237,728	3,974	224,864	116,433
238,742	4,087	224,603	116,374
239,757	4,023	224,492	116,257
240,772	4,057	224,299	116,172
241,786	3,887	224,098	115,930
242,801	4,186	224,104	116,148
243,815	4,270	224,004	116,149
244,830	4,425	223,917	116,211
245,844	4,220	223,678	115,922
246,859	4,184	223,411	115,746
247,874	4,481	223,494	116,002
248,888	4,313	223,255	115,741
249,903	4,127	223,105	115,514
250,917	3,859	222,914	115,204
251,932	3,999	222,788	115,233
252,947	3,924	222,487	115,011
253,961	3,922	222,463	114,987
254,976	3,976	222,276	114,920
255,990	4,318	222,051	115,049
257,005	4,342	222,094	115,078
258,020	4,508	221,894	115,089
259,034	4,734	221,776	115,186
260,049	4,360	221,731	114,873
261,063	4,107	221,639	114,627
262,078	4,678	221,365	114,900
263,093	4,545	221,264	114,738
264,107	4,358	220,987	114,446
265,122	4,436	221,054	114,528
266,136	4,502	220,830	114,451
267,151	4,512	220,649	114,354
268,166	4,215	220,459	114,026
269,180	3,932	220,254	113,701
270,195	4,094	220,061	113,710
271,209	3,997	219,935	113,564
272,224	4,078	219,780	113,533
273,239	4,273	219,703	113,627
274,253	4,059	219,602	113,407
275,268	3,866	219,343	113,121
276,282	3,709	219,291	112,969
277,297	3,905	219,052	112,980
278,312	3,902	218,951	112,915
279,326	4,079	218,693	112,901
280,341	4,053	218,708	112,880
281,355	3,796	218,719	112,687
282,370	3,978	218,482	112,688
283,384	4,113	218,343	112,706
284,399	3,837	218,172	112,405
285,414	3,983	218,017	112,422
286,428	4,055	217,823	112,365
287,443	4,051	217,946	112,415
288,457	4,211	217,676	112,383
289,472	4,182	217,433	112,226
290,487	3,740	217,288	111,820
291,501	3,576	217,102	111,595
292,516	3,619	217,040	111,584
293,530	3,825	216,968	111,687
294,545	3,500	216,660	111,282
295,560	4,095	216,551	111,648
296,574	4,067	216,492	111,587
297,589	3,796	216,437	111,353
298,603	4,152	216,294	111,527
299,618	4,260	216,112	111,501
300,633	4,028	216,036	111,284
301,647	4,502	215,872	111,532
302,662	4,526	215,743	111,473
303,676	4,334	215,605	111,253
304,691	4,422	215,462	111,233
305,706	4,334	215,278	111,064
306,720	4,342	215,178	111,008
307,735	4,307	215,009	110,886
308,749	3,974	214,832	110,546
309,764	4,066	214,781	110,576
310,779	4,250	214,741	110,678
311,793	4,329	214,491	110,596
312,808	3,935	214,388	110,250
313,822	4,331	214,197	110,426
314,837	4,183	213,950	110,183
315,852	3,803	213,923	109,887
316,866	3,947	213,754	109,894
317,881	4,106	213,684	109,961
318,895	4,418	213,502	110,081
319,910	4,178	213,352	109,822
320,925	3,847	213,065	109,429
321,939	3,725	212,858	109,226
322,954	3,581	212,824	109,097
323,968	3,936	212,855	109,356
324,983	4,230	212,692	109,471
325,997	4,386	212,635	109,543
327,012	4,234	212,520	109,365
328,027	4,097	212,399	109,196
329,041	4,396	212,137	109,263
330,056	4,671	212,191	109,476
331,070	4,047	211,900	108,875
332,085	3,700	211,667	108,501
333,100	3,882	211,445	108,506
334,114	4,059	211,537	108,668
335,129	4,041	211,310	108,529
336,143	3,870	211,003	108,241
337,158	3,681	211,103	108,150
338,173	3,869	210,912	108,175
339,187	3,720	210,839	108,023
340,202	3,753	210,655	107,942
341,216	3,620	210,466	107,742
342,231	3,905	210,260	107,828
343,246	4,140	210,215	107,959
344,260	3,795	210,163	107,681
345,275	3,868	209,985	107,631
346,289	3,876	209,920	107,594
347,304	4,112	209,723	107,648
348,319	4,137	209,548	107,567
349,333	3,945	209,572	107,435
350,348	4,118	209,458	107,488
351,362	4,145	209,274	107,403
352,377	4,270	209,187	107,436
353,392	3,969	208,970	107,105
354,406	4,260	208,836	107,229
355,421	194,875	1343,602	1435,572
356,435	155,550	1481,962	1435,693
