DTS Sentinel unit serial number:	SN410029Multiplexer serial number:	ORYXHardware model number:	OX2-SRSoftware version number:	ORYX F/W v4,00 Oryx Data Collector v3.7.2.0data status	okinstallation	B6 Nyhavnadifferential loss correction	single-endedforward channel	channel 2reverse channel	N/Adate	2023/12/10time	13:15:08forward acquisition time	300,00reverse acquisition time	0,00gamma	499,1914k internal	0,3122k external	0,3122temperature offset calibration	1,0000default loss term (dB/km)	0,3820temperature slope calibration	1,0000multiplexer offset coefficient	1,0000multiplexer slope coefficient	1,0000fibre end	0,00T internal ref (°C)	22,79T ext. ref 1 (°C)	6,41T ext. ref 2 (°C)	6,43length (m)	temperature (°C)	Stokes	anti-Stokes-744,400	-56,811	-0,046	-0,015
-743,385	-117,814	-0,269	0,036
-742,371	270,311	0,046	0,060
-741,356	1,448	-0,193	0,103
-740,342	-86,826	0,120	-0,027
-739,327	-86,289	-0,259	0,059
-738,312	194,725	0,082	-0,093
-737,298	-200,000	-0,264	-0,001
-736,283	-172,957	0,087	0,002
-735,269	-153,649	-0,164	-0,008
-734,254	50,093	0,050	-0,035
-733,239	-168,640	-0,400	-0,011
-732,225	800,000	0,041	0,086
-731,210	223,470	0,034	0,041
-730,196	-200,000	-0,019	0,113
-729,181	-38,799	0,098	-0,038
-728,167	800,000	-0,059	-0,179
-727,152	-106,837	-0,081	0,013
-726,137	-200,000	-0,040	0,000
-725,123	221,122	-0,073	-0,087
-724,108	-106,487	-0,139	0,023
-723,094	800,000	-0,006	0,015
-722,079	-29,312	0,035	-0,015
-721,064	-200,000	0,005	-0,042
-720,050	-200,000	-0,024	-0,091
-719,035	-130,607	-0,068	-0,007
-718,021	-200,000	0,020	-0,178
-717,006	0,835	-0,065	0,035
-715,991	-200,000	-0,004	-0,069
-714,977	92,639	-0,053	-0,045
-713,962	-151,494	-0,059	-0,003
-712,948	276,738	0,098	-0,130
-711,933	-64,663	-0,136	-0,041
-710,918	800,000	0,013	-0,028
-709,904	-200,000	-0,023	-0,133
-708,889	-200,000	-0,018	-0,062
-707,875	-63,853	0,013	0,004
-706,860	-129,729	-0,101	-0,010
-705,845	-85,537	-0,061	0,014
-704,831	443,674	0,069	0,113
-703,816	800,000	0,041	0,122
-702,802	23,706	-0,082	-0,050
-701,787	188,707	-0,087	-0,097
-700,772	591,833	0,043	0,079
-699,758	293,619	-0,053	-0,073
-698,743	800,000	-0,011	0,025
-697,729	-200,000	-0,018	-0,107
-696,714	-200,000	-0,005	-0,066
-695,699	-9,154	-0,010	0,005
-694,685	317,556	-0,097	-0,137
-693,670	45,755	-0,083	-0,057
-692,656	-200,000	-0,021	-0,141
-691,641	-13,482	0,062	-0,030
-690,627	776,290	-0,039	0,080
-689,612	55,202	-0,074	-0,053
-688,597	-98,051	0,053	-0,010
-687,583	159,438	-0,051	-0,052
-686,568	26,428	0,055	0,034
-685,554	640,377	0,026	0,050
-684,539	-153,673	0,107	-0,005
-683,524	-98,284	0,092	-0,017
-682,510	-179,070	0,085	-0,001
-681,495	76,517	-0,203	-0,160
-680,481	-200,000	-0,019	-0,120
-679,466	-71,653	-0,038	-0,011
-678,451	631,208	0,009	-0,017
-677,437	87,069	0,057	-0,047
-676,422	-74,624	0,111	0,030
-675,408	294,502	0,068	0,092
-674,393	68,907	0,116	0,088
-673,378	145,374	-0,023	0,023
-672,364	49,475	-0,029	0,020
-671,349	523,580	0,008	-0,013
-670,335	-141,497	0,049	-0,004
-669,320	569,064	0,069	-0,125
-668,305	800,000	0,020	0,052
-667,291	-17,779	0,032	0,015
-666,276	-47,806	0,031	0,011
-665,262	-200,000	-0,004	-0,071
-664,247	142,372	-0,128	-0,126
-663,232	-200,000	-0,003	-0,093
-662,218	-116,829	0,204	-0,027
-661,203	447,499	-0,021	0,034
-660,189	-40,054	0,125	0,048
-659,174	-25,097	-0,088	0,038
-658,159	800,000	-0,004	0,010
-657,145	-61,469	0,013	-0,004
-656,130	-148,435	0,101	0,006
-655,116	66,212	-0,049	-0,037
-654,101	14,732	0,098	0,057
-653,086	-108,909	0,095	-0,015
-652,072	-200,000	0,034	-0,143
-651,057	-200,000	0,010	-0,042
-650,043	630,881	0,040	0,075
-649,028	800,000	-0,087	-0,188
-648,014	-200,000	0,005	-0,040
-646,999	41,423	0,079	0,053
-645,984	-153,828	0,226	-0,011
-644,970	92,166	0,058	0,048
-643,955	333,348	-0,060	0,086
-642,941	164,159	-0,036	-0,038
-641,926	36,480	-0,124	-0,081
-640,911	178,573	0,052	0,056
-639,897	800,000	0,017	-0,036
-638,882	692,825	0,022	-0,044
-637,868	60,204	-0,040	0,029
-636,853	114,123	-0,041	-0,037
-635,838	800,000	-0,019	-0,049
-634,824	-200,000	0,002	-0,128
-633,809	-200,000	-0,033	0,176
-632,795	-200,000	0,017	-0,080
-631,780	-149,496	0,054	0,003
-630,765	493,776	0,027	-0,047
-629,751	-22,284	-0,032	-0,014
-628,736	386,381	-0,027	-0,042
-627,722	-80,185	-0,099	0,024
-626,707	-77,816	0,160	-0,041
-625,692	73,528	0,079	-0,061
-624,678	800,000	0,053	-0,123
-623,663	-43,156	-0,030	-0,011
-622,649	38,882	-0,096	-0,064
-621,634	-55,888	-0,022	0,007
-620,619	-30,652	-0,138	0,058
-619,605	-90,295	0,041	-0,009
-618,590	454,581	0,034	0,056
-617,576	-200,000	0,012	-0,110
-616,561	800,000	0,045	-0,135
-615,546	-200,000	0,010	-0,207
-614,532	273,949	-0,059	0,078
-613,517	-93,299	-0,073	0,015
-612,503	-142,687	0,035	0,002
-611,488	-200,000	-0,000	-0,037
-610,474	-200,000	-0,004	-0,110
-609,459	180,365	-0,046	0,050
-608,444	573,671	0,005	-0,010
-607,430	44,651	0,078	-0,053
-606,415	313,874	-0,057	-0,080
-605,401	-28,586	-0,023	0,010
-604,386	101,424	0,028	0,024
-603,371	-107,782	0,062	-0,010
-602,357	162,115	0,091	-0,095
-601,342	-160,631	0,097	-0,004
-600,328	-38,951	-0,059	-0,023
-599,313	800,000	-0,037	0,084
-598,298	281,433	0,092	-0,122
-597,284	-200,000	0,020	0,125
-596,269	-200,000	0,012	0,041
-595,255	780,438	-0,023	0,047
-594,240	-93,552	-0,025	0,005
-593,225	-200,000	0,010	-0,120
-592,211	168,953	0,035	-0,037
-591,196	283,483	0,012	-0,016
-590,182	481,102	0,009	-0,015
-589,167	41,886	-0,121	-0,082
-588,152	-17,267	0,045	0,021
-587,138	-35,598	-0,034	-0,013
-586,123	-77,811	-0,070	0,018
-585,109	-200,000	-0,165	0,000
-584,094	-200,000	-0,003	-0,052
-583,079	295,829	0,034	0,046
-582,065	800,000	0,032	0,097
-581,050	-189,110	0,052	0,000
-580,036	614,732	0,057	-0,106
-579,021	60,575	-0,025	-0,018
-578,006	800,000	-0,006	-0,017
-576,992	21,466	0,101	-0,061
-575,977	-200,000	-0,004	0,100
-574,963	22,039	0,085	-0,051
-573,948	-111,973	-0,073	-0,011
-572,934	-200,000	0,032	0,108
-571,919	154,736	-0,019	0,019
-570,904	452,901	0,023	0,038
-569,890	79,298	-0,088	-0,070
-568,875	76,454	-0,023	0,018
-567,861	-7,519	0,135	0,067
-566,846	-200,000	-0,002	0,277
-565,831	-200,000	0,022	0,175
-564,817	82,599	-0,005	0,004
-563,802	14,918	-0,103	-0,060
-562,788	-57,804	-0,074	0,024
-561,773	196,928	0,100	0,113
-560,758	169,877	0,020	0,022
-559,744	-200,000	-0,003	0,032
-558,729	5,903	-0,037	-0,020
-557,715	44,307	-0,027	-0,018
-556,700	-200,000	0,000	-0,167
-555,685	155,222	-0,050	-0,051
-554,671	45,066	0,017	0,011
-553,656	800,000	-0,043	0,092
-552,642	755,543	-0,027	-0,054
-551,627	800,000	-0,031	-0,075
-550,612	-200,000	0,034	0,167
-549,598	224,603	-0,079	-0,095
-548,583	-63,738	0,075	0,022
-547,569	-200,000	-0,005	0,099
-546,554	-15,010	0,185	0,087
-545,539	68,400	-0,089	0,067
-544,525	-200,000	-0,010	-0,045
-543,510	233,231	0,044	0,054
-542,496	-200,000	0,001	-0,026
-541,481	341,651	0,040	-0,059
-540,466	-60,467	0,094	0,029
-539,452	49,669	-0,022	0,015
-538,437	73,250	0,098	0,076
-537,423	-33,499	0,120	0,049
-536,408	-47,671	0,073	0,026
-535,393	-127,223	-0,079	0,008
-534,379	-151,971	-0,038	-0,002
-533,364	68,493	0,074	-0,056
-532,350	-56,636	-0,099	-0,032
-531,335	-200,000	-0,025	0,103
-530,321	-200,000	-0,050	0,174
-529,306	275,524	-0,060	0,079
-528,291	121,552	-0,157	0,145
-527,277	-72,592	-0,181	-0,049
-526,262	-173,671	-0,131	0,003
-525,248	-124,226	0,095	0,011
-524,233	110,640	0,091	-0,081
-523,218	221,362	0,120	0,142
-522,204	-200,000	-0,019	0,106
-521,189	-128,656	-0,160	0,017
-520,175	116,164	0,069	0,063
-519,160	-200,000	0,003	-0,125
-518,145	-123,623	-0,126	0,015
-517,131	-200,000	0,005	-0,087
-516,116	227,264	-0,053	-0,064
-515,102	-29,801	-0,085	0,036
-514,087	578,417	-0,043	-0,079
-513,072	398,369	-0,101	-0,156
-512,058	520,624	0,092	-0,160
-511,043	140,382	0,072	-0,070
-510,029	-200,000	0,013	0,089
-509,014	195,567	0,037	0,042
-507,999	133,290	0,057	0,055
-506,985	-200,000	0,010	0,101
-505,970	549,243	-0,027	-0,048
-504,956	-40,357	-0,050	0,019
-503,941	-200,000	0,042	0,209
-502,926	-200,000	-0,012	-0,101
-501,912	-137,234	-0,055	-0,005
-500,897	-135,021	0,082	-0,007
-499,883	-200,000	-0,009	-0,089
-498,868	1,391	-0,075	-0,040
-497,853	-152,029	0,173	-0,009
-496,839	177,525	-0,056	0,061
-495,824	800,000	0,007	0,019
-494,810	-61,944	0,060	-0,018
-493,795	-83,702	0,122	0,029
-492,781	618,771	0,024	-0,044
-491,766	285,588	0,067	-0,090
-490,751	556,501	0,050	0,090
-489,737	604,210	-0,049	0,091
-488,722	-145,492	0,147	-0,010
-487,708	109,274	0,107	0,095
-486,693	147,128	0,068	0,067
-485,678	192,753	0,089	-0,099
-484,664	800,000	0,079	-0,172
-483,649	286,936	-0,083	-0,111
-482,635	37,880	-0,046	-0,030
-481,620	246,102	-0,016	0,020
-480,605	40,963	0,097	-0,065
-479,591	126,240	-0,099	0,092
-478,576	49,538	-0,166	0,115
-477,562	-200,000	0,005	-0,095
-476,547	800,000	-0,075	0,156
-475,532	800,000	-0,041	-0,131
-474,518	-199,500	-0,149	0,001
-473,503	-17,998	-0,087	0,040
-472,489	351,308	0,017	0,024
-471,474	-44,279	0,065	0,024
-470,459	507,223	0,018	0,032
-469,445	-200,000	-0,002	-0,110
-468,430	-2,448	-0,158	0,081
-467,416	-200,000	-0,007	0,095
-466,401	81,355	0,098	0,078
-465,386	225,299	-0,041	0,049
-464,372	-67,637	0,111	-0,032
-463,357	-200,000	-0,010	0,079
-462,343	-110,080	-0,077	-0,012
-461,328	156,205	-0,013	0,013
-460,313	190,416	0,057	0,064
-459,299	-197,816	-0,129	0,001
-458,284	35,861	0,172	0,111
-457,270	143,124	0,086	0,084
-456,255	-66,910	-0,042	0,012
-455,241	-16,005	-0,144	-0,067
-454,226	800,000	-0,024	-0,066
-453,211	566,609	-0,028	-0,051
-452,197	47,968	0,113	0,078
-451,182	329,622	0,021	0,029
-450,168	445,826	0,018	0,029
-449,153	454,285	0,084	0,137
-448,138	800,000	-0,036	-0,084
-447,124	-105,286	-0,055	0,009
-446,109	-1,841	-0,115	-0,059
-445,095	-200,000	0,013	0,123
-444,080	-200,000	-0,008	0,113
-443,065	440,720	0,074	-0,120
-442,051	-200,000	0,008	-0,057
-441,036	-121,203	-0,083	0,010
-440,022	-200,000	-0,009	0,099
-439,007	8,134	0,178	-0,098
-437,992	-45,035	0,042	-0,015
-436,978	-200,000	-0,005	-0,052
-435,963	-200,000	0,007	0,064
-434,949	320,610	0,021	-0,030
-433,934	-35,646	-0,118	0,047
-432,919	-6,692	-0,039	-0,019
-431,905	-92,965	-0,068	0,014
-430,890	220,501	-0,101	0,119
-429,876	-200,000	0,023	0,173
-428,861	-132,840	0,076	0,007
-427,846	-200,000	-0,002	-0,115
-426,832	181,128	0,027	0,030
-425,817	800,000	-0,017	-0,047
-424,803	39,257	-0,096	0,063
-423,788	800,000	-0,044	0,105
-422,773	-107,858	0,067	-0,011
-421,759	49,089	-0,074	0,051
-420,744	-39,473	0,084	0,032
-419,730	800,000	0,018	-0,051
-418,715	-128,832	-0,068	-0,007
-417,701	-102,416	0,025	-0,004
-416,686	180,679	-0,041	0,044
-415,671	651,939	0,031	-0,059
-414,657	800,000	0,013	-0,030
-413,642	-76,974	0,018	0,005
-412,628	-200,000	-0,012	0,054
-411,613	-66,989	-0,087	-0,025
-410,598	-53,567	0,157	-0,053
-409,584	-200,000	-0,002	0,047
-408,569	79,028	0,075	-0,059
-407,555	295,442	-0,102	0,137
-406,540	236,505	0,115	0,140
-405,525	355,425	-0,082	-0,121
-404,511	-200,000	0,009	-0,184
-403,496	240,949	0,056	-0,069
-402,482	-55,076	-0,049	0,016
-401,467	39,487	0,098	0,065
-400,452	303,155	0,049	-0,067
-399,438	-200,000	0,016	-0,096
-398,423	184,546	-0,065	0,071
-397,409	251,477	0,053	-0,067
-396,394	-200,000	-0,004	0,038
-395,379	473,587	0,059	0,098
-394,365	433,198	0,112	0,179
-393,350	-200,000	-0,003	-0,046
-392,336	-200,000	0,011	0,074
-391,321	-200,000	0,008	-0,073
-390,306	-200,000	-0,005	-0,047
-389,292	392,626	-0,089	-0,136
-388,277	-14,668	0,119	0,056
-387,263	279,274	-0,074	0,098
-386,248	-56,513	-0,170	-0,055
-385,233	-126,991	0,089	0,010
-384,219	-200,000	0,004	0,094
-383,204	-88,197	-0,159	-0,035
-382,190	620,157	-0,059	-0,110
-381,175	-200,000	-0,017	-0,107
-380,160	188,904	-0,109	-0,120
-379,146	779,949	0,031	-0,062
-378,131	169,727	0,133	0,140
-377,117	-14,651	-0,105	-0,049
-376,102	35,634	-0,077	0,049
-375,088	167,911	-0,045	0,047
-374,073	-200,000	-0,011	-0,052
-373,058	800,000	-0,017	0,040
-372,044	-83,471	0,034	-0,008
-371,029	-96,387	0,057	0,011
-370,015	-36,006	-0,137	-0,054
-369,000	800,000	0,015	0,044
-367,985	-200,000	0,018	0,092
-366,971	-180,712	-0,043	-0,001
-365,956	800,000	0,043	-0,090
-364,942	-200,000	0,010	0,076
-363,927	800,000	0,045	-0,114
-362,912	494,182	-0,017	-0,028
-361,898	19,823	-0,053	0,032
-360,883	311,806	-0,063	-0,086
-359,869	-2,550	0,033	-0,017
-358,854	222,354	0,095	-0,113
-357,839	-127,042	0,125	0,013
-356,825	364,307	-0,044	0,065
-355,810	-200,000	-0,013	-0,112
-354,796	29,304	-0,162	-0,101
-353,781	-105,691	-0,025	-0,004
-352,766	-51,803	-0,069	-0,023
-351,752	-200,000	-0,001	-0,098
-350,737	379,626	-0,050	0,075
-349,723	126,276	0,121	0,113
-348,708	-76,270	0,093	0,024
-347,693	20,655	-0,071	-0,042
-346,679	-78,829	-0,090	0,022
-345,664	-21,942	-0,048	-0,021
-344,650	72,606	0,069	0,053
-343,635	-200,000	0,020	0,175
-342,620	-38,443	0,039	-0,015
-341,606	24,200	0,022	0,013
-340,591	-129,038	0,098	0,010
-339,577	378,498	-0,048	-0,073
-338,562	4,920	-0,084	-0,045
-337,548	-100,121	-0,085	0,015
-336,533	345,189	0,093	0,134
-335,518	343,809	-0,070	0,101
-334,504	462,908	-0,010	-0,017
-333,489	-122,778	0,056	0,007
-332,475	-21,714	-0,051	-0,023
-331,460	-157,021	0,067	0,003
-330,445	-200,000	0,002	0,075
-329,431	-61,192	0,121	-0,037
-328,416	451,093	-0,022	0,035
-327,402	185,306	0,082	0,089
-326,387	-200,000	0,014	0,063
-325,372	800,000	0,018	-0,038
-324,358	-1,767	-0,137	0,071
-323,343	-200,000	-0,036	-0,188
-322,329	220,299	0,147	-0,173
-321,314	259,113	0,062	-0,078
-320,299	800,000	0,047	0,123
-319,285	-200,000	0,019	0,108
-318,270	-61,457	-0,075	-0,023
-317,256	-74,954	-0,089	0,023
-316,241	200,588	0,013	-0,015
-315,226	800,000	0,056	0,162
-314,212	-200,000	0,013	0,099
-313,197	-14,407	-0,224	0,105
-312,183	-200,000	0,027	0,126
-311,168	220,712	-0,010	-0,011
-310,153	800,000	0,009	-0,028
-309,139	28,617	0,067	0,041
-308,124	-200,000	0,043	0,140
-307,110	235,221	0,104	-0,126
-306,095	-56,805	-0,110	-0,035
-305,080	-190,715	0,130	0,001
-304,066	-200,000	0,017	-0,138
-303,051	380,887	-0,068	-0,103
-302,037	7,100	0,040	0,022
-301,022	-200,000	-0,001	-0,129
-300,008	-200,000	0,001	-0,077
-298,993	65,049	0,039	0,029
-297,978	-95,129	0,083	-0,016
-296,964	104,993	0,092	-0,080
-295,949	103,393	0,027	0,023
-294,935	-11,461	-0,091	-0,044
-293,920	-7,050	0,139	-0,069
-292,905	397,624	-0,081	0,125
-291,891	552,176	0,041	0,073
-290,876	-11,010	0,061	0,029
-289,862	308,183	0,022	0,030
-288,847	-112,487	-0,188	0,027
-287,832	386,004	-0,052	-0,079
-286,818	800,000	0,007	-0,017
-285,803	-76,565	-0,096	-0,024
-284,789	-200,000	-0,030	-0,153
-283,774	800,000	0,039	-0,115
-282,759	-200,000	0,002	-0,016
-281,745	154,722	0,092	-0,093
-280,730	65,417	-0,026	-0,019
-279,716	103,932	0,104	0,090
-278,701	203,839	-0,070	0,080
-277,686	-91,783	0,100	0,021
-276,672	-200,000	0,013	0,057
-275,657	88,403	0,062	-0,050
-274,643	287,225	0,079	-0,105
-273,628	-37,592	-0,124	0,048
-272,613	-200,000	0,017	0,096
-271,599	207,546	0,070	0,080
-270,584	800,000	0,054	0,149
-269,570	41,232	0,060	-0,040
-268,555	-49,350	0,133	-0,046
-267,540	800,000	-0,035	-0,080
-266,526	70,759	-0,086	0,065
-265,511	227,667	0,005	0,005
-264,497	-85,381	0,071	0,016
-263,482	642,515	0,018	-0,034
-262,467	-106,203	0,009	0,001
-261,453	-200,000	-0,007	0,063
-260,438	349,008	0,066	-0,096
-259,424	133,324	-0,016	-0,015
-258,409	404,754	-0,095	-0,147
-257,395	591,142	0,043	-0,079
-256,380	505,111	0,005	-0,008
-255,365	800,000	0,029	0,062
-254,351	800,000	0,044	0,093
-253,336	76,362	-0,064	-0,050
-252,322	-200,000	-0,037	-0,151
-251,307	-107,119	-0,073	0,012
-250,292	-84,399	0,053	0,012
-249,278	-200,000	-0,004	-0,028
-248,263	320,099	0,029	-0,041
-247,249	89,292	0,086	0,070
-246,234	274,286	-0,072	-0,094
-245,219	800,000	-0,041	-0,107
-244,205	-91,052	-0,119	-0,025
-243,190	76,042	-0,034	0,026
-242,176	-56,837	0,007	-0,002
-241,161	718,377	-0,035	0,068
-240,146	-119,739	-0,052	-0,006
-239,132	32,195	0,083	0,052
-238,117	221,035	-0,045	0,053
-237,103	451,942	0,035	-0,057
-236,088	384,486	0,003	-0,005
-235,073	-68,023	-0,017	-0,005
-234,059	-130,047	-0,095	0,009
-233,044	342,208	-0,015	0,022
-232,030	82,502	0,051	-0,041
-231,015	-114,310	0,078	0,011
-230,000	-200,000	0,002	-0,070
-228,986	359,883	-0,014	0,020
-227,971	715,634	0,044	-0,085
-226,957	-106,303	0,134	0,022
-225,942	796,176	0,023	-0,046
-224,927	800,000	-0,098	-0,211
-223,913	58,320	-0,011	-0,008
-222,898	509,190	0,007	0,012
-221,884	-200,000	0,004	-0,037
-220,869	185,363	-0,049	0,053
-219,855	-200,000	0,008	0,086
-218,840	-200,000	-0,018	0,068
-217,825	-166,131	0,153	0,005
-216,811	800,000	0,025	0,062
-215,796	-58,453	-0,143	0,045
-214,782	-129,541	0,054	-0,005
-213,767	-23,066	-0,103	-0,045
-212,752	-200,000	0,039	0,236
-211,738	-200,000	0,003	0,097
-210,723	4,471	0,140	0,075
-209,709	1,025	-0,028	0,014
-208,694	800,000	0,016	-0,047
-207,679	-144,603	-0,083	0,006
-206,665	-87,368	-0,078	0,017
-205,650	210,486	0,073	0,084
-204,636	800,000	0,074	-0,197
-203,621	647,187	-0,103	-0,193
-202,606	-200,000	-0,008	-0,037
-201,592	230,495	-0,108	-0,130
-200,577	-24,856	-0,067	-0,029
-199,563	20,454	0,042	0,025
-198,548	540,095	0,013	-0,023
-197,533	574,204	0,038	0,068
-196,519	-72,685	-0,062	0,017
-195,504	-95,326	-0,147	0,029
-194,490	530,005	0,068	-0,118
-193,475	15,289	-0,083	-0,047
-192,460	-0,597	-0,075	0,039
-191,446	-58,896	0,097	-0,030
-190,431	-79,039	-0,123	0,030
-189,417	-200,000	-0,012	-0,051
-188,402	61,816	-0,103	-0,075
-187,387	553,185	0,044	-0,077
-186,373	-120,138	0,041	0,005
-185,358	-56,543	0,059	-0,019
-184,344	344,845	0,061	0,087
-183,329	800,000	0,035	0,097
-182,315	-85,037	0,030	0,007
-181,300	-200,000	0,020	-0,097
-180,285	-50,852	-0,116	0,039
-179,271	-200,000	-0,005	0,035
-178,256	164,700	0,039	-0,040
-177,242	102,511	0,068	0,058
-176,227	-200,000	0,008	0,091
-175,212	800,000	-0,020	0,045
-174,198	-200,000	0,034	-0,163
-173,183	800,000	-0,036	-0,106
-172,169	-200,000	0,003	-0,132
-171,154	-200,000	0,006	-0,126
-170,139	-200,000	-0,001	0,023
-169,125	-13,897	-0,058	0,027
-168,110	158,788	0,073	0,074
-167,096	800,000	-0,016	0,043
-166,081	-200,000	-0,020	0,072
-165,066	41,685	-0,046	-0,030
-164,052	-200,000	0,001	0,024
-163,037	174,685	-0,053	0,056
-162,023	-200,000	0,006	0,139
-161,008	12,762	0,082	0,046
-159,993	-27,335	-0,098	0,042
-158,979	-66,816	-0,074	-0,021
-157,964	103,825	0,091	-0,078
-156,950	-200,000	-0,031	-0,112
-155,935	471,917	-0,036	0,060
-154,920	-200,000	0,020	0,099
-153,906	243,931	0,068	0,083
-152,891	-139,121	-0,060	-0,005
-151,877	112,332	0,099	0,087
-150,862	800,000	-0,029	-0,069
-149,847	-200,000	-0,009	0,087
-148,833	800,000	-0,040	-0,114
-147,818	262,935	-0,081	-0,103
-146,804	231,477	-0,017	0,021
-145,789	45,262	-0,059	0,040
-144,775	-179,242	-0,122	-0,002
-143,760	-46,514	-0,027	0,010
-142,745	-200,000	0,010	-0,045
-141,731	-139,943	0,063	0,005
-140,716	800,000	0,041	0,100
-139,702	56,119	-0,111	-0,079
-138,687	52,270	-0,088	-0,061
-137,672	275,961	0,044	0,057
-136,658	94,568	-0,059	0,048
-135,643	-28,565	-0,111	-0,046
-134,629	-145,067	-0,033	0,002
-133,614	-19,641	0,044	-0,020
-132,599	800,000	0,024	0,068
-131,585	-200,000	0,045	0,199
-130,570	469,222	-0,083	0,136
-129,556	-20,044	-0,113	-0,050
-128,541	-200,000	0,013	-0,047
-127,526	800,000	0,014	0,044
-126,512	452,027	0,029	0,047
-125,497	800,000	0,038	0,086
-124,483	-200,000	0,027	0,158
-123,468	-85,469	-0,083	-0,019
-122,453	347,106	0,108	-0,155
-121,439	78,802	-0,117	0,091
-120,424	205,760	-0,120	-0,136
-119,410	-58,224	0,036	-0,011
-118,395	215,700	-0,066	0,076
-117,380	-200,000	-0,017	0,090
-116,366	13,125	0,092	0,052
-115,351	-200,000	0,002	0,107
-114,337	-95,735	0,092	0,018
-113,322	-36,317	-0,086	-0,033
-112,307	295,797	0,023	-0,030
-111,293	-200,000	-0,022	0,092
-110,278	53,144	0,093	-0,065
-109,264	410,855	0,086	0,133
-108,249	-94,422	0,034	0,007
-107,234	800,000	-0,041	0,104
-106,220	658,540	-0,004	0,008
-105,205	-74,336	0,140	-0,036
-104,191	-1,088	0,010	0,005
-103,176	-75,561	0,087	0,022
-102,162	-200,000	-0,017	-0,119
-101,147	57,107	-0,156	0,110
-100,132	-41,128	0,104	-0,039
-99,118	800,000	-0,050	-0,127
-98,103	800,000	-0,025	0,063
-97,089	167,841	0,025	0,026
-96,074	800,000	0,055	-0,131
-95,059	-200,000	0,000	-0,027
-94,045	72,435	0,051	-0,039
-93,030	371,425	-0,105	-0,156
-92,016	-59,613	-0,042	-0,013
-91,001	800,000	0,033	-0,089
-89,986	74,486	0,116	-0,088
-88,972	61,373	-0,078	0,056
-87,957	-63,679	0,097	0,029
-86,943	800,000	-0,030	0,070
-85,928	-200,000	0,013	0,092
-84,913	-83,995	-0,076	-0,017
-83,899	91,793	-0,068	0,056
-82,884	-127,226	-0,007	0,001
-81,870	-77,490	0,107	0,027
-80,855	47,028	0,092	-0,062
-79,840	20,620	-0,026	0,015
-78,826	800,000	0,039	-0,094
-77,811	-14,941	-0,040	0,019
-76,797	-200,000	0,012	0,071
-75,782	-168,562	-0,035	-0,001
-74,767	-117,264	0,109	-0,014
-73,753	800,000	0,021	-0,065
-72,738	-180,498	0,095	-0,001
-71,724	729,898	-0,084	-0,163
-70,709	-115,604	-0,089	-0,012
-69,694	42,879	-0,113	0,074
-68,680	156,151	0,142	0,142
-67,665	-200,000	-0,006	-0,042
-66,651	-200,000	0,015	-0,094
-65,636	-200,000	-0,004	-0,181
-64,622	-63,829	-0,029	0,009
-63,607	-200,000	-0,024	0,134
-62,592	-200,000	-0,009	0,107
-61,578	272,554	0,009	0,012
-60,563	800,000	-0,007	-0,019
-59,549	-200,000	0,011	0,046
-58,534	-200,000	-1,265	-0,002
-57,519	533,809	-0,869	-1,500
-56,505	-200,000	-0,944	-4,462
-55,490	99,891	0,487	-0,409
-54,476	800,000	4,912	11,954
-53,461	-200,000	13,302	252,393
-52,446	-200,000	688,099	2274,103
-51,432	599,931	1623,303	2936,394
-50,417	121,339	1637,294	1480,041
-49,403	73,433	1291,822	980,326
-48,388	38,505	1026,260	662,679
-47,373	24,769	983,444	589,801
-46,359	23,927	973,270	580,911
-45,344	23,009	968,955	575,306
-44,330	23,012	967,436	574,392
-43,315	22,871	966,238	573,197
-42,300	22,811	965,105	572,310
-41,286	22,784	964,213	571,668
-40,271	22,789	963,406	571,182
-39,257	22,826	962,132	570,526
-38,242	22,852	961,220	570,047
-37,227	22,825	960,485	569,499
-36,213	22,788	959,539	568,796
-35,198	22,727	958,784	568,129
-34,184	22,861	957,967	568,055
-33,169	22,805	957,309	567,464
-32,154	22,879	956,184	567,014
-31,140	22,834	955,349	566,348
-30,125	22,825	954,443	565,761
-29,111	22,805	953,654	565,207
-28,096	22,874	953,032	565,036
-27,082	22,809	952,422	564,444
-26,067	22,838	951,592	564,022
-25,052	22,839	950,974	563,637
-24,038	22,853	950,361	563,296
-23,023	22,834	949,685	562,814
-22,009	22,883	949,047	562,568
-20,994	22,901	948,326	562,176
-19,979	22,883	947,768	561,766
-18,965	22,810	946,985	561,046
-17,950	22,842	946,523	560,854
-16,936	22,743	945,907	560,148
-15,921	22,759	945,195	559,758
-14,906	22,692	944,396	559,047
-13,892	22,760	943,739	558,855
-12,877	22,657	943,274	558,228
-11,863	22,691	942,520	557,868
-10,848	22,723	941,996	557,638
-9,833	22,797	941,574	557,601
-8,819	22,771	941,093	557,210
-7,804	22,719	940,377	556,600
-6,790	22,689	939,818	556,152
-5,775	22,752	939,114	555,912
-4,760	22,699	938,569	555,401
-3,746	22,731	937,814	555,033
-2,731	22,577	937,061	554,077
-1,717	22,480	936,570	553,461
-0,702	22,540	935,685	553,105
0,313	22,401	935,016	553,104
1,327	25,591	932,948	561,874
2,342	35,442	797,771	506,744
3,356	33,759	451,895	284,482
4,371	2,148	292,896	152,962
5,386	-2,487	273,759	138,584
6,400	-3,858	267,928	134,352
7,415	-4,532	265,437	132,475
8,429	-4,196	264,222	132,162
9,444	-4,268	263,464	131,706
10,459	-4,186	262,679	131,376
11,473	-4,376	262,209	130,958
12,488	-4,085	261,545	130,877
13,502	-4,070	261,047	130,629
14,517	-4,313	260,697	130,224
15,531	-4,220	260,332	130,114
16,546	-4,296	259,977	129,857
17,561	-4,250	259,594	129,695
18,575	-4,164	259,280	129,603
19,590	-4,418	259,073	129,262
20,604	-4,188	258,780	129,309
21,619	-4,219	258,359	129,060
22,634	-4,146	257,928	128,897
23,648	-4,265	257,751	128,691
24,663	-4,480	257,624	128,426
25,677	-4,105	257,173	128,522
26,692	-4,389	257,027	128,186
27,707	-4,223	256,704	128,161
28,721	-4,330	256,595	128,000
29,736	-4,294	256,312	127,879
30,750	-4,216	255,918	127,740
31,765	-4,338	255,640	127,483
32,780	-4,274	255,623	127,519
33,794	-4,248	255,244	127,341
34,809	-4,338	254,960	127,109
35,823	-4,410	254,828	126,969
36,838	-4,316	254,479	126,866
37,853	-4,377	254,299	126,712
38,867	-4,447	254,075	126,528
39,882	-4,294	253,830	126,528
40,896	-4,469	253,796	126,347
41,911	-4,411	253,396	126,187
42,926	-4,332	253,199	126,146
43,940	-4,324	253,026	126,056
44,955	-4,457	252,819	125,826
45,969	-4,633	252,609	125,557
46,984	-4,719	252,351	125,343
47,999	-4,768	252,033	125,132
49,013	-5,174	251,806	124,656
50,028	-5,078	251,544	124,598
51,042	-5,305	251,258	124,249
52,057	-5,350	251,189	124,165
53,071	-5,197	250,832	124,110
54,086	-5,207	250,725	124,037
55,101	-4,899	250,658	124,258
56,115	-4,852	250,481	124,200
57,130	-4,385	250,302	124,502
58,144	-4,086	250,249	124,722
59,159	-4,133	249,885	124,488
60,174	-4,027	249,680	124,466
61,188	-4,084	249,495	124,314
62,203	-4,251	249,330	124,078
63,217	-4,317	249,228	123,960
64,232	-4,327	248,941	123,797
65,247	-4,006	248,560	123,870
66,261	-4,127	248,495	123,724
67,276	-4,357	248,229	123,384
68,290	-4,607	248,026	123,059
69,305	-4,540	247,565	122,877
70,320	-4,656	247,513	122,741
71,334	-4,509	247,408	122,803
72,349	-4,260	247,337	122,969
73,363	-4,078	247,190	123,039
74,378	-4,152	246,998	122,869
75,393	-4,125	246,575	122,671
76,407	-4,114	246,333	122,549
77,422	-4,203	246,310	122,451
78,436	-4,103	246,083	122,412
79,451	-4,300	245,840	122,114
80,466	-4,130	245,542	122,098
81,480	-4,546	245,391	121,663
82,495	-4,684	245,269	121,475
83,509	-4,549	245,096	121,492
84,524	-4,584	244,860	121,335
85,539	-4,644	244,638	121,163
86,553	-4,576	244,358	121,071
87,568	-4,627	244,290	120,984
88,582	-4,555	244,001	120,890
89,597	-4,466	243,924	120,916
90,611	-4,369	243,801	120,925
91,626	-4,176	243,584	120,968
92,641	-4,157	243,563	120,963
93,655	-4,426	243,237	120,565
94,670	-4,465	243,079	120,444
95,684	-4,546	242,907	120,281
96,699	-4,508	242,837	120,266
97,714	-4,522	242,455	120,055
98,728	-4,807	242,344	119,753
99,743	-4,628	241,930	119,686
100,757	-4,633	241,911	119,662
101,772	-4,653	241,636	119,499
102,787	-4,606	241,512	119,466
103,801	-4,425	241,382	119,540
104,816	-4,595	241,261	119,329
105,830	-4,402	241,152	119,424
106,845	-4,192	240,967	119,495
107,860	-4,417	240,801	119,216
108,874	-4,493	240,499	118,993
109,889	-4,637	240,401	118,816
110,903	-4,446	240,047	118,788
111,918	-4,656	240,077	118,619
112,933	-4,242	239,664	118,744
113,947	-4,365	239,624	118,613
114,962	-4,425	239,507	118,495
115,976	-4,337	239,221	118,415
116,991	-4,253	239,221	118,473
118,006	-4,234	238,957	118,347
119,020	-4,385	238,903	118,186
120,035	-4,226	238,610	118,161
121,049	-4,247	238,760	118,207
122,064	-4,356	238,444	117,951
123,079	-4,395	238,138	117,758
124,093	-4,231	237,977	117,802
125,108	-4,401	237,697	117,514
126,122	-4,777	237,523	117,113
127,137	-4,824	237,242	116,925
128,151	-4,776	237,259	116,962
129,166	-4,759	237,094	116,884
130,181	-4,643	236,806	116,826
131,195	-4,504	236,720	116,885
132,210	-4,418	236,479	116,826
133,224	-4,324	236,410	116,856
134,239	-4,381	236,252	116,723
135,254	-4,471	236,010	116,519
136,268	-4,532	235,867	116,390
137,283	-4,737	235,588	116,077
138,297	-4,966	235,409	115,794
139,312	-4,899	235,253	115,761
140,327	-4,518	235,219	116,039
141,341	-4,031	235,125	116,373
142,356	-4,048	234,921	116,249
143,370	-4,062	234,896	116,215
144,385	-3,997	234,672	116,145
145,400	-3,989	234,483	116,048
146,414	-4,025	234,141	115,840
147,429	-3,973	234,075	115,838
148,443	-4,264	234,060	115,589
149,458	-4,184	233,826	115,526
150,473	-4,004	233,699	115,596
151,487	-4,430	233,498	115,147
152,502	-4,023	233,440	115,432
153,516	-3,993	233,136	115,296
154,531	-4,130	232,989	115,104
155,546	-4,005	232,723	115,062
156,560	-4,059	232,605	114,950
157,575	-4,432	232,388	114,537
158,589	-4,159	232,066	114,584
159,604	-4,157	232,121	114,603
160,619	-4,013	231,902	114,598
161,633	-3,714	231,817	114,782
162,648	-3,649	231,609	114,720
163,662	-3,900	231,609	114,512
164,677	-4,162	231,373	114,178
165,692	-4,002	231,271	114,244
166,706	-3,990	231,219	114,218
167,721	-4,006	231,154	114,163
168,735	-3,981	230,811	114,003
169,750	-3,959	230,591	113,901
170,764	-4,069	230,440	113,730
171,779	-3,868	230,361	113,839
172,794	-3,740	230,243	113,870
173,808	-4,087	230,071	113,504
174,823	-4,652	229,703	112,871
175,837	-4,574	229,434	112,789
176,852	-4,259	229,516	113,065
177,867	-4,089	229,388	113,124
178,881	-4,175	229,333	113,020
179,896	-4,053	229,102	112,991
180,910	-3,871	228,900	113,023
181,925	-4,008	228,803	112,859
182,940	-3,999	228,651	112,781
183,954	-3,857	228,509	112,811
184,969	-3,838	228,311	112,718
185,983	-3,595	228,256	112,869
186,998	-3,863	228,134	112,591
188,013	-3,869	227,961	112,491
189,027	-3,807	227,731	112,416
190,042	-3,868	227,490	112,239
191,056	-3,815	227,464	112,257
192,071	-3,796	227,213	112,138
193,086	-3,948	227,115	111,963
194,100	-3,917	226,910	111,876
195,115	-4,191	226,533	111,469
196,129	-5,098	226,287	110,641
197,144	-1,918	227,311	113,584
198,159	2,237	228,334	117,298
199,173	4,172	228,813	119,030
200,188	4,182	228,816	119,028
201,202	4,256	228,556	118,940
202,217	4,380	228,497	118,994
203,232	4,551	228,446	119,088
204,246	4,834	228,189	119,162
205,261	5,005	228,030	119,200
206,275	5,060	227,944	119,187
207,290	4,918	227,877	119,031
208,304	4,961	227,664	118,943
209,319	4,864	227,523	118,784
210,334	4,883	227,302	118,672
211,348	4,629	227,060	118,341
212,363	4,367	226,750	117,969
213,377	4,063	226,645	117,671
214,392	4,052	226,574	117,616
215,407	4,098	226,416	117,558
216,421	4,176	226,275	117,534
217,436	4,147	226,054	117,386
218,450	3,955	225,719	117,056
219,465	3,851	225,491	116,848
220,480	3,829	225,554	116,854
221,494	3,761	225,466	116,746
222,509	4,260	225,214	116,984
223,523	3,815	225,183	116,620
224,538	3,978	225,037	116,658
225,553	3,826	224,932	116,477
226,567	4,260	224,848	116,753
227,582	4,136	224,577	116,508
228,596	4,432	224,475	116,668
229,611	3,981	224,347	116,250
230,626	3,855	224,088	116,011
231,640	3,928	224,073	116,047
232,655	4,196	223,874	116,136
233,669	4,616	223,842	116,426
234,684	4,754	223,782	116,488
235,699	4,663	223,408	116,214
236,713	4,225	223,265	115,801
237,728	3,930	223,035	115,450
238,742	4,035	222,936	115,466
239,757	4,000	222,681	115,298
240,772	4,018	222,593	115,256
241,786	3,922	222,497	115,124
242,801	4,080	222,482	115,225
243,815	4,381	222,445	115,420
244,830	4,445	222,185	115,322
245,844	4,106	221,963	114,944
246,859	4,008	221,927	114,842
247,874	4,211	221,894	114,966
248,888	4,486	221,627	115,023
249,903	4,384	221,302	114,768
250,917	4,044	221,237	114,471
251,932	4,135	221,176	114,497
252,947	4,045	220,951	114,303
253,961	3,813	220,741	114,012
254,976	3,892	220,725	114,053
255,990	4,164	220,624	114,192
257,005	4,321	220,396	114,179
258,020	4,313	220,398	114,165
259,034	4,617	220,189	114,271
260,049	4,352	220,037	113,986
261,063	4,180	219,834	113,743
262,078	4,360	219,797	113,848
263,093	4,477	219,749	113,899
264,107	4,619	219,484	113,856
265,122	4,228	219,488	113,560
266,136	4,403	219,296	113,579
267,151	4,608	219,049	113,592
268,166	4,288	218,756	113,195
269,180	3,897	218,573	112,803
270,195	3,963	218,522	112,815
271,209	4,082	218,349	112,803
272,224	4,127	218,164	112,730
273,239	4,076	218,317	112,762
274,253	4,062	217,941	112,548
275,268	4,000	217,757	112,397
276,282	3,973	217,482	112,225
277,297	3,777	217,434	112,048
278,312	3,843	217,342	112,038
279,326	4,032	217,181	112,083
280,341	4,142	217,074	112,098
281,355	3,945	216,952	111,881
282,370	4,158	216,822	111,959
283,384	3,936	216,671	111,710
284,399	3,838	216,451	111,516
285,414	3,636	216,473	111,370
286,428	3,961	216,437	111,578
287,443	4,130	216,155	111,545
288,457	4,245	216,214	111,649
289,472	4,203	215,889	111,441
290,487	3,661	215,569	110,874
291,501	3,437	215,512	110,673
292,516	3,678	215,423	110,792
293,530	3,870	215,125	110,766
294,545	3,796	214,963	110,620
295,560	3,973	214,942	110,727
296,574	4,047	214,862	110,729
297,589	4,126	214,814	110,751
298,603	4,034	214,743	110,639
299,618	4,213	214,540	110,653
300,633	4,035	214,499	110,494
301,647	4,319	214,344	110,608
302,662	4,363	214,206	110,559
303,676	4,433	214,007	110,496
304,691	4,306	213,939	110,360
305,706	4,336	213,915	110,359
306,720	4,330	213,622	110,194
307,735	4,123	213,544	109,996
308,749	3,855	213,310	109,674
309,764	4,071	213,222	109,774
310,779	4,309	213,124	109,883
311,793	4,194	213,024	109,740
312,808	4,317	212,689	109,645
313,822	4,302	212,542	109,548
314,837	4,299	212,402	109,464
315,852	3,959	212,308	109,165
316,866	4,027	212,224	109,160
317,881	4,285	212,044	109,241
318,895	4,275	211,940	109,170
319,910	4,026	211,682	108,851
320,925	4,012	211,576	108,778
321,939	3,412	211,387	108,247
322,954	3,525	211,287	108,266
323,968	4,119	211,246	108,655
324,983	4,191	211,093	108,616
325,997	4,333	211,122	108,722
327,012	4,389	210,874	108,624
328,027	3,783	210,788	108,143
329,041	4,499	210,704	108,595
330,056	4,537	210,536	108,525
331,070	4,320	210,319	108,251
332,085	3,952	210,092	107,867
333,100	3,932	210,064	107,828
334,114	4,125	209,868	107,853
335,129	3,933	209,767	107,658
336,143	3,890	209,547	107,505
337,158	3,839	209,519	107,445
338,173	3,699	209,463	107,309
339,187	3,732	209,228	107,202
340,202	3,625	208,963	106,982
341,216	3,464	209,013	106,886
342,231	3,919	208,732	107,049
343,246	3,738	208,711	106,903
344,260	3,712	208,552	106,794
345,275	3,880	208,346	106,796
346,289	4,034	208,450	106,947
347,304	4,181	208,147	106,884
348,319	4,223	208,008	106,832
349,333	4,082	207,885	106,662
350,348	4,326	207,766	106,760
351,362	4,004	207,776	106,532
352,377	4,301	207,638	106,658
353,392	4,084	207,343	106,347
354,406	4,091	207,400	106,372
355,421	194,111	1343,948	1433,393
356,435	154,865	1482,532	1433,522
