DTS Sentinel unit serial number:	SN410029Multiplexer serial number:	ORYXHardware model number:	OX2-SRSoftware version number:	ORYX F/W v4,00 Oryx Data Collector v3.7.2.0data status	okinstallation	B6 Nyhavnadifferential loss correction	single-endedforward channel	channel 2reverse channel	N/Adate	2023/12/09time	01:20:08forward acquisition time	300,00reverse acquisition time	0,00gamma	499,1914k internal	0,3156k external	0,3156temperature offset calibration	1,0000default loss term (dB/km)	0,3820temperature slope calibration	1,0000multiplexer offset coefficient	1,0000multiplexer slope coefficient	1,0000fibre end	0,00T internal ref (°C)	15,75T ext. ref 1 (°C)	-0,57T ext. ref 2 (°C)	-0,57length (m)	temperature (°C)	Stokes	anti-Stokes-744,400	-85,653	0,099	-0,022
-743,385	-124,272	-0,275	-0,031
-742,371	-188,597	0,183	-0,002
-741,356	-55,058	-0,242	0,080
-740,342	15,934	0,092	0,053
-739,327	-117,617	-0,310	-0,041
-738,312	-112,122	0,142	0,021
-737,298	-150,548	-0,241	-0,013
-736,283	-34,283	0,046	0,018
-735,269	28,968	-0,230	0,144
-734,254	386,565	0,077	0,118
-733,239	51,791	-0,494	-0,346
-732,225	800,000	0,067	0,166
-731,210	-200,000	-0,008	0,112
-730,196	384,733	-0,041	-0,063
-729,181	800,000	-0,044	0,108
-728,167	-200,000	-0,024	-0,151
-727,152	800,000	-0,055	0,123
-726,137	-118,295	-0,112	-0,014
-725,123	-78,800	-0,067	0,017
-724,108	-9,375	-0,177	-0,087
-723,094	-30,752	-0,167	0,069
-722,079	800,000	-0,072	-0,184
-721,064	800,000	0,041	-0,097
-720,050	-141,687	0,004	0,000
-719,035	145,743	-0,045	-0,044
-718,021	-100,772	-0,136	0,025
-717,006	-83,104	0,031	0,007
-715,991	-51,872	0,066	-0,022
-714,977	28,466	-0,004	0,003
-713,962	800,000	-0,017	0,052
-712,948	463,343	-0,034	-0,056
-711,933	-200,000	-0,005	0,049
-710,918	-22,908	0,005	-0,002
-709,904	-168,614	-0,165	-0,005
-708,889	136,274	0,072	0,069
-707,875	392,164	-0,046	-0,070
-706,860	-38,539	0,092	0,036
-705,845	605,137	-0,025	-0,045
-704,831	191,716	-0,058	0,064
-703,816	58,026	-0,041	0,029
-702,802	108,774	0,124	-0,109
-701,787	-200,000	0,007	0,044
-700,772	-200,000	-0,014	-0,066
-699,758	800,000	0,005	-0,012
-698,743	-200,000	0,016	0,056
-697,729	-200,000	-0,008	-0,116
-696,714	93,684	0,116	-0,097
-695,699	800,000	0,034	0,072
-694,685	61,787	-0,062	0,046
-693,670	329,123	0,032	-0,046
-692,656	-61,864	0,070	0,021
-691,641	-200,000	-0,018	0,109
-690,627	-200,000	0,003	0,109
-689,612	-34,578	-0,142	0,057
-688,597	156,667	0,035	-0,036
-687,583	-4,941	0,007	-0,003
-686,568	498,279	0,011	0,018
-685,554	697,502	0,007	0,014
-684,539	529,826	0,098	0,171
-683,524	297,303	0,032	-0,043
-682,510	-200,000	-0,017	0,281
-681,495	11,456	-0,056	-0,031
-680,481	287,296	-0,108	-0,144
-679,466	199,539	-0,009	0,011
-678,451	-200,000	0,000	0,056
-677,437	-200,000	0,004	-0,052
-676,422	800,000	0,059	0,149
-675,408	-200,000	0,027	0,144
-674,393	-119,085	0,016	0,002
-673,378	22,655	-0,073	-0,044
-672,364	-200,000	-0,020	0,073
-671,349	48,872	-0,062	-0,043
-670,335	-128,437	0,140	0,014
-669,320	800,000	0,064	-0,180
-668,305	800,000	-0,028	-0,075
-667,291	249,174	-0,033	-0,041
-666,276	493,813	-0,027	0,046
-665,262	-178,382	-0,033	-0,001
-664,247	-56,397	0,125	-0,040
-663,232	-200,000	-0,015	-0,187
-662,218	220,972	0,032	-0,038
-661,203	359,020	0,068	-0,101
-660,189	-77,246	0,173	0,044
-659,174	-62,098	-0,106	-0,032
-658,159	-77,078	-0,101	-0,026
-657,145	308,524	-0,084	-0,116
-656,130	-185,225	-0,106	-0,001
-655,116	-23,281	0,023	0,010
-654,101	-200,000	-0,015	-0,125
-653,086	577,271	0,076	-0,137
-652,072	49,514	-0,117	-0,081
-651,057	-29,964	-0,077	0,032
-650,043	800,000	-0,070	0,150
-649,028	800,000	0,024	0,059
-648,014	800,000	-0,009	-0,027
-646,999	-163,066	-0,065	-0,002
-645,984	-23,351	-0,104	0,046
-644,970	-187,473	0,091	-0,001
-643,955	-115,088	0,060	0,008
-642,941	201,216	-0,013	0,015
-641,926	-200,000	-0,008	-0,121
-640,911	235,500	-0,009	0,011
-639,897	-200,000	0,009	-0,059
-638,882	-19,281	-0,130	0,059
-637,868	59,906	-0,126	0,091
-636,853	375,997	-0,041	-0,061
-635,838	217,746	0,047	-0,055
-634,824	-200,000	0,024	-0,081
-633,809	328,382	-0,068	-0,097
-632,795	635,165	0,008	-0,015
-631,780	800,000	0,042	0,089
-630,765	139,911	-0,074	0,071
-629,751	-200,000	0,024	-0,113
-628,736	-200,000	-0,023	-0,124
-627,722	69,065	0,033	0,025
-626,707	91,898	-0,095	0,078
-625,692	27,445	0,065	0,040
-624,678	230,971	0,049	-0,059
-623,663	-16,780	0,088	-0,041
-622,649	68,609	-0,148	-0,111
-621,634	236,673	-0,024	-0,030
-620,619	-200,000	-0,034	0,116
-619,605	244,323	-0,034	0,042
-618,590	235,467	-0,055	-0,066
-617,576	435,461	0,008	0,012
-616,561	-200,000	-0,003	-0,069
-615,546	-184,303	0,157	0,002
-614,532	800,000	0,009	0,020
-613,517	-36,785	-0,107	-0,042
-612,503	-200,000	-0,009	-0,094
-611,488	-200,000	0,016	-0,083
-610,474	-200,000	0,027	0,175
-609,459	35,331	0,101	0,065
-608,444	-136,817	-0,178	-0,015
-607,430	39,739	-0,142	-0,093
-606,415	318,054	-0,104	-0,145
-605,401	178,852	0,030	-0,033
-604,386	235,243	0,030	-0,037
-603,371	-20,785	-0,148	0,066
-602,357	-117,284	-0,073	0,010
-601,342	-51,217	-0,046	0,016
-600,328	259,153	-0,068	0,086
-599,313	114,323	-0,106	-0,094
-598,298	800,000	0,073	-0,182
-597,284	-200,000	0,012	0,110
-596,269	44,096	-0,116	-0,078
-595,255	-200,000	0,006	0,052
-594,240	-19,632	0,135	-0,061
-593,225	11,286	-0,074	0,041
-592,211	-102,821	-0,142	0,025
-591,196	209,090	-0,038	-0,043
-590,182	389,211	-0,060	-0,092
-589,167	238,220	0,084	-0,102
-588,152	289,996	-0,077	0,103
-587,138	-200,000	-0,005	0,083
-586,123	-110,869	-0,072	0,011
-585,109	212,742	-0,093	-0,108
-584,094	291,949	0,058	-0,078
-583,079	244,465	-0,072	0,089
-582,065	-200,000	0,001	-0,012
-581,050	73,548	-0,043	0,033
-580,036	-200,000	0,008	-0,052
-579,021	20,858	-0,068	-0,040
-578,006	-200,000	-0,034	0,138
-576,992	39,896	-0,019	0,013
-575,977	588,648	-0,026	0,047
-574,963	-200,000	-0,007	0,050
-573,948	190,372	-0,081	-0,089
-572,934	-131,619	-0,125	-0,012
-571,919	58,871	-0,075	-0,054
-570,904	-91,100	-0,140	-0,029
-569,890	0,498	-0,063	-0,033
-568,875	-200,000	0,011	-0,085
-567,861	-61,442	-0,025	0,008
-566,846	541,665	-0,021	-0,036
-565,831	36,005	0,037	-0,024
-564,817	-44,731	-0,108	-0,039
-563,802	800,000	0,028	-0,064
-562,788	-196,156	-0,024	0,000
-561,773	800,000	0,022	0,060
-560,758	-74,777	-0,177	-0,046
-559,744	219,778	-0,037	-0,044
-558,729	-200,000	-0,017	-0,059
-557,715	92,041	-0,087	-0,072
-556,700	2,443	-0,074	-0,039
-555,685	-56,699	0,116	-0,037
-554,671	-38,148	-0,072	0,028
-553,656	186,017	-0,035	0,038
-552,642	565,702	-0,040	-0,071
-551,627	-29,174	-0,031	-0,013
-550,612	-105,690	-0,035	0,006
-549,598	10,441	0,076	0,042
-548,583	-53,606	-0,164	-0,055
-547,569	108,162	-0,100	0,087
-546,554	424,129	0,014	0,022
-545,539	744,347	-0,051	-0,101
-544,525	296,313	0,167	-0,224
-543,510	-200,000	0,002	0,072
-542,496	800,000	0,027	-0,071
-541,481	-200,000	0,003	-0,058
-540,466	186,195	0,036	-0,039
-539,452	800,000	0,054	0,162
-538,437	-46,626	0,041	-0,015
-537,423	800,000	0,027	0,079
-536,408	549,399	-0,080	0,141
-535,393	228,387	-0,054	-0,065
-534,379	-124,299	-0,114	0,013
-533,364	303,893	-0,040	0,054
-532,350	-200,000	0,012	-0,042
-531,335	-200,000	0,036	0,128
-530,321	800,000	-0,026	0,060
-529,306	-200,000	0,019	-0,079
-528,291	341,275	0,068	-0,097
-527,277	-54,505	-0,048	-0,016
-526,262	-200,000	-0,022	-0,081
-525,248	-200,000	0,030	-0,165
-524,233	-200,000	0,017	-0,087
-523,218	-61,878	0,084	-0,025
-522,204	-43,541	0,082	0,030
-521,189	-200,000	-0,011	-0,048
-520,175	158,384	-0,052	0,052
-519,160	800,000	-0,104	-0,212
-518,145	-141,401	0,069	-0,005
-517,131	-141,668	-0,098	-0,007
-516,116	351,562	-0,016	-0,024
-515,102	-200,000	-0,005	0,100
-514,087	-86,386	-0,135	-0,030
-513,072	800,000	0,040	0,125
-512,058	514,593	-0,068	0,116
-511,043	53,025	0,004	-0,003
-510,029	186,856	0,068	0,074
-509,014	762,874	-0,066	0,132
-507,999	171,296	-0,003	0,003
-506,985	196,618	0,072	0,080
-505,970	-16,815	-0,080	0,037
-504,956	800,000	0,028	-0,062
-503,941	-72,099	-0,090	-0,024
-502,926	-142,147	0,083	0,006
-501,912	145,904	0,039	0,038
-500,897	283,397	-0,007	0,009
-499,883	-200,000	0,001	-0,044
-498,868	-0,730	-0,068	-0,035
-497,853	-11,867	-0,169	0,080
-496,839	-200,000	-0,007	-0,058
-495,824	800,000	0,023	-0,067
-494,810	565,757	0,018	-0,032
-493,795	-200,000	0,001	-0,149
-492,781	-120,489	-0,068	-0,008
-491,766	-200,000	0,026	-0,085
-490,751	333,185	-0,035	-0,049
-489,737	144,115	0,030	0,030
-488,722	-35,041	0,122	0,048
-487,708	568,760	0,054	0,096
-486,693	-46,640	-0,114	0,040
-485,678	-200,000	-0,003	-0,073
-484,664	-200,000	-0,000	-0,033
-483,649	792,104	-0,075	-0,152
-482,635	50,838	-0,041	-0,028
-481,620	-22,619	0,007	0,003
-480,605	401,726	-0,040	0,061
-479,591	-81,666	0,072	0,017
-478,576	160,575	0,030	0,031
-477,562	337,017	-0,020	0,028
-476,547	3,229	-0,083	-0,044
-475,532	8,005	-0,125	-0,068
-474,518	-200,000	0,145	-0,000
-473,503	800,000	-0,036	0,113
-472,489	-106,446	-0,067	0,011
-471,474	0,823	0,073	-0,038
-470,459	-193,031	0,069	-0,000
-469,445	89,779	-0,038	-0,031
-468,430	-111,914	-0,210	0,031
-467,416	403,034	0,019	-0,029
-466,401	-72,805	-0,057	0,015
-465,386	-87,693	0,078	0,017
-464,372	-76,484	0,074	0,019
-463,357	-200,000	0,004	-0,078
-462,343	-200,000	0,008	0,029
-461,328	-123,784	0,132	0,015
-460,313	-29,025	0,089	0,037
-459,299	128,519	0,077	0,071
-458,284	-113,846	0,113	0,016
-457,270	-200,000	-0,013	0,090
-456,255	-94,221	0,111	-0,022
-455,241	7,807	-0,039	0,021
-454,226	484,811	-0,027	0,044
-453,211	169,069	0,096	-0,100
-452,197	800,000	0,029	0,065
-451,182	800,000	0,043	-0,104
-450,168	-200,000	-0,015	0,158
-449,153	-200,000	-0,013	-0,099
-448,138	800,000	-0,071	-0,174
-447,124	244,934	0,033	-0,040
-446,109	82,789	-0,029	-0,023
-445,095	800,000	0,005	-0,011
-444,080	800,000	0,062	-0,130
-443,065	800,000	0,060	-0,164
-442,051	-200,000	-0,013	-0,132
-441,036	86,326	0,029	0,023
-440,022	-7,075	0,073	0,036
-439,007	366,912	-0,038	0,055
-437,992	-91,450	0,079	-0,016
-436,978	-200,000	0,001	0,131
-435,963	469,368	0,030	-0,050
-434,949	110,263	0,088	0,077
-433,934	26,348	-0,014	0,009
-432,919	-71,419	-0,160	-0,043
-431,905	800,000	0,011	-0,028
-430,890	-151,135	0,137	0,007
-429,876	-106,691	0,113	0,018
-428,861	69,397	0,129	0,096
-427,846	12,332	-0,144	0,081
-426,832	-68,453	0,022	-0,006
-425,817	-200,000	0,013	0,042
-424,803	-89,987	-0,050	-0,010
-423,788	-200,000	0,042	0,139
-422,773	-200,000	0,013	0,094
-421,759	-53,653	-0,064	-0,021
-420,744	-101,384	0,050	0,009
-419,730	800,000	0,015	-0,035
-418,715	-200,000	-0,003	-0,042
-417,701	751,881	-0,032	0,063
-416,686	98,289	0,086	-0,072
-415,671	-96,919	0,104	0,020
-414,657	800,000	-0,033	-0,077
-413,642	800,000	-0,033	-0,098
-412,628	-200,000	0,030	0,138
-411,613	800,000	-0,048	-0,144
-410,598	-200,000	0,016	-0,086
-409,584	-200,000	0,023	-0,121
-408,569	-200,000	0,022	0,139
-407,555	-200,000	-0,025	0,095
-406,540	7,334	0,015	0,008
-405,525	181,356	0,079	-0,085
-404,511	403,900	0,027	0,041
-403,496	-55,862	-0,058	-0,019
-402,482	207,990	0,093	0,105
-401,467	327,419	0,061	0,085
-400,452	663,137	0,030	0,057
-399,438	-9,423	0,039	0,019
-398,423	-200,000	0,021	0,157
-397,409	-26,196	0,077	0,033
-396,394	-139,166	-0,082	-0,006
-395,379	-84,875	0,180	0,041
-394,365	12,705	-0,076	0,042
-393,350	-94,839	-0,020	-0,004
-392,336	-17,866	0,078	0,036
-391,321	169,683	-0,065	-0,068
-390,306	-119,189	-0,055	0,007
-389,292	800,000	0,004	0,012
-388,277	-80,667	0,147	0,035
-387,263	294,716	0,073	0,098
-386,248	-28,096	0,040	-0,017
-385,233	-96,954	0,095	0,018
-384,219	712,377	-0,073	-0,141
-383,204	-42,178	0,008	-0,003
-382,190	-17,800	-0,046	0,021
-381,175	139,264	0,036	0,035
-380,160	20,096	0,051	0,030
-379,146	9,241	0,117	-0,064
-378,131	-62,954	-0,026	0,008
-377,117	-200,000	0,013	0,124
-376,102	418,979	-0,038	-0,059
-375,088	800,000	-0,057	0,126
-374,073	21,778	0,139	0,082
-373,058	238,016	-0,054	0,066
-372,044	800,000	-0,043	0,114
-371,029	60,120	0,124	0,089
-370,015	800,000	0,059	0,151
-369,000	-44,839	-0,151	-0,054
-367,985	649,547	0,041	-0,076
-366,971	-200,000	-0,003	-0,073
-365,956	-200,000	-0,038	-0,159
-364,942	-196,925	0,140	0,001
-363,927	714,309	-0,040	-0,077
-362,912	10,771	0,060	0,033
-361,898	-178,102	-0,051	-0,001
-360,883	-100,990	0,116	-0,020
-359,869	577,237	-0,023	-0,042
-358,854	800,000	0,013	-0,038
-357,839	289,353	0,029	-0,039
-356,825	40,965	0,044	-0,029
-355,810	444,286	-0,041	0,065
-354,796	-171,122	-0,045	0,001
-353,781	724,406	0,038	0,073
-352,766	-52,896	-0,065	-0,022
-351,752	61,220	0,027	-0,019
-350,737	-19,367	0,138	-0,062
-349,723	166,700	0,107	-0,111
-348,708	13,345	0,137	-0,077
-347,693	-60,451	-0,016	0,005
-346,679	-58,590	-0,065	0,020
-345,664	-160,917	-0,245	0,009
-344,650	283,536	0,046	0,061
-343,635	-200,000	0,023	0,074
-342,620	-22,794	0,090	0,039
-341,606	800,000	-0,004	-0,013
-340,591	-88,878	-0,155	0,033
-339,577	-97,620	-0,084	0,016
-338,562	-200,000	0,020	-0,140
-337,548	566,738	0,045	-0,080
-336,533	-196,512	0,044	0,000
-335,518	-200,000	-0,011	0,067
-334,504	800,000	0,036	0,084
-333,489	-18,751	0,076	0,034
-332,475	-86,533	0,107	0,024
-331,460	-101,862	0,124	0,022
-330,445	-187,082	0,077	0,001
-329,431	5,726	0,176	0,094
-328,416	34,238	0,166	0,105
-327,402	800,000	-0,036	-0,111
-326,387	-200,000	0,020	0,116
-325,372	-200,000	0,010	0,047
-324,358	-200,000	0,003	-0,102
-323,343	57,736	0,035	-0,025
-322,329	-3,210	0,062	-0,031
-321,314	-91,122	-0,074	-0,015
-320,299	288,071	-0,059	-0,078
-319,285	-200,000	-0,035	0,144
-318,270	-126,438	-0,112	0,012
-317,256	275,655	0,041	0,053
-316,241	101,993	0,016	0,013
-315,226	-26,111	-0,112	-0,047
-314,212	-200,000	-0,000	0,004
-313,197	16,458	0,102	-0,058
-312,183	-111,260	-0,088	-0,013
-311,168	-45,886	-0,157	-0,056
-310,153	800,000	-0,019	-0,061
-309,139	-116,667	-0,143	-0,019
-308,124	46,346	-0,062	0,041
-307,110	323,038	-0,118	0,163
-306,095	189,768	-0,059	0,064
-305,080	-13,221	0,047	0,022
-304,066	111,062	-0,040	-0,035
-303,051	-179,221	-0,097	0,002
-302,037	65,475	-0,045	-0,033
-301,022	552,125	0,059	0,104
-300,008	-100,426	0,130	-0,023
-298,993	-200,000	-0,031	-0,118
-297,978	444,509	-0,011	0,017
-296,964	-143,317	-0,099	-0,007
-295,949	326,828	0,039	0,054
-294,935	-115,364	0,022	-0,003
-293,920	211,577	-0,073	-0,083
-292,905	363,102	0,027	-0,039
-291,891	-97,474	0,044	-0,008
-290,876	-77,612	-0,097	-0,024
-289,862	335,231	-0,062	-0,088
-288,847	173,113	-0,055	-0,058
-287,832	39,224	-0,052	0,034
-286,818	800,000	0,027	-0,058
-285,803	100,362	-0,072	0,060
-284,789	84,716	0,058	0,046
-283,774	82,999	0,041	0,033
-282,759	116,456	-0,057	0,050
-281,745	-19,361	0,064	0,029
-280,730	-200,000	-0,038	-0,134
-279,716	367,908	0,029	-0,043
-278,701	-200,000	0,045	0,165
-277,686	18,861	0,170	0,098
-276,672	133,201	-0,123	0,115
-275,657	-200,000	0,005	-0,043
-274,643	800,000	-0,022	0,052
-273,628	-200,000	0,024	0,140
-272,613	23,513	0,095	-0,057
-271,599	-119,325	-0,068	-0,008
-270,584	-70,762	0,098	0,026
-269,570	-200,000	-0,013	0,103
-268,555	15,851	0,108	0,062
-267,540	0,975	-0,023	0,012
-266,526	-128,449	-0,073	-0,007
-265,511	-200,000	0,010	-0,110
-264,497	567,328	0,060	0,106
-263,482	-62,717	0,142	-0,042
-262,467	-200,000	0,007	0,053
-261,453	-200,000	0,007	0,119
-260,438	800,000	-0,041	-0,109
-259,424	-200,000	0,018	-0,110
-258,409	800,000	0,020	0,042
-257,395	663,120	0,004	-0,008
-256,380	-39,249	0,083	0,031
-255,365	-32,555	0,163	-0,065
-254,351	800,000	-0,023	0,071
-253,336	-23,877	-0,021	-0,009
-252,322	-200,000	-0,006	0,050
-251,307	80,263	0,028	0,022
-250,292	22,127	-0,051	0,030
-249,278	-108,714	0,109	-0,017
-248,263	-200,000	0,014	-0,251
-247,249	-66,820	-0,131	-0,037
-246,234	126,678	0,162	-0,148
-245,219	45,108	-0,128	0,085
-244,205	223,950	0,113	-0,132
-243,190	674,884	0,077	0,145
-242,176	39,050	0,265	0,171
-241,161	-168,460	-0,036	-0,001
-240,146	-200,000	0,023	0,097
-239,132	237,699	0,014	0,017
-238,117	-11,697	-0,053	0,025
-237,103	-10,653	-0,106	-0,050
-236,088	331,014	0,075	0,105
-235,073	364,956	-0,141	0,205
-234,059	464,505	0,027	-0,044
-233,044	800,000	0,021	0,051
-232,030	800,000	-0,024	0,052
-231,015	-90,870	-0,044	0,009
-230,000	58,300	-0,040	-0,028
-228,986	-200,000	-0,011	-0,078
-227,971	800,000	-0,039	0,106
-226,957	-78,565	0,019	-0,005
-225,942	-200,000	-0,012	0,098
-224,927	800,000	0,027	-0,075
-223,913	112,850	-0,104	-0,091
-222,898	382,687	0,065	-0,096
-221,884	-141,384	-0,066	0,005
-220,869	-112,771	-0,055	-0,008
-219,855	-83,835	0,100	0,023
-218,840	-79,272	0,091	0,022
-217,825	-55,746	0,132	0,042
-216,811	800,000	0,042	-0,088
-215,796	577,043	0,040	-0,071
-214,782	800,000	0,032	0,073
-213,767	103,429	0,095	-0,081
-212,752	-200,000	0,001	-0,040
-211,738	-200,000	-0,003	0,155
-210,723	-111,254	-0,099	-0,014
-209,709	348,251	0,065	-0,092
-208,694	43,334	-0,126	-0,083
-207,679	-86,298	0,101	0,022
-206,665	-23,669	0,108	0,047
-205,650	-14,896	-0,015	-0,007
-204,636	234,917	0,088	-0,105
-203,621	217,304	-0,039	-0,045
-202,606	-20,070	0,085	0,038
-201,592	-43,308	-0,117	-0,043
-200,577	-67,373	-0,098	0,028
-199,563	141,160	0,214	0,205
-198,548	800,000	-0,045	0,132
-197,533	-112,162	-0,132	-0,019
-196,519	324,136	-0,110	0,152
-195,504	-200,000	0,025	0,142
-194,490	60,823	0,089	-0,063
-193,475	800,000	-0,048	0,117
-192,460	643,003	0,019	0,035
-191,446	800,000	0,040	0,081
-190,431	129,417	0,056	-0,052
-189,417	208,681	-0,062	-0,070
-188,402	-93,235	-0,103	0,020
-187,387	-143,979	0,097	-0,006
-186,373	43,009	0,040	-0,026
-185,358	343,588	0,048	-0,068
-184,344	-200,000	0,008	-0,053
-183,329	800,000	0,026	0,068
-182,315	-200,000	-0,018	0,152
-181,300	800,000	-0,015	-0,035
-180,285	-124,396	0,014	-0,002
-179,271	13,513	-0,085	0,048
-178,256	-23,669	0,103	0,044
-177,242	-46,048	0,082	-0,029
-176,227	290,257	-0,073	0,095
-175,212	800,000	0,042	0,084
-174,198	80,910	-0,065	-0,050
-173,183	-200,000	0,007	-0,128
-172,169	53,830	-0,074	-0,051
-171,154	-61,859	0,096	-0,029
-170,139	-64,699	0,107	-0,031
-169,125	-140,618	-0,016	0,001
-168,110	800,000	0,018	-0,040
-167,096	651,329	-0,034	0,063
-166,081	109,468	-0,005	0,005
-165,066	800,000	0,035	-0,077
-164,052	230,517	0,081	-0,095
-163,037	800,000	-0,047	-0,103
-162,023	383,395	-0,036	0,054
-161,008	278,596	0,008	-0,010
-159,993	-200,000	0,010	0,058
-158,979	-200,000	-0,002	-0,028
-157,964	83,834	-0,069	-0,054
-156,950	26,431	-0,018	-0,011
-155,935	-200,000	0,010	0,056
-154,920	278,671	0,066	0,085
-153,906	-96,155	-0,008	0,002
-152,891	32,950	0,061	-0,038
-151,877	-189,671	-0,081	-0,001
-150,862	-143,557	-0,155	-0,010
-149,847	800,000	-0,037	0,099
-148,833	264,429	0,001	0,002
-147,818	-118,132	-0,037	-0,005
-146,804	-200,000	-0,002	-0,046
-145,789	-114,483	0,056	0,008
-144,775	555,250	0,085	-0,148
-143,760	-111,237	0,097	0,014
-142,745	-200,000	-0,095	0,000
-141,731	800,000	0,064	0,202
-140,716	800,000	0,051	-0,122
-139,702	13,290	0,135	0,075
-138,687	-47,592	0,120	-0,042
-137,672	457,109	-0,022	-0,036
-136,658	150,720	-0,015	-0,015
-135,643	-200,000	0,012	0,154
-134,629	-200,000	0,009	0,031
-133,614	800,000	-0,011	-0,023
-132,599	-200,000	0,011	0,050
-131,585	37,995	-0,096	0,061
-130,570	-200,000	-0,003	-0,019
-129,556	358,905	0,084	-0,121
-128,541	-131,338	-0,080	-0,008
-127,526	714,330	0,069	-0,133
-126,512	-200,000	0,154	0,000
-125,497	-133,481	0,077	0,007
-124,483	-164,094	0,102	-0,003
-123,468	-200,000	0,006	-0,084
-122,453	800,000	0,064	-0,165
-121,439	-200,000	0,006	-0,025
-120,424	224,570	0,039	0,045
-119,410	800,000	0,024	-0,059
-118,395	-200,000	-0,012	0,045
-117,380	-153,755	0,073	0,004
-116,366	2,359	-0,063	0,033
-115,351	-200,000	0,014	-0,048
-114,337	-54,146	-0,051	0,017
-113,322	491,827	0,047	-0,079
-112,307	-39,986	0,122	0,046
-111,293	-119,054	-0,106	0,013
-110,278	44,313	-0,110	0,072
-109,264	495,979	0,040	0,066
-108,249	56,973	0,057	0,040
-107,234	340,476	-0,077	-0,108
-106,220	219,944	-0,107	-0,124
-105,205	800,000	0,030	-0,090
-104,191	26,725	0,055	0,033
-103,176	-147,900	0,154	0,009
-102,162	-59,972	0,030	-0,009
-101,147	72,448	0,128	-0,096
-100,132	-200,000	0,006	-0,055
-99,118	373,645	0,022	-0,032
-98,103	22,389	0,069	-0,040
-97,089	800,000	0,049	-0,146
-96,074	271,531	0,113	0,144
-95,059	-200,000	-0,013	0,064
-94,045	-10,801	0,050	-0,024
-93,030	-38,969	0,009	-0,003
-92,016	800,000	-0,039	-0,099
-91,001	135,197	0,019	0,018
-89,986	-200,000	-0,023	0,092
-88,972	449,307	-0,023	0,036
-87,957	651,440	0,011	0,020
-86,943	51,565	-0,034	0,023
-85,928	-170,718	0,013	-0,000
-84,913	800,000	0,046	0,098
-83,899	-67,479	-0,086	0,024
-82,884	185,709	0,051	0,054
-81,870	190,467	0,110	0,119
-80,855	-153,124	0,261	-0,013
-79,840	91,076	0,050	-0,040
-78,826	157,372	0,031	-0,031
-77,811	-200,000	0,016	0,100
-76,797	148,705	-0,075	-0,072
-75,782	-2,701	0,109	0,055
-74,767	198,736	0,090	-0,099
-73,753	800,000	0,065	0,137
-72,738	461,986	0,047	-0,075
-71,724	382,353	0,059	0,087
-70,709	-200,000	0,040	-0,170
-69,694	92,825	-0,023	0,018
-68,680	-200,000	0,002	-0,089
-67,665	-200,000	0,029	-0,100
-66,651	-144,735	0,018	0,001
-65,636	253,020	-0,015	-0,019
-64,622	-200,000	-0,013	0,085
-63,607	32,707	-0,131	0,081
-62,592	42,856	-0,084	-0,055
-61,578	331,829	0,131	0,182
-60,563	-111,259	0,145	0,021
-59,549	-76,605	0,089	-0,022
-58,534	17,364	-2,053	-1,168
-57,519	800,000	-0,308	-0,886
-56,505	-200,000	-1,391	-4,942
-55,490	29,855	0,819	0,500
-54,476	800,000	5,328	12,259
-53,461	-200,000	17,521	285,784
-52,446	800,000	722,484	2223,639
-51,432	538,634	1635,549	2803,029
-50,417	111,188	1627,920	1407,875
-49,403	74,458	1284,555	968,420
-48,388	32,449	1028,368	636,368
-47,373	20,074	990,253	571,938
-46,359	18,568	978,617	560,251
-45,344	16,088	974,732	549,877
-44,330	16,224	973,257	549,469
-43,315	15,851	971,433	547,196
-42,300	15,764	970,409	546,315
-41,286	15,800	969,324	545,798
-40,271	15,783	968,407	545,204
-39,257	15,769	967,556	544,660
-38,242	15,818	966,516	544,211
-37,227	15,805	965,827	543,758
-36,213	15,743	965,125	543,141
-35,198	15,722	964,136	542,496
-34,184	15,783	963,490	542,307
-33,169	15,739	962,473	541,571
-32,154	15,795	961,460	541,160
-31,140	15,771	960,514	540,528
-30,125	15,795	959,895	540,239
-29,111	15,792	959,021	539,715
-28,096	15,838	958,356	539,468
-27,082	15,779	957,724	538,900
-26,067	15,862	956,863	538,662
-25,052	15,771	956,151	537,946
-24,038	15,782	955,519	537,605
-23,023	15,757	954,818	537,107
-22,009	15,809	954,243	536,930
-20,994	15,830	953,546	536,585
-19,979	15,776	952,880	536,016
-18,965	15,758	952,328	535,627
-17,950	15,776	951,676	535,294
-16,936	15,723	951,065	534,761
-15,921	15,737	950,394	534,408
-14,906	15,673	949,539	533,701
-13,892	15,683	949,067	533,446
-12,877	15,647	948,558	533,024
-11,863	15,591	947,936	532,475
-10,848	15,662	947,257	532,298
-9,833	15,800	946,690	532,398
-8,819	15,753	946,131	531,914
-7,804	15,698	945,532	531,379
-6,790	15,665	944,872	530,885
-5,775	15,651	944,398	530,551
-4,760	15,702	943,773	530,341
-3,746	15,712	943,077	529,962
-2,731	15,553	942,451	529,085
-1,717	15,471	941,886	528,486
-0,702	15,493	941,261	528,185
0,313	15,323	940,529	528,033
1,327	18,627	938,625	537,343
2,342	27,889	792,817	478,361
3,356	24,574	446,535	264,472
4,371	-4,939	296,253	145,889
5,386	-8,794	277,851	133,151
6,400	-10,204	272,064	129,053
7,415	-10,376	269,880	127,847
8,429	-10,387	268,431	127,138
9,444	-10,337	267,634	126,795
10,459	-10,474	267,056	126,386
11,473	-10,528	266,450	126,038
12,488	-10,598	265,865	125,687
13,502	-10,802	265,268	125,208
14,517	-10,727	264,845	125,065
15,531	-10,706	264,473	124,898
16,546	-10,595	263,996	124,761
17,561	-10,679	263,881	124,619
18,575	-10,704	263,421	124,369
19,590	-10,684	262,914	124,137
20,604	-10,734	262,864	124,057
21,619	-10,606	262,279	123,885
22,634	-10,568	262,035	123,793
23,648	-10,737	261,766	123,503
24,663	-10,793	261,539	123,334
25,677	-10,632	261,219	123,317
26,692	-10,759	261,019	123,098
27,707	-10,710	260,543	122,906
28,721	-10,785	260,480	122,799
29,736	-10,783	260,205	122,660
30,750	-10,871	259,921	122,437
31,765	-10,775	259,625	122,371
32,780	-10,816	259,497	122,263
33,794	-10,716	259,070	122,141
34,809	-10,711	258,925	122,065
35,823	-10,832	258,559	121,776
36,838	-10,857	258,429	121,681
37,853	-10,768	258,371	121,721
38,867	-10,835	257,953	121,454
39,882	-10,693	257,800	121,497
40,896	-10,814	257,546	121,260
41,911	-11,160	257,494	120,920
42,926	-10,765	256,942	120,996
43,940	-10,976	256,896	120,779
44,955	-11,068	256,580	120,539
45,969	-11,168	256,422	120,367
46,984	-11,305	256,197	120,131
47,999	-11,485	255,823	119,788
49,013	-11,670	255,417	119,426
50,028	-11,878	255,321	119,189
51,042	-11,846	254,985	119,049
52,057	-11,978	254,818	118,846
53,071	-11,665	254,684	119,044
54,086	-11,622	254,352	118,916
55,101	-11,553	254,322	118,952
56,115	-11,233	254,225	119,173
57,130	-10,934	254,167	119,394
58,144	-10,576	254,011	119,621
59,159	-10,553	253,707	119,487
60,174	-10,567	253,449	119,342
61,188	-10,634	253,081	119,100
62,203	-10,709	253,140	119,053
63,217	-10,721	252,851	118,896
64,232	-10,765	252,533	118,697
65,247	-10,575	252,450	118,812
66,261	-10,634	252,170	118,619
67,276	-10,916	251,814	118,199
68,290	-11,275	251,530	117,747
69,305	-11,402	251,542	117,633
70,320	-11,173	251,114	117,619
71,334	-11,057	251,042	117,674
72,349	-10,792	250,929	117,837
73,363	-10,412	250,654	118,022
74,378	-10,570	250,541	117,823
75,393	-10,860	250,358	117,479
76,407	-10,751	250,137	117,458
77,422	-10,871	249,956	117,260
78,436	-10,680	249,611	117,250
79,451	-10,797	249,454	117,066
80,466	-10,953	249,293	116,849
81,480	-10,983	248,879	116,619
82,495	-11,081	248,714	116,448
83,509	-11,182	248,674	116,333
84,524	-11,013	248,346	116,313
85,539	-11,396	248,069	115,849
86,553	-11,359	247,905	115,793
87,568	-11,089	247,733	115,930
88,582	-11,093	247,511	115,812
89,597	-11,115	247,441	115,751
90,611	-10,966	247,287	115,794
91,626	-10,960	247,129	115,715
92,641	-10,887	246,951	115,682
93,655	-10,846	246,700	115,588
94,670	-11,024	246,530	115,349
95,684	-10,886	246,355	115,373
96,699	-11,032	246,206	115,170
97,714	-11,047	245,852	114,982
98,728	-11,083	245,791	114,914
99,743	-11,271	245,460	114,591
100,757	-11,276	245,338	114,520
101,772	-11,172	245,089	114,481
102,787	-11,205	245,060	114,429
103,801	-11,033	244,708	114,398
104,816	-11,152	244,731	114,299
105,830	-10,910	244,524	114,394
106,845	-10,834	244,408	114,392
107,860	-10,853	244,177	114,258
108,874	-10,826	243,845	114,114
109,889	-11,031	243,700	113,867
110,903	-11,035	243,439	113,732
111,918	-11,181	243,262	113,518
112,933	-11,132	243,162	113,502
113,947	-10,824	243,108	113,721
114,962	-10,744	242,927	113,692
115,976	-10,812	242,725	113,532
116,991	-10,951	242,601	113,349
118,006	-10,997	242,259	113,141
119,020	-10,766	242,228	113,306
120,035	-10,631	242,028	113,313
121,049	-10,769	241,848	113,105
122,064	-10,718	241,626	113,034
123,079	-11,002	241,390	112,680
124,093	-11,065	241,194	112,527
125,108	-11,243	240,943	112,255
126,122	-11,313	240,805	112,123
127,137	-11,356	240,514	111,943
128,151	-11,418	240,449	111,852
129,166	-11,216	240,357	111,964
130,181	-11,242	240,062	111,795
131,195	-11,271	239,839	111,658
132,210	-11,222	239,798	111,669
133,224	-11,059	239,720	111,755
134,239	-11,046	239,541	111,672
135,254	-10,808	239,236	111,713
136,268	-11,032	238,973	111,399
137,283	-11,158	238,654	111,139
138,297	-11,488	238,527	110,803
139,312	-11,365	238,445	110,854
140,327	-10,931	238,219	111,089
141,341	-10,656	238,253	111,317
142,356	-10,417	238,173	111,463
143,370	-10,564	238,003	111,254
144,385	-10,511	237,857	111,219
145,400	-10,446	237,678	111,178
146,414	-10,495	237,449	111,021
147,429	-10,509	237,339	110,948
148,443	-10,556	237,135	110,805
149,458	-10,627	237,037	110,693
150,473	-10,560	236,908	110,677
151,487	-10,591	236,553	110,476
152,502	-10,573	236,342	110,383
153,516	-10,476	236,247	110,405
154,531	-10,764	236,216	110,151
155,546	-10,736	236,014	110,070
156,560	-10,625	235,766	110,033
157,575	-10,883	235,455	109,672
158,589	-10,905	235,253	109,551
159,604	-10,262	235,151	110,004
160,619	-10,474	235,189	109,844
161,633	-10,329	235,021	109,870
162,648	-10,359	234,825	109,746
163,662	-10,611	234,681	109,469
164,677	-10,786	234,492	109,232
165,692	-10,651	234,380	109,277
166,706	-10,268	234,224	109,497
167,721	-10,182	233,964	109,435
168,735	-10,176	233,788	109,347
169,750	-10,543	233,696	109,005
170,764	-10,432	233,576	109,027
171,779	-10,425	233,449	108,963
172,794	-10,402	233,343	108,922
173,808	-10,570	233,172	108,700
174,823	-11,150	232,648	107,991
175,837	-11,452	232,506	107,678
176,852	-10,908	232,495	108,090
177,867	-10,329	232,422	108,501
178,881	-10,373	232,294	108,397
179,896	-10,489	232,266	108,283
180,910	-10,423	231,958	108,182
181,925	-10,519	231,835	108,039
182,940	-10,361	231,640	108,063
183,954	-10,207	231,523	108,119
184,969	-10,389	231,471	107,942
185,983	-10,316	231,301	107,911
186,998	-10,409	231,120	107,743
188,013	-10,254	230,852	107,730
189,027	-10,155	230,755	107,752
190,042	-10,376	230,624	107,509
191,056	-10,188	230,593	107,632
192,071	-10,146	230,151	107,448
193,086	-10,450	230,259	107,253
194,100	-10,332	229,974	107,202
195,115	-10,407	229,592	106,957
196,129	-11,079	229,594	106,428
197,144	-5,907	231,463	111,314
198,159	0,286	233,012	116,891
199,173	3,099	233,832	119,492
200,188	3,337	233,771	119,637
201,202	3,371	233,579	119,554
202,217	3,705	233,495	119,761
203,232	3,960	233,423	119,912
204,246	3,992	233,160	119,792
205,261	4,018	233,094	119,768
206,275	4,008	233,099	119,751
207,290	4,146	232,953	119,773
208,304	4,176	232,797	119,705
209,319	4,223	232,458	119,557
210,334	4,046	232,304	119,330
211,348	3,794	231,976	118,956
212,363	3,671	231,771	118,745
213,377	3,290	231,690	118,398
214,392	3,259	231,451	118,241
215,407	3,477	231,406	118,376
216,421	3,611	231,157	118,342
217,436	3,483	230,949	118,126
218,450	3,199	230,856	117,849
219,465	3,141	230,617	117,672
220,480	3,078	230,509	117,558
221,494	3,178	230,389	117,563
222,509	3,353	230,227	117,604
223,523	3,517	230,050	117,629
224,538	3,410	229,829	117,424
225,553	3,256	229,731	117,245
226,567	3,645	229,679	117,506
227,582	3,540	229,664	117,408
228,596	3,664	229,631	117,475
229,611	3,498	229,234	117,135
230,626	3,211	229,047	116,810
231,640	3,170	228,940	116,714
232,655	3,541	228,847	116,938
233,669	3,836	228,889	117,174
234,684	3,798	228,737	117,057
235,699	3,724	228,501	116,870
236,713	3,568	228,213	116,593
237,728	3,404	228,085	116,393
238,742	3,232	227,867	116,141
239,757	3,293	227,799	116,142
240,772	3,367	227,469	116,019
241,786	3,266	227,369	115,882
242,801	3,449	227,522	116,088
243,815	3,721	227,259	116,149
244,830	3,782	227,130	116,119
245,844	3,386	226,905	115,695
246,859	3,489	226,798	115,707
247,874	3,387	226,786	115,614
248,888	3,673	226,488	115,667
249,903	3,422	226,456	115,452
250,917	3,328	226,156	115,218
251,932	3,570	225,958	115,289
252,947	3,207	225,894	114,973
253,961	3,291	225,669	114,911
254,976	3,293	225,437	114,784
255,990	3,255	225,614	114,835
257,005	3,631	225,292	114,943
258,020	3,530	225,292	114,857
259,034	3,676	225,161	114,889
260,049	3,657	224,867	114,715
261,063	3,442	224,754	114,486
262,078	3,745	224,624	114,636
263,093	3,775	224,579	114,625
264,107	3,482	224,450	114,331
265,122	3,621	224,174	114,284
266,136	3,872	224,025	114,384
267,151	3,666	223,815	114,114
268,166	3,435	223,764	113,906
269,180	3,104	223,622	113,577
270,195	3,364	223,335	113,614
271,209	3,223	223,242	113,452
272,224	3,432	223,123	113,537
273,239	3,263	222,993	113,335
274,253	3,278	222,773	113,225
275,268	3,197	222,505	113,019
276,282	3,101	222,367	112,868
277,297	3,051	222,334	112,804
278,312	3,033	222,295	112,761
279,326	3,115	222,216	112,771
280,341	3,128	222,077	112,700
281,355	3,306	221,949	112,756
282,370	3,343	221,645	112,619
283,384	3,163	221,490	112,397
284,399	3,010	221,250	112,154
285,414	3,192	221,036	112,169
286,428	3,397	221,087	112,335
287,443	3,557	221,011	112,403
288,457	3,539	220,878	112,312
289,472	3,329	220,634	112,025
290,487	3,052	220,309	111,647
291,501	2,679	220,301	111,361
292,516	2,836	220,100	111,364
293,530	2,965	219,990	111,392
294,545	3,111	219,855	111,421
295,560	3,111	219,857	111,412
296,574	3,429	219,767	111,587
297,589	3,189	219,590	111,313
298,603	3,651	219,425	111,556
299,618	3,554	219,182	111,352
300,633	3,346	219,218	111,209
301,647	3,695	219,055	111,369
302,662	3,579	218,926	111,210
303,676	3,496	218,929	111,141
304,691	3,536	218,596	110,991
305,706	3,653	218,432	110,983
306,720	3,580	218,402	110,905
307,735	3,238	218,260	110,575
308,749	3,316	217,912	110,446
309,764	3,552	217,811	110,555
310,779	3,569	217,706	110,504
311,793	3,442	217,687	110,393
312,808	3,452	217,440	110,265
313,822	3,575	217,298	110,271
314,837	3,300	217,163	109,996
315,852	3,171	216,945	109,783
316,866	3,227	216,816	109,748
317,881	3,653	216,800	110,035
318,895	3,597	216,548	109,858
319,910	3,485	216,319	109,652
320,925	3,084	216,215	109,303
321,939	2,698	216,077	108,947
322,954	2,984	215,995	109,100
323,968	3,606	216,052	109,563
324,983	3,531	216,023	109,486
325,997	3,475	215,759	109,302
327,012	3,391	215,565	109,134
328,027	3,304	215,461	109,010
329,041	3,687	215,376	109,230
330,056	3,834	215,290	109,281
331,070	3,605	214,975	108,948
332,085	3,238	214,713	108,546
333,100	3,287	214,664	108,546
334,114	3,378	214,481	108,508
335,129	3,454	214,329	108,476
336,143	3,317	214,242	108,325
337,158	3,199	214,268	108,245
338,173	3,246	214,117	108,192
339,187	2,994	213,912	107,901
340,202	3,014	213,719	107,808
341,216	3,178	213,523	107,815
342,231	3,270	213,321	107,769
343,246	3,124	213,222	107,606
344,260	3,388	213,125	107,733
345,275	3,406	212,997	107,671
346,289	3,530	213,048	107,775
347,304	3,631	212,862	107,742
348,319	3,471	212,637	107,506
349,333	3,431	212,451	107,375
350,348	3,241	212,467	107,240
351,362	3,422	212,356	107,301
352,377	3,534	212,226	107,304
353,392	3,447	212,044	107,142
354,406	3,422	211,968	107,077
355,421	196,314	1339,709	1420,591
356,435	156,866	1477,094	1420,578
