DTS Sentinel unit serial number:	SN410029Multiplexer serial number:	ORYXHardware model number:	OX2-SRSoftware version number:	ORYX F/W v4,00 Oryx Data Collector v3.7.2.0data status	okinstallation	B6 Nyhavnadifferential loss correction	single-endedforward channel	channel 2reverse channel	N/Adate	2023/12/10time	16:30:08forward acquisition time	300,00reverse acquisition time	0,00gamma	499,1914k internal	0,3123k external	0,3123temperature offset calibration	1,0000default loss term (dB/km)	0,3820temperature slope calibration	1,0000multiplexer offset coefficient	1,0000multiplexer slope coefficient	1,0000fibre end	0,00T internal ref (°C)	22,37T ext. ref 1 (°C)	6,14T ext. ref 2 (°C)	6,16length (m)	temperature (°C)	Stokes	anti-Stokes-744,400	-200,000	0,013	-0,151
-743,385	-37,756	-0,170	0,067
-742,371	174,063	0,072	0,077
-741,356	-133,282	-0,296	-0,027
-740,342	-200,000	0,001	-0,121
-739,327	-48,348	-0,278	0,099
-738,312	409,200	0,059	-0,094
-737,298	-58,125	-0,246	0,079
-736,283	-156,822	0,112	0,005
-735,269	51,014	-0,250	0,176
-734,254	-200,000	0,032	-0,108
-733,239	-138,356	-0,348	-0,028
-732,225	-40,319	0,146	-0,056
-731,210	-179,294	0,114	0,002
-730,196	-200,000	-0,000	0,038
-729,181	435,171	-0,097	-0,158
-728,167	147,587	0,068	0,068
-727,152	-121,343	-0,025	0,003
-726,137	637,079	-0,067	-0,128
-725,123	44,972	-0,080	0,055
-724,108	7,385	-0,244	-0,135
-723,094	5,261	0,098	0,054
-722,079	480,014	-0,039	-0,065
-721,064	-200,000	-0,020	-0,158
-720,050	18,527	0,109	-0,065
-719,035	87,948	0,080	-0,066
-718,021	-147,901	-0,055	-0,003
-717,006	-200,000	-0,001	-0,032
-715,991	-200,000	-0,022	-0,160
-714,977	-58,114	-0,082	0,026
-713,962	800,000	0,025	0,053
-712,948	-200,000	0,017	0,068
-711,933	-141,018	0,054	-0,004
-710,918	167,080	-0,093	-0,098
-709,904	-29,946	-0,084	-0,036
-708,889	489,756	0,105	0,179
-707,875	-200,000	-0,017	-0,200
-706,860	209,148	-0,058	-0,068
-705,845	-115,598	0,006	-0,001
-704,831	-200,000	0,013	-0,060
-703,816	6,128	0,045	-0,025
-702,802	-2,413	-0,083	-0,043
-701,787	-200,000	-0,003	-0,087
-700,772	-32,856	0,132	-0,055
-699,758	-200,000	0,005	0,054
-698,743	391,339	-0,046	0,071
-697,729	-200,000	-0,008	0,031
-696,714	-200,000	-0,021	0,071
-695,699	242,766	-0,084	0,104
-694,685	26,392	0,035	-0,022
-693,670	-137,102	-0,113	-0,009
-692,656	-200,000	0,016	0,133
-691,641	-200,000	-0,004	-0,025
-690,627	-13,913	-0,092	-0,044
-689,612	379,338	-0,127	0,195
-688,597	-172,859	-0,072	-0,002
-687,583	-200,000	-0,015	-0,071
-686,568	539,462	-0,030	-0,054
-685,554	283,106	-0,011	-0,015
-684,539	-200,000	0,003	0,041
-683,524	17,357	0,058	-0,034
-682,510	154,534	0,054	0,055
-681,495	408,210	-0,030	-0,047
-680,481	-39,878	-0,134	0,052
-679,466	-200,000	-0,017	-0,109
-678,451	-94,363	0,191	0,038
-677,437	37,810	-0,036	-0,024
-676,422	-200,000	-0,021	-0,092
-675,408	321,350	-0,052	-0,074
-674,393	-200,000	0,019	-0,094
-673,378	141,075	-0,085	-0,083
-672,364	-132,821	-0,120	-0,011
-671,349	-200,000	-0,043	-0,150
-670,335	-80,453	-0,132	-0,033
-669,320	-200,000	0,000	0,062
-668,305	382,209	0,067	0,103
-667,291	-200,000	-0,010	-0,064
-666,276	-22,027	-0,113	0,051
-665,262	-200,000	0,020	-0,069
-664,247	111,016	-0,100	0,089
-663,232	-200,000	0,009	0,065
-662,218	-107,870	-0,055	0,009
-661,203	-200,000	-0,010	0,074
-660,189	-168,999	-0,147	0,004
-659,174	-172,836	0,087	-0,002
-658,159	219,898	-0,070	-0,083
-657,145	800,000	-0,039	-0,084
-656,130	800,000	0,009	0,028
-655,116	52,262	-0,116	0,082
-654,101	-21,582	0,084	0,038
-653,086	-67,065	-0,087	0,025
-652,072	-200,000	-0,034	0,157
-651,057	-200,000	0,016	0,054
-650,043	-200,000	-0,003	-0,028
-649,028	-159,954	0,087	-0,003
-648,014	-200,000	-0,010	-0,074
-646,999	-17,059	0,134	-0,063
-645,984	800,000	-0,022	0,070
-644,970	647,089	-0,059	-0,112
-643,955	3,064	-0,064	-0,034
-642,941	1,440	-0,104	-0,056
-641,926	-67,047	0,092	0,027
-640,911	1,848	0,121	0,064
-639,897	107,203	0,071	-0,062
-638,882	46,014	-0,050	0,034
-637,868	8,206	-0,086	-0,048
-636,853	51,226	-0,164	-0,115
-635,838	-200,000	0,008	-0,071
-634,824	490,294	-0,033	-0,056
-633,809	132,976	0,039	0,037
-632,795	800,000	-0,017	-0,042
-631,780	-35,645	-0,023	0,009
-630,765	-56,219	-0,049	0,016
-629,751	-88,927	0,148	-0,032
-628,736	42,661	-0,127	-0,085
-627,722	-12,817	0,029	-0,014
-626,707	-44,594	0,093	0,034
-625,692	-200,000	0,015	0,068
-624,678	-97,634	-0,057	-0,011
-623,663	664,644	-0,056	-0,107
-622,649	-200,000	0,002	-0,128
-621,634	177,204	-0,136	-0,148
-620,619	-94,325	-0,035	0,007
-619,605	719,315	0,067	0,133
-618,590	180,785	0,097	0,106
-617,576	-47,910	-0,085	-0,030
-616,561	-73,156	0,028	0,008
-615,546	109,281	-0,012	-0,010
-614,532	800,000	-0,022	-0,068
-613,517	-122,098	-0,037	-0,004
-612,503	18,486	0,118	0,070
-611,488	-54,085	0,073	-0,024
-610,474	-80,457	0,145	0,036
-609,459	203,591	0,082	0,094
-608,444	395,623	-0,053	0,082
-607,430	-200,000	-0,004	0,054
-606,415	720,971	-0,040	-0,080
-605,401	-13,766	0,092	-0,044
-604,386	66,485	-0,101	-0,076
-603,371	52,422	-0,146	0,103
-602,357	-115,011	-0,163	0,023
-601,342	-87,693	0,122	0,027
-600,328	-200,000	-0,001	-0,070
-599,313	449,654	0,060	0,099
-598,298	207,376	0,025	-0,030
-597,284	-200,000	-0,001	-0,102
-596,269	-200,000	-0,031	-0,135
-595,255	800,000	0,023	0,061
-594,240	-200,000	-0,007	-0,112
-593,225	279,931	0,072	-0,096
-592,211	-3,438	-0,090	-0,046
-591,196	27,094	0,059	0,037
-590,182	800,000	0,039	0,104
-589,167	251,167	0,090	-0,114
-588,152	327,542	0,007	-0,010
-587,138	-200,000	0,000	-0,189
-586,123	-31,806	-0,068	-0,028
-585,109	607,237	-0,038	-0,070
-584,094	-42,463	-0,128	0,048
-583,079	142,457	-0,049	-0,048
-582,065	-95,015	0,175	-0,035
-581,050	-200,000	0,034	0,116
-580,036	289,381	0,033	0,045
-579,021	72,459	0,081	-0,062
-578,006	800,000	-0,057	0,131
-576,992	91,252	-0,120	-0,099
-575,977	-140,274	0,135	0,010
-574,963	-80,644	0,059	-0,014
-573,948	36,662	-0,014	-0,009
-572,934	-200,000	-0,002	0,066
-571,919	104,629	-0,094	-0,082
-570,904	800,000	-0,038	-0,093
-569,890	-35,504	-0,048	-0,019
-568,875	-70,674	0,084	0,023
-567,861	17,601	0,117	0,069
-566,846	205,938	0,058	0,067
-565,831	-200,000	-0,001	0,026
-564,817	451,750	-0,091	-0,149
-563,802	29,061	0,103	-0,065
-562,788	117,705	-0,037	0,033
-561,773	800,000	0,010	0,021
-560,758	364,313	0,090	0,135
-559,744	293,430	-0,055	-0,074
-558,729	283,900	-0,029	0,039
-557,715	800,000	0,045	-0,093
-556,700	156,650	0,015	0,015
-555,685	-173,031	0,023	0,001
-554,671	-175,561	0,082	0,002
-553,656	328,339	0,040	0,057
-552,642	256,883	-0,107	0,136
-551,627	-78,868	0,028	-0,007
-550,612	-200,000	-0,025	0,166
-549,598	214,656	-0,049	-0,058
-548,583	-200,000	-0,007	-0,037
-547,569	800,000	-0,050	0,115
-546,554	273,326	0,060	0,079
-545,539	514,052	-0,079	-0,137
-544,525	49,992	0,059	-0,041
-543,510	0,381	-0,044	-0,023
-542,496	-200,000	-0,006	0,048
-541,481	61,640	-0,070	-0,051
-540,466	800,000	-0,013	-0,040
-539,452	294,948	-0,028	0,038
-538,437	189,534	0,049	0,055
-537,423	-200,000	0,040	0,136
-536,408	320,999	-0,097	-0,136
-535,393	-32,059	-0,140	-0,058
-534,379	87,079	0,084	-0,068
-533,364	536,126	-0,037	0,066
-532,350	372,882	-0,018	0,028
-531,335	-200,000	0,018	0,152
-530,321	-143,864	-0,110	-0,008
-529,306	-116,627	0,101	-0,014
-528,291	245,207	-0,018	-0,022
-527,277	325,569	-0,039	-0,055
-526,262	798,264	0,027	-0,056
-525,248	61,015	-0,053	-0,039
-524,233	160,730	0,020	-0,021
-523,218	627,823	-0,067	-0,125
-522,204	-200,000	-0,007	-0,052
-521,189	-53,502	0,049	-0,016
-520,175	-92,961	-0,098	-0,020
-519,160	-200,000	-0,002	-0,129
-518,145	-69,471	-0,053	-0,015
-517,131	6,434	-0,102	0,056
-516,116	-200,000	0,006	-0,047
-515,102	787,320	-0,002	0,004
-514,087	327,263	0,086	-0,122
-513,072	800,000	-0,035	-0,102
-512,058	800,000	0,005	-0,015
-511,043	-10,053	-0,112	-0,055
-510,029	82,105	-0,129	0,103
-509,014	-200,000	0,002	0,216
-507,999	797,171	0,012	-0,025
-506,985	800,000	-0,036	0,083
-505,970	-63,552	0,058	0,018
-504,956	800,000	-0,030	-0,092
-503,941	80,002	-0,005	-0,004
-502,926	-200,000	-0,018	-0,103
-501,912	-93,406	-0,112	0,023
-500,897	683,582	0,009	0,017
-499,883	102,798	-0,026	0,023
-498,868	800,000	0,055	-0,120
-497,853	-37,324	-0,106	0,042
-496,839	507,943	-0,095	0,164
-495,824	276,708	-0,025	-0,032
-494,810	-22,722	0,083	-0,037
-493,795	-200,000	-0,012	0,118
-492,781	-200,000	-0,002	0,062
-491,766	-8,253	-0,046	-0,023
-490,751	481,498	-0,080	-0,135
-489,737	800,000	-0,033	0,102
-488,722	600,388	0,047	0,087
-487,708	-56,445	0,079	0,026
-486,693	152,297	-0,056	-0,057
-485,678	-175,545	0,044	0,001
-484,664	92,864	0,047	0,039
-483,649	800,000	0,015	0,035
-482,635	367,190	-0,082	-0,122
-481,620	800,000	0,019	0,041
-480,605	-111,497	0,176	0,026
-479,591	355,449	0,050	-0,074
-478,576	206,857	0,033	0,038
-477,562	-68,805	0,082	-0,023
-476,547	172,586	-0,090	0,096
-475,532	215,423	0,015	-0,018
-474,518	100,006	0,126	0,108
-473,503	-200,000	0,012	0,069
-472,489	48,493	0,102	0,071
-471,474	-7,035	-0,123	0,061
-470,459	468,476	-0,023	-0,039
-469,445	543,924	-0,050	0,088
-468,430	-200,000	0,004	-0,057
-467,416	-62,401	0,045	0,014
-466,401	93,772	0,066	0,055
-465,386	-121,506	0,096	0,012
-464,372	295,337	-0,123	-0,166
-463,357	-68,517	-0,010	-0,003
-462,343	-64,513	-0,066	0,020
-461,328	277,554	-0,049	0,064
-460,313	-200,000	-0,024	-0,084
-459,299	-200,000	0,016	0,059
-458,284	-200,000	-0,035	0,124
-457,270	-43,206	-0,067	-0,025
-456,255	-157,236	-0,043	-0,002
-455,241	800,000	0,025	-0,071
-454,226	224,817	0,082	-0,098
-453,211	10,681	0,028	-0,016
-452,197	-32,341	0,109	0,045
-451,182	-200,000	-0,029	0,108
-450,168	-200,000	-0,015	0,122
-449,153	-200,000	-0,018	0,083
-448,138	612,343	-0,048	-0,089
-447,124	-157,265	-0,064	0,003
-446,109	18,191	0,074	0,043
-445,095	-148,836	-0,039	-0,002
-444,080	-68,981	0,104	0,029
-443,065	346,131	-0,033	0,047
-442,051	-200,000	0,002	-0,106
-441,036	102,430	-0,051	-0,044
-440,022	529,033	-0,041	-0,072
-439,007	-54,598	-0,094	0,031
-437,992	-57,898	-0,054	0,017
-436,978	89,102	0,074	0,061
-435,963	-56,928	-0,053	0,017
-434,949	72,854	-0,103	0,079
-433,934	-200,000	0,001	-0,035
-432,919	-13,450	-0,091	-0,044
-431,905	-71,144	-0,063	-0,017
-430,890	-52,901	0,039	0,013
-429,876	255,153	0,106	0,134
-428,861	-70,322	-0,028	-0,008
-427,846	-81,424	-0,130	0,031
-426,832	-20,208	-0,014	0,006
-425,817	204,550	-0,069	0,079
-424,803	800,000	0,058	-0,161
-423,788	-200,000	0,011	0,044
-422,773	796,375	-0,013	0,027
-421,759	500,057	0,051	0,087
-420,744	42,824	-0,167	-0,112
-419,730	329,409	-0,071	-0,101
-418,715	94,594	0,070	-0,058
-417,701	45,235	0,112	-0,076
-416,686	359,975	-0,010	-0,015
-415,671	-82,925	0,146	-0,034
-414,657	-200,000	0,000	0,020
-413,642	225,060	-0,081	0,096
-412,628	-59,116	-0,016	0,005
-411,613	187,727	-0,165	-0,182
-410,598	-22,007	0,075	-0,033
-409,584	248,892	0,034	-0,043
-408,569	-81,100	0,079	-0,019
-407,555	-200,000	-0,008	0,147
-406,540	-200,000	0,030	-0,100
-405,525	-46,952	-0,152	-0,054
-404,511	-69,177	0,082	-0,023
-403,496	151,069	0,026	-0,026
-402,482	-200,000	-0,005	-0,080
-401,467	518,135	-0,007	0,012
-400,452	65,414	0,148	0,110
-399,438	800,000	0,027	-0,067
-398,423	49,950	-0,012	0,008
-397,409	-200,000	0,042	-0,166
-396,394	216,437	-0,109	-0,128
-395,379	372,975	0,041	-0,061
-394,365	-200,000	0,026	0,092
-393,350	286,941	-0,024	0,032
-392,336	-141,839	-0,141	-0,010
-391,321	69,956	-0,048	-0,036
-390,306	800,000	0,055	-0,130
-389,292	-69,396	0,083	0,023
-388,277	-200,000	0,022	-0,181
-387,263	-4,125	-0,018	-0,009
-386,248	103,981	0,166	0,143
-385,233	-44,359	-0,034	-0,012
-384,219	800,000	-0,067	-0,148
-383,204	339,482	0,014	-0,020
-382,190	-66,231	0,065	-0,019
-381,175	133,996	-0,067	0,063
-380,160	-200,000	0,004	0,084
-379,146	-71,395	0,161	0,044
-378,131	-66,803	-0,083	0,024
-377,117	-200,000	0,007	0,030
-376,102	269,419	0,091	-0,117
-375,088	-200,000	-0,228	-0,000
-374,073	-89,836	0,074	0,016
-373,058	-116,175	0,066	-0,009
-372,044	800,000	0,051	0,108
-371,029	5,900	0,127	-0,069
-370,015	800,000	0,004	0,009
-369,000	800,000	-0,034	0,080
-367,985	800,000	0,038	0,097
-366,971	-41,159	0,036	0,014
-365,956	343,031	0,045	0,065
-364,942	326,129	0,070	0,099
-363,927	529,384	0,059	0,102
-362,912	-125,891	0,090	-0,010
-361,898	800,000	-0,015	-0,041
-360,883	225,451	-0,030	0,036
-359,869	-7,855	0,017	-0,008
-358,854	-40,199	0,024	-0,009
-357,839	-139,776	0,052	-0,004
-356,825	-147,912	0,073	0,004
-355,810	800,000	-0,010	-0,021
-354,796	-200,000	0,025	-0,173
-353,781	-164,118	-0,081	-0,003
-352,766	361,950	-0,027	-0,041
-351,752	68,024	-0,037	-0,028
-350,737	104,722	0,106	-0,092
-349,723	46,705	0,154	0,105
-348,708	246,400	0,111	0,138
-347,693	121,838	0,067	0,061
-346,679	34,858	-0,067	0,043
-345,664	800,000	0,028	0,065
-344,650	-200,000	0,049	0,174
-343,635	-120,110	0,128	-0,016
-342,620	-101,828	0,114	0,020
-341,606	-106,458	0,032	0,005
-340,591	120,642	-0,105	-0,096
-339,577	-74,946	-0,056	-0,015
-338,562	59,536	-0,024	-0,017
-337,548	-200,000	0,011	0,092
-336,533	284,178	0,044	0,058
-335,518	296,809	0,032	0,044
-334,504	-53,682	-0,040	-0,013
-333,489	-118,052	0,082	-0,011
-332,475	-24,660	-0,067	-0,029
-331,460	800,000	0,011	-0,032
-330,445	-200,000	-0,009	0,053
-329,431	-2,949	-0,051	-0,026
-328,416	184,896	0,086	0,093
-327,402	-41,101	0,108	0,041
-326,387	57,929	-0,016	-0,011
-325,372	800,000	0,028	-0,088
-324,358	108,272	0,109	-0,096
-323,343	389,596	-0,073	0,112
-322,329	189,129	0,068	0,075
-321,314	-200,000	0,028	-0,115
-320,299	-64,741	0,026	-0,008
-319,285	800,000	-0,029	-0,067
-318,270	-200,000	0,009	-0,122
-317,256	-30,910	-0,142	-0,058
-316,241	-200,000	0,008	-0,049
-315,226	61,444	-0,065	0,047
-314,212	-200,000	0,003	0,018
-313,197	-42,895	-0,053	0,020
-312,183	-200,000	0,010	0,133
-311,168	-48,516	0,070	0,025
-310,153	218,776	-0,071	0,084
-309,139	-125,261	-0,029	-0,003
-308,124	52,965	0,062	0,044
-307,110	800,000	0,074	0,171
-306,095	285,221	-0,064	-0,084
-305,080	-200,000	-0,005	0,033
-304,066	-200,000	0,008	0,031
-303,051	-135,240	-0,156	-0,013
-302,037	152,131	-0,067	-0,067
-301,022	800,000	0,045	-0,105
-300,008	679,769	0,044	-0,085
-298,993	497,159	0,060	-0,102
-297,978	44,252	-0,144	0,097
-296,964	331,376	-0,077	-0,109
-295,949	-200,000	0,036	0,150
-294,935	-200,000	-0,005	-0,085
-293,920	-143,111	0,097	0,007
-292,905	-63,555	0,032	-0,010
-291,891	458,571	-0,038	-0,062
-290,876	223,781	-0,121	0,143
-289,862	150,578	0,030	0,030
-288,847	-200,000	-0,012	-0,124
-287,832	-44,272	0,148	0,054
-286,818	-0,066	-0,024	-0,013
-285,803	567,801	-0,023	0,041
-284,789	-35,241	0,101	0,040
-283,774	800,000	0,022	0,056
-282,759	202,869	-0,111	0,126
-281,745	37,996	0,103	-0,067
-280,730	516,469	-0,073	-0,126
-279,716	800,000	0,039	-0,099
-278,701	-106,880	0,085	0,014
-277,686	-12,624	0,099	0,047
-276,672	800,000	-0,028	-0,076
-275,657	-44,825	0,051	0,019
-274,643	256,916	-0,053	-0,067
-273,628	-72,023	-0,118	0,032
-272,613	-200,000	-0,005	-0,021
-271,599	-200,000	0,008	-0,062
-270,584	-96,184	0,094	0,018
-269,570	338,824	0,135	0,193
-268,555	-59,227	0,108	0,034
-267,540	132,689	-0,018	0,017
-266,526	-130,420	0,104	0,010
-265,511	800,000	-0,019	0,042
-264,497	9,327	-0,008	-0,005
-263,482	97,641	0,094	-0,079
-262,467	62,833	-0,096	-0,071
-261,453	18,102	-0,077	0,045
-260,438	78,712	0,155	0,121
-259,424	-200,000	-0,012	0,149
-258,409	-180,313	-0,051	0,001
-257,395	50,446	0,062	-0,043
-256,380	-91,604	0,143	-0,029
-255,365	800,000	0,066	-0,163
-254,351	-34,079	-0,067	0,027
-253,336	-200,000	0,006	-0,056
-252,322	-200,000	0,021	-0,090
-251,307	150,322	0,076	-0,076
-250,292	-138,665	-0,093	-0,007
-249,278	-108,869	-0,063	0,010
-248,263	-200,000	-0,025	0,124
-247,249	-200,000	0,002	0,032
-246,234	-22,060	-0,018	-0,008
-245,219	800,000	-0,024	-0,056
-244,205	253,616	-0,008	-0,010
-243,190	-72,469	-0,044	-0,012
-242,176	800,000	0,023	0,048
-241,161	119,531	-0,045	-0,041
-240,146	800,000	0,059	0,184
-239,132	507,091	-0,079	-0,134
-238,117	30,305	-0,031	0,019
-237,103	-200,000	0,002	-0,046
-236,088	-160,498	-0,031	0,001
-235,073	-200,000	0,001	0,037
-234,059	-26,671	0,060	0,025
-233,044	-4,837	-0,092	-0,046
-232,030	-200,000	0,000	-0,120
-231,015	-54,949	0,129	-0,042
-230,000	-35,917	0,107	-0,042
-228,986	-9,731	-0,063	-0,030
-227,971	-118,249	0,190	0,024
-226,957	160,305	0,064	0,066
-225,942	800,000	-0,029	-0,087
-224,927	-97,098	-0,076	-0,014
-223,913	434,549	-0,080	0,127
-222,898	-46,652	-0,188	0,067
-221,884	227,086	0,097	-0,115
-220,869	-9,183	-0,038	-0,019
-219,855	-200,000	-0,005	-0,078
-218,840	-193,857	-0,060	-0,000
-217,825	-200,000	-0,025	-0,096
-216,811	-64,273	0,106	-0,031
-215,796	-200,000	0,002	0,009
-214,782	799,496	0,043	0,087
-213,767	74,523	-0,056	-0,043
-212,752	55,208	-0,088	0,062
-211,738	487,686	0,021	0,035
-210,723	784,620	-0,025	0,051
-209,709	-200,000	0,010	0,048
-208,694	800,000	-0,038	0,107
-207,679	800,000	-0,032	0,096
-206,665	214,321	0,008	-0,009
-205,650	-108,410	-0,056	0,009
-204,636	500,673	0,054	-0,091
-203,621	36,003	-0,146	-0,094
-202,606	293,525	0,021	0,029
-201,592	75,368	-0,174	0,134
-200,577	-42,890	-0,179	0,066
-199,563	-30,856	-0,120	-0,049
-198,548	-200,000	0,018	0,069
-197,533	687,609	-0,064	0,122
-196,519	129,272	0,019	0,018
-195,504	126,041	-0,073	0,067
-194,490	73,331	-0,065	0,049
-193,475	60,929	-0,011	-0,008
-192,460	-63,976	-0,038	-0,011
-191,446	169,136	0,059	0,062
-190,431	509,784	-0,053	0,090
-189,417	-200,000	0,011	-0,072
-188,402	-99,681	0,068	0,012
-187,387	-200,000	-0,006	0,104
-186,373	-94,771	0,115	-0,023
-185,358	-169,285	-0,143	0,004
-184,344	800,000	0,040	0,123
-183,329	800,000	0,054	0,151
-182,315	100,070	0,022	0,018
-181,300	42,432	-0,136	0,090
-180,285	-200,000	-0,018	0,157
-179,271	800,000	0,051	-0,153
-178,256	258,698	0,046	0,058
-177,242	-200,000	-0,019	0,095
-176,227	800,000	-0,012	0,038
-175,212	-140,814	-0,122	0,009
-174,198	-200,000	-0,024	-0,101
-173,183	800,000	-0,016	-0,048
-172,169	-200,000	0,021	0,207
-171,154	483,725	0,038	-0,063
-170,139	-36,463	0,086	-0,034
-169,125	800,000	-0,010	0,027
-168,110	-46,509	0,058	0,021
-167,096	800,000	0,010	-0,029
-166,081	491,230	-0,055	-0,092
-165,066	-200,000	0,034	0,120
-164,052	-57,414	-0,062	-0,020
-163,037	-17,991	0,068	0,031
-162,023	800,000	-0,006	0,013
-161,008	-56,902	-0,054	0,017
-159,993	-128,522	0,153	0,016
-158,979	235,410	0,076	-0,092
-157,964	597,765	0,013	-0,023
-156,950	-60,736	-0,105	-0,032
-155,935	78,098	-0,052	-0,040
-154,920	752,585	0,080	-0,158
-153,906	800,000	-0,019	0,052
-152,891	-23,045	-0,063	-0,027
-151,877	-115,323	-0,145	-0,020
-150,862	335,139	0,033	-0,047
-149,847	-95,931	-0,063	0,012
-148,833	560,418	0,024	0,042
-147,818	750,335	-0,014	0,029
-146,804	44,981	-0,106	0,071
-145,789	604,887	0,054	0,098
-144,775	291,241	0,062	-0,082
-143,760	-200,000	-0,015	-0,144
-142,745	-165,546	0,104	0,003
-141,731	-27,592	-0,125	-0,053
-140,716	-92,935	0,135	-0,027
-139,702	-32,237	0,123	0,050
-138,687	-200,000	0,025	0,083
-137,672	249,356	-0,063	-0,077
-136,658	-200,000	0,009	-0,101
-135,643	-45,993	-0,024	0,009
-134,629	-200,000	-0,002	-0,049
-133,614	-78,225	0,104	-0,026
-132,599	48,441	0,160	0,109
-131,585	-141,051	-0,111	0,008
-130,570	-200,000	-0,016	0,153
-129,556	800,000	0,029	0,088
-128,541	-49,941	-0,129	0,044
-127,526	800,000	0,014	0,038
-126,512	-140,969	0,050	0,004
-125,497	-200,000	-0,009	-0,062
-124,483	161,225	0,054	0,055
-123,468	-20,628	0,055	0,024
-122,453	800,000	-0,020	-0,062
-121,439	-200,000	-0,001	0,011
-120,424	40,122	0,064	-0,042
-119,410	214,694	0,082	-0,095
-118,395	-169,409	0,021	-0,001
-117,380	-200,000	0,009	0,113
-116,366	-23,927	-0,101	0,044
-115,351	38,506	0,011	-0,007
-114,337	-200,000	0,017	-0,075
-113,322	-106,779	-0,122	-0,019
-112,307	-64,728	0,145	0,042
-111,293	800,000	-0,052	0,151
-110,278	-31,301	-0,075	0,031
-109,264	133,476	0,056	-0,053
-108,249	18,962	-0,103	0,060
-107,234	-200,000	-0,010	0,160
-106,220	-134,504	-0,080	0,007
-105,205	94,038	0,018	-0,015
-104,191	-122,083	-0,040	0,005
-103,176	224,431	0,086	0,102
-102,162	105,629	-0,029	0,025
-101,147	227,533	-0,086	0,102
-100,132	73,038	-0,148	0,112
-99,118	-111,219	-0,083	-0,012
-98,103	-34,208	-0,027	0,011
-97,089	-200,000	-0,005	0,057
-96,074	-90,017	0,089	-0,019
-95,059	237,295	0,058	-0,070
-94,045	358,144	-0,077	0,112
-93,030	184,593	0,086	0,093
-92,016	-78,062	-0,102	0,025
-91,001	13,997	0,037	0,021
-89,986	-200,000	-0,005	0,060
-88,972	-87,360	-0,137	0,030
-87,957	-200,000	-0,002	0,057
-86,943	-164,110	0,124	0,004
-85,928	800,000	-0,025	0,058
-84,913	81,000	0,121	0,095
-83,899	-200,000	-0,022	0,107
-82,884	305,048	0,078	0,105
-81,870	-200,000	0,020	0,148
-80,855	800,000	0,015	0,039
-79,840	-200,000	-0,018	0,071
-78,826	-31,435	0,044	0,018
-77,811	-32,336	-0,078	0,031
-76,797	-200,000	-0,029	0,104
-75,782	-5,712	-0,136	0,067
-74,767	-191,903	-0,105	0,001
-73,753	395,634	0,068	0,103
-72,738	-124,920	0,048	-0,005
-71,724	-22,392	0,183	-0,080
-70,709	36,529	-0,092	-0,059
-69,694	576,363	-0,026	-0,046
-68,680	-200,000	-0,017	0,168
-67,665	-200,000	-0,027	0,089
-66,651	-200,000	0,019	-0,127
-65,636	-200,000	-0,022	0,078
-64,622	502,047	0,071	0,120
-63,607	-95,533	-0,155	-0,030
-62,592	800,000	0,068	-0,178
-61,578	-145,286	0,102	0,007
-60,563	194,812	0,065	0,071
-59,549	800,000	-0,007	0,016
-58,534	-113,990	-1,298	-0,181
-57,519	553,114	-0,837	-1,465
-56,505	-200,000	-0,806	-4,407
-55,490	74,910	0,532	-0,406
-54,476	800,000	5,069	11,936
-53,461	-200,000	13,424	252,933
-52,446	-200,000	689,496	2260,313
-51,432	592,486	1622,051	2919,405
-50,417	119,540	1635,033	1469,287
-49,403	73,305	1289,116	977,641
-48,388	38,134	1024,331	660,098
-47,373	24,402	981,735	587,492
-46,359	23,536	971,644	578,591
-45,344	22,615	967,436	573,053
-44,330	22,558	965,864	571,913
-43,315	22,423	964,404	570,587
-42,300	22,432	963,453	570,029
-41,286	22,403	962,424	569,303
-40,271	22,350	961,522	568,576
-39,257	22,388	960,623	568,145
-38,242	22,420	959,503	567,564
-37,227	22,334	958,848	566,875
-36,213	22,368	957,710	566,290
-35,198	22,356	956,908	565,755
-34,184	22,403	956,397	565,582
-33,169	22,348	955,496	564,848
-32,154	22,474	954,369	564,566
-31,140	22,419	953,549	563,883
-30,125	22,480	952,813	563,620
-29,111	22,409	952,182	562,995
-28,096	22,486	951,230	562,658
-27,082	22,495	950,511	562,240
-26,067	22,428	949,946	561,669
-25,052	22,447	949,224	561,280
-24,038	22,418	948,615	560,804
-23,023	22,424	947,911	560,386
-22,009	22,431	947,257	560,000
-20,994	22,459	946,678	559,725
-19,979	22,450	946,289	559,443
-18,965	22,426	945,529	558,896
-17,950	22,437	944,801	558,476
-16,936	22,361	944,174	557,841
-15,921	22,282	943,522	557,183
-14,906	22,206	942,835	556,512
-13,892	22,340	942,067	556,463
-12,877	22,239	941,538	555,810
-11,863	22,268	940,860	555,477
-10,848	22,340	940,324	555,368
-9,833	22,331	940,027	555,143
-8,819	22,341	939,439	554,806
-7,804	22,280	938,507	554,038
-6,790	22,279	937,977	553,702
-5,775	22,348	937,495	553,614
-4,760	22,336	936,705	553,087
-3,746	22,311	936,154	552,660
-2,731	22,159	935,472	551,755
-1,717	22,064	934,838	551,060
-0,702	22,114	934,112	550,767
0,313	21,937	933,589	550,733
1,327	25,079	931,270	559,194
2,342	34,726	795,980	503,650
3,356	32,841	451,752	282,976
4,371	1,841	293,632	153,019
5,386	-2,563	274,553	138,898
6,400	-4,108	268,666	134,475
7,415	-4,789	266,250	132,629
8,429	-4,568	265,092	132,242
9,444	-4,478	264,118	131,827
10,459	-4,482	263,565	131,535
11,473	-4,561	262,935	131,137
12,488	-4,561	262,419	130,868
13,502	-4,791	261,945	130,413
14,517	-4,789	261,554	130,208
15,531	-4,811	261,098	129,950
16,546	-4,504	260,639	129,985
17,561	-4,510	260,395	129,847
18,575	-4,541	260,010	129,615
19,590	-4,663	259,716	129,348
20,604	-4,493	259,344	129,303
21,619	-4,512	259,155	129,181
22,634	-4,769	258,790	128,758
23,648	-4,787	258,478	128,575
24,663	-4,807	258,301	128,458
25,677	-4,700	258,053	128,418
26,692	-4,726	257,583	128,150
27,707	-4,870	257,563	128,000
28,721	-4,718	257,241	127,964
29,736	-4,706	256,841	127,764
30,750	-4,774	256,604	127,575
31,765	-4,837	256,545	127,478
32,780	-4,690	256,168	127,409
33,794	-4,759	255,941	127,224
34,809	-4,633	255,717	127,213
35,823	-4,811	255,434	126,904
36,838	-4,838	255,234	126,769
37,853	-4,911	255,001	126,579
38,867	-4,669	254,781	126,670
39,882	-4,927	254,565	126,326
40,896	-4,854	254,357	126,275
41,911	-4,781	254,171	126,235
42,926	-4,849	253,744	125,952
43,940	-4,890	253,590	125,829
44,955	-4,872	253,433	125,755
45,969	-5,075	253,405	125,553
46,984	-5,248	252,990	125,185
47,999	-5,418	252,789	124,927
49,013	-5,362	252,508	124,825
50,028	-5,569	252,242	124,504
51,042	-5,627	252,031	124,338
52,057	-5,668	251,691	124,123
53,071	-5,663	251,479	124,012
54,086	-5,556	251,349	124,030
55,101	-5,438	251,335	124,114
56,115	-5,047	251,113	124,331
57,130	-4,823	251,111	124,512
58,144	-4,598	250,850	124,565
59,159	-4,414	250,585	124,582
60,174	-4,668	250,466	124,292
61,188	-4,482	250,163	124,290
62,203	-4,698	250,132	124,079
63,217	-4,713	249,785	123,882
64,232	-4,730	249,640	123,785
65,247	-4,781	249,449	123,635
66,261	-4,620	249,146	123,612
67,276	-5,014	248,832	123,108
68,290	-4,883	248,540	123,065
69,305	-5,210	248,287	122,650
70,320	-5,209	248,380	122,686
71,334	-4,702	247,995	122,916
72,349	-4,474	247,993	123,098
73,363	-4,503	247,813	122,974
74,378	-4,389	247,434	122,871
75,393	-4,725	247,349	122,533
76,407	-4,408	247,114	122,675
77,422	-4,759	246,945	122,282
78,436	-4,686	246,830	122,276
79,451	-4,572	246,656	122,276
80,466	-4,723	246,241	121,931
81,480	-4,825	245,936	121,683
82,495	-4,873	245,942	121,635
83,509	-5,005	245,948	121,515
84,524	-5,051	245,583	121,286
85,539	-5,277	245,369	120,979
86,553	-5,091	245,101	120,993
87,568	-5,147	244,876	120,823
88,582	-5,041	244,797	120,863
89,597	-5,261	244,740	120,640
90,611	-4,915	244,513	120,807
91,626	-4,782	244,433	120,868
92,641	-4,740	244,122	120,739
93,655	-4,833	243,900	120,540
94,670	-4,852	243,692	120,411
95,684	-4,759	243,512	120,389
96,699	-4,865	243,381	120,225
97,714	-4,911	243,252	120,112
98,728	-4,916	243,014	119,979
99,743	-5,069	242,658	119,667
100,757	-5,273	242,455	119,386
101,772	-4,958	242,289	119,555
102,787	-5,045	242,218	119,437
103,801	-4,933	242,205	119,513
104,816	-4,776	241,933	119,498
105,830	-4,683	241,793	119,495
106,845	-4,693	241,639	119,400
107,860	-4,699	241,362	119,248
108,874	-4,891	241,197	118,997
109,889	-4,938	240,939	118,821
110,903	-5,103	240,909	118,659
111,918	-5,041	240,705	118,599
112,933	-4,814	240,428	118,639
113,947	-4,724	240,328	118,652
114,962	-4,722	240,127	118,545
115,976	-4,985	240,110	118,310
116,991	-4,963	239,875	118,201
118,006	-4,709	239,660	118,292
119,020	-4,821	239,503	118,113
120,035	-4,709	239,395	118,141
121,049	-4,644	239,345	118,159
122,064	-4,680	239,111	118,003
123,079	-4,779	238,892	117,804
124,093	-4,842	238,647	117,621
125,108	-5,054	238,515	117,373
126,122	-5,201	238,276	117,125
127,137	-5,323	237,994	116,877
128,151	-5,203	237,906	116,921
129,166	-5,220	237,713	116,802
130,181	-5,146	237,447	116,720
131,195	-5,020	237,190	116,686
132,210	-4,932	237,256	116,779
133,224	-4,914	237,117	116,715
134,239	-4,791	236,868	116,681
135,254	-4,852	236,814	116,596
136,268	-4,909	236,483	116,376
137,283	-5,211	236,288	116,026
138,297	-5,385	236,272	115,868
139,312	-5,413	235,906	115,655
140,327	-4,946	235,762	115,950
141,341	-4,709	235,899	116,198
142,356	-4,499	235,737	116,276
143,370	-4,473	235,423	116,132
144,385	-4,428	235,485	116,189
145,400	-4,257	235,168	116,159
146,414	-4,208	234,936	116,073
147,429	-4,414	234,828	115,844
148,443	-4,213	234,602	115,883
149,458	-4,445	234,477	115,626
150,473	-4,573	234,273	115,413
151,487	-4,537	234,172	115,382
152,502	-4,620	233,969	115,205
153,516	-4,500	233,797	115,206
154,531	-4,417	233,573	115,151
155,546	-4,390	233,463	115,108
156,560	-4,600	233,269	114,835
157,575	-4,741	233,027	114,594
158,589	-4,650	232,876	114,581
159,604	-4,658	232,900	114,577
160,619	-4,444	232,609	114,593
161,633	-4,212	232,413	114,670
162,648	-4,172	232,285	114,628
163,662	-4,448	232,125	114,321
164,677	-4,622	231,967	114,095
165,692	-4,501	231,924	114,159
166,706	-4,310	231,876	114,277
167,721	-4,615	231,642	113,911
168,735	-4,335	231,566	114,084
169,750	-4,243	231,400	114,064
170,764	-4,347	231,224	113,885
171,779	-4,284	231,081	113,854
172,794	-4,501	230,928	113,598
173,808	-4,389	230,738	113,583
174,823	-5,008	230,244	112,844
175,837	-5,078	230,238	112,777
176,852	-4,932	230,157	112,841
177,867	-4,547	229,984	113,048
178,881	-4,325	229,978	113,208
179,896	-4,261	229,794	113,158
180,910	-4,223	229,646	113,105
181,925	-4,401	229,516	112,891
182,940	-4,260	229,184	112,828
183,954	-4,342	229,103	112,714
184,969	-4,359	229,077	112,678
185,983	-4,216	228,691	112,589
186,998	-4,282	228,801	112,582
188,013	-4,139	228,642	112,604
189,027	-4,280	228,343	112,338
190,042	-4,106	228,096	112,341
191,056	-4,162	228,044	112,262
192,071	-4,312	228,106	112,167
193,086	-4,199	227,646	112,018
194,100	-4,210	227,643	111,998
195,115	-4,448	227,181	111,576
196,129	-5,195	226,768	110,789
197,144	-2,642	227,968	113,341
198,159	1,215	228,984	116,827
199,173	4,172	229,676	119,465
200,188	4,434	229,632	119,634
201,202	4,371	229,484	119,498
202,217	4,456	229,367	119,492
203,232	4,921	229,102	119,703
204,246	4,821	229,045	119,585
205,261	4,896	228,930	119,572
206,275	4,960	228,943	119,618
207,290	5,185	228,613	119,608
208,304	4,986	228,530	119,401
209,319	5,022	228,333	119,315
210,334	4,946	228,076	119,112
211,348	4,800	227,808	118,849
212,363	4,077	227,709	118,232
213,377	4,073	227,393	118,054
214,392	4,032	227,288	117,958
215,407	4,142	227,200	117,985
216,421	4,026	227,068	117,817
217,436	4,091	226,816	117,726
218,450	3,818	226,683	117,438
219,465	3,964	226,398	117,391
220,480	3,908	226,366	117,322
221,494	3,877	226,191	117,197
222,509	4,038	226,047	117,234
223,523	4,256	225,883	117,305
224,538	3,796	225,861	116,933
225,553	4,098	225,697	117,067
226,567	4,084	225,524	116,956
227,582	4,386	225,477	117,151
228,596	4,375	225,350	117,066
229,611	4,144	225,210	116,808
230,626	3,981	224,943	116,536
231,640	4,048	224,713	116,456
232,655	4,365	224,648	116,652
233,669	4,589	224,644	116,809
234,684	4,616	224,638	116,816
235,699	4,381	224,308	116,456
236,713	4,213	224,170	116,248
237,728	4,017	223,955	115,978
238,742	3,984	223,685	115,803
239,757	4,071	223,652	115,841
240,772	3,967	223,397	115,621
241,786	4,066	223,306	115,637
242,801	4,095	223,267	115,629
243,815	4,395	223,033	115,722
244,830	4,314	222,961	115,614
245,844	4,309	222,801	115,517
246,859	4,388	222,611	115,468
247,874	4,498	222,413	115,437
248,888	4,443	222,317	115,335
249,903	4,185	222,377	115,163
250,917	4,168	222,079	114,986
251,932	3,949	222,028	114,786
252,947	3,956	221,820	114,674
253,961	4,071	221,476	114,571
254,976	4,042	221,475	114,538
255,990	4,210	221,373	114,601
257,005	4,182	221,217	114,489
258,020	4,266	221,260	114,563
259,034	4,455	221,201	114,663
260,049	4,363	220,751	114,351
261,063	4,141	220,701	114,151
262,078	4,353	220,613	114,252
263,093	4,419	220,510	114,238
264,107	4,493	220,196	114,120
265,122	4,438	220,188	114,065
266,136	4,652	219,982	114,105
267,151	4,590	219,822	113,966
268,166	4,263	219,632	113,617
269,180	3,736	219,517	113,158
270,195	3,794	219,304	113,081
271,209	3,840	219,120	113,011
272,224	3,964	219,171	113,118
273,239	4,197	218,870	113,124
274,253	3,988	218,824	112,937
275,268	3,941	218,589	112,771
276,282	4,107	218,351	112,759
277,297	3,731	218,303	112,449
278,312	3,889	218,102	112,451
279,326	4,267	218,031	112,680
280,341	4,085	217,995	112,520
281,355	4,134	217,850	112,470
282,370	4,218	217,561	112,372
283,384	3,866	217,398	112,021
284,399	3,706	217,272	111,830
285,414	3,756	217,188	111,813
286,428	4,053	217,111	111,980
287,443	3,912	217,072	111,847
288,457	4,338	216,860	112,037
289,472	4,313	216,659	111,905
290,487	3,769	216,304	111,318
291,501	3,704	216,267	111,241
292,516	3,762	216,205	111,242
293,530	3,662	216,128	111,120
294,545	3,693	215,932	111,031
295,560	3,771	215,924	111,074
296,574	4,162	215,665	111,213
297,589	4,012	215,500	111,010
298,603	4,141	215,411	111,048
299,618	4,093	215,306	110,948
300,633	4,027	215,215	110,845
301,647	4,250	215,114	110,943
302,662	4,322	215,000	110,926
303,676	4,356	214,840	110,858
304,691	4,325	214,685	110,746
305,706	4,447	214,518	110,737
306,720	4,256	214,486	110,574
307,735	4,093	214,225	110,313
308,749	4,052	214,063	110,191
309,764	4,140	214,024	110,223
310,779	4,192	214,059	110,269
311,793	4,170	213,717	110,067
312,808	4,147	213,635	109,998
313,822	4,375	213,322	109,990
314,837	3,762	213,354	109,560
315,852	3,803	213,182	109,491
316,866	4,061	212,996	109,569
317,881	4,293	212,896	109,672
318,895	4,259	212,796	109,587
319,910	4,105	212,742	109,441
320,925	3,910	212,393	109,112
321,939	3,639	212,122	108,772
322,954	3,730	212,059	108,794
323,968	4,084	212,055	109,034
324,983	4,282	211,915	109,092
325,997	4,305	211,781	109,029
327,012	3,958	211,741	108,753
328,027	3,881	211,459	108,545
329,041	4,419	211,595	108,985
330,056	4,532	211,374	108,941
331,070	4,058	211,217	108,517
332,085	3,870	210,968	108,246
333,100	3,898	210,851	108,197
334,114	4,178	210,758	108,336
335,129	4,133	210,526	108,175
336,143	3,910	210,307	107,896
337,158	3,973	210,159	107,855
338,173	3,924	210,092	107,777
339,187	3,755	209,978	107,591
340,202	3,775	209,777	107,492
341,216	3,778	209,662	107,425
342,231	3,853	209,669	107,472
343,246	3,698	209,436	107,234
344,260	4,011	209,231	107,338
345,275	4,058	209,086	107,287
346,289	4,041	209,190	107,319
347,304	4,414	209,021	107,483
348,319	3,919	208,901	107,067
349,333	4,021	208,685	107,018
350,348	4,015	208,580	106,950
351,362	4,181	208,489	107,009
352,377	4,236	208,285	106,933
353,392	4,011	208,217	106,732
354,406	4,071	208,044	106,676
355,421	194,449	1345,766	1436,276
356,435	155,157	1484,484	1436,390
