DTS Sentinel unit serial number:	SN410029Multiplexer serial number:	ORYXHardware model number:	OX2-SRSoftware version number:	ORYX F/W v4,00 Oryx Data Collector v3.7.2.0data status	okinstallation	B6 Nyhavnadifferential loss correction	single-endedforward channel	channel 2reverse channel	N/Adate	2023/12/08time	23:05:08forward acquisition time	300,00reverse acquisition time	0,00gamma	499,1914k internal	0,3157k external	0,3157temperature offset calibration	1,0000default loss term (dB/km)	0,3820temperature slope calibration	1,0000multiplexer offset coefficient	1,0000multiplexer slope coefficient	1,0000fibre end	0,00T internal ref (°C)	15,41T ext. ref 1 (°C)	-1,02T ext. ref 2 (°C)	-1,02length (m)	temperature (°C)	Stokes	anti-Stokes-744,400	155,911	0,152	0,154
-743,385	-161,745	-0,231	-0,009
-742,371	63,204	0,071	0,052
-741,356	-114,187	-0,333	-0,047
-740,342	-200,000	-0,028	0,097
-739,327	-159,602	-0,218	0,009
-738,312	-107,417	0,097	0,015
-737,298	-149,194	-0,372	0,022
-736,283	-93,391	0,150	0,030
-735,269	-68,125	-0,285	-0,081
-734,254	-104,653	0,171	-0,029
-733,239	60,797	-0,357	-0,260
-732,225	-127,286	0,181	0,019
-731,210	189,615	-0,052	0,057
-730,196	160,510	-0,129	-0,133
-729,181	-95,952	-0,162	-0,031
-728,167	131,120	-0,067	-0,063
-727,152	430,930	0,045	-0,072
-726,137	-117,589	-0,037	-0,005
-725,123	-139,582	-0,088	-0,007
-724,108	143,033	-0,138	-0,135
-723,094	781,295	-0,069	-0,139
-722,079	-200,000	-0,007	-0,081
-721,064	86,088	0,084	-0,068
-720,050	583,882	0,055	-0,101
-719,035	180,901	-0,056	-0,060
-718,021	-200,000	-0,006	-0,069
-717,006	800,000	0,025	-0,057
-715,991	-160,808	-0,228	-0,009
-714,977	-142,885	-0,095	-0,007
-713,962	-127,659	-0,074	0,008
-712,948	-2,903	0,039	-0,020
-711,933	-107,187	0,081	0,013
-710,918	-200,000	-0,021	-0,078
-709,904	-200,000	-0,023	-0,101
-708,889	-200,000	0,005	-0,050
-707,875	-200,000	0,001	-0,050
-706,860	-111,022	-0,009	0,001
-705,845	109,588	0,047	-0,042
-704,831	117,509	-0,062	0,056
-703,816	-200,000	-0,022	0,190
-702,802	800,000	-0,023	-0,069
-701,787	46,095	-0,043	-0,029
-700,772	76,596	-0,123	-0,096
-699,758	135,732	0,156	-0,149
-698,743	15,275	0,035	-0,020
-697,729	-200,000	-0,003	0,068
-696,714	-200,000	0,019	0,063
-695,699	-200,000	-0,028	-0,139
-694,685	-200,000	0,004	-0,043
-693,670	-162,510	-0,135	-0,005
-692,656	72,223	-0,018	-0,014
-691,641	125,956	0,090	0,083
-690,627	-91,694	-0,074	0,015
-689,612	27,557	-0,100	-0,062
-688,597	-200,000	-0,005	-0,118
-687,583	-32,184	0,053	-0,022
-686,568	-59,715	-0,122	0,038
-685,554	800,000	0,020	-0,061
-684,539	85,763	0,108	-0,087
-683,524	-44,987	-0,031	0,011
-682,510	-200,000	0,005	-0,066
-681,495	-200,000	0,032	-0,173
-680,481	-14,109	-0,145	-0,069
-679,466	-200,000	-0,021	-0,194
-678,451	-20,596	0,116	-0,052
-677,437	-200,000	0,009	-0,194
-676,422	800,000	-0,052	0,152
-675,408	12,928	-0,155	0,088
-674,393	-200,000	0,028	-0,181
-673,378	-200,000	-0,013	0,082
-672,364	322,871	0,057	-0,080
-671,349	18,346	-0,068	-0,040
-670,335	64,372	0,038	0,028
-669,320	800,000	0,023	0,056
-668,305	-200,000	0,017	-0,066
-667,291	-159,794	0,189	-0,008
-666,276	-4,970	-0,128	0,064
-665,262	-161,624	-0,160	-0,006
-664,247	104,276	-0,065	0,056
-663,232	131,483	-0,032	-0,030
-662,218	800,000	0,048	0,098
-661,203	-200,000	-0,006	0,049
-660,189	77,549	-0,063	0,050
-659,174	65,469	-0,217	-0,161
-658,159	-84,690	-0,123	-0,028
-657,145	-88,610	-0,029	-0,006
-656,130	239,333	-0,075	-0,092
-655,116	-142,265	-0,118	0,008
-654,101	217,920	0,085	-0,100
-653,086	-200,000	0,001	0,083
-652,072	312,179	-0,062	-0,086
-651,057	6,192	0,029	-0,016
-650,043	-115,729	-0,108	0,015
-649,028	50,391	-0,040	-0,028
-648,014	343,667	0,081	0,117
-646,999	-73,064	-0,069	-0,018
-645,984	-67,177	-0,053	-0,015
-644,970	-1,554	-0,054	0,028
-643,955	-110,804	-0,106	0,016
-642,941	-41,728	0,158	0,059
-641,926	232,200	-0,043	0,051
-640,911	-63,029	0,036	0,011
-639,897	-200,000	0,012	0,062
-638,882	-52,004	0,065	-0,022
-637,868	-126,785	-0,036	0,004
-636,853	800,000	0,044	0,094
-635,838	-77,076	0,020	0,005
-634,824	145,259	0,081	-0,080
-633,809	-200,000	-0,024	-0,101
-632,795	-75,740	-0,094	0,024
-631,780	-200,000	-0,054	0,186
-630,765	291,575	-0,050	-0,067
-629,751	-200,000	-0,021	-0,117
-628,736	375,061	0,050	-0,075
-627,722	800,000	-0,040	0,089
-626,707	65,853	0,030	0,022
-625,692	-200,000	0,002	0,069
-624,678	-27,997	-0,150	0,063
-623,663	-85,098	0,068	0,016
-622,649	-142,676	-0,017	0,001
-621,634	212,807	0,053	-0,061
-620,619	-200,000	0,024	0,135
-619,605	92,416	-0,045	0,037
-618,590	-200,000	-0,010	0,086
-617,576	-200,000	0,019	0,080
-616,561	-89,535	-0,041	0,009
-615,546	16,418	0,050	0,029
-614,532	192,727	-0,044	-0,049
-613,517	348,482	-0,074	-0,108
-612,503	142,575	-0,053	0,052
-611,488	89,716	-0,018	0,015
-610,474	-200,000	-0,045	0,194
-609,459	122,779	-0,045	-0,041
-608,444	-200,000	-0,002	-0,136
-607,430	-112,950	-0,214	0,031
-606,415	36,635	-0,144	-0,093
-605,401	800,000	0,043	-0,091
-604,386	-90,662	0,088	-0,019
-603,371	284,449	0,048	0,064
-602,357	-159,281	0,109	-0,004
-601,342	189,790	-0,050	-0,055
-600,328	800,000	0,061	-0,127
-599,313	-200,000	0,001	-0,027
-598,298	800,000	0,040	0,097
-597,284	387,002	-0,045	-0,069
-596,269	437,569	-0,012	0,020
-595,255	-124,365	-0,051	-0,006
-594,240	-31,525	0,086	0,035
-593,225	-103,091	0,056	-0,010
-592,211	-200,000	-0,018	-0,117
-591,196	73,503	0,044	0,034
-590,182	-62,106	-0,122	0,037
-589,167	800,000	0,039	0,111
-588,152	-192,774	-0,044	-0,000
-587,138	-77,144	-0,045	0,011
-586,123	-19,877	0,098	-0,044
-585,109	262,889	-0,077	-0,098
-584,094	579,828	-0,116	-0,208
-583,079	-200,000	0,015	-0,048
-582,065	130,928	0,025	0,024
-581,050	-31,369	-0,084	-0,035
-580,036	-179,593	-0,122	-0,002
-579,021	800,000	-0,019	-0,046
-578,006	-200,000	0,023	-0,102
-576,992	-69,933	-0,102	-0,028
-575,977	36,481	0,113	0,073
-574,963	-200,000	-0,006	-0,039
-573,948	367,173	0,029	0,043
-572,934	-189,964	-0,081	-0,001
-571,919	19,989	0,025	-0,015
-570,904	145,513	-0,077	-0,075
-569,890	-140,354	-0,112	0,008
-568,875	139,161	-0,015	0,015
-567,861	-61,057	0,047	0,015
-566,846	117,605	-0,077	-0,069
-565,831	-200,000	-0,033	-0,120
-564,817	-200,000	-0,005	-0,028
-563,802	67,748	0,101	-0,075
-562,788	-200,000	0,008	0,096
-561,773	-200,000	-0,043	0,142
-560,758	353,378	0,041	0,060
-559,744	48,868	0,117	0,080
-558,729	800,000	-0,060	0,134
-557,715	593,359	-0,016	0,029
-556,700	-200,000	0,002	-0,062
-555,685	7,281	-0,067	0,037
-554,671	-200,000	0,002	0,049
-553,656	-110,378	0,079	0,012
-552,642	-4,468	0,108	0,054
-551,627	-177,709	0,160	-0,003
-550,612	800,000	0,057	-0,155
-549,598	-200,000	-0,007	0,046
-548,583	106,181	-0,080	-0,070
-547,569	-57,858	0,136	0,043
-546,554	-200,000	-0,008	-0,060
-545,539	-74,789	-0,117	-0,031
-544,525	-200,000	0,021	-0,214
-543,510	171,063	-0,052	-0,054
-542,496	-175,923	-0,068	0,001
-541,481	-104,864	0,072	-0,012
-540,466	-67,450	0,125	0,036
-539,452	-200,000	0,043	0,142
-538,437	-200,000	0,008	0,032
-537,423	62,977	0,124	-0,090
-536,408	-121,686	0,070	-0,008
-535,393	6,029	-0,036	-0,019
-534,379	-13,850	0,042	-0,020
-533,364	-59,660	-0,095	0,030
-532,350	-159,416	-0,035	0,001
-531,335	36,290	-0,062	-0,040
-530,321	-5,914	0,070	-0,035
-529,306	-111,691	0,087	-0,013
-528,291	4,806	-0,104	-0,056
-527,277	389,090	-0,082	-0,125
-526,262	107,270	-0,074	0,064
-525,248	553,156	-0,033	0,058
-524,233	-200,000	0,002	-0,020
-523,218	-200,000	0,002	0,147
-522,204	-87,436	-0,077	-0,017
-521,189	-200,000	-0,019	-0,082
-520,175	-200,000	0,004	0,064
-519,160	-200,000	0,002	-0,109
-518,145	364,523	-0,045	-0,066
-517,131	712,702	0,038	0,073
-516,116	-80,340	0,108	0,026
-515,102	-99,434	-0,140	-0,025
-514,087	800,000	-0,027	-0,058
-513,072	-200,000	0,020	-0,106
-512,058	-200,000	-0,005	-0,149
-511,043	166,142	0,034	0,035
-510,029	71,118	0,167	0,126
-509,014	-88,151	-0,128	0,028
-507,999	-165,028	-0,078	0,002
-506,985	-200,000	0,015	0,110
-505,970	-120,346	-0,095	0,012
-504,956	-200,000	-0,003	0,021
-503,941	800,000	-0,024	-0,073
-502,926	-32,259	0,040	0,016
-501,912	301,820	-0,040	0,054
-500,897	-200,000	-0,006	0,062
-499,883	-200,000	0,010	-0,096
-498,868	-200,000	-0,002	-0,008
-497,853	-200,000	-0,013	-0,052
-496,839	800,000	-0,053	-0,133
-495,824	-104,286	0,107	-0,018
-494,810	-200,000	0,002	0,066
-493,795	190,197	-0,109	-0,120
-492,781	288,986	-0,083	0,110
-491,766	4,364	-0,027	-0,014
-490,751	-129,721	-0,018	-0,002
-489,737	9,420	-0,028	0,016
-488,722	-200,000	0,014	-0,054
-487,708	800,000	0,054	-0,157
-486,693	382,300	-0,024	-0,036
-485,678	-131,663	0,098	0,009
-484,664	800,000	0,070	-0,191
-483,649	800,000	-0,028	-0,068
-482,635	-103,844	0,078	0,013
-481,620	117,348	0,128	0,115
-480,605	-102,012	0,178	-0,031
-479,591	-200,000	-0,025	-0,110
-478,576	178,625	-0,069	-0,074
-477,562	357,898	-0,013	-0,019
-476,547	800,000	-0,066	-0,159
-475,532	250,124	-0,066	0,082
-474,518	-82,097	0,102	0,024
-473,503	-200,000	-0,003	0,016
-472,489	-115,721	0,036	-0,005
-471,474	30,382	-0,061	-0,038
-470,459	-106,601	-0,112	0,018
-469,445	-200,000	-0,011	0,081
-468,430	-75,459	0,074	-0,019
-467,416	-200,000	0,027	0,131
-466,401	39,296	-0,037	0,024
-465,386	-19,355	0,114	0,052
-464,372	-65,916	0,016	-0,005
-463,357	-96,232	-0,029	-0,006
-462,343	-61,814	-0,055	-0,017
-461,328	-165,319	0,065	-0,002
-460,313	-200,000	-0,008	-0,070
-459,299	-18,313	0,154	0,070
-458,284	-200,000	0,032	-0,111
-457,270	-200,000	-0,015	0,054
-456,255	-200,000	0,008	0,083
-455,241	-153,204	-0,142	-0,007
-454,226	-139,114	-0,142	0,011
-453,211	-168,777	0,096	-0,003
-452,197	-117,377	0,035	0,005
-451,182	179,978	-0,133	-0,142
-450,168	94,578	0,136	0,112
-449,153	-200,000	-0,019	-0,092
-448,138	122,329	0,063	0,057
-447,124	-73,027	-0,102	-0,027
-446,109	-200,000	0,011	-0,070
-445,095	-200,000	-0,029	0,224
-444,080	271,779	0,092	0,119
-443,065	-149,614	0,124	0,007
-442,051	139,829	-0,091	-0,087
-441,036	-200,000	-0,027	-0,123
-440,022	800,000	0,038	-0,112
-439,007	526,833	0,035	0,060
-437,992	800,000	-0,006	-0,016
-436,978	-115,264	0,090	-0,012
-435,963	29,884	-0,074	-0,046
-434,949	-77,150	-0,068	-0,017
-433,934	-43,600	-0,119	0,043
-432,919	800,000	-0,049	0,104
-431,905	677,093	0,023	-0,044
-430,890	-200,000	0,005	-0,025
-429,876	-200,000	0,003	0,049
-428,861	-3,349	-0,018	-0,009
-427,846	315,520	0,066	0,092
-426,832	800,000	0,026	-0,071
-425,817	-50,286	-0,089	-0,030
-424,803	-48,851	0,217	0,075
-423,788	83,776	-0,090	0,071
-422,773	59,163	0,090	0,064
-421,759	-42,941	0,012	-0,004
-420,744	364,631	0,019	0,027
-419,730	80,861	0,144	-0,113
-418,715	530,963	-0,064	-0,110
-417,701	-139,037	-0,038	-0,003
-416,686	156,323	0,086	0,086
-415,671	215,019	-0,099	0,115
-414,657	-200,000	0,014	0,070
-413,642	-200,000	-0,043	0,139
-412,628	-195,928	0,043	0,000
-411,613	-110,994	-0,112	-0,017
-410,598	-200,000	-0,006	-0,099
-409,584	-48,717	0,065	0,023
-408,569	99,237	0,030	0,026
-407,555	4,106	0,050	0,026
-406,540	800,000	0,059	0,152
-405,525	-37,396	-0,049	-0,019
-404,511	-200,000	0,005	0,084
-403,496	-69,930	-0,090	-0,025
-402,482	-135,882	0,140	0,012
-401,467	192,506	-0,069	0,076
-400,452	-65,099	0,053	0,016
-399,438	62,207	0,023	0,017
-398,423	-75,943	0,152	0,039
-397,409	150,420	0,074	0,073
-396,394	-200,000	0,035	0,131
-395,379	73,203	0,078	-0,059
-394,365	-145,090	0,075	0,005
-393,350	350,968	0,018	-0,025
-392,336	-53,387	-0,021	0,007
-391,321	15,954	-0,018	-0,010
-390,306	6,170	0,048	0,026
-389,292	-131,309	-0,029	-0,003
-388,277	-200,000	-0,009	-0,065
-387,263	68,506	-0,075	-0,056
-386,248	719,559	0,014	-0,027
-385,233	-200,000	-0,019	0,143
-384,219	-200,000	0,009	0,051
-383,204	-16,681	0,081	0,037
-382,190	71,723	-0,247	-0,187
-381,175	237,594	0,069	0,084
-380,160	241,187	0,057	0,069
-379,146	-200,000	-0,020	0,141
-378,131	261,948	0,030	0,037
-377,117	151,233	0,145	-0,143
-376,102	-1,778	-0,130	0,066
-375,088	-185,384	-0,036	-0,000
-374,073	-2,877	0,055	-0,028
-373,058	465,403	-0,053	0,086
-372,044	223,484	0,087	0,103
-371,029	-78,641	-0,084	-0,021
-370,015	40,287	-0,077	0,051
-369,000	-200,000	0,014	0,095
-367,985	-200,000	0,053	-0,174
-366,971	354,592	-0,009	0,013
-365,956	207,847	0,131	0,149
-364,942	-200,000	0,033	0,132
-363,927	-200,000	0,011	0,098
-362,912	471,769	-0,075	-0,124
-361,898	484,757	0,054	-0,090
-360,883	-90,958	0,026	0,005
-359,869	-77,637	-0,152	0,038
-358,854	-61,135	0,156	0,048
-357,839	-147,752	0,115	0,007
-356,825	800,000	0,046	0,139
-355,810	-200,000	0,004	-0,032
-354,796	-4,959	-0,144	0,072
-353,781	-86,482	-0,048	0,011
-352,766	800,000	-0,024	-0,052
-351,752	-152,519	0,099	0,005
-350,737	187,965	0,129	-0,140
-349,723	-200,000	0,021	-0,124
-348,708	800,000	-0,036	0,108
-347,693	-168,790	0,016	0,000
-346,679	61,264	0,035	0,025
-345,664	-117,688	0,099	0,013
-344,650	-40,672	-0,072	0,027
-343,635	126,673	-0,055	-0,051
-342,620	800,000	-0,062	0,183
-341,606	-74,093	0,128	-0,033
-340,591	9,118	-0,039	-0,021
-339,577	-200,000	-0,002	-0,021
-338,562	-200,000	-0,021	-0,096
-337,548	-196,476	0,091	-0,000
-336,533	111,323	0,086	0,075
-335,518	364,963	0,062	-0,090
-334,504	-200,000	-0,001	0,129
-333,489	46,490	-0,138	-0,093
-332,475	208,340	0,026	-0,030
-331,460	-68,326	0,015	0,004
-330,445	800,000	-0,036	0,115
-329,431	206,264	0,076	-0,086
-328,416	48,105	0,131	0,089
-327,402	127,590	0,047	0,043
-326,387	137,373	-0,120	0,114
-325,372	-200,000	0,009	0,213
-324,358	794,901	-0,082	-0,164
-323,343	-16,215	0,094	0,043
-322,329	-200,000	-0,003	0,025
-321,314	-200,000	-0,005	0,152
-320,299	-17,536	0,112	-0,051
-319,285	600,007	0,030	0,053
-318,270	32,769	-0,113	0,070
-317,256	-53,847	0,061	-0,020
-316,241	-93,359	0,192	-0,038
-315,226	40,843	-0,093	0,061
-314,212	644,136	0,095	-0,176
-313,197	-200,000	0,008	0,164
-312,183	-72,567	-0,087	-0,023
-311,168	-200,000	-0,005	-0,110
-310,153	-200,000	-0,007	-0,049
-309,139	226,090	-0,052	0,061
-308,124	579,251	0,048	0,085
-307,110	309,895	0,027	0,037
-306,095	-30,512	0,057	-0,023
-305,080	-93,287	-0,124	-0,025
-304,066	289,553	0,066	0,086
-303,051	128,946	-0,136	-0,126
-302,037	247,269	-0,056	0,068
-301,022	-94,135	0,087	-0,017
-300,008	37,834	-0,047	-0,030
-298,993	-200,000	0,001	0,035
-297,978	183,012	-0,088	-0,094
-296,964	-29,258	0,153	0,063
-295,949	204,024	-0,093	-0,105
-294,935	-33,177	-0,116	-0,046
-293,920	800,000	-0,018	0,041
-292,905	-86,686	0,125	0,027
-291,891	-200,000	0,018	0,155
-290,876	-200,000	0,012	0,050
-289,862	-200,000	0,013	-0,056
-288,847	679,191	0,042	-0,080
-287,832	-200,000	-0,000	-0,034
-286,818	-107,199	-0,172	0,027
-285,803	492,435	-0,028	0,047
-284,789	497,918	-0,083	0,138
-283,774	-200,000	0,000	-0,018
-282,759	-200,000	-0,028	-0,109
-281,745	118,198	-0,061	0,054
-280,730	-137,615	-0,071	0,006
-279,716	167,338	-0,113	0,116
-278,701	-110,644	0,138	0,020
-277,686	-200,000	-0,015	0,112
-276,672	-200,000	0,008	-0,088
-275,657	-90,556	0,128	0,027
-274,643	-97,722	-0,067	0,012
-273,628	310,568	-0,025	0,035
-272,613	-137,961	0,128	-0,010
-271,599	800,000	0,008	-0,024
-270,584	800,000	-0,045	0,100
-269,570	-200,000	0,003	-0,062
-268,555	138,293	0,053	0,051
-267,540	20,885	-0,047	0,027
-266,526	-200,000	-0,010	-0,119
-265,511	102,530	-0,098	-0,083
-264,497	113,140	0,124	-0,109
-263,482	-69,510	-0,056	-0,016
-262,467	800,000	0,028	0,072
-261,453	-200,000	-0,002	-0,046
-260,438	-140,480	-0,067	-0,005
-259,424	232,616	-0,041	-0,049
-258,409	365,659	-0,021	-0,030
-257,395	-200,000	-0,023	-0,165
-256,380	-153,491	0,182	-0,009
-255,365	29,677	0,080	0,049
-254,351	-200,000	-0,041	0,159
-253,336	59,632	0,063	0,045
-252,322	130,788	0,039	-0,036
-251,307	273,182	-0,031	0,039
-250,292	22,894	0,044	0,026
-249,278	-200,000	-0,024	0,227
-248,263	-200,000	0,005	0,138
-247,249	-97,768	-0,143	-0,026
-246,234	-12,521	-0,111	-0,052
-245,219	-200,000	-0,020	-0,070
-244,205	-200,000	-0,003	0,052
-243,190	61,699	-0,083	-0,060
-242,176	800,000	-0,060	0,134
-241,161	48,868	0,052	0,035
-240,146	-200,000	-0,003	0,225
-239,132	-1,553	0,064	0,032
-238,117	800,000	0,048	-0,120
-237,103	-45,555	-0,134	-0,048
-236,088	-75,526	0,139	0,036
-235,073	-120,857	0,086	0,010
-234,059	117,437	-0,051	-0,045
-233,044	800,000	0,030	-0,069
-232,030	53,948	-0,197	0,137
-231,015	800,000	-0,022	-0,054
-230,000	726,137	-0,014	0,027
-228,986	187,776	-0,075	-0,081
-227,971	60,308	0,066	-0,047
-226,957	-49,150	0,165	0,057
-225,942	-70,221	0,025	-0,007
-224,927	800,000	-0,024	-0,049
-223,913	282,038	0,016	0,020
-222,898	800,000	0,052	-0,105
-221,884	74,292	-0,061	-0,046
-220,869	65,280	-0,066	-0,048
-219,855	545,142	-0,016	0,028
-218,840	-48,086	-0,043	0,015
-217,825	92,852	0,019	0,016
-216,811	-200,000	-0,005	-0,318
-215,796	-63,698	-0,114	0,034
-214,782	-140,442	-0,144	-0,011
-213,767	-1,322	0,034	0,017
-212,752	-200,000	0,007	-0,107
-211,738	-200,000	0,002	-0,064
-210,723	-94,742	-0,075	0,015
-209,709	-137,093	0,093	0,008
-208,694	-200,000	-0,024	-0,103
-207,679	25,375	-0,064	-0,039
-206,665	225,517	-0,056	0,065
-205,650	393,031	0,107	-0,162
-204,636	124,941	0,085	0,077
-203,621	139,709	0,048	0,046
-202,606	752,237	0,024	0,047
-201,592	185,379	-0,127	-0,136
-200,577	-164,893	0,039	0,001
-199,563	193,485	-0,038	0,041
-198,548	-200,000	0,000	-0,112
-197,533	800,000	-0,011	-0,029
-196,519	3,990	0,041	-0,022
-195,504	-200,000	-0,046	-0,152
-194,490	-200,000	0,022	-0,098
-193,475	-2,998	-0,046	0,023
-192,460	-200,000	-0,015	-0,068
-191,446	-82,193	-0,076	0,018
-190,431	-107,961	0,118	-0,018
-189,417	-200,000	0,001	0,011
-188,402	305,445	0,029	0,039
-187,387	-80,547	-0,106	-0,025
-186,373	-200,000	-0,045	0,164
-185,358	-200,000	0,016	-0,103
-184,344	-193,309	0,165	0,001
-183,329	-3,408	0,132	-0,066
-182,315	-55,589	0,030	0,010
-181,300	-200,000	-0,012	-0,112
-180,285	699,086	0,062	-0,118
-179,271	308,333	-0,010	-0,013
-178,256	-200,000	0,022	0,090
-177,242	-200,000	-0,037	0,138
-176,227	-200,000	0,013	-0,110
-175,212	-16,248	0,130	-0,059
-174,198	-200,000	-0,012	0,088
-173,183	-113,794	-0,116	0,016
-172,169	-34,125	0,072	0,029
-171,154	41,589	-0,110	-0,071
-170,139	800,000	-0,055	-0,133
-169,125	-41,585	-0,102	0,037
-168,110	-200,000	-0,024	0,134
-167,096	-40,443	-0,108	-0,040
-166,081	45,764	0,070	-0,046
-165,066	800,000	0,024	-0,059
-164,052	-200,000	0,009	0,136
-163,037	-20,736	-0,053	-0,023
-162,023	99,164	0,091	-0,076
-161,008	-58,605	-0,134	0,041
-159,993	-59,494	0,084	-0,026
-158,979	-11,520	-0,089	-0,042
-157,964	-200,000	-0,004	-0,073
-156,950	-200,000	0,038	-0,161
-155,935	-200,000	-0,017	-0,155
-154,920	-200,000	0,016	0,059
-153,906	800,000	0,024	0,076
-152,891	24,196	0,126	0,075
-151,877	-200,000	0,007	0,070
-150,862	69,210	-0,087	0,064
-149,847	-200,000	0,029	0,094
-148,833	-200,000	-0,024	0,115
-147,818	800,000	0,078	0,173
-146,804	800,000	-0,076	0,156
-145,789	-200,000	0,010	-0,078
-144,775	50,809	0,048	0,033
-143,760	76,590	-0,133	0,101
-142,745	71,310	-0,074	-0,055
-141,731	80,064	0,067	-0,052
-140,716	800,000	-0,007	-0,015
-139,702	-200,000	0,065	0,000
-138,687	-200,000	-0,009	0,117
-137,672	-200,000	-0,025	0,150
-136,658	203,053	-0,123	-0,138
-135,643	-117,948	-0,073	-0,009
-134,629	130,060	0,149	0,137
-133,614	800,000	-0,074	0,186
-132,599	17,634	0,053	-0,030
-131,585	-200,000	-0,007	0,236
-130,570	-101,562	-0,174	-0,030
-129,556	-200,000	0,018	-0,066
-128,541	-24,309	-0,038	0,016
-127,526	86,332	-0,096	-0,076
-126,512	-12,406	-0,043	-0,020
-125,497	-57,917	0,099	0,031
-124,483	146,091	-0,080	-0,077
-123,468	7,180	0,096	-0,051
-122,453	152,745	-0,042	0,041
-121,439	-113,567	-0,030	-0,004
-120,424	137,353	-0,110	-0,103
-119,410	800,000	-0,014	-0,038
-118,395	-158,393	-0,129	-0,005
-117,380	121,681	-0,086	0,077
-116,366	8,648	-0,061	0,033
-115,351	800,000	-0,028	0,059
-114,337	4,333	-0,067	-0,035
-113,322	-149,947	0,031	-0,002
-112,307	-121,160	0,035	-0,004
-111,293	-137,344	0,161	-0,013
-110,278	424,883	-0,026	0,040
-109,264	415,138	0,046	0,070
-108,249	-101,606	-0,136	-0,024
-107,234	289,293	0,044	0,058
-106,220	-76,397	-0,067	-0,017
-105,205	-177,284	0,128	-0,002
-104,191	281,732	-0,039	-0,051
-103,176	226,924	0,043	0,050
-102,162	-200,000	0,018	0,072
-101,147	605,217	-0,051	0,092
-100,132	-200,000	-0,009	-0,119
-99,118	-158,816	-0,034	-0,001
-98,103	-119,848	-0,061	-0,007
-97,089	70,811	0,116	0,086
-96,074	138,599	0,004	0,003
-95,059	-33,747	0,058	0,023
-94,045	-131,479	-0,137	0,013
-93,030	-65,440	-0,100	-0,029
-92,016	257,722	-0,040	-0,050
-91,001	-109,276	-0,030	0,005
-89,986	191,648	-0,006	0,007
-88,972	32,616	0,046	0,029
-87,957	63,982	-0,141	0,102
-86,943	656,438	-0,091	0,168
-85,928	160,227	-0,071	-0,071
-84,913	-200,000	0,020	-0,112
-83,899	-200,000	-0,024	0,096
-82,884	143,828	-0,117	0,112
-81,870	-200,000	-0,000	0,101
-80,855	-69,598	0,109	0,030
-79,840	101,161	-0,056	0,047
-78,826	-200,000	0,020	0,085
-77,811	-200,000	-0,007	-0,041
-76,797	36,283	0,077	-0,049
-75,782	800,000	-0,017	-0,043
-74,767	-149,761	0,060	-0,003
-73,753	-200,000	0,012	-0,168
-72,738	800,000	-0,007	-0,016
-71,724	-143,105	0,109	0,007
-70,709	84,064	0,048	-0,038
-69,694	-200,000	-0,043	-0,232
-68,680	-91,008	0,094	-0,019
-67,665	118,583	0,076	0,067
-66,651	-200,000	-0,004	-0,030
-65,636	-54,373	-0,176	-0,057
-64,622	14,053	0,058	-0,032
-63,607	800,000	0,060	-0,166
-62,592	14,569	-0,012	0,007
-61,578	-13,544	0,131	-0,061
-60,563	-75,999	-0,077	0,019
-59,549	800,000	0,018	-0,037
-58,534	14,298	-1,897	-1,059
-57,519	-200,000	-0,172	-0,849
-56,505	-200,000	-1,353	-4,974
-55,490	45,047	0,783	0,517
-54,476	800,000	5,298	12,022
-53,461	-200,000	17,652	289,964
-52,446	800,000	725,159	2235,298
-51,432	540,456	1637,733	2809,627
-50,417	110,724	1628,312	1405,500
-49,403	74,277	1283,297	966,399
-48,388	31,990	1026,583	633,475
-47,373	19,921	988,629	570,287
-46,359	18,355	976,770	558,292
-45,344	15,741	972,789	547,447
-44,330	15,916	971,504	547,273
-43,315	15,477	969,523	544,702
-42,300	15,450	968,463	543,999
-41,286	15,425	967,523	543,366
-40,271	15,402	966,560	542,729
-39,257	15,438	965,509	542,236
-38,242	15,416	964,849	541,773
-37,227	15,446	963,975	541,358
-36,213	15,464	962,973	540,831
-35,198	15,456	962,048	540,265
-34,184	15,474	961,450	539,965
-33,169	15,390	960,566	539,176
-32,154	15,471	959,692	538,924
-31,140	15,464	958,828	538,397
-30,125	15,489	957,953	537,962
-29,111	15,444	957,182	537,364
-28,096	15,501	956,532	537,160
-27,082	15,451	955,781	536,558
-26,067	15,493	954,944	536,202
-25,052	15,456	954,265	535,681
-24,038	15,465	953,469	535,243
-23,023	15,390	953,044	534,741
-22,009	15,428	952,342	534,447
-20,994	15,457	951,768	534,196
-19,979	15,425	951,208	533,759
-18,965	15,404	950,584	533,321
-17,950	15,432	949,924	533,018
-16,936	15,373	949,144	532,370
-15,921	15,350	948,744	532,053
-14,906	15,321	947,812	531,417
-13,892	15,305	947,304	531,060
-12,877	15,329	946,606	530,722
-11,863	15,265	946,133	530,234
-10,848	15,270	945,437	529,839
-9,833	15,414	944,877	529,962
-8,819	15,372	944,358	529,516
-7,804	15,395	943,464	529,067
-6,790	15,354	942,927	528,614
-5,775	15,359	942,383	528,303
-4,760	15,415	941,693	528,074
-3,746	15,372	941,284	527,686
-2,731	15,141	940,669	526,592
-1,717	15,164	939,932	526,231
-0,702	15,171	939,397	525,932
0,313	15,026	938,582	525,812
1,327	18,513	936,701	535,689
2,342	27,952	790,493	476,950
3,356	24,616	444,561	263,271
4,371	-5,197	294,913	144,916
5,386	-9,229	276,430	132,011
6,400	-10,571	270,744	128,040
7,415	-10,792	268,415	126,725
8,429	-10,887	267,133	126,021
9,444	-10,928	266,128	125,498
10,459	-10,642	265,368	125,389
11,473	-10,893	264,963	124,958
12,488	-11,105	264,504	124,539
13,502	-11,167	263,744	124,114
14,517	-11,009	263,407	124,087
15,531	-10,887	262,895	123,944
16,546	-11,036	262,827	123,767
17,561	-10,971	262,284	123,559
18,575	-10,847	262,049	123,548
19,590	-10,979	261,666	123,239
20,604	-10,919	261,311	123,114
21,619	-11,017	261,007	122,873
22,634	-11,000	260,599	122,685
23,648	-11,132	260,428	122,476
24,663	-11,059	260,102	122,377
25,677	-11,052	259,843	122,250
26,692	-10,981	259,622	122,197
27,707	-11,086	259,403	121,991
28,721	-11,157	259,117	121,782
29,736	-11,080	258,749	121,667
30,750	-11,258	258,664	121,459
31,765	-11,219	258,193	121,261
32,780	-11,376	258,139	121,086
33,794	-11,150	257,857	121,142
34,809	-11,114	257,695	121,087
35,823	-11,228	257,399	120,837
36,838	-11,186	257,016	120,684
37,853	-11,025	256,740	120,684
38,867	-11,281	256,693	120,427
39,882	-11,255	256,322	120,265
40,896	-11,305	256,068	120,091
41,911	-11,276	255,904	120,029
42,926	-11,253	255,689	119,938
43,940	-11,173	255,450	119,884
44,955	-11,193	255,185	119,732
45,969	-11,335	254,974	119,498
46,984	-11,721	254,754	119,049
47,999	-11,749	254,372	118,836
49,013	-11,916	254,249	118,623
50,028	-11,818	253,895	118,532
51,042	-12,151	253,729	118,156
52,057	-12,204	253,536	118,009
53,071	-11,875	253,158	118,107
54,086	-11,817	252,968	118,058
55,101	-11,769	252,911	118,062
56,115	-11,425	252,571	118,189
57,130	-11,069	252,712	118,552
58,144	-10,751	252,522	118,726
59,159	-10,893	252,277	118,478
60,174	-10,857	252,017	118,376
61,188	-11,085	251,890	118,110
62,203	-10,958	251,649	118,095
63,217	-11,257	251,553	117,784
64,232	-11,032	251,288	117,842
65,247	-10,920	251,052	117,817
66,261	-10,973	250,690	117,590
67,276	-11,345	250,477	117,163
68,290	-11,404	250,124	116,937
69,305	-11,650	249,952	116,636
70,320	-11,321	249,657	116,768
71,334	-11,479	249,839	116,709
72,349	-10,980	249,589	117,006
73,363	-10,826	249,312	116,996
74,378	-11,082	249,368	116,795
75,393	-11,154	248,977	116,540
76,407	-11,362	248,805	116,273
77,422	-11,058	248,568	116,409
78,436	-11,022	248,165	116,241
79,451	-10,998	247,961	116,154
80,466	-11,343	247,839	115,796
81,480	-11,317	247,472	115,636
82,495	-11,369	247,369	115,535
83,509	-11,366	247,261	115,475
84,524	-11,534	247,054	115,228
85,539	-11,486	246,771	115,126
86,553	-11,703	246,700	114,900
87,568	-11,311	246,378	115,069
88,582	-11,323	246,242	114,985
89,597	-11,421	245,972	114,766
90,611	-11,399	245,869	114,726
91,626	-11,054	245,678	114,915
92,641	-11,254	245,610	114,706
93,655	-11,251	245,553	114,672
94,670	-11,221	245,025	114,440
95,684	-11,162	245,058	114,494
96,699	-11,374	244,781	114,179
97,714	-11,311	244,538	114,107
98,728	-11,483	244,435	113,906
99,743	-11,441	244,043	113,749
100,757	-11,344	243,761	113,687
101,772	-11,416	243,836	113,652
102,787	-11,547	243,619	113,433
103,801	-11,451	243,459	113,427
104,816	-11,201	243,289	113,544
105,830	-11,146	243,051	113,469
106,845	-10,977	242,849	113,503
107,860	-11,189	242,771	113,283
108,874	-11,249	242,539	113,114
109,889	-11,175	242,308	113,057
110,903	-11,462	242,161	112,743
111,918	-11,274	241,978	112,802
112,933	-11,278	241,738	112,677
113,947	-11,204	241,757	112,737
114,962	-11,146	241,595	112,698
115,976	-11,174	241,451	112,598
116,991	-11,177	241,119	112,431
118,006	-11,156	240,925	112,347
119,020	-11,257	240,866	112,228
120,035	-11,108	240,810	112,313
121,049	-11,352	240,650	112,030
122,064	-10,903	240,199	112,175
123,079	-11,209	240,043	111,843
124,093	-11,295	239,849	111,673
125,108	-11,635	239,690	111,313
126,122	-11,644	239,454	111,186
127,137	-11,801	239,159	110,911
128,151	-11,642	239,216	111,057
129,166	-11,460	238,915	111,055
130,181	-11,700	238,673	110,738
131,195	-11,707	238,521	110,653
132,210	-11,321	238,403	110,899
133,224	-11,369	238,274	110,790
134,239	-11,502	238,202	110,640
135,254	-11,386	237,988	110,625
136,268	-11,489	237,680	110,388
137,283	-11,576	237,326	110,144
138,297	-11,778	237,158	109,894
139,312	-11,736	237,144	109,912
140,327	-11,357	236,855	110,072
141,341	-11,059	236,957	110,348
142,356	-10,974	236,862	110,362
143,370	-10,747	236,698	110,458
144,385	-10,780	236,376	110,271
145,400	-10,797	236,243	110,186
146,414	-10,878	236,194	110,088
147,429	-10,854	235,849	109,937
148,443	-10,815	235,824	109,947
149,458	-10,919	235,671	109,782
150,473	-10,819	235,441	109,746
151,487	-10,973	235,275	109,536
152,502	-10,941	235,173	109,504
153,516	-10,715	234,861	109,528
154,531	-10,706	234,634	109,420
155,546	-10,933	234,568	109,200
156,560	-10,949	234,475	109,133
157,575	-11,183	234,107	108,768
158,589	-11,183	233,986	108,701
159,604	-10,823	233,925	108,948
160,619	-10,536	233,665	109,044
161,633	-10,695	233,630	108,893
162,648	-10,753	233,560	108,804
163,662	-11,064	233,252	108,406
164,677	-11,187	233,116	108,237
165,692	-10,878	232,997	108,414
166,706	-10,804	232,829	108,385
167,721	-10,784	232,726	108,343
168,735	-10,734	232,627	108,327
169,750	-10,746	232,276	108,144
170,764	-10,964	232,244	107,948
171,779	-10,876	232,000	107,894
172,794	-10,861	231,960	107,878
173,808	-10,940	231,822	107,742
174,823	-11,558	231,433	107,069
175,837	-11,573	231,101	106,894
176,852	-11,497	231,259	107,017
177,867	-10,954	231,215	107,411
178,881	-10,635	230,888	107,498
179,896	-10,602	230,797	107,472
180,910	-10,659	230,704	107,374
181,925	-10,794	230,606	107,214
182,940	-10,737	230,320	107,116
183,954	-10,821	230,272	107,019
184,969	-10,583	230,124	107,126
185,983	-10,550	229,917	107,045
186,998	-10,586	229,855	106,978
188,013	-10,672	229,609	106,788
189,027	-10,553	229,387	106,768
190,042	-10,643	229,258	106,628
191,056	-10,769	229,241	106,513
192,071	-10,421	228,817	106,575
193,086	-10,835	228,926	106,297
194,100	-10,775	228,720	106,238
195,115	-10,715	228,314	106,086
196,129	-10,714	228,560	106,191
197,144	-5,312	230,272	111,161
198,159	0,340	231,931	116,349
199,173	3,033	232,549	118,743
200,188	3,167	232,554	118,839
201,202	3,188	232,320	118,726
202,217	3,607	232,265	119,011
203,232	3,761	232,276	119,126
204,246	4,318	231,983	119,396
205,261	4,098	232,036	119,243
206,275	3,922	231,938	119,045
207,290	4,231	231,615	119,108
208,304	4,129	231,568	118,995
209,319	4,047	231,330	118,798
210,334	3,817	231,089	118,486
211,348	3,671	230,886	118,259
212,363	3,474	230,549	117,924
213,377	3,254	230,376	117,657
214,392	3,149	230,285	117,519
215,407	3,395	230,064	117,584
216,421	3,379	230,069	117,564
217,436	3,213	229,800	117,289
218,450	3,067	229,663	117,097
219,465	3,045	229,503	116,988
220,480	2,977	229,330	116,838
221,494	3,183	229,204	116,920
222,509	3,345	229,079	116,969
223,523	3,210	228,962	116,796
224,538	3,319	228,652	116,711
225,553	3,102	228,718	116,569
226,567	3,178	228,655	116,584
227,582	3,544	228,497	116,772
228,596	3,414	228,444	116,635
229,611	3,431	228,172	116,499
230,626	3,225	227,777	116,131
231,640	3,209	227,683	116,060
232,655	3,454	227,818	116,305
233,669	3,965	227,669	116,606
234,684	3,824	227,445	116,374
235,699	3,737	227,179	116,162
236,713	3,521	227,041	115,917
237,728	3,281	226,974	115,691
238,742	3,324	226,715	115,581
239,757	3,261	226,515	115,421
240,772	3,196	226,401	115,304
241,786	3,328	226,208	115,295
242,801	3,334	226,125	115,247
243,815	3,578	226,323	115,521
244,830	3,699	225,951	115,413
245,844	3,404	225,644	115,023
246,859	3,441	225,626	115,032
247,874	3,531	225,434	114,991
248,888	3,700	225,294	115,036
249,903	3,562	225,091	114,819
250,917	3,287	224,951	114,532
251,932	3,343	224,888	114,531
252,947	3,148	224,689	114,274
253,961	3,001	224,484	114,050
254,976	3,299	224,329	114,183
255,990	3,699	224,330	114,472
257,005	3,513	224,098	114,205
258,020	3,521	224,011	114,156
259,034	3,557	224,091	114,213
260,049	3,770	223,794	114,210
261,063	3,120	223,759	113,699
262,078	3,778	223,462	114,027
263,093	3,840	223,355	114,007
264,107	3,637	223,185	113,760
265,122	3,764	222,950	113,725
266,136	3,657	222,989	113,655
267,151	3,697	222,730	113,542
268,166	3,404	222,533	113,215
269,180	2,984	222,409	112,832
270,195	3,140	222,226	112,844
271,209	3,151	221,947	112,701
272,224	3,278	222,020	112,821
273,239	3,362	221,733	112,728
274,253	3,371	221,628	112,671
275,268	3,183	221,396	112,404
276,282	3,091	221,254	112,255
277,297	3,170	220,940	112,143
278,312	3,131	221,065	112,168
279,326	3,380	220,954	112,284
280,341	3,197	220,805	112,064
281,355	3,552	220,628	112,225
282,370	3,282	220,537	111,970
283,384	3,022	220,292	111,646
284,399	3,106	220,174	111,638
285,414	2,976	220,029	111,460
286,428	3,202	220,000	111,600
287,443	3,550	219,892	111,788
288,457	3,241	219,743	111,477
289,472	3,108	219,513	111,255
290,487	2,855	219,207	110,905
291,501	2,801	219,105	110,805
292,516	2,909	218,951	110,795
293,530	3,126	218,932	110,933
294,545	3,223	218,627	110,839
295,560	3,262	218,677	110,883
296,574	3,543	218,436	110,954
297,589	3,227	218,379	110,687
298,603	3,271	218,227	110,631
299,618	3,484	218,121	110,722
300,633	3,554	218,107	110,755
301,647	3,363	217,967	110,537
302,662	3,500	217,755	110,519
303,676	3,494	217,561	110,405
304,691	3,516	217,571	110,416
305,706	3,517	217,401	110,321
306,720	3,581	217,191	110,251
307,735	3,454	217,047	110,076
308,749	3,052	216,944	109,725
309,764	3,505	216,723	109,929
310,779	3,403	216,648	109,808
311,793	3,337	216,478	109,665
312,808	3,257	216,437	109,577
313,822	3,488	216,287	109,657
314,837	3,436	216,085	109,508
315,852	3,146	215,742	109,117
316,866	3,279	215,823	109,243
317,881	3,566	215,619	109,334
318,895	3,651	215,464	109,307
319,910	3,363	215,270	108,994
320,925	3,035	214,971	108,599
321,939	2,697	214,859	108,293
322,954	2,878	214,958	108,462
323,968	3,098	214,874	108,566
324,983	3,061	214,786	108,486
325,997	3,595	214,648	108,785
327,012	3,493	214,523	108,640
328,027	3,712	214,313	108,679
329,041	3,670	214,254	108,609
330,056	3,534	214,298	108,526
331,070	3,633	213,933	108,402
332,085	2,865	213,741	107,752
333,100	3,187	213,630	107,914
334,114	3,504	213,398	108,010
335,129	3,319	213,287	107,814
336,143	3,264	213,204	107,724
337,158	3,360	213,020	107,689
338,173	3,191	212,902	107,501
339,187	3,139	212,818	107,412
340,202	3,080	212,612	107,257
341,216	3,135	212,429	107,194
342,231	3,496	212,309	107,377
343,246	3,067	212,301	107,063
344,260	2,995	212,047	106,875
345,275	3,423	211,907	107,094
346,289	3,449	211,955	107,127
347,304	3,558	211,833	107,131
348,319	3,460	211,467	106,869
349,333	3,476	211,406	106,839
350,348	3,280	211,329	106,654
351,362	3,599	211,229	106,816
352,377	3,365	211,158	106,609
353,392	3,348	210,917	106,465
354,406	3,425	210,882	106,492
355,421	195,911	1340,331	1419,440
356,435	156,492	1477,903	1419,409
