DTS Sentinel unit serial number:	SN410029Multiplexer serial number:	ORYXHardware model number:	OX2-SRSoftware version number:	ORYX F/W v4,00 Oryx Data Collector v3.7.2.0data status	okinstallation	B6 Nyhavnadifferential loss correction	single-endedforward channel	channel 2reverse channel	N/Adate	2023/12/11time	02:15:08forward acquisition time	300,00reverse acquisition time	0,00gamma	499,1914k internal	0,3122k external	0,3122temperature offset calibration	1,0000default loss term (dB/km)	0,3820temperature slope calibration	1,0000multiplexer offset coefficient	1,0000multiplexer slope coefficient	1,0000fibre end	0,00T internal ref (°C)	21,83T ext. ref 1 (°C)	4,78T ext. ref 2 (°C)	4,81length (m)	temperature (°C)	Stokes	anti-Stokes-744,400	-84,152	0,060	0,014
-743,385	101,898	-0,197	0,171
-742,371	31,080	0,038	-0,024
-741,356	185,598	-0,187	0,207
-740,342	-200,000	0,003	-0,079
-739,327	199,338	-0,076	0,087
-738,312	800,000	0,015	-0,039
-737,298	-77,182	-0,284	0,073
-736,283	-200,000	-0,035	-0,153
-735,269	-43,124	-0,263	0,099
-734,254	-118,989	0,021	0,003
-733,239	-111,113	-0,364	-0,055
-732,225	252,602	0,048	0,062
-731,210	-200,000	-0,012	0,166
-730,196	90,553	-0,053	0,044
-729,181	800,000	0,012	0,036
-728,167	-200,000	0,009	-0,041
-727,152	-200,000	-0,014	-0,082
-726,137	214,538	-0,072	-0,085
-725,123	-200,000	-0,012	-0,133
-724,108	800,000	-0,012	0,026
-723,094	800,000	-0,051	0,120
-722,079	-0,212	-0,024	0,012
-721,064	0,678	-0,033	-0,018
-720,050	11,740	-0,068	-0,039
-719,035	-31,977	-0,090	-0,037
-718,021	800,000	-0,043	0,121
-717,006	-200,000	-0,002	0,070
-715,991	190,270	-0,034	0,038
-714,977	-56,401	-0,037	0,012
-713,962	-200,000	-0,028	0,121
-712,948	-13,896	-0,025	0,012
-711,933	508,427	0,037	0,064
-710,918	-200,000	-0,022	0,101
-709,904	-23,303	-0,073	-0,033
-708,889	120,198	-0,037	-0,034
-707,875	-200,000	-0,009	-0,085
-706,860	-70,392	0,020	-0,006
-705,845	104,724	0,028	0,025
-704,831	-133,357	-0,056	0,005
-703,816	-200,000	-0,014	-0,065
-702,802	-200,000	-0,021	-0,078
-701,787	332,117	-0,077	-0,111
-700,772	-200,000	0,013	-0,120
-699,758	-200,000	0,014	-0,085
-698,743	-200,000	0,002	0,200
-697,729	241,126	0,020	-0,024
-696,714	327,734	-0,045	0,064
-695,699	-200,000	-0,025	-0,107
-694,685	800,000	-0,039	-0,112
-693,670	800,000	0,033	-0,069
-692,656	226,543	0,051	-0,062
-691,641	-19,772	0,109	0,050
-690,627	-200,000	0,025	-0,106
-689,612	-69,137	-0,072	0,020
-688,597	40,931	0,082	-0,055
-687,583	-151,441	-0,118	-0,006
-686,568	-60,560	-0,172	0,054
-685,554	-200,000	-0,028	-0,150
-684,539	-200,000	-0,014	0,068
-683,524	47,207	-0,048	0,033
-682,510	202,810	-0,029	-0,033
-681,495	467,631	-0,091	-0,153
-680,481	-167,351	-0,086	-0,003
-679,466	-200,000	-0,002	-0,137
-678,451	-200,000	0,040	-0,193
-677,437	-200,000	-0,007	-0,060
-676,422	-200,000	0,004	0,082
-675,408	800,000	-0,025	0,076
-674,393	800,000	0,025	0,075
-673,378	145,070	-0,030	0,030
-672,364	-67,108	-0,108	0,031
-671,349	-84,777	-0,106	-0,025
-670,335	800,000	-0,059	-0,166
-669,320	-118,620	0,111	0,014
-668,305	-20,014	-0,109	0,050
-667,291	552,563	0,065	-0,116
-666,276	-67,864	0,034	-0,010
-665,262	-105,398	-0,163	-0,027
-664,247	-200,000	-0,002	0,120
-663,232	-200,000	-0,007	0,096
-662,218	122,448	0,071	0,066
-661,203	140,053	-0,129	0,126
-660,189	-200,000	-0,028	-0,147
-659,174	-158,141	-0,195	-0,008
-658,159	71,429	-0,040	0,031
-657,145	33,851	-0,014	0,009
-656,130	-90,538	0,066	0,014
-655,116	193,971	-0,104	0,117
-654,101	-53,408	0,188	0,064
-653,086	322,881	0,055	-0,079
-652,072	11,376	-0,068	0,038
-651,057	689,746	-0,048	-0,094
-650,043	408,739	-0,068	-0,108
-649,028	424,071	-0,067	-0,107
-648,014	623,410	0,052	-0,099
-646,999	800,000	0,033	0,099
-645,984	800,000	-0,057	0,123
-644,970	-118,472	-0,055	0,007
-643,955	266,342	-0,042	-0,055
-642,941	-85,182	0,060	-0,014
-641,926	97,360	0,031	-0,027
-640,911	-15,809	0,161	0,076
-639,897	144,645	0,148	-0,147
-638,882	336,727	0,011	0,015
-637,868	559,094	0,007	0,013
-636,853	-139,155	-0,143	-0,011
-635,838	384,865	0,061	0,094
-634,824	-200,000	-0,020	-0,087
-633,809	-200,000	0,003	-0,084
-632,795	800,000	0,040	0,106
-631,780	-200,000	-0,029	0,168
-630,765	48,528	0,123	-0,086
-629,751	800,000	-0,067	-0,141
-628,736	109,528	-0,055	-0,049
-627,722	-13,105	-0,091	-0,044
-626,707	65,461	-0,012	-0,009
-625,692	-151,616	0,087	-0,005
-624,678	327,792	-0,081	0,116
-623,663	138,740	0,018	-0,017
-622,649	800,000	-0,025	0,058
-621,634	-200,000	0,012	-0,059
-620,619	-164,386	0,111	-0,004
-619,605	800,000	-0,052	-0,107
-618,590	49,966	0,067	0,047
-617,576	800,000	0,045	0,131
-616,561	96,192	-0,027	0,023
-615,546	-168,254	0,071	0,002
-614,532	-200,000	-0,010	-0,084
-613,517	-32,194	-0,122	-0,050
-612,503	-2,850	0,118	0,061
-611,488	-200,000	0,014	-0,065
-610,474	-57,799	-0,066	0,021
-609,459	-51,207	0,149	0,052
-608,444	686,925	0,042	-0,082
-607,430	566,039	-0,104	-0,187
-606,415	-200,000	-0,022	-0,094
-605,401	800,000	-0,020	-0,059
-604,386	319,559	0,055	0,078
-603,371	116,126	-0,021	-0,019
-602,357	-121,224	0,008	0,001
-601,342	577,878	0,015	0,028
-600,328	155,365	-0,052	-0,053
-599,313	-30,649	-0,129	0,054
-598,298	-200,000	-0,076	-0,000
-597,284	-9,861	0,130	0,064
-596,269	293,876	-0,032	0,043
-595,255	-200,000	0,002	0,029
-594,240	-138,294	-0,097	-0,008
-593,225	-29,221	-0,085	0,036
-592,211	-83,021	0,069	0,016
-591,196	416,298	0,027	0,042
-590,182	576,619	-0,042	0,076
-589,167	800,000	-0,026	-0,064
-588,152	-176,229	-0,167	-0,003
-587,138	-12,569	-0,144	-0,070
-586,123	800,000	-0,019	0,055
-585,109	-185,473	0,112	-0,001
-584,094	800,000	-0,038	-0,082
-583,079	73,273	0,167	-0,129
-582,065	-26,947	-0,022	-0,010
-581,050	-47,231	0,107	0,038
-580,036	69,871	0,029	-0,022
-579,021	314,874	0,110	-0,154
-578,006	246,120	-0,095	0,119
-576,992	-130,498	0,108	0,011
-575,977	-14,344	0,030	0,014
-574,963	800,000	-0,005	-0,010
-573,948	800,000	0,011	0,033
-572,934	-200,000	-0,000	-0,041
-571,919	-57,052	-0,153	-0,050
-570,904	-200,000	-0,015	0,185
-569,890	-86,284	-0,099	0,022
-568,875	-200,000	-0,003	0,058
-567,861	514,327	0,040	0,070
-566,846	-95,435	-0,041	0,008
-565,831	-200,000	0,006	-0,068
-564,817	72,175	-0,055	0,043
-563,802	675,182	-0,061	-0,117
-562,788	556,200	0,009	-0,016
-561,773	432,515	-0,025	0,041
-560,758	109,773	-0,114	0,101
-559,744	-125,862	0,067	0,007
-558,729	321,167	-0,041	-0,058
-557,715	800,000	0,040	-0,105
-556,700	-200,000	0,017	0,075
-555,685	163,075	0,026	0,027
-554,671	-200,000	0,018	0,093
-553,656	800,000	-0,020	-0,062
-552,642	-62,268	0,112	-0,034
-551,627	-28,382	-0,044	-0,019
-550,612	-62,288	-0,056	0,017
-549,598	784,667	-0,066	-0,134
-548,583	-50,920	0,081	-0,028
-547,569	86,313	0,116	0,095
-546,554	309,807	-0,047	0,065
-545,539	229,361	0,019	-0,023
-544,525	46,135	0,032	-0,022
-543,510	76,751	0,078	0,061
-542,496	-151,149	-0,161	0,009
-541,481	-45,350	0,079	-0,029
-540,466	0,558	-0,075	0,039
-539,452	260,558	-0,083	-0,106
-538,437	-200,000	0,018	0,088
-537,423	63,522	0,069	0,051
-536,408	469,257	-0,046	-0,076
-535,393	-10,462	-0,075	-0,037
-534,379	-200,000	-0,003	0,107
-533,364	183,314	0,083	0,090
-532,350	159,332	-0,015	0,015
-531,335	318,861	-0,058	-0,081
-530,321	165,095	0,045	-0,047
-529,306	52,999	0,050	0,035
-528,291	-65,406	-0,072	-0,021
-527,277	177,168	0,056	-0,061
-526,262	36,180	-0,059	0,039
-525,248	380,341	0,099	-0,150
-524,233	-200,000	0,006	0,023
-523,218	-50,655	-0,109	0,038
-522,204	601,956	-0,027	-0,050
-521,189	11,365	-0,090	-0,051
-520,175	61,015	-0,087	-0,064
-519,160	470,837	0,026	0,044
-518,145	-70,176	0,032	-0,009
-517,131	-116,576	0,066	0,009
-516,116	47,673	-0,094	0,064
-515,102	114,115	-0,106	-0,095
-514,087	-90,548	0,059	-0,012
-513,072	103,110	0,025	0,022
-512,058	800,000	-0,042	-0,092
-511,043	-158,097	-0,126	0,005
-510,029	667,552	0,047	-0,091
-509,014	328,041	-0,003	0,005
-507,999	185,409	-0,052	0,057
-506,985	-165,746	-0,085	0,003
-505,970	-77,208	-0,113	-0,029
-504,956	386,986	-0,053	-0,081
-503,941	-75,098	0,073	-0,019
-502,926	-169,021	0,077	-0,002
-501,912	67,624	-0,073	-0,055
-500,897	-200,000	-0,052	0,177
-499,883	-103,792	-0,024	-0,004
-498,868	223,706	-0,063	-0,075
-497,853	-200,000	0,002	-0,156
-496,839	129,902	0,106	0,101
-495,824	800,000	-0,060	0,179
-494,810	30,363	-0,041	0,026
-493,795	255,963	0,032	-0,040
-492,781	-200,000	0,017	0,090
-491,766	109,925	-0,064	0,057
-490,751	182,341	0,023	-0,025
-489,737	-56,243	0,009	0,003
-488,722	-33,799	0,125	0,051
-487,708	-166,362	-0,080	0,002
-486,693	-200,000	0,011	-0,075
-485,678	-193,410	-0,114	0,001
-484,664	-141,994	-0,106	-0,008
-483,649	146,585	-0,043	-0,043
-482,635	-67,590	-0,084	0,024
-481,620	-136,137	0,166	-0,014
-480,605	-47,925	0,081	-0,029
-479,591	554,614	0,003	0,005
-478,576	191,279	-0,039	-0,043
-477,562	-200,000	-0,004	0,032
-476,547	800,000	-0,039	0,104
-475,532	800,000	-0,060	0,137
-474,518	800,000	0,046	-0,106
-473,503	99,133	0,087	-0,074
-472,489	61,326	-0,057	0,042
-471,474	409,643	-0,054	0,085
-470,459	-37,437	-0,131	0,051
-469,445	222,098	0,085	-0,101
-468,430	800,000	0,033	-0,080
-467,416	494,887	-0,029	-0,050
-466,401	-190,471	0,135	0,001
-465,386	-123,181	-0,125	0,015
-464,372	55,053	0,106	0,075
-463,357	776,788	0,075	0,151
-462,343	-73,712	-0,138	-0,037
-461,328	-95,160	0,040	-0,008
-460,313	-119,204	0,083	-0,011
-459,299	112,586	-0,055	0,049
-458,284	145,058	-0,036	0,035
-457,270	90,298	-0,071	-0,058
-456,255	174,447	0,066	-0,071
-455,241	638,745	0,050	-0,095
-454,226	800,000	-0,021	-0,043
-453,211	-200,000	0,007	0,055
-452,197	-200,000	0,017	-0,188
-451,182	-200,000	0,038	0,153
-450,168	-98,988	-0,110	-0,020
-449,153	-176,958	0,116	-0,002
-448,138	800,000	0,024	-0,073
-447,124	-110,784	-0,052	-0,008
-446,109	255,532	0,016	-0,020
-445,095	-200,000	-0,009	0,082
-444,080	-200,000	0,033	0,123
-443,065	-200,000	-0,015	0,081
-442,051	-26,706	-0,068	0,029
-441,036	-155,886	-0,130	-0,006
-440,022	151,801	-0,028	-0,028
-439,007	273,163	0,038	0,049
-437,992	154,715	0,114	0,116
-436,978	800,000	-0,047	0,106
-435,963	-200,000	0,007	0,080
-434,949	491,296	0,074	-0,125
-433,934	102,682	-0,067	-0,058
-432,919	13,698	0,126	-0,072
-431,905	-197,076	0,016	0,000
-430,890	-149,410	0,072	-0,004
-429,876	-200,000	-0,004	-0,025
-428,861	800,000	-0,027	0,075
-427,846	212,053	-0,102	0,119
-426,832	-200,000	-0,041	-0,133
-425,817	497,046	-0,064	-0,110
-424,803	800,000	-0,023	0,049
-423,788	-143,769	0,168	0,012
-422,773	41,740	0,142	0,095
-421,759	-60,012	0,062	-0,019
-420,744	-86,831	-0,101	0,023
-419,730	217,429	0,015	-0,018
-418,715	800,000	-0,028	-0,068
-417,701	664,032	-0,067	-0,127
-416,686	-200,000	-0,032	0,144
-415,671	63,737	0,071	0,053
-414,657	-200,000	0,022	-0,121
-413,642	800,000	0,074	0,187
-412,628	-16,803	0,080	-0,037
-411,613	-41,550	0,077	-0,029
-410,598	131,490	0,028	0,026
-409,584	371,426	0,014	0,020
-408,569	681,932	-0,043	0,084
-407,555	800,000	0,034	-0,078
-406,540	-200,000	-0,001	0,124
-405,525	407,880	-0,066	0,103
-404,511	-149,354	-0,087	0,005
-403,496	-200,000	0,005	-0,069
-402,482	77,555	0,032	-0,025
-401,467	-200,000	-0,022	-0,076
-400,452	-71,565	0,101	0,027
-399,438	419,480	-0,042	-0,066
-398,423	-68,954	0,086	0,024
-397,409	58,113	-0,083	-0,060
-396,394	-98,062	-0,169	-0,032
-395,379	95,222	0,073	0,061
-394,365	67,214	0,034	0,026
-393,350	-200,000	0,010	-0,064
-392,336	-22,444	0,079	-0,035
-391,321	-163,246	-0,040	0,001
-390,306	-110,326	-0,102	-0,015
-389,292	415,826	0,104	-0,164
-388,277	99,786	0,082	0,070
-387,263	-200,000	-0,008	0,034
-386,248	78,278	0,135	0,106
-385,233	-200,000	0,003	0,069
-384,219	-200,000	-0,002	0,047
-383,204	-200,000	-0,020	0,073
-382,190	415,513	-0,067	-0,106
-381,175	-200,000	-0,025	0,164
-380,160	-41,422	0,003	0,001
-379,146	-79,325	0,053	-0,013
-378,131	608,715	0,059	0,109
-377,117	364,182	0,049	0,073
-376,102	-73,141	-0,036	-0,010
-375,088	112,369	-0,115	-0,103
-374,073	111,752	0,025	-0,022
-373,058	82,538	-0,122	0,097
-372,044	435,069	0,040	0,063
-371,029	580,856	0,035	-0,064
-370,015	-200,000	-0,004	0,062
-369,000	-200,000	0,015	-0,093
-367,985	-77,347	-0,189	-0,048
-366,971	-200,000	0,006	0,021
-365,956	-54,398	0,143	0,047
-364,942	-200,000	0,005	0,079
-363,927	800,000	-0,017	0,044
-362,912	332,848	-0,035	-0,049
-361,898	149,131	-0,042	-0,042
-360,883	145,034	0,074	-0,073
-359,869	477,270	-0,064	-0,107
-358,854	-55,853	-0,133	0,043
-357,839	526,349	0,084	0,146
-356,825	-13,716	0,045	-0,022
-355,810	-200,000	-0,013	0,083
-354,796	164,074	0,014	0,015
-353,781	-200,000	-0,019	-0,135
-352,766	-27,167	-0,074	-0,032
-351,752	180,457	-0,008	-0,009
-350,737	-200,000	-0,005	0,074
-349,723	-200,000	0,014	0,108
-348,708	119,576	-0,080	0,073
-347,693	-18,912	-0,163	-0,074
-346,679	-82,829	0,169	-0,040
-345,664	-135,389	0,047	0,004
-344,650	-115,119	-0,158	0,022
-343,635	-185,406	0,053	-0,001
-342,620	-38,716	0,087	0,033
-341,606	-117,408	-0,115	-0,015
-340,591	243,432	-0,073	-0,090
-339,577	-200,000	-0,010	-0,166
-338,562	356,856	0,043	-0,064
-337,548	762,195	-0,045	-0,090
-336,533	-200,000	0,042	0,138
-335,518	-200,000	-0,002	0,030
-334,504	-200,000	-0,018	0,139
-333,489	-30,659	0,092	-0,038
-332,475	183,439	-0,084	-0,091
-331,460	-157,978	-0,154	-0,007
-330,445	277,372	-0,045	-0,058
-329,431	65,731	0,017	-0,012
-328,416	305,400	0,046	0,063
-327,402	278,837	0,036	0,047
-326,387	224,055	-0,040	0,048
-325,372	428,822	-0,053	-0,085
-324,358	800,000	0,038	-0,109
-323,343	66,639	0,118	-0,088
-322,329	-200,000	0,044	0,161
-321,314	-11,593	0,042	0,020
-320,299	-200,000	0,002	-0,088
-319,285	-200,000	-0,012	0,059
-318,270	158,214	0,053	0,054
-317,256	800,000	-0,029	-0,091
-316,241	-82,300	-0,128	-0,030
-315,226	-108,942	-0,101	-0,016
-314,212	-200,000	0,007	0,111
-313,197	72,786	-0,082	0,063
-312,183	-200,000	-0,006	0,085
-311,168	13,500	-0,049	0,028
-310,153	-42,872	0,078	-0,029
-309,139	-132,347	-0,011	0,001
-308,124	-8,241	0,139	-0,068
-307,110	489,532	0,011	0,018
-306,095	-66,593	-0,108	-0,031
-305,080	-82,361	-0,050	-0,012
-304,066	-169,711	0,080	-0,002
-303,051	-62,534	0,081	0,025
-302,037	141,341	0,114	0,111
-301,022	-200,000	0,013	-0,067
-300,008	-0,236	0,143	-0,074
-298,993	195,254	0,101	0,113
-297,978	-200,000	0,009	0,084
-296,964	-200,000	0,033	-0,107
-295,949	7,867	-0,110	-0,060
-294,935	-200,000	0,019	0,066
-293,920	178,318	0,033	-0,035
-292,905	443,819	0,043	0,069
-291,891	-15,808	0,104	0,048
-290,876	62,081	0,058	0,043
-289,862	800,000	0,046	-0,102
-288,847	-58,736	0,122	-0,038
-287,832	-67,836	-0,091	0,026
-286,818	-200,000	-0,008	-0,077
-285,803	800,000	0,015	0,035
-284,789	687,924	-0,043	0,083
-283,774	476,932	-0,041	-0,067
-282,759	-200,000	-0,020	-0,142
-281,745	15,066	-0,124	-0,071
-280,730	365,877	-0,089	0,132
-279,716	-200,000	-0,024	-0,097
-278,701	-200,000	0,006	0,052
-277,686	-23,692	0,055	-0,024
-276,672	-200,000	0,003	0,054
-275,657	800,000	-0,038	-0,116
-274,643	752,108	0,043	-0,086
-273,628	-200,000	0,009	-0,045
-272,613	376,757	-0,042	0,063
-271,599	468,499	0,068	-0,112
-270,584	669,135	0,049	0,094
-269,570	-13,241	-0,058	0,028
-268,555	-200,000	0,017	-0,104
-267,540	800,000	-0,005	0,016
-266,526	-200,000	-0,000	-0,061
-265,511	-110,209	-0,006	-0,001
-264,497	-68,555	0,114	-0,032
-263,482	-200,000	0,011	-0,042
-262,467	-200,000	-0,006	-0,091
-261,453	-200,000	-0,033	-0,122
-260,438	-200,000	-0,002	-0,067
-259,424	-42,249	-0,092	0,034
-258,409	105,435	-0,092	-0,079
-257,395	29,726	-0,049	-0,030
-256,380	-200,000	0,003	0,022
-255,365	800,000	0,051	-0,137
-254,351	800,000	-0,032	0,073
-253,336	-13,016	-0,129	-0,061
-252,322	575,724	0,013	-0,024
-251,307	-114,300	0,135	0,019
-250,292	294,702	0,137	0,184
-249,278	526,691	-0,052	0,089
-248,263	-200,000	0,008	0,130
-247,249	-48,212	-0,027	0,009
-246,234	800,000	0,021	0,045
-245,219	800,000	-0,079	0,195
-244,205	-146,805	-0,048	-0,003
-243,190	138,811	-0,067	0,065
-242,176	373,664	-0,092	0,137
-241,161	57,316	0,069	0,049
-240,146	665,201	0,061	-0,115
-239,132	164,301	-0,036	-0,037
-238,117	-200,000	0,012	-0,119
-237,103	92,866	-0,083	-0,068
-236,088	-200,000	0,004	-0,038
-235,073	393,407	0,016	-0,024
-234,059	313,531	0,132	0,181
-233,044	-68,524	0,179	0,051
-232,030	257,219	-0,087	-0,109
-231,015	-200,000	-0,017	-0,079
-230,000	-57,162	0,047	0,015
-228,986	-164,575	-0,034	-0,001
-227,971	-200,000	-0,002	0,048
-226,957	-72,523	0,113	-0,030
-225,942	74,214	-0,067	-0,051
-224,927	-200,000	-0,031	0,119
-223,913	333,128	-0,061	-0,086
-222,898	237,226	0,008	-0,009
-221,884	169,777	0,055	-0,057
-220,869	800,000	-0,050	0,152
-219,855	-200,000	0,009	0,151
-218,840	-200,000	0,010	0,155
-217,825	-200,000	-0,005	-0,037
-216,811	-200,000	0,020	0,099
-215,796	-75,133	-0,068	-0,018
-214,782	510,774	0,054	-0,092
-213,767	369,380	0,061	-0,091
-212,752	140,388	0,035	-0,034
-211,738	77,655	0,055	-0,043
-210,723	-118,400	0,108	0,014
-209,709	-19,039	-0,131	0,059
-208,694	-200,000	-0,002	0,166
-207,679	-100,345	0,021	-0,004
-206,665	-200,000	0,022	-0,099
-205,650	61,840	0,178	-0,129
-204,636	-37,234	0,138	-0,053
-203,621	276,367	0,069	0,090
-202,606	129,847	-0,023	0,022
-201,592	289,307	0,036	-0,048
-200,577	-114,617	0,043	-0,006
-199,563	-200,000	-0,030	-0,098
-198,548	44,575	-0,022	-0,015
-197,533	74,264	-0,035	0,027
-196,519	426,184	0,052	0,082
-195,504	655,388	-0,081	-0,153
-194,490	-194,412	-0,139	-0,001
-193,475	-131,892	-0,075	-0,007
-192,460	-55,387	0,184	-0,060
-191,446	800,000	0,080	0,221
-190,431	-5,122	0,256	0,128
-189,417	-169,265	-0,072	0,002
-188,402	24,641	-0,061	0,037
-187,387	-200,000	-0,009	-0,049
-186,373	-51,399	-0,124	-0,042
-185,358	-200,000	0,021	-0,117
-184,344	167,573	-0,085	0,088
-183,329	800,000	-0,036	0,080
-182,315	-129,772	0,137	-0,014
-181,300	-200,000	0,006	0,042
-180,285	-200,000	0,021	0,085
-179,271	-142,362	0,152	-0,011
-178,256	-11,933	-0,072	0,034
-177,242	800,000	0,009	0,026
-176,227	402,456	-0,026	-0,041
-175,212	-66,508	-0,025	0,007
-174,198	349,916	-0,102	-0,147
-173,183	-200,000	0,010	-0,035
-172,169	76,992	-0,066	0,051
-171,154	243,333	0,012	0,014
-170,139	-200,000	0,027	0,137
-169,125	-90,801	0,146	-0,030
-168,110	30,843	-0,088	0,055
-167,096	-200,000	-0,008	0,122
-166,081	607,747	-0,055	-0,100
-165,066	800,000	0,057	-0,177
-164,052	-62,098	-0,094	0,028
-163,037	311,436	-0,038	-0,052
-162,023	-22,935	0,075	-0,033
-161,008	175,968	0,064	-0,068
-159,993	-159,295	0,057	-0,002
-158,979	-200,000	-0,039	-0,130
-157,964	-22,317	0,084	0,037
-156,950	33,822	-0,112	0,071
-155,935	159,833	0,084	-0,086
-154,920	56,867	0,029	0,020
-153,906	-176,249	0,083	-0,002
-152,891	121,541	-0,087	0,079
-151,877	-133,943	-0,026	-0,002
-150,862	-200,000	0,013	0,052
-149,847	-200,000	0,015	-0,066
-148,833	-200,000	-0,009	0,077
-147,818	106,381	0,068	0,059
-146,804	-26,796	-0,066	0,028
-145,789	129,718	0,080	-0,074
-144,775	-200,000	-0,028	-0,107
-143,760	324,086	-0,079	0,111
-142,745	-177,145	0,033	-0,001
-141,731	-200,000	-0,007	-0,028
-140,716	-62,556	-0,073	0,022
-139,702	-12,428	0,050	-0,024
-138,687	-111,458	0,034	-0,005
-137,672	800,000	0,036	-0,092
-136,658	34,515	0,025	-0,016
-135,643	800,000	-0,022	0,053
-134,629	284,232	0,079	0,103
-133,614	800,000	-0,027	0,070
-132,599	800,000	-0,005	-0,015
-131,585	-111,949	-0,012	0,002
-130,570	298,353	0,040	-0,053
-129,556	-200,000	-0,004	-0,071
-128,541	800,000	-0,031	-0,068
-127,526	645,962	-0,017	0,031
-126,512	354,704	-0,056	0,081
-125,497	33,359	-0,018	-0,011
-124,483	-200,000	0,002	0,083
-123,468	4,901	0,089	-0,048
-122,453	-109,839	-0,060	0,009
-121,439	-200,000	0,003	0,043
-120,424	186,407	-0,055	-0,060
-119,410	-200,000	-0,016	0,077
-118,395	800,000	-0,023	0,047
-117,380	800,000	0,014	-0,034
-116,366	-200,000	0,028	0,185
-115,351	800,000	-0,023	-0,055
-114,337	-200,000	-0,023	0,077
-113,322	-23,414	-0,149	0,065
-112,307	-58,309	-0,123	-0,039
-111,293	-200,000	-0,003	-0,016
-110,278	51,088	0,122	0,084
-109,264	322,339	0,062	-0,087
-108,249	800,000	-0,033	-0,086
-107,234	800,000	0,025	-0,054
-106,220	435,570	0,034	0,055
-105,205	-115,395	0,092	0,012
-104,191	-172,069	0,106	0,002
-103,176	102,929	-0,030	-0,025
-102,162	-94,505	-0,251	-0,049
-101,147	800,000	-0,021	0,058
-100,132	800,000	-0,055	-0,127
-99,118	-188,544	-0,041	-0,000
-98,103	800,000	-0,022	0,058
-97,089	732,693	0,042	-0,081
-96,074	-93,732	0,074	0,015
-95,059	-200,000	0,000	0,149
-94,045	-131,348	-0,044	-0,004
-93,030	25,177	-0,054	-0,033
-92,016	-48,619	0,049	0,017
-91,001	-145,473	0,045	0,003
-89,986	75,600	0,064	0,049
-88,972	-200,000	-0,032	0,134
-87,957	-102,396	-0,143	0,025
-86,943	126,137	-0,053	-0,049
-85,928	-200,000	0,010	-0,079
-84,913	800,000	0,063	-0,141
-83,899	-200,000	0,016	-0,132
-82,884	-41,901	0,097	-0,036
-81,870	328,091	-0,014	0,020
-80,855	51,511	0,087	0,060
-79,840	-200,000	0,021	0,140
-78,826	254,440	-0,071	0,088
-77,811	567,254	-0,013	0,024
-76,797	6,331	-0,058	0,031
-75,782	800,000	0,059	0,173
-74,767	-51,927	0,057	-0,019
-73,753	401,737	0,050	-0,077
-72,738	126,502	-0,039	0,036
-71,724	800,000	-0,015	-0,039
-70,709	-119,491	-0,123	-0,015
-69,694	-200,000	0,007	0,046
-68,680	-95,689	0,056	0,011
-67,665	-117,911	-0,040	-0,005
-66,651	-184,539	0,110	0,001
-65,636	800,000	-0,015	0,038
-64,622	-200,000	0,026	-0,100
-63,607	428,793	-0,037	-0,059
-62,592	210,537	0,039	0,044
-61,578	-102,301	-0,058	-0,010
-60,563	-74,894	0,108	0,028
-59,549	235,491	0,090	0,108
-58,534	-103,228	-1,467	-0,249
-57,519	743,296	-0,730	-1,431
-56,505	-200,000	-0,963	-4,443
-55,490	33,559	0,598	-0,376
-54,476	800,000	4,930	11,829
-53,461	-200,000	14,255	255,876
-52,446	-200,000	694,960	2255,222
-51,432	582,114	1625,307	2905,180
-50,417	117,840	1633,813	1460,248
-49,403	73,766	1287,772	978,595
-48,388	37,632	1024,612	658,638
-47,373	23,875	982,980	586,552
-46,359	23,120	972,314	577,685
-45,344	22,088	968,135	571,801
-44,330	22,034	966,525	570,649
-43,315	21,853	965,183	569,246
-42,300	21,903	963,946	568,656
-41,286	21,881	963,137	568,086
-40,271	21,850	962,005	567,295
-39,257	21,875	961,084	566,809
-38,242	21,793	960,371	566,098
-37,227	21,905	959,194	565,747
-36,213	21,841	958,420	565,059
-35,198	21,791	957,681	564,441
-34,184	21,843	956,929	564,143
-33,169	21,777	956,116	563,428
-32,154	21,838	955,112	563,011
-31,140	21,926	954,172	562,717
-30,125	21,964	953,469	562,405
-29,111	21,893	952,556	561,615
-28,096	21,875	951,933	561,167
-27,082	21,838	951,177	560,578
-26,067	21,847	950,508	560,192
-25,052	21,852	949,879	559,814
-24,038	21,902	949,031	559,454
-23,023	21,898	948,474	559,088
-22,009	21,946	947,765	558,802
-20,994	21,954	946,966	558,335
-19,979	21,859	946,575	557,778
-18,965	21,892	945,874	557,449
-17,950	21,904	945,251	557,099
-16,936	21,792	944,571	556,320
-15,921	21,814	943,858	555,946
-14,906	21,793	943,113	555,419
-13,892	21,753	942,580	554,955
-12,877	21,722	942,131	554,569
-11,863	21,768	941,091	554,084
-10,848	21,782	940,940	554,014
-9,833	21,853	940,473	553,946
-8,819	21,790	939,862	553,363
-7,804	21,773	939,087	552,832
-6,790	21,754	938,412	552,351
-5,775	21,722	938,085	552,035
-4,760	21,770	937,167	551,626
-3,746	21,754	936,538	551,181
-2,731	21,653	935,850	550,436
-1,717	21,586	935,311	549,885
-0,702	21,539	934,612	549,304
0,313	21,386	933,943	549,257
1,327	24,413	931,874	557,522
2,342	33,871	795,759	501,293
3,356	31,374	451,694	280,753
4,371	0,576	294,307	152,105
5,386	-3,722	275,144	138,111
6,400	-5,377	269,394	133,673
7,415	-5,876	267,163	132,094
8,429	-5,507	265,848	131,771
9,444	-5,532	264,982	131,307
10,459	-5,398	264,445	131,152
11,473	-5,487	263,865	130,772
12,488	-5,537	263,392	130,479
13,502	-5,539	262,625	130,087
14,517	-5,561	262,430	129,958
15,531	-5,363	262,034	129,930
16,546	-5,149	261,766	129,979
17,561	-5,243	261,465	129,732
18,575	-5,027	261,005	129,687
19,590	-5,142	260,647	129,394
20,604	-5,154	260,375	129,237
21,619	-5,162	260,065	129,064
22,634	-5,103	259,678	128,914
23,648	-5,184	259,353	128,668
24,663	-5,280	259,150	128,470
25,677	-5,098	258,903	128,499
26,692	-5,295	258,618	128,171
27,707	-5,309	258,338	128,008
28,721	-5,364	258,153	127,856
29,736	-5,426	258,004	127,715
30,750	-5,223	257,512	127,641
31,765	-5,365	257,389	127,442
32,780	-5,419	257,201	127,290
33,794	-5,269	257,014	127,319
34,809	-5,407	256,644	127,003
35,823	-5,175	256,312	127,032
36,838	-5,341	256,222	126,829
37,853	-5,328	256,033	126,736
38,867	-5,414	255,543	126,407
39,882	-5,344	255,691	126,530
40,896	-5,282	255,287	126,373
41,911	-5,494	255,109	126,087
42,926	-5,292	254,775	126,089
43,940	-5,455	254,725	125,910
44,955	-5,580	254,390	125,623
45,969	-5,440	254,252	125,666
46,984	-5,666	253,971	125,318
47,999	-5,689	253,570	125,089
49,013	-5,839	253,278	124,804
50,028	-6,122	253,181	124,498
51,042	-6,219	252,934	124,281
52,057	-6,073	252,582	124,224
53,071	-5,919	252,360	124,237
54,086	-6,056	252,409	124,131
55,101	-5,850	252,102	124,148
56,115	-5,542	252,077	124,392
57,130	-5,432	251,824	124,351
58,144	-4,970	251,673	124,665
59,159	-5,027	251,366	124,452
60,174	-5,233	251,329	124,245
61,188	-5,150	251,003	124,145
62,203	-5,302	251,027	124,014
63,217	-5,283	250,704	123,860
64,232	-5,268	250,359	123,692
65,247	-5,428	250,180	123,454
66,261	-5,388	250,085	123,431
67,276	-5,309	249,600	123,248
68,290	-5,598	249,565	122,973
69,305	-5,823	249,198	122,588
70,320	-5,687	249,092	122,641
71,334	-5,376	249,009	122,855
72,349	-5,058	248,809	123,018
73,363	-5,154	248,665	122,853
74,378	-5,148	248,413	122,723
75,393	-5,312	248,203	122,468
76,407	-5,342	247,991	122,327
77,422	-5,167	247,854	122,398
78,436	-5,088	247,777	122,417
79,451	-5,183	247,373	122,125
80,466	-5,451	247,331	121,866
81,480	-5,559	246,976	121,589
82,495	-5,461	246,826	121,587
83,509	-5,490	246,667	121,473
84,524	-5,520	246,351	121,281
85,539	-5,596	246,162	121,113
86,553	-5,710	245,916	120,886
87,568	-5,471	245,829	121,033
88,582	-5,519	245,548	120,844
89,597	-5,534	245,474	120,785
90,611	-5,512	245,452	120,781
91,626	-5,307	245,219	120,828
92,641	-5,263	244,994	120,743
93,655	-5,384	244,697	120,485
94,670	-5,358	244,544	120,420
95,684	-5,426	244,408	120,286
96,699	-5,366	244,175	120,210
97,714	-5,777	244,120	119,829
98,728	-5,611	243,838	119,819
99,743	-5,642	243,538	119,634
100,757	-5,676	243,396	119,526
101,772	-5,628	243,132	119,425
102,787	-5,572	243,164	119,477
103,801	-5,470	242,796	119,370
104,816	-5,474	242,712	119,315
105,830	-5,414	242,565	119,282
106,845	-5,391	242,555	119,285
107,860	-5,435	242,263	119,095
108,874	-5,532	242,004	118,877
109,889	-5,612	241,907	118,752
110,903	-5,429	241,499	118,693
111,918	-5,714	241,414	118,405
112,933	-5,524	241,250	118,471
113,947	-5,584	241,239	118,405
114,962	-5,367	241,047	118,479
115,976	-5,475	240,784	118,250
116,991	-5,368	240,672	118,272
118,006	-5,395	240,484	118,148
119,020	-5,325	240,288	118,099
120,035	-5,208	240,208	118,145
121,049	-5,407	240,116	117,926
122,064	-5,409	239,818	117,767
123,079	-5,303	239,637	117,754
124,093	-5,435	239,308	117,474
125,108	-5,483	239,210	117,377
126,122	-5,693	239,107	117,144
127,137	-5,813	238,850	116,909
128,151	-5,716	238,695	116,902
129,166	-5,491	238,454	116,957
130,181	-5,812	238,237	116,579
131,195	-5,744	238,087	116,551
132,210	-5,545	237,882	116,601
133,224	-5,543	237,930	116,616
134,239	-5,373	237,646	116,605
135,254	-5,389	237,567	116,542
136,268	-5,614	237,206	116,173
137,283	-5,673	236,998	116,013
138,297	-5,867	236,854	115,775
139,312	-5,998	236,650	115,559
140,327	-5,809	236,571	115,663
141,341	-5,107	236,552	116,210
142,356	-5,093	236,405	116,139
143,370	-5,246	236,377	115,991
144,385	-5,000	236,025	116,007
145,400	-5,294	236,071	115,781
146,414	-5,154	235,869	115,785
147,429	-5,282	235,558	115,519
148,443	-5,191	235,339	115,475
149,458	-5,062	235,064	115,433
150,473	-5,234	234,920	115,214
151,487	-5,129	234,791	115,225
152,502	-5,231	234,780	115,128
153,516	-5,003	234,517	115,170
154,531	-5,009	234,400	115,098
155,546	-5,139	234,086	114,830
156,560	-5,256	234,043	114,705
157,575	-5,356	233,760	114,476
158,589	-5,416	233,598	114,339
159,604	-5,045	233,425	114,539
160,619	-4,804	233,273	114,646
161,633	-4,782	233,171	114,603
162,648	-5,002	233,095	114,381
163,662	-5,083	233,058	114,289
164,677	-5,130	232,727	114,079
165,692	-5,209	232,631	113,959
166,706	-5,045	232,545	114,036
167,721	-4,881	232,351	114,061
168,735	-4,960	232,087	113,858
169,750	-5,003	232,071	113,806
170,764	-5,172	231,776	113,518
171,779	-5,307	231,809	113,417
172,794	-5,126	231,513	113,405
173,808	-5,159	231,250	113,241
174,823	-5,615	230,930	112,715
175,837	-5,810	230,884	112,530
176,852	-5,231	230,642	112,856
177,867	-5,150	230,801	112,988
178,881	-5,029	230,480	112,915
179,896	-5,056	230,524	112,905
180,910	-5,007	230,201	112,775
181,925	-5,033	230,107	112,699
182,940	-4,983	229,932	112,643
183,954	-5,221	229,900	112,431
184,969	-4,812	229,683	112,634
185,983	-4,859	229,685	112,588
186,998	-5,167	229,335	112,166
188,013	-5,213	229,263	112,085
189,027	-4,934	228,960	112,144
190,042	-4,864	228,931	112,174
191,056	-4,904	228,890	112,113
192,071	-5,126	228,586	111,782
193,086	-5,089	228,361	111,691
194,100	-5,146	228,115	111,516
195,115	-5,716	227,741	110,883
196,129	-6,958	227,304	109,701
197,144	-3,388	228,458	113,017
198,159	1,521	229,919	117,554
199,173	4,076	230,605	119,886
200,188	4,342	230,519	120,037
201,202	4,499	230,218	119,992
202,217	4,677	230,143	120,081
203,232	4,844	230,175	120,216
204,246	4,786	230,106	120,125
205,261	4,551	229,892	119,820
206,275	5,109	229,751	120,169
207,290	5,158	229,549	120,090
208,304	5,275	229,331	120,055
209,319	4,816	229,173	119,608
210,334	4,745	229,205	119,558
211,348	4,640	228,882	119,298
212,363	4,319	228,585	118,885
213,377	3,984	228,433	118,538
214,392	4,220	228,331	118,656
215,407	4,236	228,131	118,553
216,421	4,372	227,951	118,554
217,436	4,218	227,929	118,413
218,450	3,943	227,453	117,945
219,465	3,953	227,428	117,929
220,480	3,904	227,281	117,805
221,494	3,797	227,251	117,697
222,509	4,130	227,101	117,863
223,523	4,150	226,801	117,713
224,538	3,818	226,775	117,435
225,553	4,099	226,668	117,584
226,567	4,362	226,338	117,603
227,582	4,415	226,313	117,620
228,596	4,732	226,313	117,850
229,611	4,280	226,086	117,377
230,626	4,041	225,874	117,075
231,640	4,265	225,683	117,137
232,655	4,541	225,711	117,350
233,669	4,710	225,582	117,401
234,684	4,868	225,504	117,470
235,699	4,794	225,121	117,203
236,713	4,310	225,008	116,768
237,728	4,226	224,901	116,639
238,742	3,917	224,764	116,323
239,757	3,926	224,602	116,236
240,772	4,121	224,329	116,231
241,786	4,128	224,274	116,198
242,801	4,224	224,241	116,243
243,815	4,623	224,197	116,510
244,830	4,503	223,965	116,289
245,844	4,423	223,694	116,078
246,859	4,465	223,431	115,963
247,874	4,374	223,455	115,896
248,888	4,541	223,432	115,999
249,903	4,455	223,179	115,793
250,917	4,174	223,024	115,492
251,932	4,344	222,856	115,522
252,947	4,243	222,607	115,306
253,961	4,110	222,377	115,078
254,976	4,183	222,347	115,107
255,990	4,261	222,361	115,162
257,005	4,367	222,107	115,099
258,020	4,425	222,019	115,087
259,034	4,763	221,942	115,289
260,049	4,332	221,837	114,903
261,063	4,409	221,578	114,815
262,078	4,394	221,502	114,755
263,093	4,634	221,294	114,815
264,107	4,652	221,081	114,707
265,122	4,627	221,134	114,706
266,136	4,708	221,046	114,711
267,151	4,662	220,847	114,563
268,166	4,241	220,578	114,101
269,180	4,074	220,208	113,777
270,195	4,034	220,122	113,693
271,209	4,211	220,033	113,767
272,224	4,141	219,886	113,630
273,239	4,160	219,771	113,574
274,253	4,075	219,648	113,437
275,268	3,937	219,408	113,202
276,282	4,105	219,266	113,242
277,297	3,994	219,157	113,094
278,312	3,800	219,160	112,943
279,326	4,033	219,094	113,070
280,341	3,909	218,827	112,832
281,355	4,195	218,562	112,894
282,370	4,083	218,338	112,686
283,384	4,089	218,258	112,639
284,399	3,823	218,161	112,385
285,414	3,856	218,058	112,346
286,428	4,052	218,020	112,459
287,443	4,289	217,962	112,592
288,457	4,380	217,654	112,490
289,472	4,098	217,498	112,194
290,487	3,888	217,241	111,899
291,501	3,586	217,142	111,618
292,516	4,053	217,051	111,900
293,530	4,230	216,943	111,963
294,545	3,892	216,702	111,583
295,560	4,032	216,685	111,666
296,574	4,040	216,644	111,641
297,589	4,281	216,391	111,676
298,603	4,246	216,352	111,620
299,618	4,272	216,140	111,519
300,633	4,075	216,152	111,373
301,647	4,364	216,007	111,497
302,662	4,582	215,764	111,519
303,676	4,423	215,693	111,358
304,691	4,512	215,476	111,300
305,706	4,561	215,433	111,304
306,720	4,694	215,081	111,207
307,735	4,195	215,030	110,812
308,749	4,226	214,911	110,763
309,764	4,254	214,857	110,746
310,779	4,255	214,778	110,696
311,793	4,542	214,497	110,747
312,808	4,346	214,375	110,534
313,822	4,202	214,261	110,362
314,837	4,056	214,083	110,155
315,852	3,918	213,990	109,999
316,866	4,246	213,716	110,083
317,881	4,300	213,778	110,143
318,895	4,504	213,529	110,151
319,910	4,450	213,327	109,998
320,925	4,112	213,206	109,686
321,939	3,701	213,000	109,277
322,954	3,600	212,984	109,188
323,968	4,089	212,961	109,514
324,983	4,461	212,857	109,715
325,997	4,393	212,662	109,556
327,012	4,318	212,431	109,375
328,027	4,393	212,402	109,403
329,041	4,626	212,235	109,472
330,056	4,659	212,173	109,454
331,070	4,295	211,760	108,974
332,085	3,840	211,760	108,643
333,100	3,902	211,705	108,649
334,114	4,164	211,594	108,767
335,129	4,067	211,367	108,573
336,143	3,936	211,220	108,395
337,158	4,063	211,096	108,410
338,173	4,123	210,933	108,360
339,187	4,165	210,764	108,293
340,202	3,886	210,610	108,008
341,216	3,800	210,451	107,857
342,231	4,040	210,387	107,982
343,246	4,007	210,178	107,843
344,260	4,054	210,069	107,809
345,275	3,996	209,999	107,723
346,289	4,039	210,080	107,785
347,304	4,351	209,732	107,815
348,319	4,168	209,613	107,616
349,333	4,346	209,418	107,631
350,348	4,435	209,401	107,675
351,362	4,409	209,399	107,646
352,377	4,431	209,295	107,599
353,392	4,197	209,086	107,319
354,406	4,378	208,783	107,279
355,421	194,832	1343,915	1435,703
356,435	155,507	1482,327	1435,819
