DTS Sentinel unit serial number:	SN410029Multiplexer serial number:	ORYXHardware model number:	OX2-SRSoftware version number:	ORYX F/W v4,00 Oryx Data Collector v3.7.2.0data status	okinstallation	B6 Nyhavnadifferential loss correction	single-endedforward channel	channel 2reverse channel	N/Adate	2023/12/10time	20:35:08forward acquisition time	300,00reverse acquisition time	0,00gamma	499,1914k internal	0,3122k external	0,3122temperature offset calibration	1,0000default loss term (dB/km)	0,3820temperature slope calibration	1,0000multiplexer offset coefficient	1,0000multiplexer slope coefficient	1,0000fibre end	0,00T internal ref (°C)	22,27T ext. ref 1 (°C)	5,78T ext. ref 2 (°C)	5,82length (m)	temperature (°C)	Stokes	anti-Stokes-744,400	348,341	0,045	-0,067
-743,385	-125,441	-0,179	0,020
-742,371	-85,556	0,194	-0,045
-741,356	-188,357	-0,119	0,001
-740,342	-200,000	0,013	0,102
-739,327	71,473	-0,181	0,140
-738,312	435,491	0,063	0,102
-737,298	-168,408	-0,158	0,004
-736,283	-37,172	0,095	-0,038
-735,269	-47,811	-0,151	0,054
-734,254	-83,272	-0,120	0,029
-733,239	-36,431	-0,449	-0,179
-732,225	-101,512	0,083	-0,015
-731,210	-126,627	0,061	-0,007
-730,196	169,951	0,029	0,031
-729,181	800,000	-0,096	0,284
-728,167	-200,000	0,015	-0,172
-727,152	-94,080	-0,062	0,013
-726,137	-93,410	-0,033	-0,007
-725,123	315,623	-0,082	-0,116
-724,108	78,908	-0,200	-0,159
-723,094	74,574	-0,085	-0,067
-722,079	800,000	-0,039	0,101
-721,064	19,113	-0,063	0,038
-720,050	-200,000	0,030	0,150
-719,035	-200,000	0,010	-0,035
-718,021	-167,153	-0,099	0,003
-717,006	152,273	-0,082	-0,083
-715,991	-200,000	0,004	0,082
-714,977	150,041	-0,051	-0,051
-713,962	800,000	-0,034	0,108
-712,948	-200,000	0,021	0,113
-711,933	97,490	-0,101	-0,086
-710,918	800,000	-0,036	-0,081
-709,904	800,000	-0,033	-0,069
-708,889	4,779	-0,094	0,051
-707,875	-106,126	0,074	-0,012
-706,860	62,427	0,062	-0,046
-705,845	85,216	0,089	-0,073
-704,831	64,517	0,029	0,022
-703,816	-20,751	-0,055	0,025
-702,802	-200,000	-0,017	0,135
-701,787	162,056	-0,108	-0,113
-700,772	-200,000	0,003	-0,163
-699,758	-59,927	-0,101	0,032
-698,743	440,889	0,025	0,041
-697,729	184,948	-0,027	0,030
-696,714	-43,563	-0,109	0,041
-695,699	-200,000	0,002	0,014
-694,685	800,000	-0,018	0,046
-693,670	-3,230	0,084	-0,043
-692,656	624,450	0,047	-0,089
-691,641	-71,924	-0,099	-0,027
-690,627	-140,957	-0,098	0,007
-689,612	438,796	0,059	0,096
-688,597	134,619	-0,104	-0,100
-687,583	-47,465	-0,133	-0,048
-686,568	-200,000	0,013	0,155
-685,554	800,000	0,052	-0,128
-684,539	147,447	0,079	-0,079
-683,524	800,000	0,029	0,075
-682,510	-185,975	-0,131	-0,001
-681,495	-168,138	0,037	-0,001
-680,481	800,000	-0,036	-0,074
-679,466	-200,000	-0,002	0,014
-678,451	-80,339	-0,143	-0,035
-677,437	-58,388	0,120	-0,038
-676,422	93,931	0,061	0,051
-675,408	303,933	-0,095	-0,132
-674,393	-200,000	0,003	-0,072
-673,378	800,000	-0,035	-0,099
-672,364	-91,034	-0,119	-0,025
-671,349	-122,735	-0,002	0,000
-670,335	229,882	0,020	0,025
-669,320	-200,000	0,021	0,102
-668,305	384,838	-0,082	0,126
-667,291	769,434	0,018	0,037
-666,276	-65,482	-0,026	0,008
-665,262	-200,000	0,014	-0,136
-664,247	-135,505	-0,116	0,010
-663,232	109,025	-0,054	0,048
-662,218	-11,639	-0,024	-0,011
-661,203	116,668	0,030	-0,027
-660,189	96,739	-0,018	-0,015
-659,174	-39,460	-0,166	-0,064
-658,159	-200,000	0,007	-0,099
-657,145	730,984	0,021	-0,041
-656,130	800,000	-0,011	0,028
-655,116	3,979	0,011	-0,006
-654,101	800,000	0,035	0,086
-653,086	-87,382	0,188	-0,042
-652,072	133,793	-0,019	0,019
-651,057	306,753	-0,127	-0,176
-650,043	800,000	-0,043	-0,106
-649,028	-200,000	-0,009	0,037
-648,014	180,982	0,112	-0,122
-646,999	14,849	-0,035	-0,020
-645,984	38,035	-0,023	-0,015
-644,970	800,000	-0,071	-0,147
-643,955	-200,000	-0,004	-0,047
-642,941	800,000	0,027	-0,071
-641,926	786,394	-0,044	0,091
-640,911	-180,312	-0,044	0,001
-639,897	-200,000	0,023	0,085
-638,882	-200,000	-0,009	0,036
-637,868	-200,000	0,031	-0,121
-636,853	461,032	-0,074	-0,122
-635,838	445,047	-0,053	0,087
-634,824	732,218	0,008	0,016
-633,809	54,789	0,011	-0,008
-632,795	-200,000	-0,006	0,037
-631,780	306,811	0,040	-0,055
-630,765	-200,000	0,010	0,056
-629,751	-63,827	0,137	-0,041
-628,736	455,856	-0,016	-0,027
-627,722	353,368	-0,018	-0,026
-626,707	800,000	0,046	0,095
-625,692	-156,582	0,045	-0,002
-624,678	129,295	0,063	-0,060
-623,663	-47,514	0,055	-0,020
-622,649	-32,645	-0,086	-0,035
-621,634	-200,000	-0,008	-0,092
-620,619	-24,585	-0,087	-0,038
-619,605	205,204	-0,018	0,020
-618,590	55,309	0,051	-0,036
-617,576	-115,526	-0,098	0,014
-616,561	249,622	0,024	-0,031
-615,546	-200,000	-0,048	-0,190
-614,532	-144,743	-0,167	-0,011
-613,517	105,013	-0,142	-0,125
-612,503	723,485	0,024	0,048
-611,488	471,708	-0,036	0,060
-610,474	-200,000	0,002	-0,021
-609,459	70,687	0,047	0,036
-608,444	-75,825	0,076	-0,020
-607,430	374,756	0,046	-0,070
-606,415	800,000	-0,002	0,004
-605,401	598,117	-0,007	-0,013
-604,386	-129,032	0,030	0,003
-603,371	800,000	0,027	0,058
-602,357	-153,211	-0,080	-0,004
-601,342	-136,034	-0,111	0,010
-600,328	-70,040	-0,167	-0,047
-599,313	-102,711	-0,087	0,015
-598,298	-200,000	0,020	0,074
-597,284	-29,290	-0,095	0,040
-596,269	800,000	0,027	0,057
-595,255	800,000	0,044	0,141
-594,240	-81,507	-0,140	0,034
-593,225	248,191	-0,089	-0,111
-592,211	800,000	-0,024	0,064
-591,196	624,928	-0,073	0,136
-590,182	-100,331	0,056	0,010
-589,167	-200,000	-0,007	0,103
-588,152	313,436	-0,049	-0,068
-587,138	-66,027	0,138	0,040
-586,123	419,931	-0,031	-0,049
-585,109	800,000	-0,019	-0,044
-584,094	800,000	-0,035	0,076
-583,079	-46,858	0,152	0,055
-582,065	389,872	-0,032	0,049
-581,050	-127,871	0,018	0,002
-580,036	81,879	0,117	0,094
-579,021	-44,997	-0,019	0,007
-578,006	371,951	-0,027	-0,041
-576,992	207,558	0,037	0,043
-575,977	800,000	-0,061	0,181
-574,963	800,000	0,081	0,173
-573,948	-75,581	-0,131	0,034
-572,934	413,931	-0,040	0,063
-571,919	3,873	-0,056	-0,030
-570,904	6,324	-0,114	0,062
-569,890	800,000	0,004	-0,009
-568,875	-111,186	0,025	-0,004
-567,861	-49,963	0,018	-0,006
-566,846	800,000	-0,012	0,031
-565,831	451,283	0,047	-0,078
-564,817	110,052	0,061	0,054
-563,802	-195,538	-0,160	-0,001
-562,788	-200,000	0,006	-0,078
-561,773	-200,000	0,018	-0,090
-560,758	131,680	0,053	-0,050
-559,744	217,568	-0,016	-0,019
-558,729	83,557	0,008	0,006
-557,715	258,702	0,102	0,130
-556,700	-200,000	-0,011	-0,188
-555,685	-200,000	-0,027	-0,111
-554,671	377,155	-0,047	0,071
-553,656	-200,000	0,007	0,029
-552,642	800,000	0,087	0,239
-551,627	-68,458	0,090	-0,026
-550,612	126,290	-0,023	0,022
-549,598	196,991	-0,084	0,095
-548,583	-200,000	-0,019	0,097
-547,569	33,570	0,005	-0,003
-546,554	98,179	0,061	-0,052
-545,539	-87,236	-0,161	0,036
-544,525	-27,751	-0,101	-0,043
-543,510	384,050	0,032	-0,049
-542,496	-200,000	-0,015	-0,056
-541,481	800,000	-0,039	-0,098
-540,466	-200,000	0,000	-0,093
-539,452	-109,250	0,079	0,012
-538,437	-200,000	-0,015	0,165
-537,423	-200,000	-0,016	0,064
-536,408	-200,000	0,005	-0,096
-535,393	-56,949	0,080	0,026
-534,379	-3,615	-0,118	-0,060
-533,364	-200,000	-0,002	0,053
-532,350	800,000	-0,018	-0,052
-531,335	346,934	-0,068	-0,099
-530,321	38,189	0,064	0,042
-529,306	800,000	0,064	-0,169
-528,291	44,913	-0,051	0,035
-527,277	800,000	-0,028	-0,059
-526,262	266,882	0,018	-0,023
-525,248	800,000	-0,055	-0,131
-524,233	-200,000	-0,003	0,093
-523,218	271,628	0,047	0,062
-522,204	-200,000	-0,040	-0,142
-521,189	-9,919	0,004	-0,002
-520,175	-26,956	-0,189	-0,081
-519,160	194,784	-0,032	0,036
-518,145	-62,963	0,081	0,025
-517,131	45,918	0,123	-0,084
-516,116	-200,000	-0,028	0,109
-515,102	250,663	-0,054	-0,068
-514,087	161,087	0,093	0,096
-513,072	-200,000	-0,016	-0,096
-512,058	-200,000	0,003	-0,024
-511,043	592,347	-0,031	-0,058
-510,029	53,761	0,088	0,063
-509,014	236,234	0,088	-0,108
-507,999	75,028	0,075	0,059
-506,985	-157,195	-0,068	-0,003
-505,970	54,636	-0,004	0,003
-504,956	-100,444	-0,174	-0,032
-503,941	-27,607	0,170	0,072
-502,926	500,000	0,062	0,105
-501,912	-200,000	0,003	0,025
-500,897	800,000	0,020	-0,045
-499,883	38,921	-0,080	-0,052
-498,868	240,403	0,024	0,030
-497,853	800,000	0,023	-0,069
-496,839	-97,526	0,079	0,015
-495,824	800,000	-0,021	0,044
-494,810	-200,000	0,006	-0,038
-493,795	-47,811	-0,134	0,048
-492,781	58,904	-0,018	-0,013
-491,766	-200,000	0,032	-0,167
-490,751	-136,163	-0,064	-0,005
-489,737	115,212	0,029	-0,026
-488,722	-83,654	-0,151	0,035
-487,708	-200,000	0,019	0,143
-486,693	83,209	-0,055	-0,044
-485,678	287,908	0,021	-0,028
-484,664	277,522	-0,063	-0,083
-483,649	800,000	0,062	-0,143
-482,635	797,866	0,052	0,107
-481,620	44,006	-0,048	0,032
-480,605	-200,000	0,011	0,084
-479,591	-64,726	-0,100	0,030
-478,576	102,613	0,085	0,074
-477,562	-200,000	0,009	-0,079
-476,547	279,370	-0,110	-0,145
-475,532	80,354	-0,074	-0,059
-474,518	-200,000	0,018	0,090
-473,503	36,102	-0,102	0,066
-472,489	20,929	-0,019	0,012
-471,474	-200,000	-0,022	0,073
-470,459	53,124	0,091	0,064
-469,445	-200,000	0,024	-0,120
-468,430	5,470	0,090	0,049
-467,416	121,795	0,077	-0,071
-466,401	445,275	0,023	0,037
-465,386	-187,794	0,057	-0,001
-464,372	-200,000	-0,029	0,106
-463,357	-30,001	0,026	-0,011
-462,343	290,747	0,090	0,120
-461,328	-200,000	0,007	0,059
-460,313	-90,337	0,074	0,016
-459,299	159,740	0,085	0,087
-458,284	800,000	0,034	0,077
-457,270	-200,000	0,006	0,024
-456,255	-85,452	0,050	-0,011
-455,241	464,135	0,000	-0,000
-454,226	800,000	0,040	-0,093
-453,211	-3,273	-0,118	-0,060
-452,197	-62,867	0,120	0,036
-451,182	-200,000	0,012	-0,147
-450,168	-200,000	0,003	0,023
-449,153	-200,000	-0,007	-0,049
-448,138	-200,000	0,003	-0,159
-447,124	-83,066	-0,079	0,019
-446,109	800,000	-0,052	-0,139
-445,095	75,706	0,070	-0,054
-444,080	14,633	0,079	0,046
-443,065	-34,266	0,062	-0,025
-442,051	-155,609	-0,072	0,003
-441,036	-200,000	0,023	-0,075
-440,022	-200,000	-0,042	-0,153
-439,007	-200,000	-0,013	-0,080
-437,992	-200,000	0,005	-0,066
-436,978	-200,000	0,005	0,108
-435,963	-162,191	0,020	-0,001
-434,949	-200,000	0,017	0,071
-433,934	119,560	-0,078	-0,071
-432,919	83,480	-0,100	-0,081
-431,905	22,341	0,011	0,007
-430,890	-24,604	-0,092	0,040
-429,876	279,396	0,107	0,141
-428,861	-79,310	-0,109	0,027
-427,846	13,980	-0,143	0,082
-426,832	-200,000	0,016	0,090
-425,817	293,292	-0,062	-0,083
-424,803	-74,105	0,078	0,021
-423,788	456,854	0,050	0,082
-422,773	-134,727	0,093	0,008
-421,759	-200,000	0,009	-0,038
-420,744	-200,000	0,013	0,044
-419,730	-14,714	-0,101	-0,048
-418,715	81,782	-0,070	-0,056
-417,701	49,608	0,095	-0,066
-416,686	205,252	0,053	-0,061
-415,671	-162,489	0,067	0,002
-414,657	411,021	0,126	0,198
-413,642	-200,000	0,000	0,096
-412,628	-75,618	-0,065	0,017
-411,613	-200,000	-0,009	-0,084
-410,598	127,947	-0,093	-0,087
-409,584	-120,612	0,138	0,017
-408,569	54,009	0,131	0,093
-407,555	171,416	0,066	0,070
-406,540	7,244	0,023	-0,013
-405,525	479,498	-0,134	-0,224
-404,511	800,000	0,042	-0,114
-403,496	-61,470	0,110	0,034
-402,482	88,748	-0,099	-0,081
-401,467	-200,000	-0,016	0,115
-400,452	488,699	0,076	0,129
-399,438	136,819	0,117	0,113
-398,423	-200,000	-0,009	0,040
-397,409	-200,000	-0,003	-0,119
-396,394	-200,000	-0,009	-0,051
-395,379	67,683	-0,094	0,071
-394,365	1,714	-0,004	0,002
-393,350	-200,000	0,007	-0,077
-392,336	9,025	0,128	-0,071
-391,321	-200,000	-0,022	-0,086
-390,306	-10,529	-0,113	0,055
-389,292	529,516	0,040	-0,070
-388,277	-200,000	-0,012	-0,067
-387,263	12,452	0,081	0,046
-386,248	-200,000	-0,011	0,141
-385,233	-121,686	-0,042	0,005
-384,219	214,419	0,018	-0,021
-383,204	800,000	-0,034	-0,102
-382,190	-64,503	-0,198	-0,059
-381,175	-127,590	-0,086	0,009
-380,160	-200,000	-0,024	0,186
-379,146	-69,197	0,166	-0,047
-378,131	103,583	-0,070	-0,060
-377,117	-168,171	-0,061	-0,002
-376,102	-200,000	0,004	-0,094
-375,088	-106,978	-0,136	0,022
-374,073	-200,000	0,003	-0,109
-373,058	182,302	-0,011	0,012
-372,044	16,972	0,142	0,083
-371,029	137,718	-0,120	0,116
-370,015	800,000	-0,035	0,083
-369,000	178,036	0,124	0,133
-367,985	43,105	0,106	0,071
-366,971	9,007	-0,093	0,052
-365,956	28,225	0,029	0,018
-364,942	-200,000	-0,019	0,154
-363,927	-200,000	0,009	-0,054
-362,912	800,000	-0,031	-0,088
-361,898	-200,000	0,015	-0,097
-360,883	96,253	-0,068	-0,057
-359,869	800,000	0,046	-0,104
-358,854	-200,000	-0,005	-0,028
-357,839	141,079	-0,068	-0,066
-356,825	800,000	0,021	0,054
-355,810	-200,000	-0,040	-0,149
-354,796	-200,000	0,007	-0,026
-353,781	454,131	-0,036	-0,058
-352,766	-200,000	-0,029	-0,148
-351,752	-76,279	0,046	-0,012
-350,737	800,000	-0,017	0,055
-349,723	800,000	0,030	0,063
-348,708	366,809	-0,069	0,102
-347,693	-73,676	0,054	0,014
-346,679	800,000	-0,025	-0,054
-345,664	-190,528	0,070	-0,001
-344,650	563,043	0,006	-0,011
-343,635	215,362	0,052	0,061
-342,620	107,309	0,081	-0,071
-341,606	-108,775	0,036	-0,006
-340,591	426,195	-0,045	0,072
-339,577	574,340	0,058	-0,104
-338,562	-39,090	0,066	0,025
-337,548	87,680	0,096	0,078
-336,533	49,642	-0,100	0,069
-335,518	302,387	0,111	0,151
-334,504	481,207	0,009	0,015
-333,489	76,172	-0,114	-0,089
-332,475	771,541	-0,051	-0,103
-331,460	-17,194	0,028	-0,013
-330,445	240,376	0,033	0,040
-329,431	-49,721	-0,152	-0,053
-328,416	51,578	0,069	-0,048
-327,402	-200,000	-0,034	0,169
-326,387	427,703	-0,058	-0,092
-325,372	399,231	-0,041	-0,063
-324,358	-21,983	-0,078	-0,035
-323,343	83,984	-0,081	-0,065
-322,329	3,717	0,044	-0,023
-321,314	-157,355	-0,119	-0,005
-320,299	-63,427	0,091	-0,027
-319,285	-50,189	-0,077	0,027
-318,270	-58,213	0,019	0,006
-317,256	-200,000	0,029	-0,139
-316,241	43,404	0,076	-0,051
-315,226	71,544	0,059	0,045
-314,212	-200,000	0,006	0,076
-313,197	-149,164	0,028	-0,002
-312,183	800,000	-0,018	0,047
-311,168	348,651	-0,073	0,106
-310,153	-200,000	0,001	-0,209
-309,139	-190,168	-0,123	-0,001
-308,124	-76,406	0,089	0,023
-307,110	-200,000	0,012	0,086
-306,095	-146,324	0,030	-0,002
-305,080	12,501	0,079	-0,044
-304,066	190,826	0,069	-0,077
-303,051	-168,989	-0,056	0,002
-302,037	301,025	0,069	-0,093
-301,022	132,471	0,134	-0,127
-300,008	576,553	-0,063	0,113
-298,993	148,826	-0,035	-0,035
-297,978	166,067	0,203	0,210
-296,964	59,743	0,055	0,040
-295,949	-21,990	-0,138	-0,061
-294,935	-200,000	0,017	-0,166
-293,920	228,669	-0,085	-0,101
-292,905	-44,536	0,066	-0,024
-291,891	314,446	0,081	-0,112
-290,876	-35,951	0,084	0,033
-289,862	-88,554	-0,049	-0,011
-288,847	-200,000	0,000	0,031
-287,832	-139,084	0,069	-0,005
-286,818	-48,852	-0,116	0,040
-285,803	44,523	0,084	0,056
-284,789	-200,000	-0,010	0,174
-283,774	800,000	-0,037	0,103
-282,759	-197,532	0,098	-0,000
-281,745	-91,538	0,080	0,017
-280,730	800,000	-0,072	-0,164
-279,716	21,703	0,070	-0,042
-278,701	-200,000	0,016	0,150
-277,686	94,559	0,093	0,077
-276,672	-16,934	-0,105	0,049
-275,657	85,386	0,039	0,031
-274,643	-200,000	-0,033	-0,136
-273,628	800,000	0,015	0,031
-272,613	-200,000	-0,042	-0,143
-271,599	155,614	-0,006	0,006
-270,584	-200,000	0,002	-0,031
-269,570	67,769	0,092	0,069
-268,555	-200,000	-0,002	0,074
-267,540	-47,051	-0,057	-0,020
-266,526	-54,851	-0,098	0,032
-265,511	-200,000	-0,031	-0,107
-264,497	66,166	0,094	-0,070
-263,482	-122,673	0,105	0,012
-262,467	-119,956	0,144	-0,018
-261,453	-200,000	-0,049	0,179
-260,438	800,000	-0,035	-0,075
-259,424	203,211	-0,068	-0,077
-258,409	565,325	0,034	-0,061
-257,395	-67,032	-0,049	0,014
-256,380	461,557	0,047	0,076
-255,365	75,431	0,036	-0,028
-254,351	-95,805	0,044	0,008
-253,336	-200,000	-0,003	-0,106
-252,322	315,557	-0,042	-0,059
-251,307	-34,432	-0,034	-0,013
-250,292	366,264	-0,048	0,071
-249,278	286,406	-0,073	0,096
-248,263	36,509	0,077	-0,050
-247,249	213,460	-0,074	-0,086
-246,234	-200,000	-0,004	0,043
-245,219	-89,092	-0,062	-0,013
-244,205	-151,369	-0,103	0,006
-243,190	53,351	-0,058	0,040
-242,176	-10,593	-0,112	-0,054
-241,161	92,248	-0,035	0,029
-240,146	-126,956	0,095	0,010
-239,132	298,683	-0,033	0,045
-238,117	130,374	0,055	0,052
-237,103	157,638	0,074	0,075
-236,088	-81,501	0,119	0,028
-235,073	-113,820	0,195	0,027
-234,059	549,303	-0,086	0,151
-233,044	-16,390	0,097	-0,045
-232,030	3,617	-0,098	0,052
-231,015	800,000	-0,023	0,056
-230,000	332,853	-0,060	-0,085
-228,986	800,000	-0,029	0,062
-227,971	508,133	-0,056	0,096
-226,957	-61,146	-0,058	-0,018
-225,942	87,413	0,094	-0,076
-224,927	-200,000	0,000	0,033
-223,913	800,000	0,045	-0,113
-222,898	800,000	-0,030	0,071
-221,884	-200,000	0,006	0,039
-220,869	800,000	0,074	0,159
-219,855	11,635	0,080	0,044
-218,840	-19,017	0,109	-0,049
-217,825	-79,435	-0,059	0,015
-216,811	-37,467	0,030	-0,012
-215,796	266,692	0,066	-0,085
-214,782	-59,579	0,079	-0,025
-213,767	43,235	0,092	-0,061
-212,752	-143,099	-0,025	0,002
-211,738	800,000	0,024	0,051
-210,723	800,000	-0,036	0,094
-209,709	-121,642	0,121	0,014
-208,694	-178,068	-0,027	0,000
-207,679	-200,000	0,011	-0,037
-206,665	280,001	0,039	-0,051
-205,650	800,000	0,020	0,058
-204,636	-38,791	0,144	0,055
-203,621	455,712	-0,074	0,121
-202,606	77,768	-0,100	-0,078
-201,592	80,300	0,032	-0,025
-200,577	691,463	0,008	-0,015
-199,563	-200,000	0,026	0,129
-198,548	24,141	0,110	-0,066
-197,533	-200,000	0,013	0,125
-196,519	-16,187	0,178	0,082
-195,504	800,000	-0,018	0,054
-194,490	17,827	-0,102	0,059
-193,475	-58,405	-0,133	-0,042
-192,460	-200,000	-0,009	0,000
-191,446	-111,707	-0,051	0,007
-190,431	15,602	0,084	0,048
-189,417	556,811	-0,025	-0,044
-188,402	-161,192	0,072	-0,003
-187,387	-126,001	-0,024	0,003
-186,373	-0,069	-0,087	0,045
-185,358	120,381	-0,085	0,077
-184,344	769,188	-0,028	0,056
-183,329	164,511	0,094	-0,097
-182,315	-57,897	-0,072	0,023
-181,300	207,725	-0,029	0,033
-180,285	206,578	-0,048	0,055
-179,271	-100,218	-0,041	0,007
-178,256	800,000	0,035	0,085
-177,242	-200,000	-0,022	0,150
-176,227	-166,797	-0,087	-0,003
-175,212	240,150	0,061	0,075
-174,198	42,846	-0,052	0,035
-173,183	-200,000	0,014	-0,171
-172,169	311,523	0,060	0,082
-171,154	-100,133	0,071	-0,013
-170,139	800,000	0,043	0,104
-169,125	-131,762	0,047	0,004
-168,110	263,156	-0,071	-0,091
-167,096	-51,487	0,080	-0,027
-166,081	-200,000	-0,035	-0,148
-165,066	521,452	-0,067	-0,116
-164,052	-200,000	-0,011	-0,038
-163,037	81,989	0,030	-0,024
-162,023	-127,485	0,121	0,013
-161,008	-123,251	-0,108	0,012
-159,993	12,832	0,044	-0,025
-158,979	800,000	-0,025	-0,057
-157,964	691,618	0,008	0,016
-156,950	-1,206	-0,094	-0,048
-155,935	800,000	0,030	-0,089
-154,920	165,030	-0,033	-0,034
-153,906	25,712	-0,103	0,062
-152,891	800,000	0,059	0,142
-151,877	681,847	0,025	-0,048
-150,862	800,000	-0,062	-0,168
-149,847	800,000	-0,065	-0,156
-148,833	323,036	0,070	-0,097
-147,818	-38,509	0,115	0,044
-146,804	-115,561	-0,073	-0,010
-145,789	-65,887	-0,125	-0,036
-144,775	45,145	0,046	-0,031
-143,760	-200,000	0,003	-0,082
-142,745	31,917	-0,082	-0,052
-141,731	-200,000	-0,061	0,242
-140,716	-6,812	0,035	-0,017
-139,702	260,663	0,035	-0,044
-138,687	-46,259	0,080	0,029
-137,672	155,174	-0,091	-0,091
-136,658	395,214	0,036	0,054
-135,643	-200,000	0,021	0,075
-134,629	-200,000	-0,011	0,052
-133,614	223,065	-0,050	-0,059
-132,599	800,000	0,043	0,098
-131,585	-200,000	0,002	0,058
-130,570	-200,000	0,007	0,056
-129,556	-81,334	-0,070	-0,017
-128,541	-51,843	0,120	-0,040
-127,526	-200,000	0,026	-0,151
-126,512	224,003	0,049	-0,058
-125,497	800,000	0,070	-0,173
-124,483	-107,108	0,073	-0,012
-123,468	800,000	-0,048	-0,100
-122,453	800,000	0,018	0,040
-121,439	56,180	0,094	-0,066
-120,424	-200,000	0,008	0,078
-119,410	-108,968	0,023	0,004
-118,395	281,312	-0,024	0,031
-117,380	-108,638	0,052	0,008
-116,366	-200,000	0,004	-0,029
-115,351	328,496	0,058	0,081
-114,337	-200,000	0,015	-0,058
-113,322	248,373	0,020	0,025
-112,307	-200,000	0,019	-0,120
-111,293	-200,000	0,006	-0,056
-110,278	25,101	0,048	-0,029
-109,264	61,458	-0,066	0,048
-108,249	450,761	-0,061	0,099
-107,234	78,477	-0,019	-0,015
-106,220	-24,155	0,075	-0,033
-105,205	222,632	-0,042	0,049
-104,191	-200,000	0,011	0,182
-103,176	195,511	-0,055	0,061
-102,162	49,903	0,011	0,008
-101,147	42,281	-0,075	0,050
-100,132	118,570	-0,182	0,164
-99,118	-200,000	0,043	0,171
-98,103	142,771	-0,058	-0,056
-97,089	-154,277	-0,080	-0,004
-96,074	800,000	-0,045	0,126
-95,059	-157,414	0,134	0,006
-94,045	-104,818	0,005	-0,001
-93,030	-200,000	0,006	-0,059
-92,016	-0,267	-0,025	-0,013
-91,001	800,000	0,042	-0,087
-89,986	-74,942	0,015	0,004
-88,972	776,191	-0,050	-0,100
-87,957	-85,320	-0,074	-0,017
-86,943	328,157	-0,087	-0,122
-85,928	-30,590	0,092	0,038
-84,913	-200,000	-0,029	-0,115
-83,899	-200,000	-0,005	-0,079
-82,884	-0,533	-0,091	-0,047
-81,870	-200,000	0,007	0,121
-80,855	266,036	0,156	0,198
-79,840	-200,000	-0,005	0,028
-78,826	-200,000	-0,016	-0,059
-77,811	-200,000	0,022	-0,166
-76,797	-78,017	0,122	-0,030
-75,782	800,000	0,031	0,069
-74,767	8,341	0,072	0,039
-73,753	-66,200	-0,020	-0,006
-72,738	-200,000	-0,006	-0,039
-71,724	-200,000	0,004	-0,031
-70,709	182,188	0,024	0,026
-69,694	800,000	-0,011	-0,025
-68,680	800,000	-0,018	0,045
-67,665	800,000	0,017	0,037
-66,651	105,777	0,055	-0,047
-65,636	-200,000	-0,009	0,043
-64,622	-17,355	-0,097	0,044
-63,607	800,000	-0,044	-0,105
-62,592	61,173	0,047	0,034
-61,578	-66,136	0,098	-0,028
-60,563	-40,506	0,082	0,031
-59,549	-200,000	0,030	0,159
-58,534	-110,081	-1,319	-0,198
-57,519	800,000	-0,699	-1,558
-56,505	-200,000	-0,845	-4,391
-55,490	69,466	0,464	-0,347
-54,476	800,000	4,979	11,826
-53,461	-200,000	13,701	253,568
-52,446	-200,000	690,327	2256,448
-51,432	588,867	1622,366	2913,374
-50,417	118,779	1634,787	1465,679
-49,403	72,982	1288,778	976,227
-48,388	37,904	1024,214	659,345
-47,373	24,266	981,710	587,122
-46,359	23,395	971,667	578,234
-45,344	22,469	967,246	572,555
-44,330	22,428	965,641	571,448
-43,315	22,311	964,406	570,312
-42,300	22,307	963,286	569,615
-41,286	22,271	962,343	568,915
-40,271	22,225	961,392	568,181
-39,257	22,286	960,363	567,750
-38,242	22,321	959,338	567,236
-37,227	22,252	958,644	566,580
-36,213	22,277	957,555	565,992
-35,198	22,277	956,872	565,568
-34,184	22,302	956,171	565,212
-33,169	22,280	955,361	564,638
-32,154	22,337	954,360	564,210
-31,140	22,313	953,511	563,607
-30,125	22,338	952,651	563,156
-29,111	22,295	951,877	562,538
-28,096	22,301	951,331	562,213
-27,082	22,299	950,587	561,744
-26,067	22,277	949,778	561,172
-25,052	22,328	949,119	560,926
-24,038	22,344	948,453	560,560
-23,023	22,330	947,866	560,146
-22,009	22,338	947,289	559,807
-20,994	22,323	946,548	559,300
-19,979	22,273	946,039	558,819
-18,965	22,345	945,145	558,497
-17,950	22,324	944,640	558,109
-16,936	22,321	943,907	557,646
-15,921	22,284	943,177	557,074
-14,906	22,250	942,408	556,491
-13,892	22,148	941,876	555,828
-12,877	22,192	941,381	555,654
-11,863	22,191	940,595	555,167
-10,848	22,118	940,215	554,686
-9,833	22,229	939,822	554,786
-8,819	22,243	939,174	554,426
-7,804	22,140	938,343	553,587
-6,790	22,155	937,859	553,327
-5,775	22,163	937,287	552,993
-4,760	22,161	936,604	552,561
-3,746	22,181	935,925	552,200
-2,731	22,048	935,267	551,371
-1,717	21,937	934,746	550,692
-0,702	21,964	933,830	550,216
0,313	21,791	933,249	550,158
1,327	24,972	931,364	559,002
2,342	34,765	795,973	503,827
3,356	32,758	451,644	282,828
4,371	1,655	293,945	153,017
5,386	-2,845	274,869	138,813
6,400	-4,395	269,074	134,435
7,415	-5,005	266,769	132,709
8,429	-4,735	265,588	132,358
9,444	-4,719	264,582	131,859
10,459	-4,497	264,000	131,759
11,473	-4,583	263,459	131,400
12,488	-4,717	262,882	130,978
13,502	-4,798	262,299	130,603
14,517	-4,965	261,964	130,273
15,531	-4,665	261,543	130,323
16,546	-4,701	261,294	130,155
17,561	-4,670	260,798	129,924
18,575	-4,614	260,459	129,794
19,590	-4,684	260,290	129,636
20,604	-4,697	259,982	129,459
21,619	-4,629	259,516	129,276
22,634	-4,729	259,280	129,058
23,648	-4,631	258,901	128,945
24,663	-4,838	258,789	128,693
25,677	-4,676	258,580	128,722
26,692	-4,816	258,337	128,465
27,707	-4,724	257,865	128,300
28,721	-4,847	257,634	128,065
29,736	-4,771	257,426	128,018
30,750	-4,843	257,083	127,772
31,765	-4,949	257,068	127,659
32,780	-4,752	256,647	127,613
33,794	-4,901	256,540	127,417
34,809	-4,735	256,307	127,437
35,823	-4,920	256,030	127,124
36,838	-4,888	255,552	126,904
37,853	-4,895	255,529	126,874
38,867	-4,951	255,300	126,700
39,882	-4,958	255,053	126,560
40,896	-4,813	254,740	126,521
41,911	-4,871	254,595	126,386
42,926	-4,846	254,414	126,308
43,940	-4,963	254,292	126,133
44,955	-4,832	253,915	126,050
45,969	-4,938	253,787	125,882
46,984	-5,394	253,436	125,299
47,999	-5,350	253,214	125,216
49,013	-5,643	253,082	124,885
50,028	-5,706	252,744	124,652
51,042	-5,624	252,265	124,476
52,057	-5,824	252,284	124,300
53,071	-5,548	252,004	124,391
54,086	-5,657	251,998	124,282
55,101	-5,437	251,705	124,317
56,115	-5,333	251,707	124,397
57,130	-4,917	251,520	124,653
58,144	-4,679	251,243	124,710
59,159	-4,827	251,175	124,538
60,174	-4,708	251,038	124,562
61,188	-4,842	250,826	124,330
62,203	-4,907	250,582	124,142
63,217	-4,877	250,314	124,024
64,232	-4,701	250,129	124,072
65,247	-4,753	249,794	123,850
66,261	-4,610	249,557	123,844
67,276	-5,039	249,397	123,386
68,290	-5,105	249,135	123,189
69,305	-5,308	248,918	122,898
70,320	-5,170	248,699	122,896
71,334	-5,028	248,695	123,005
72,349	-4,639	248,524	123,241
73,363	-4,721	248,269	123,034
74,378	-4,592	248,011	123,005
75,393	-4,611	247,832	122,888
76,407	-4,871	247,702	122,592
77,422	-4,653	247,365	122,599
78,436	-4,733	247,169	122,424
79,451	-4,838	247,193	122,336
80,466	-4,829	246,947	122,211
81,480	-4,997	246,578	121,875
82,495	-5,168	246,298	121,582
83,509	-5,124	246,102	121,511
84,524	-5,182	246,095	121,447
85,539	-5,176	245,673	121,233
86,553	-5,313	245,724	121,132
87,568	-5,268	245,340	120,970
88,582	-4,988	245,344	121,197
89,597	-5,186	245,136	120,917
90,611	-5,046	245,036	120,975
91,626	-5,069	244,914	120,884
92,641	-4,727	244,502	120,956
93,655	-4,880	244,333	120,734
94,670	-5,011	244,215	120,556
95,684	-4,917	244,068	120,551
96,699	-5,070	243,896	120,327
97,714	-5,094	243,646	120,173
98,728	-5,044	243,564	120,163
99,743	-5,162	243,228	119,889
100,757	-5,181	242,929	119,714
101,772	-5,057	242,807	119,747
102,787	-4,931	242,712	119,794
103,801	-4,924	242,448	119,659
104,816	-5,174	242,448	119,441
105,830	-4,786	242,174	119,617
106,845	-4,913	242,089	119,459
107,860	-4,901	241,797	119,314
108,874	-4,914	241,587	119,190
109,889	-4,985	241,371	119,013
110,903	-5,188	241,338	118,819
111,918	-4,964	240,952	118,803
112,933	-5,048	240,863	118,679
113,947	-4,727	240,590	118,798
114,962	-4,782	240,498	118,697
115,976	-4,826	240,381	118,592
116,991	-4,839	240,209	118,487
118,006	-4,766	240,114	118,489
119,020	-5,052	239,909	118,143
120,035	-4,835	239,850	118,281
121,049	-4,799	239,647	118,200
122,064	-4,901	239,540	118,053
123,079	-4,940	239,324	117,905
124,093	-5,023	239,093	117,712
125,108	-5,368	238,967	117,358
126,122	-5,284	238,703	117,286
127,137	-5,207	238,306	117,143
128,151	-5,327	238,267	117,016
129,166	-5,035	238,125	117,174
130,181	-5,246	237,810	116,837
131,195	-5,110	237,604	116,835
132,210	-5,014	237,593	116,898
133,224	-4,795	237,337	116,938
134,239	-4,902	237,323	116,834
135,254	-4,890	237,205	116,775
136,268	-5,021	236,857	116,488
137,283	-5,106	236,627	116,296
138,297	-5,283	236,412	116,037
139,312	-5,491	236,285	115,797
140,327	-4,882	235,998	116,136
141,341	-4,551	236,211	116,497
142,356	-4,587	235,920	116,314
143,370	-4,547	235,889	116,321
144,385	-4,651	235,658	116,113
145,400	-4,499	235,481	116,137
146,414	-4,399	235,372	116,154
147,429	-4,763	235,187	115,760
148,443	-4,528	234,830	115,762
149,458	-4,716	234,841	115,607
150,473	-4,599	234,767	115,653
151,487	-4,609	234,474	115,491
152,502	-4,811	234,390	115,278
153,516	-4,604	234,283	115,380
154,531	-4,582	234,013	115,254
155,546	-4,631	233,813	115,107
156,560	-4,750	233,686	114,939
157,575	-4,618	233,483	114,934
158,589	-4,725	233,190	114,695
159,604	-4,493	233,214	114,881
160,619	-4,605	233,173	114,762
161,633	-4,358	232,854	114,790
162,648	-4,414	232,756	114,687
163,662	-4,837	232,576	114,253
164,677	-4,758	232,404	114,221
165,692	-4,683	232,285	114,211
166,706	-4,392	232,061	114,321
167,721	-4,607	231,970	114,096
168,735	-4,514	231,833	114,092
169,750	-4,676	231,725	113,901
170,764	-4,622	231,584	113,864
171,779	-4,623	231,456	113,791
172,794	-4,482	231,251	113,790
173,808	-4,616	231,029	113,566
174,823	-4,930	230,599	113,098
175,837	-5,215	230,446	112,789
176,852	-4,847	230,387	113,039
177,867	-4,637	230,428	113,213
178,881	-4,549	230,177	113,149
179,896	-4,675	230,131	113,017
180,910	-4,308	229,801	113,132
181,925	-4,651	229,718	112,813
182,940	-4,445	229,489	112,851
183,954	-4,656	229,604	112,733
184,969	-4,477	229,429	112,777
185,983	-4,434	229,289	112,731
186,998	-4,368	229,051	112,656
188,013	-4,361	228,867	112,561
189,027	-4,045	228,682	112,705
190,042	-4,102	228,363	112,494
191,056	-4,388	228,366	112,264
192,071	-4,254	228,333	112,341
193,086	-4,400	228,179	112,142
194,100	-4,683	228,036	111,842
195,115	-4,733	227,581	111,571
196,129	-5,314	227,274	110,962
197,144	-2,243	228,350	113,858
198,159	1,947	229,488	117,671
199,173	3,998	230,063	119,550
200,188	4,164	230,106	119,691
201,202	4,503	229,729	119,747
202,217	4,368	229,733	119,633
203,232	5,029	229,476	120,001
204,246	4,803	229,591	119,876
205,261	4,901	229,344	119,812
206,275	4,857	229,217	119,701
207,290	5,049	229,065	119,759
208,304	5,101	228,872	119,687
209,319	4,824	228,817	119,434
210,334	4,946	228,385	119,292
211,348	4,558	228,321	118,949
212,363	4,367	228,065	118,659
213,377	4,007	227,781	118,223
214,392	3,978	227,734	118,167
215,407	4,131	227,630	118,220
216,421	4,351	227,439	118,278
217,436	4,060	227,155	117,897
218,450	3,983	227,061	117,779
219,465	3,912	226,801	117,580
220,480	4,054	226,766	117,659
221,494	3,901	226,670	117,482
222,509	3,964	226,459	117,411
223,523	3,973	226,354	117,352
224,538	3,855	226,127	117,134
225,553	3,999	226,089	117,214
226,567	4,220	225,978	117,314
227,582	4,546	225,849	117,484
228,596	4,425	225,757	117,334
229,611	4,200	225,499	117,019
230,626	3,890	225,426	116,735
231,640	3,943	225,223	116,660
232,655	4,328	225,127	116,891
233,669	4,767	224,937	117,114
234,684	4,527	224,977	116,943
235,699	4,612	224,811	116,911
236,713	4,349	224,567	116,575
237,728	4,176	224,143	116,214
238,742	3,975	224,123	116,042
239,757	4,267	223,909	116,141
240,772	3,974	223,910	115,910
241,786	4,138	223,575	115,849
242,801	4,277	223,684	116,001
243,815	4,464	223,556	116,064
244,830	4,533	223,413	116,032
245,844	3,952	223,179	115,463
246,859	4,145	223,084	115,549
247,874	4,287	223,061	115,633
248,888	4,490	222,847	115,664
249,903	4,189	222,595	115,297
250,917	3,988	222,617	115,148
251,932	4,216	222,296	115,143
252,947	4,287	221,995	115,029
253,961	4,182	221,949	114,917
254,976	4,241	221,709	114,827
255,990	4,082	221,711	114,698
257,005	4,282	221,508	114,732
258,020	4,302	221,453	114,708
259,034	4,541	221,284	114,788
260,049	4,348	221,151	114,566
261,063	4,115	221,186	114,400
262,078	4,515	220,934	114,556
263,093	4,672	220,680	114,531
264,107	4,418	220,736	114,362
265,122	4,386	220,527	114,219
266,136	4,543	220,606	114,366
267,151	4,689	220,119	114,211
268,166	4,071	220,017	113,692
269,180	4,003	219,650	113,442
270,195	3,879	219,807	113,422
271,209	4,060	219,522	113,397
272,224	4,165	219,402	113,403
273,239	4,095	219,373	113,327
274,253	4,271	219,114	113,311
275,268	4,027	218,976	113,052
276,282	3,883	218,711	112,798
277,297	3,853	218,624	112,722
278,312	3,902	218,574	112,722
279,326	4,086	218,471	112,794
280,341	4,346	218,285	112,878
281,355	3,841	218,296	112,504
282,370	3,878	218,017	112,377
283,384	3,836	217,776	112,212
284,399	3,757	217,625	112,067
285,414	3,921	217,418	112,069
286,428	3,979	217,545	112,168
287,443	4,112	217,425	112,192
288,457	4,127	217,282	112,120
289,472	4,205	217,063	112,053
290,487	3,557	216,754	111,413
291,501	3,616	216,655	111,395
292,516	3,682	216,518	111,363
293,530	3,717	216,552	111,395
294,545	3,712	216,313	111,259
295,560	3,905	216,201	111,331
296,574	4,197	216,086	111,473
297,589	4,197	215,937	111,387
298,603	4,201	215,884	111,352
299,618	4,176	215,671	111,214
300,633	3,928	215,590	110,984
301,647	4,211	215,386	111,073
302,662	4,263	215,323	111,068
303,676	4,426	215,156	111,089
304,691	4,271	215,047	110,911
305,706	4,448	214,875	110,940
306,720	4,360	214,755	110,805
307,735	4,246	214,424	110,543
308,749	4,030	214,426	110,379
309,764	4,131	214,366	110,410
310,779	4,439	214,185	110,528
311,793	4,249	214,084	110,330
312,808	4,307	213,911	110,273
313,822	4,300	213,762	110,181
314,837	4,140	213,571	109,958
315,852	4,068	213,358	109,788
316,866	3,796	213,452	109,632
317,881	4,209	213,283	109,830
318,895	4,346	213,079	109,812
319,910	4,170	212,893	109,582
320,925	3,907	212,756	109,314
321,939	3,496	212,493	108,878
322,954	3,817	212,470	109,084
323,968	4,109	212,323	109,206
324,983	4,119	212,205	109,143
325,997	4,246	212,242	109,242
327,012	4,107	212,050	109,035
328,027	4,047	211,906	108,909
329,041	4,297	211,657	108,948
330,056	4,673	211,692	109,221
331,070	4,135	211,510	108,738
332,085	3,606	211,133	108,162
333,100	4,042	211,142	108,464
334,114	4,330	210,911	108,539
335,129	4,073	210,881	108,333
336,143	3,670	210,690	107,942
337,158	4,030	210,577	108,127
338,173	3,670	210,631	107,892
339,187	3,678	210,331	107,734
340,202	3,715	210,113	107,639
341,216	3,817	209,935	107,610
342,231	3,954	209,932	107,695
343,246	3,723	209,902	107,507
344,260	4,059	209,756	107,659
345,275	4,169	209,590	107,640
346,289	4,226	209,439	107,593
347,304	4,270	209,373	107,581
348,319	4,316	209,150	107,488
349,333	4,310	209,047	107,421
350,348	4,173	208,885	107,233
351,362	4,062	208,801	107,104
352,377	4,118	208,710	107,086
353,392	4,056	208,489	106,921
354,406	4,011	208,493	106,881
355,421	193,362	1345,905	1433,085
356,435	154,257	1484,594	1433,202
