DTS Sentinel unit serial number:	SN410029Multiplexer serial number:	ORYXHardware model number:	OX2-SRSoftware version number:	ORYX F/W v4,00 Oryx Data Collector v3.7.2.0data status	okinstallation	B6 Nyhavnadifferential loss correction	single-endedforward channel	channel 2reverse channel	N/Adate	2023/12/08time	01:10:08forward acquisition time	300,00reverse acquisition time	0,00gamma	499,1914k internal	0,3165k external	0,3165temperature offset calibration	1,0000default loss term (dB/km)	0,3820temperature slope calibration	1,0000multiplexer offset coefficient	1,0000multiplexer slope coefficient	1,0000fibre end	0,00T internal ref (°C)	13,26T ext. ref 1 (°C)	-3,60T ext. ref 2 (°C)	-3,60length (m)	temperature (°C)	Stokes	anti-Stokes-744,400	21,545	0,090	-0,054
-743,385	45,618	-0,142	0,096
-742,371	800,000	0,054	0,135
-741,356	-146,755	-0,255	0,016
-740,342	800,000	0,051	0,108
-739,327	-109,953	-0,367	0,056
-738,312	239,811	0,018	-0,023
-737,298	-135,192	-0,364	-0,032
-736,283	-19,145	0,162	0,074
-735,269	-122,077	-0,349	0,042
-734,254	57,596	0,030	-0,022
-733,239	-43,397	-0,505	-0,187
-732,225	56,030	0,129	-0,092
-731,210	-151,500	-0,102	0,005
-730,196	-200,000	-0,010	0,043
-729,181	-89,456	-0,134	-0,029
-728,167	-119,900	-0,086	0,011
-727,152	-200,000	0,031	-0,166
-726,137	-175,362	-0,116	0,002
-725,123	-200,000	0,012	0,046
-724,108	-21,791	-0,117	-0,052
-723,094	13,643	-0,031	0,018
-722,079	800,000	0,066	-0,180
-721,064	-22,823	0,080	0,035
-720,050	-30,562	0,009	-0,004
-719,035	386,075	-0,051	0,078
-718,021	800,000	-0,031	0,071
-717,006	13,938	-0,010	-0,006
-715,991	-36,353	-0,068	-0,027
-714,977	-121,466	-0,082	0,010
-713,962	8,992	-0,055	0,030
-712,948	517,257	0,068	0,117
-711,933	4,399	-0,158	0,085
-710,918	-2,235	0,112	0,057
-709,904	800,000	0,030	0,073
-708,889	800,000	-0,016	-0,040
-707,875	-200,000	-0,035	-0,138
-706,860	384,404	0,009	0,014
-705,845	-200,000	-0,008	-0,035
-704,831	212,455	0,078	0,091
-703,816	-20,716	-0,138	-0,062
-702,802	98,255	0,114	-0,096
-701,787	188,297	-0,036	0,040
-700,772	186,920	0,038	0,042
-699,758	800,000	0,023	-0,074
-698,743	-77,495	-0,062	0,016
-697,729	800,000	0,024	-0,060
-696,714	-95,502	0,073	0,014
-695,699	248,084	-0,133	0,165
-694,685	-200,000	0,005	-0,027
-693,670	-200,000	-0,024	-0,094
-692,656	732,824	-0,069	0,136
-691,641	-200,000	-0,001	-0,078
-690,627	74,722	0,075	-0,058
-689,612	7,949	-0,089	0,049
-688,597	-48,801	-0,057	-0,020
-687,583	-79,006	-0,163	-0,040
-686,568	85,355	-0,075	0,061
-685,554	-200,000	-0,005	-0,026
-684,539	-77,179	0,069	-0,018
-683,524	19,691	-0,017	0,010
-682,510	-61,787	0,102	-0,031
-681,495	-53,610	-0,138	-0,046
-680,481	-19,644	-0,067	-0,030
-679,466	321,780	-0,013	0,018
-678,451	161,377	-0,096	-0,099
-677,437	-16,663	-0,100	-0,046
-676,422	800,000	0,043	0,120
-675,408	-85,981	0,088	0,020
-674,393	-105,535	0,057	-0,009
-673,378	-200,000	-0,007	0,181
-672,364	800,000	-0,049	-0,125
-671,349	-60,261	-0,122	-0,038
-670,335	109,654	0,086	-0,076
-669,320	-200,000	-0,032	0,106
-668,305	800,000	-0,034	0,101
-667,291	169,846	-0,066	0,070
-666,276	-200,000	0,007	0,090
-665,262	-62,313	-0,048	0,015
-664,247	-200,000	-0,028	-0,107
-663,232	224,415	-0,034	-0,040
-662,218	1,043	-0,098	0,051
-661,203	-17,776	0,028	-0,013
-660,189	-200,000	-0,022	0,101
-659,174	-78,692	-0,128	0,032
-658,159	270,345	-0,035	0,045
-657,145	692,295	0,053	0,102
-656,130	340,846	0,026	-0,037
-655,116	-78,301	-0,116	0,029
-654,101	-51,042	0,071	-0,024
-653,086	195,900	0,029	0,032
-652,072	168,391	0,018	-0,019
-651,057	-108,643	-0,200	-0,031
-650,043	-93,176	-0,056	-0,011
-649,028	273,806	-0,052	0,068
-648,014	-200,000	-0,003	0,095
-646,999	125,957	-0,139	0,129
-645,984	-126,963	0,127	0,013
-644,970	-149,128	-0,112	-0,006
-643,955	-134,049	-0,221	-0,020
-642,941	-20,552	0,140	0,063
-641,926	-180,772	-0,017	-0,000
-640,911	-30,311	0,073	0,030
-639,897	-200,000	-0,003	-0,015
-638,882	701,067	0,059	0,115
-637,868	-0,249	-0,115	0,060
-636,853	-0,438	-0,075	-0,039
-635,838	-200,000	0,000	-0,034
-634,824	-82,924	-0,098	-0,023
-633,809	800,000	-0,045	0,120
-632,795	800,000	-0,012	0,032
-631,780	-12,684	0,143	-0,068
-630,765	-120,916	-0,098	-0,012
-629,751	-200,000	0,001	-0,058
-628,736	-200,000	0,044	-0,154
-627,722	614,445	0,029	-0,053
-626,707	515,774	-0,074	-0,127
-625,692	800,000	-0,050	-0,106
-624,678	800,000	-0,031	-0,082
-623,663	-114,422	-0,096	0,013
-622,649	178,462	-0,067	-0,072
-621,634	-200,000	0,003	-0,079
-620,619	800,000	0,013	0,040
-619,605	-120,610	0,117	0,014
-618,590	670,311	0,023	0,043
-617,576	-200,000	-0,005	-0,045
-616,561	-200,000	-0,012	0,109
-615,546	-50,376	-0,106	-0,036
-614,532	800,000	-0,082	0,211
-613,517	16,105	0,147	-0,084
-612,503	-200,000	-0,011	0,047
-611,488	-200,000	0,002	0,027
-610,474	800,000	0,031	0,074
-609,459	6,603	0,036	0,020
-608,444	12,892	0,030	0,017
-607,430	800,000	-0,075	-0,159
-606,415	121,721	0,088	-0,080
-605,401	1,359	-0,010	-0,005
-604,386	24,914	0,068	-0,041
-603,371	20,268	0,085	0,050
-602,357	-74,754	0,208	-0,054
-601,342	29,591	0,133	-0,083
-600,328	-47,873	-0,085	-0,030
-599,313	19,979	-0,091	-0,053
-598,298	123,312	0,084	0,077
-597,284	-40,488	-0,163	0,062
-596,269	377,401	0,082	0,122
-595,255	142,580	-0,006	0,006
-594,240	149,449	-0,024	-0,024
-593,225	-88,401	-0,110	-0,024
-592,211	292,586	-0,039	-0,052
-591,196	-140,023	-0,164	-0,012
-590,182	419,056	-0,033	-0,052
-589,167	-168,893	0,095	0,003
-588,152	44,936	0,095	0,064
-587,138	-91,512	-0,065	0,013
-586,123	11,500	-0,179	-0,100
-585,109	-200,000	-0,030	0,124
-584,094	482,518	-0,062	-0,103
-583,079	-200,000	-0,014	-0,053
-582,065	-36,935	-0,077	-0,030
-581,050	-10,065	0,132	-0,064
-580,036	684,632	0,039	-0,076
-579,021	-200,000	0,007	-0,105
-578,006	210,311	-0,079	0,091
-576,992	-24,598	-0,084	-0,036
-575,977	800,000	-0,008	0,022
-574,963	-154,360	0,070	-0,003
-573,948	177,523	-0,015	0,016
-572,934	347,443	-0,018	-0,026
-571,919	-16,682	0,044	0,020
-570,904	-4,192	-0,090	0,046
-569,890	171,825	0,031	-0,033
-568,875	-200,000	-0,002	0,069
-567,861	-0,161	0,040	-0,021
-566,846	800,000	0,024	-0,056
-565,831	270,624	-0,038	0,049
-564,817	90,428	0,099	0,081
-563,802	800,000	-0,036	0,102
-562,788	433,493	0,024	0,038
-561,773	-200,000	-0,006	-0,055
-560,758	96,737	-0,027	-0,023
-559,744	268,139	-0,097	0,124
-558,729	47,008	-0,095	0,065
-557,715	12,082	-0,114	-0,064
-556,700	-200,000	-0,013	0,043
-555,685	-200,000	-0,014	0,095
-554,671	25,094	0,066	-0,040
-553,656	42,830	-0,031	0,021
-552,642	-200,000	0,021	0,176
-551,627	374,151	0,041	-0,061
-550,612	-136,591	-0,149	0,012
-549,598	-90,990	0,139	0,029
-548,583	238,148	0,028	-0,033
-547,569	-200,000	-0,005	0,024
-546,554	-102,185	0,028	0,005
-545,539	-114,062	0,083	-0,012
-544,525	-31,533	-0,070	-0,029
-543,510	472,943	0,041	-0,068
-542,496	-82,598	-0,153	-0,036
-541,481	37,758	-0,147	-0,095
-540,466	162,301	-0,015	0,016
-539,452	149,306	-0,053	0,053
-538,437	789,794	0,031	0,063
-537,423	106,030	0,106	0,092
-536,408	800,000	0,017	-0,038
-535,393	573,497	-0,044	-0,079
-534,379	37,706	0,069	0,045
-533,364	108,036	0,067	-0,058
-532,350	63,362	0,082	0,060
-531,335	-84,199	-0,082	0,019
-530,321	-17,201	0,060	0,027
-529,306	82,445	-0,187	0,148
-528,291	59,462	-0,081	-0,058
-527,277	44,322	-0,055	-0,037
-526,262	-127,816	-0,025	-0,003
-525,248	800,000	-0,028	0,063
-524,233	-99,393	-0,122	-0,022
-523,218	-154,239	0,073	-0,004
-522,204	-128,449	-0,014	-0,001
-521,189	-200,000	0,002	-0,015
-520,175	101,930	-0,072	-0,061
-519,160	211,033	-0,084	-0,097
-518,145	-200,000	0,012	0,042
-517,131	669,104	-0,026	0,050
-516,116	800,000	-0,021	-0,067
-515,102	-4,390	-0,105	-0,053
-514,087	800,000	0,045	-0,101
-513,072	800,000	0,015	-0,044
-512,058	-86,298	0,120	-0,027
-511,043	-76,803	0,126	-0,032
-510,029	14,926	0,188	-0,107
-509,014	-157,701	-0,165	0,007
-507,999	-57,770	-0,119	0,038
-506,985	254,245	-0,051	-0,063
-505,970	-200,000	-0,005	-0,015
-504,956	-75,852	-0,030	0,008
-503,941	7,663	-0,058	0,032
-502,926	180,092	-0,136	-0,146
-501,912	-78,300	0,162	-0,040
-500,897	-61,927	-0,095	0,029
-499,883	312,269	0,055	-0,075
-498,868	-200,000	0,005	-0,055
-497,853	50,026	-0,032	-0,022
-496,839	47,814	0,161	-0,110
-495,824	222,674	0,049	-0,058
-494,810	312,486	0,068	0,093
-493,795	8,551	0,046	0,025
-492,781	800,000	-0,019	-0,057
-491,766	290,207	0,024	-0,032
-490,751	-200,000	0,037	0,141
-489,737	279,298	0,040	-0,052
-488,722	68,472	-0,075	-0,056
-487,708	455,747	0,077	0,124
-486,693	-194,609	-0,062	0,000
-485,678	478,527	0,030	-0,050
-484,664	397,212	0,052	0,079
-483,649	259,445	-0,016	0,020
-482,635	-52,385	-0,073	-0,024
-481,620	800,000	0,046	0,114
-480,605	104,442	0,047	-0,040
-479,591	-101,352	0,126	0,022
-478,576	-10,921	0,094	-0,045
-477,562	50,745	-0,111	0,076
-476,547	800,000	-0,071	0,161
-475,532	-64,683	-0,080	-0,023
-474,518	192,630	0,118	0,130
-473,503	369,465	-0,043	0,063
-472,489	776,690	0,052	0,104
-471,474	-56,150	-0,113	0,036
-470,459	-200,000	-0,035	-0,143
-469,445	-200,000	-0,030	-0,135
-468,430	-200,000	-0,026	0,084
-467,416	236,645	0,047	-0,057
-466,401	-53,771	-0,072	-0,024
-465,386	684,484	-0,029	0,055
-464,372	-200,000	0,006	-0,037
-463,357	-200,000	0,019	-0,074
-462,343	-138,878	0,048	-0,004
-461,328	247,344	-0,055	0,068
-460,313	282,543	0,105	0,137
-459,299	362,107	0,051	0,074
-458,284	43,108	0,080	-0,053
-457,270	-200,000	-0,065	-0,282
-456,255	-136,956	0,027	-0,002
-455,241	-143,051	-0,031	0,002
-454,226	183,766	0,023	-0,025
-453,211	-200,000	0,013	0,155
-452,197	-27,307	0,061	-0,026
-451,182	-138,912	-0,080	0,006
-450,168	1,476	0,175	-0,091
-449,153	-200,000	-0,016	-0,054
-448,138	800,000	-0,028	-0,087
-447,124	494,250	0,030	-0,051
-446,109	800,000	0,027	-0,062
-445,095	7,080	0,121	-0,065
-444,080	82,789	0,031	0,024
-443,065	122,812	-0,092	0,084
-442,051	90,010	0,051	0,041
-441,036	361,884	-0,078	-0,114
-440,022	183,324	0,040	0,043
-439,007	245,923	0,036	0,044
-437,992	-74,988	0,152	0,039
-436,978	-56,636	-0,028	-0,009
-435,963	270,082	0,049	0,063
-434,949	800,000	-0,010	0,024
-433,934	184,268	-0,009	0,010
-432,919	-200,000	0,003	-0,029
-431,905	331,629	0,069	-0,097
-430,890	-200,000	0,004	0,045
-429,876	-97,310	0,142	0,027
-428,861	89,598	0,066	0,054
-427,846	435,410	-0,007	0,012
-426,832	800,000	0,016	-0,049
-425,817	-134,805	-0,167	-0,015
-424,803	233,171	-0,048	-0,057
-423,788	418,088	-0,044	0,068
-422,773	-38,304	0,141	0,054
-421,759	-35,596	-0,041	-0,016
-420,744	-200,000	0,002	-0,032
-419,730	800,000	0,018	-0,058
-418,715	-57,588	0,162	0,051
-417,701	800,000	-0,003	-0,008
-416,686	-200,000	0,032	0,115
-415,671	457,948	0,086	0,139
-414,657	-200,000	0,011	0,072
-413,642	132,188	-0,085	0,080
-412,628	800,000	0,051	-0,156
-411,613	68,304	0,038	0,028
-410,598	-42,717	-0,123	0,045
-409,584	-200,000	0,019	-0,140
-408,569	-30,056	0,071	0,029
-407,555	800,000	-0,024	-0,077
-406,540	-46,471	0,195	0,069
-405,525	-66,382	-0,145	-0,041
-404,511	4,433	0,009	-0,005
-403,496	717,373	-0,036	0,071
-402,482	140,744	-0,045	-0,043
-401,467	-11,708	0,152	-0,072
-400,452	21,478	0,102	0,060
-399,438	-105,514	-0,097	-0,016
-398,423	359,137	0,083	0,120
-397,409	-200,000	-0,011	0,070
-396,394	800,000	0,072	0,194
-395,379	293,860	0,038	0,050
-394,365	-14,794	-0,037	0,017
-393,350	207,844	0,157	0,178
-392,336	-128,395	-0,131	0,013
-391,321	800,000	-0,061	-0,124
-390,306	-130,533	0,128	0,012
-389,292	-45,197	-0,094	-0,034
-388,277	-64,377	-0,076	-0,022
-387,263	-200,000	0,002	0,019
-386,248	27,157	-0,067	0,041
-385,233	115,187	0,033	-0,030
-384,219	-52,062	-0,107	-0,036
-383,204	-200,000	-0,011	0,042
-382,190	-200,000	0,006	-0,059
-381,175	-200,000	0,021	-0,143
-380,160	306,793	0,054	-0,073
-379,146	-60,610	0,040	0,012
-378,131	64,086	0,092	0,067
-377,117	-6,633	0,044	-0,022
-376,102	358,554	-0,042	-0,062
-375,088	800,000	-0,032	-0,068
-374,073	-200,000	-0,019	-0,151
-373,058	55,016	0,004	0,003
-372,044	800,000	-0,016	-0,042
-371,029	-44,390	-0,020	0,007
-370,015	800,000	-0,034	0,082
-369,000	-108,782	0,175	0,027
-367,985	-200,000	-0,026	0,089
-366,971	-200,000	-0,034	-0,164
-365,956	193,405	0,035	-0,038
-364,942	-88,937	0,130	-0,028
-363,927	-37,456	-0,051	-0,020
-362,912	-79,350	-0,140	-0,034
-361,898	-134,991	-0,027	0,002
-360,883	-200,000	-0,013	0,093
-359,869	219,762	-0,112	0,130
-358,854	92,659	-0,033	0,027
-357,839	-142,430	-0,050	0,004
-356,825	-97,779	0,153	0,028
-355,810	-200,000	-0,025	-0,117
-354,796	-3,068	-0,108	-0,055
-353,781	-200,000	-0,002	-0,120
-352,766	-51,825	0,062	0,021
-351,752	181,208	0,126	0,134
-350,737	82,980	0,104	0,082
-349,723	800,000	-0,047	0,101
-348,708	64,128	-0,029	-0,021
-347,693	-149,982	-0,023	0,001
-346,679	-33,314	-0,098	-0,039
-345,664	461,500	-0,070	-0,113
-344,650	-200,000	0,038	-0,196
-343,635	325,318	0,096	0,134
-342,620	-200,000	-0,005	-0,038
-341,606	-200,000	0,006	-0,034
-340,591	-81,115	-0,095	-0,023
-339,577	89,107	0,107	0,086
-338,562	616,988	0,018	0,033
-337,548	-62,301	0,106	-0,032
-336,533	35,682	-0,041	-0,026
-335,518	-200,000	0,048	0,178
-334,504	-92,316	-0,059	0,012
-333,489	372,810	0,019	-0,028
-332,475	120,952	-0,095	-0,085
-331,460	-119,931	-0,077	-0,009
-330,445	-38,519	0,028	-0,011
-329,431	-92,361	0,051	-0,010
-328,416	-141,063	-0,047	-0,003
-327,402	-2,668	0,056	-0,028
-326,387	46,892	0,081	0,055
-325,372	-200,000	-0,011	-0,060
-324,358	364,869	-0,067	0,098
-323,343	-90,411	0,064	0,013
-322,329	514,761	0,061	0,103
-321,314	39,491	0,078	0,051
-320,299	-10,450	-0,076	-0,036
-319,285	7,538	-0,045	0,024
-318,270	800,000	-0,016	-0,049
-317,256	28,558	-0,147	-0,090
-316,241	800,000	-0,025	-0,059
-315,226	572,493	0,042	-0,074
-314,212	-56,401	0,157	0,050
-313,197	-87,550	0,069	-0,015
-312,183	-82,839	-0,055	0,013
-311,168	59,182	0,077	0,055
-310,153	27,000	-0,112	0,068
-309,139	480,608	-0,058	0,096
-308,124	800,000	-0,014	-0,039
-307,110	9,396	0,146	0,080
-306,095	-200,000	-0,006	0,051
-305,080	-200,000	0,025	-0,082
-304,066	255,446	-0,021	0,026
-303,051	800,000	0,036	-0,076
-302,037	800,000	0,008	-0,016
-301,022	-200,000	0,018	-0,114
-300,008	24,783	-0,004	-0,003
-298,993	154,529	-0,059	0,059
-297,978	64,325	0,025	0,018
-296,964	489,955	-0,041	-0,069
-295,949	-137,789	-0,140	0,011
-294,935	-58,390	-0,099	0,031
-293,920	8,296	-0,052	-0,028
-292,905	-4,586	0,170	-0,085
-291,891	19,981	0,093	-0,054
-290,876	-110,747	-0,011	0,002
-289,862	30,935	-0,034	0,021
-288,847	-200,000	0,040	-0,169
-287,832	-102,755	0,076	0,013
-286,818	1,742	0,112	0,058
-285,803	187,206	0,092	0,099
-284,789	800,000	0,038	0,096
-283,774	584,747	0,079	0,140
-282,759	-90,954	-0,120	-0,025
-281,745	-8,103	-0,160	-0,078
-280,730	-200,000	0,005	-0,058
-279,716	-200,000	-0,024	-0,096
-278,701	8,485	-0,095	0,052
-277,686	-126,586	0,095	-0,010
-276,672	129,611	-0,141	0,130
-275,657	800,000	0,063	0,134
-274,643	122,849	-0,127	-0,115
-273,628	-200,000	-0,020	-0,068
-272,613	800,000	-0,049	-0,115
-271,599	-200,000	0,006	-0,036
-270,584	-19,353	0,111	-0,050
-269,570	136,060	0,094	0,088
-268,555	-46,431	-0,104	0,037
-267,540	-155,572	-0,095	0,004
-266,526	649,117	0,013	-0,024
-265,511	-200,000	-0,008	-0,073
-264,497	800,000	0,036	0,080
-263,482	73,132	0,078	-0,059
-262,467	240,825	-0,034	0,041
-261,453	407,733	0,057	0,087
-260,438	288,490	0,044	-0,058
-259,424	-85,953	0,041	0,009
-258,409	-126,188	0,108	0,012
-257,395	-79,296	0,151	-0,037
-256,380	-124,285	0,152	-0,017
-255,365	-107,880	0,095	-0,015
-254,351	184,830	-0,067	0,072
-253,336	91,177	0,080	-0,065
-252,322	-131,678	-0,126	0,012
-251,307	331,391	-0,022	-0,031
-250,292	800,000	0,022	0,061
-249,278	800,000	-0,045	-0,121
-248,263	437,699	-0,081	0,128
-247,249	72,055	0,038	0,029
-246,234	233,485	0,078	-0,093
-245,219	-36,629	-0,124	-0,048
-244,205	-200,000	0,016	-0,067
-243,190	-200,000	-0,032	0,164
-242,176	126,826	0,038	0,035
-241,161	-76,116	-0,100	-0,025
-240,146	-13,524	-0,151	0,070
-239,132	486,854	-0,004	0,006
-238,117	625,140	-0,060	0,110
-237,103	143,178	0,089	0,086
-236,088	-158,322	-0,078	0,003
-235,073	800,000	0,022	0,054
-234,059	-126,138	-0,091	0,010
-233,044	504,697	0,034	-0,057
-232,030	1,420	0,031	0,016
-231,015	-200,000	0,017	0,139
-230,000	-200,000	-0,004	0,024
-228,986	-191,587	-0,219	0,002
-227,971	-200,000	-0,039	-0,126
-226,957	-54,583	-0,014	-0,004
-225,942	90,928	-0,129	0,104
-224,927	800,000	0,018	0,058
-223,913	7,016	0,047	-0,025
-222,898	-200,000	0,013	-0,132
-221,884	130,205	0,103	-0,095
-220,869	27,480	0,084	-0,051
-219,855	-70,471	-0,037	-0,010
-218,840	104,471	0,051	0,043
-217,825	-34,306	0,044	0,017
-216,811	-42,686	0,074	-0,027
-215,796	-108,175	-0,122	-0,019
-214,782	-28,520	-0,095	0,039
-213,767	185,043	0,029	0,031
-212,752	-94,418	0,076	0,015
-211,738	-26,302	0,110	0,046
-210,723	-200,000	-0,029	-0,092
-209,709	121,027	-0,088	-0,079
-208,694	-66,468	-0,152	-0,043
-207,679	-2,802	0,083	-0,042
-206,665	-52,788	0,098	-0,032
-205,650	-26,148	0,079	0,033
-204,636	342,987	0,056	0,080
-203,621	348,314	-0,047	0,066
-202,606	-71,904	-0,082	0,022
-201,592	800,000	0,018	-0,047
-200,577	-200,000	-0,008	-0,156
-199,563	259,734	0,048	0,060
-198,548	800,000	0,025	0,071
-197,533	-200,000	0,000	0,092
-196,519	800,000	-0,045	-0,102
-195,504	-200,000	0,026	-0,092
-194,490	-200,000	0,021	0,197
-193,475	2,806	-0,107	0,056
-192,460	462,357	-0,068	-0,109
-191,446	35,781	-0,053	0,033
-190,431	758,470	0,022	0,042
-189,417	800,000	0,019	-0,042
-188,402	800,000	-0,023	-0,047
-187,387	162,984	-0,050	0,050
-186,373	-200,000	0,001	-0,112
-185,358	-200,000	0,009	0,130
-184,344	660,457	0,009	-0,017
-183,329	331,141	-0,076	0,106
-182,315	240,970	-0,012	0,014
-181,300	-200,000	0,022	-0,075
-180,285	-158,609	-0,061	-0,002
-179,271	-200,000	0,006	0,045
-178,256	544,732	0,060	0,104
-177,242	128,641	0,051	-0,047
-176,227	-4,138	-0,057	0,028
-175,212	23,773	0,039	0,023
-174,198	-22,890	0,078	-0,034
-173,183	47,391	0,118	-0,079
-172,169	-200,000	0,002	-0,204
-171,154	457,214	-0,034	-0,054
-170,139	500,475	0,016	-0,027
-169,125	-79,056	0,151	-0,037
-168,110	85,708	0,089	-0,071
-167,096	-20,889	-0,070	0,031
-166,081	800,000	-0,065	-0,155
-165,066	-161,435	0,047	0,002
-164,052	-200,000	0,002	0,067
-163,037	197,425	-0,022	-0,024
-162,023	-200,000	-0,023	0,195
-161,008	235,891	-0,080	-0,095
-159,993	-105,072	0,111	-0,018
-158,979	129,712	0,072	-0,066
-157,964	180,353	-0,070	0,074
-156,950	-1,405	-0,099	-0,050
-155,935	-200,000	0,012	0,053
-154,920	-200,000	0,035	0,189
-153,906	-200,000	0,006	0,105
-152,891	-102,526	-0,055	0,009
-151,877	-151,658	-0,255	0,013
-150,862	800,000	-0,025	0,052
-149,847	-145,463	0,089	0,006
-148,833	29,854	0,095	0,058
-147,818	-50,283	0,058	-0,020
-146,804	-48,368	0,174	0,060
-145,789	-50,745	0,152	0,051
-144,775	-10,568	-0,025	0,012
-143,760	800,000	0,052	-0,104
-142,745	333,953	0,058	-0,081
-141,731	-200,000	0,020	-0,081
-140,716	-34,618	-0,032	-0,013
-139,702	-35,585	0,114	-0,044
-138,687	66,136	-0,073	0,053
-137,672	800,000	0,073	-0,152
-136,658	-24,742	-0,048	-0,020
-135,643	-69,631	0,028	0,008
-134,629	-30,077	0,165	0,067
-133,614	0,303	0,109	0,056
-132,599	567,738	0,026	0,046
-131,585	-11,392	-0,088	0,042
-130,570	599,644	0,069	0,123
-129,556	-200,000	-0,007	-0,038
-128,541	630,930	-0,062	-0,113
-127,526	-200,000	-0,017	-0,107
-126,512	198,846	-0,091	-0,100
-125,497	-88,706	0,077	0,016
-124,483	-71,569	-0,044	-0,012
-123,468	800,000	-0,013	-0,038
-122,453	648,718	-0,049	-0,091
-121,439	31,615	0,129	-0,079
-120,424	-35,747	-0,109	-0,042
-119,410	-134,591	0,080	0,007
-118,395	800,000	0,040	0,110
-117,380	-117,618	0,047	-0,006
-116,366	-200,000	0,014	-0,084
-115,351	-25,964	-0,058	-0,024
-114,337	-40,169	0,090	0,033
-113,322	-111,634	-0,097	-0,014
-112,307	-44,348	0,083	-0,030
-111,293	-58,078	-0,030	0,009
-110,278	648,358	0,037	-0,069
-109,264	-171,266	0,028	0,001
-108,249	39,677	0,090	-0,058
-107,234	800,000	0,016	-0,045
-106,220	-29,252	0,120	-0,049
-105,205	-200,000	-0,009	0,059
-104,191	-177,747	-0,028	-0,000
-103,176	137,143	0,054	0,051
-102,162	-200,000	0,002	0,115
-101,147	800,000	0,017	-0,042
-100,132	800,000	-0,056	-0,136
-99,118	-20,355	0,070	0,031
-98,103	-139,545	0,051	-0,004
-97,089	800,000	0,037	-0,086
-96,074	101,635	0,058	0,048
-95,059	195,735	0,019	0,021
-94,045	800,000	-0,062	0,141
-93,030	-15,986	-0,102	-0,047
-92,016	-6,312	-0,129	-0,063
-91,001	446,408	-0,018	-0,028
-89,986	-104,343	0,116	-0,019
-88,972	17,356	0,118	0,067
-87,957	185,515	0,080	0,085
-86,943	800,000	0,038	-0,089
-85,928	-90,549	0,083	-0,017
-84,913	11,073	-0,084	-0,046
-83,899	-105,094	0,041	-0,007
-82,884	-200,000	-0,007	0,071
-81,870	-200,000	0,006	0,022
-80,855	800,000	0,029	0,079
-79,840	-200,000	0,003	0,130
-78,826	-29,234	-0,136	-0,055
-77,811	-200,000	0,025	-0,151
-76,797	81,119	-0,041	0,032
-75,782	714,690	0,004	-0,007
-74,767	-122,916	0,094	-0,011
-73,753	174,351	0,043	-0,044
-72,738	-134,756	-0,188	0,016
-71,724	618,437	-0,030	-0,054
-70,709	650,111	-0,039	0,073
-69,694	-200,000	0,005	0,141
-68,680	145,432	-0,083	0,079
-67,665	156,686	0,123	0,122
-66,651	-71,079	0,159	-0,043
-65,636	-135,872	0,083	-0,007
-64,622	-121,592	-0,088	0,010
-63,607	-93,577	0,082	0,016
-62,592	800,000	-0,022	-0,057
-61,578	228,184	-0,103	-0,120
-60,563	-68,267	0,125	-0,035
-59,549	-104,251	-0,080	0,013
-58,534	44,953	-2,146	-1,413
-57,519	-200,000	-0,116	-0,783
-56,505	-200,000	-1,382	-5,189
-55,490	70,772	0,959	0,710
-54,476	800,000	5,427	12,040
-53,461	-200,000	18,739	318,492
-52,446	800,000	740,979	2322,361
-51,432	549,906	1654,581	2852,031
-50,417	110,080	1637,630	1407,220
-49,403	73,579	1288,305	965,145
-48,388	29,651	1029,706	625,984
-47,373	19,683	992,424	570,372
-46,359	17,093	979,968	554,689
-45,344	13,655	976,367	541,351
-44,330	14,013	974,773	541,619
-43,315	13,328	972,922	538,329
-42,300	13,260	971,835	537,484
-41,286	13,281	970,933	537,030
-40,271	13,329	969,820	536,551
-39,257	13,307	969,184	536,106
-38,242	13,271	968,413	535,540
-37,227	13,288	967,434	535,034
-36,213	13,278	966,444	534,432
-35,198	13,205	965,708	533,767
-34,184	13,306	965,075	533,724
-33,169	13,257	963,835	532,858
-32,154	13,247	963,055	532,372
-31,140	13,265	962,040	531,850
-30,125	13,296	961,208	531,467
-29,111	13,307	960,469	531,074
-28,096	13,313	959,941	530,781
-27,082	13,254	959,228	530,176
-26,067	13,331	958,392	529,939
-25,052	13,302	957,622	529,400
-24,038	13,292	957,169	529,095
-23,023	13,242	956,327	528,448
-22,009	13,313	955,864	528,400
-20,994	13,293	955,116	527,903
-19,979	13,263	954,510	527,449
-18,965	13,242	953,968	527,062
-17,950	13,362	953,152	526,974
-16,936	13,255	952,757	526,392
-15,921	13,273	951,986	526,003
-14,906	13,176	951,385	525,340
-13,892	13,262	950,549	525,133
-12,877	13,209	949,747	524,498
-11,863	13,167	949,289	524,092
-10,848	13,161	948,994	523,889
-9,833	13,327	948,170	523,941
-8,819	13,288	947,693	523,533
-7,804	13,185	947,031	522,819
-6,790	13,236	946,352	522,586
-5,775	13,205	945,826	522,175
-4,760	13,284	945,133	522,022
-3,746	13,251	944,633	521,621
-2,731	13,076	944,063	520,732
-1,717	13,061	943,241	520,210
-0,702	13,010	942,631	519,690
0,313	12,862	941,839	519,570
1,327	16,345	939,785	529,390
2,342	25,513	790,240	469,306
3,356	21,679	444,661	258,373
4,371	-7,755	297,747	143,376
5,386	-11,639	279,598	130,916
6,400	-12,840	273,794	127,063
7,415	-12,889	271,422	125,905
8,429	-13,016	269,947	125,092
9,444	-13,085	269,082	124,617
10,459	-13,124	268,399	124,253
11,473	-13,232	267,787	123,860
12,488	-13,224	267,109	123,543
13,502	-13,552	266,672	123,031
14,517	-13,491	266,227	122,870
15,531	-13,196	265,869	122,962
16,546	-13,406	265,450	122,567
17,561	-13,253	265,129	122,546
18,575	-13,242	264,746	122,368
19,590	-13,316	264,398	122,130
20,604	-13,295	264,089	121,995
21,619	-13,408	263,702	121,704
22,634	-13,398	263,393	121,559
23,648	-13,312	263,079	121,481
24,663	-13,292	262,817	121,367
25,677	-13,325	262,583	121,218
26,692	-13,393	262,387	121,056
27,707	-13,486	262,042	120,803
28,721	-13,273	261,713	120,831
29,736	-13,506	261,579	120,550
30,750	-13,422	261,206	120,443
31,765	-13,417	260,937	120,312
32,780	-13,399	260,752	120,232
33,794	-13,333	260,442	120,138
34,809	-13,268	260,093	120,024
35,823	-13,276	259,910	119,921
36,838	-13,532	259,658	119,567
37,853	-13,409	259,549	119,615
38,867	-13,487	259,347	119,443
39,882	-13,706	259,111	119,130
40,896	-13,509	258,835	119,166
41,911	-13,439	258,563	119,092
42,926	-13,578	258,363	118,866
43,940	-13,604	257,993	118,663
44,955	-13,450	257,721	118,662
45,969	-13,498	257,532	118,523
46,984	-13,788	257,303	118,152
47,999	-13,944	257,186	117,952
49,013	-14,032	256,694	117,639
50,028	-14,120	256,457	117,443
51,042	-14,435	256,219	117,048
52,057	-14,371	256,036	117,010
53,071	-14,323	255,963	117,008
54,086	-14,203	255,700	116,981
55,101	-14,039	255,604	117,070
56,115	-13,864	255,272	117,060
57,130	-13,605	255,305	117,290
58,144	-13,083	255,078	117,628
59,159	-13,125	254,820	117,462
60,174	-13,282	254,551	117,192
61,188	-13,295	254,386	117,094
62,203	-13,148	254,045	117,054
63,217	-13,342	254,001	116,855
64,232	-13,347	253,577	116,645
65,247	-13,289	253,543	116,670
66,261	-13,319	253,277	116,510
67,276	-13,487	252,976	116,217
68,290	-13,638	252,799	115,996
69,305	-13,895	252,483	115,620
70,320	-13,843	252,307	115,574
71,334	-13,646	252,102	115,638
72,349	-13,345	252,067	115,870
73,363	-13,217	251,838	115,864
74,378	-13,452	251,744	115,610
75,393	-13,381	251,245	115,430
76,407	-13,386	251,149	115,372
77,422	-13,481	250,974	115,200
78,436	-13,386	250,700	115,145
79,451	-13,169	250,576	115,263
80,466	-13,377	250,157	114,883
81,480	-13,673	250,103	114,596
82,495	-13,537	249,893	114,605
83,509	-13,645	249,701	114,416
84,524	-13,667	249,437	114,265
85,539	-13,709	249,154	114,090
86,553	-13,668	249,031	114,059
87,568	-13,546	248,911	114,096
88,582	-13,613	248,748	113,955
89,597	-13,671	248,516	113,789
90,611	-13,457	248,293	113,858
91,626	-13,457	248,151	113,782
92,641	-13,505	247,894	113,614
93,655	-13,468	247,708	113,550
94,670	-13,584	247,515	113,354
95,684	-13,584	247,307	113,248
96,699	-13,581	247,184	113,184
97,714	-13,623	246,936	113,026
98,728	-13,685	246,784	112,894
99,743	-13,876	246,620	112,649
100,757	-13,903	246,266	112,455
101,772	-13,959	246,147	112,344
102,787	-13,692	246,020	112,499
103,801	-13,572	245,713	112,448
104,816	-13,457	245,608	112,486
105,830	-13,322	245,470	112,525
106,845	-13,355	245,429	112,468
107,860	-13,444	245,161	112,262
108,874	-13,571	244,916	112,034
109,889	-13,603	244,705	111,901
110,903	-13,534	244,455	111,834
111,918	-13,803	244,487	111,616
112,933	-13,613	244,080	111,578
113,947	-13,386	244,004	111,720
114,962	-13,489	243,739	111,504
115,976	-13,356	243,543	111,514
116,991	-13,513	243,580	111,391
118,006	-13,460	243,243	111,271
119,020	-13,327	243,086	111,299
120,035	-13,427	243,170	111,245
121,049	-13,380	242,922	111,160
122,064	-13,265	242,618	111,105
123,079	-13,324	242,463	110,977
124,093	-13,691	242,234	110,561
125,108	-13,691	241,920	110,408
126,122	-13,845	241,653	110,150
127,137	-13,775	241,467	110,113
128,151	-13,698	241,390	110,130
129,166	-13,708	241,150	110,003
130,181	-13,897	240,974	109,759
131,195	-13,952	240,876	109,660
132,210	-13,448	240,636	109,951
133,224	-13,464	240,504	109,868
134,239	-13,251	240,315	109,945
135,254	-13,355	240,209	109,802
136,268	-13,560	239,863	109,468
137,283	-13,767	239,579	109,160
138,297	-14,011	239,512	108,923
139,312	-13,838	239,201	108,911
140,327	-13,486	239,167	109,171
141,341	-13,126	239,104	109,423
142,356	-13,264	239,036	109,271
143,370	-13,239	238,939	109,237
144,385	-13,003	238,505	109,219
145,400	-13,180	238,414	109,025
146,414	-13,154	238,308	108,988
147,429	-12,970	238,002	108,986
148,443	-13,385	238,001	108,642
149,458	-13,111	237,639	108,688
150,473	-13,323	237,622	108,500
151,487	-13,274	237,353	108,406
152,502	-13,178	237,202	108,405
153,516	-13,115	237,156	108,424
154,531	-13,184	237,020	108,298
155,546	-13,041	236,646	108,231
156,560	-13,303	236,561	107,973
157,575	-13,395	236,273	107,759
158,589	-13,289	236,105	107,757
159,604	-12,986	235,870	107,882
160,619	-12,968	235,826	107,866
161,633	-13,111	235,658	107,666
162,648	-13,154	235,516	107,557
163,662	-13,124	235,341	107,491
164,677	-13,176	235,109	107,335
165,692	-13,271	235,074	107,234
166,706	-13,085	234,976	107,327
167,721	-13,073	234,822	107,257
168,735	-13,012	234,563	107,177
169,750	-13,081	234,400	107,038
170,764	-13,011	234,377	107,074
171,779	-13,221	234,227	106,830
172,794	-13,035	234,102	106,910
173,808	-13,199	233,702	106,588
174,823	-13,752	233,558	106,078
175,837	-13,903	233,314	105,839
176,852	-13,436	233,367	106,221
177,867	-12,959	233,119	106,473
178,881	-13,253	233,072	106,211
179,896	-13,058	232,825	106,243
180,910	-12,866	232,635	106,297
181,925	-12,920	232,483	106,175
182,940	-12,832	232,345	106,172
183,954	-13,023	232,174	105,935
184,969	-12,777	232,048	106,060
185,983	-12,950	232,015	105,900
186,998	-12,873	231,795	105,851
188,013	-12,857	231,642	105,784
189,027	-12,810	231,472	105,734
190,042	-12,955	231,278	105,522
191,056	-13,111	231,292	105,399
192,071	-13,149	230,991	105,222
193,086	-13,055	230,834	105,214
194,100	-12,839	230,596	105,264
195,115	-13,365	230,208	104,670
196,129	-13,396	230,475	104,758
197,144	-7,657	232,073	109,949
198,159	-2,508	233,740	114,761
199,173	1,777	234,936	118,702
200,188	2,765	235,178	119,589
201,202	2,665	234,833	119,324
202,217	2,515	234,761	119,160
203,232	3,061	234,587	119,487
204,246	3,084	234,576	119,490
205,261	3,012	234,255	119,259
206,275	3,124	234,257	119,337
207,290	2,863	234,237	119,112
208,304	3,048	233,958	119,104
209,319	3,048	233,784	119,005
210,334	2,935	233,528	118,776
211,348	2,668	233,404	118,495
212,363	2,359	233,234	118,158
213,377	2,398	232,898	118,007
214,392	2,419	232,718	117,922
215,407	2,664	232,597	118,040
216,421	2,470	232,513	117,836
217,436	2,269	232,293	117,559
218,450	2,067	232,103	117,296
219,465	2,305	231,900	117,367
220,480	2,307	231,646	117,230
221,494	2,284	231,746	117,252
222,509	2,389	231,662	117,280
223,523	2,265	231,410	117,046
224,538	2,404	231,179	117,026
225,553	2,548	230,996	117,034
226,567	2,275	230,907	116,768
227,582	2,658	230,812	117,004
228,596	2,866	230,823	117,159
229,611	2,210	230,679	116,572
230,626	2,092	230,283	116,271
231,640	2,028	230,102	116,120
232,655	2,569	230,003	116,474
233,669	2,805	229,918	116,601
234,684	2,696	229,997	116,547
235,699	2,701	229,730	116,405
236,713	2,670	229,457	116,233
237,728	2,373	229,393	115,964
238,742	2,182	229,037	115,628
239,757	2,182	228,981	115,590
240,772	2,255	228,736	115,511
241,786	2,158	228,685	115,401
242,801	2,607	228,651	115,714
243,815	3,053	228,458	115,945
244,830	2,843	228,264	115,677
245,844	2,521	228,161	115,371
246,859	2,235	228,007	115,066
247,874	2,603	228,008	115,335
248,888	2,804	227,754	115,348
249,903	2,740	227,550	115,186
250,917	2,454	227,334	114,851
251,932	2,378	227,157	114,694
252,947	2,353	226,915	114,542
253,961	2,294	226,780	114,419
254,976	2,233	226,790	114,369
255,990	2,718	226,681	114,668
257,005	2,619	226,562	114,523
258,020	2,448	226,434	114,321
259,034	2,745	226,263	114,447
260,049	2,502	226,124	114,184
261,063	2,652	226,013	114,230
262,078	2,877	225,906	114,334
263,093	2,872	225,685	114,208
264,107	2,594	225,720	114,008
265,122	2,576	225,581	113,914
266,136	2,816	225,359	113,971
267,151	2,879	225,148	113,902
268,166	2,547	224,958	113,547
269,180	2,166	224,899	113,223
270,195	2,237	224,615	113,124
271,209	2,122	224,497	112,968
272,224	2,428	224,134	113,003
273,239	2,354	224,206	112,974
274,253	2,348	224,045	112,878
275,268	2,351	223,754	112,724
276,282	2,208	223,652	112,557
277,297	2,216	223,495	112,473
278,312	2,342	223,449	112,534
279,326	2,408	223,360	112,528
280,341	2,481	223,168	112,474
281,355	2,530	223,078	112,455
282,370	2,340	222,797	112,163
283,384	2,356	222,608	112,070
284,399	2,083	222,400	111,755
285,414	2,097	222,526	111,818
286,428	2,418	222,395	111,979
287,443	2,545	222,160	111,943
288,457	2,666	222,119	112,002
289,472	2,202	221,861	111,521
290,487	1,927	221,674	111,215
291,501	1,774	221,422	110,967
292,516	1,899	221,404	111,040
293,530	1,898	221,362	111,008
294,545	2,189	221,039	111,049
295,560	2,418	221,028	111,201
296,574	2,238	220,878	110,984
297,589	2,301	220,750	110,956
298,603	2,601	220,604	111,092
299,618	2,624	220,430	111,011
300,633	2,489	220,427	110,901
301,647	2,742	220,193	110,957
302,662	2,818	220,107	110,960
303,676	2,796	219,987	110,873
304,691	2,481	219,902	110,592
305,706	2,515	219,812	110,560
306,720	2,768	219,591	110,624
307,735	2,497	219,252	110,246
308,749	2,487	219,204	110,206
309,764	2,413	219,225	110,152
310,779	2,761	218,810	110,186
311,793	2,424	218,878	109,966
312,808	2,564	218,692	109,964
313,822	2,370	218,572	109,754
314,837	2,425	218,372	109,684
315,852	2,216	218,214	109,444
316,866	2,433	218,063	109,514
317,881	2,625	218,030	109,627
318,895	2,525	217,867	109,462
319,910	2,161	217,557	109,036
320,925	1,980	217,371	108,803
321,939	1,705	217,203	108,512
322,954	1,984	217,156	108,679
323,968	2,508	217,176	109,054
324,983	2,780	216,914	109,108
325,997	2,789	216,932	109,114
327,012	2,419	216,801	108,773
328,027	2,752	216,543	108,872
329,041	2,667	216,663	108,862
330,056	2,731	216,385	108,758
331,070	2,357	216,250	108,414
332,085	2,283	216,003	108,228
333,100	2,539	215,759	108,278
334,114	2,459	215,787	108,226
335,129	2,377	215,637	108,083
336,143	2,427	215,348	107,964
337,158	2,181	215,370	107,791
338,173	2,521	215,138	107,906
339,187	2,025	214,782	107,367
340,202	2,034	214,870	107,407
341,216	2,393	214,751	107,592
342,231	2,625	214,682	107,712
343,246	2,463	214,450	107,472
344,260	2,572	214,430	107,529
345,275	2,650	214,355	107,537
346,289	2,757	214,212	107,531
347,304	2,694	213,963	107,352
348,319	2,391	213,904	107,100
349,333	2,338	213,743	106,972
350,348	2,574	213,591	107,052
351,362	2,776	213,393	107,086
352,377	2,565	213,388	106,925
353,392	2,337	213,302	106,713
354,406	2,376	213,237	106,698
355,421	197,780	1313,097	1393,279
356,435	158,266	1447,054	1393,228
