DTS Sentinel unit serial number:	SN410029Multiplexer serial number:	ORYXHardware model number:	OX2-SRSoftware version number:	ORYX F/W v4,00 Oryx Data Collector v3.7.2.0data status	okinstallation	B6 Nyhavnadifferential loss correction	single-endedforward channel	channel 2reverse channel	N/Adate	2023/12/10time	13:25:08forward acquisition time	300,00reverse acquisition time	0,00gamma	499,1914k internal	0,3122k external	0,3122temperature offset calibration	1,0000default loss term (dB/km)	0,3820temperature slope calibration	1,0000multiplexer offset coefficient	1,0000multiplexer slope coefficient	1,0000fibre end	0,00T internal ref (°C)	22,77T ext. ref 1 (°C)	6,35T ext. ref 2 (°C)	6,37length (m)	temperature (°C)	Stokes	anti-Stokes-744,400	42,708	-0,027	0,018
-743,385	-93,448	-0,188	0,038
-742,371	378,136	0,109	-0,167
-741,356	-8,089	-0,285	0,143
-740,342	-21,221	-0,010	-0,005
-739,327	-22,142	-0,218	0,098
-738,312	-200,000	-0,027	-0,210
-737,298	-155,584	-0,332	-0,016
-736,283	-82,627	0,071	-0,017
-735,269	28,900	-0,139	0,087
-734,254	271,550	-0,041	-0,054
-733,239	8,023	-0,360	-0,200
-732,225	-19,364	-0,031	0,014
-731,210	43,720	0,067	0,045
-730,196	-2,389	-0,086	-0,045
-729,181	-134,553	-0,136	0,012
-728,167	-108,534	-0,085	-0,013
-727,152	-200,000	0,007	-0,078
-726,137	278,317	-0,007	-0,009
-725,123	-200,000	-0,004	-0,064
-724,108	401,296	-0,111	-0,174
-723,094	16,602	-0,107	-0,063
-722,079	-3,255	-0,111	-0,058
-721,064	-158,091	-0,106	-0,005
-720,050	-176,217	-0,046	0,001
-719,035	439,475	-0,077	-0,125
-718,021	138,352	-0,116	0,113
-717,006	-200,000	-0,010	0,098
-715,991	-126,975	-0,062	0,007
-714,977	247,825	0,070	-0,088
-713,962	284,246	-0,102	-0,137
-712,948	16,349	0,045	0,026
-711,933	569,073	0,057	-0,103
-710,918	800,000	-0,043	0,124
-709,904	-43,844	-0,169	-0,063
-708,889	-106,512	-0,089	0,015
-707,875	-200,000	-0,013	-0,111
-706,860	299,080	-0,032	-0,044
-705,845	249,887	0,029	-0,036
-704,831	-73,043	0,140	0,038
-703,816	460,490	0,038	-0,064
-702,802	69,972	0,091	-0,070
-701,787	-12,834	-0,057	-0,028
-700,772	24,844	-0,141	-0,087
-699,758	375,707	-0,027	0,042
-698,743	-29,765	0,046	-0,019
-697,729	189,505	-0,078	0,087
-696,714	-28,196	0,122	-0,052
-695,699	800,000	-0,023	-0,058
-694,685	-200,000	-0,004	-0,199
-693,670	-65,387	0,052	-0,016
-692,656	-200,000	0,031	0,197
-691,641	-105,346	0,035	0,006
-690,627	800,000	0,012	0,033
-689,612	141,723	0,026	-0,025
-688,597	-143,754	-0,123	0,009
-687,583	-96,152	-0,074	0,015
-686,568	221,661	-0,048	-0,057
-685,554	-200,000	0,023	-0,147
-684,539	65,549	0,096	-0,072
-683,524	-200,000	0,002	0,125
-682,510	-28,752	-0,109	-0,046
-681,495	378,571	-0,049	-0,074
-680,481	-93,022	-0,101	0,021
-679,466	289,262	-0,055	-0,074
-678,451	800,000	-0,072	-0,219
-677,437	-200,000	-0,057	-0,212
-676,422	238,226	0,131	0,162
-675,408	-137,323	-0,036	-0,003
-674,393	-200,000	0,024	-0,129
-673,378	-126,279	-0,225	-0,025
-672,364	145,031	-0,050	0,049
-671,349	-46,072	0,085	-0,031
-670,335	131,978	-0,051	0,049
-669,320	-181,309	-0,098	-0,001
-668,305	800,000	-0,032	-0,095
-667,291	-118,946	0,138	0,018
-666,276	-200,000	0,033	-0,127
-665,262	-49,940	-0,213	-0,075
-664,247	-139,729	0,061	-0,005
-663,232	-75,878	-0,051	0,013
-662,218	-200,000	-0,028	0,138
-661,203	-119,354	-0,056	0,007
-660,189	-200,000	0,013	-0,050
-659,174	-86,794	0,067	-0,015
-658,159	-200,000	0,020	0,072
-657,145	140,746	-0,104	-0,102
-656,130	489,639	-0,067	-0,113
-655,116	-146,582	0,166	-0,011
-654,101	91,675	0,101	0,084
-653,086	-200,000	0,019	0,078
-652,072	177,217	-0,066	0,072
-651,057	324,642	-0,073	-0,104
-650,043	39,656	0,037	-0,025
-649,028	-200,000	-0,029	-0,116
-648,014	-31,262	0,105	0,044
-646,999	-200,000	-0,017	0,067
-645,984	6,895	-0,015	0,009
-644,970	108,488	-0,096	-0,085
-643,955	259,474	-0,085	-0,109
-642,941	-122,852	0,032	-0,004
-641,926	425,500	0,066	-0,106
-640,911	599,846	-0,027	-0,049
-639,897	173,722	-0,060	-0,065
-638,882	123,305	-0,106	0,099
-637,868	-12,686	-0,025	0,012
-636,853	-94,503	-0,097	0,020
-635,838	800,000	-0,047	-0,118
-634,824	-200,000	0,018	0,067
-633,809	-74,955	0,173	0,046
-632,795	-93,414	0,058	-0,012
-631,780	-49,188	0,146	0,052
-630,765	-200,000	0,003	0,013
-629,751	466,698	0,067	0,112
-628,736	-26,475	-0,120	-0,052
-627,722	800,000	0,024	-0,062
-626,707	-112,155	0,056	0,008
-625,692	-200,000	-0,008	-0,054
-624,678	123,845	-0,086	-0,080
-623,663	-200,000	-0,007	0,025
-622,649	-3,948	-0,146	0,075
-621,634	-200,000	-0,017	-0,126
-620,619	-200,000	0,015	-0,140
-619,605	800,000	-0,010	0,027
-618,590	450,829	0,070	0,115
-617,576	-146,602	-0,053	0,003
-616,561	572,431	-0,067	-0,122
-615,546	62,907	-0,008	0,006
-614,532	4,986	-0,022	0,012
-613,517	651,384	-0,053	0,101
-612,503	32,529	0,049	0,031
-611,488	800,000	0,035	0,095
-610,474	-200,000	-0,017	0,108
-609,459	27,707	0,063	-0,039
-608,444	229,971	-0,016	-0,020
-607,430	-200,000	-0,025	-0,104
-606,415	-200,000	0,055	-0,181
-605,401	800,000	0,014	-0,029
-604,386	-118,554	-0,127	-0,016
-603,371	-200,000	0,011	0,105
-602,357	-200,000	0,039	0,173
-601,342	-95,661	-0,137	-0,027
-600,328	-104,394	-0,021	-0,004
-599,313	134,760	-0,062	-0,060
-598,298	-13,359	-0,005	0,002
-597,284	-55,002	0,049	0,016
-596,269	-200,000	0,013	0,052
-595,255	-200,000	-0,005	0,021
-594,240	-200,000	0,006	0,045
-593,225	505,476	0,080	-0,137
-592,211	38,441	-0,104	-0,069
-591,196	-30,579	-0,106	0,044
-590,182	351,859	0,044	0,065
-589,167	229,532	-0,055	0,067
-588,152	-200,000	0,018	0,077
-587,138	100,474	-0,076	-0,065
-586,123	800,000	-0,096	-0,264
-585,109	391,613	-0,061	-0,095
-584,094	13,229	-0,142	-0,081
-583,079	456,844	0,033	-0,054
-582,065	34,940	-0,087	0,056
-581,050	-200,000	0,005	-0,115
-580,036	800,000	-0,021	-0,059
-579,021	32,548	0,091	-0,058
-578,006	-200,000	0,008	-0,103
-576,992	98,160	0,095	-0,081
-575,977	-100,084	-0,067	-0,012
-574,963	34,676	0,062	0,040
-573,948	800,000	-0,021	-0,043
-572,934	800,000	0,043	0,090
-571,919	232,494	0,068	-0,083
-570,904	-80,629	-0,096	0,024
-569,890	26,501	0,111	-0,069
-568,875	-187,589	0,102	0,001
-567,861	-200,000	-0,013	0,119
-566,846	800,000	0,040	0,107
-565,831	25,794	-0,024	-0,015
-564,817	695,421	-0,031	0,060
-563,802	104,533	-0,059	0,051
-562,788	800,000	0,061	-0,152
-561,773	97,653	0,023	0,020
-560,758	800,000	0,068	0,162
-559,744	206,064	0,097	0,112
-558,729	800,000	0,021	0,043
-557,715	134,945	-0,056	0,054
-556,700	78,460	0,055	0,044
-555,685	800,000	-0,009	-0,023
-554,671	-114,346	-0,086	-0,012
-553,656	-73,341	0,056	0,015
-552,642	-23,826	0,111	0,049
-551,627	267,330	-0,029	0,038
-550,612	150,613	0,057	0,057
-549,598	625,432	0,024	0,044
-548,583	-86,690	-0,075	-0,017
-547,569	-200,000	0,018	-0,110
-546,554	-62,929	-0,119	0,036
-545,539	800,000	-0,035	0,106
-544,525	21,936	0,160	-0,096
-543,510	42,440	-0,075	0,050
-542,496	-150,490	-0,054	-0,003
-541,481	229,100	-0,092	-0,111
-540,466	611,830	-0,049	-0,091
-539,452	93,648	0,080	-0,067
-538,437	-140,920	-0,160	0,012
-537,423	40,243	-0,022	0,014
-536,408	-200,000	0,006	-0,053
-535,393	264,381	0,031	-0,040
-534,379	441,288	0,049	-0,079
-533,364	283,371	0,109	-0,145
-532,350	-27,439	0,085	0,036
-531,335	800,000	0,017	0,053
-530,321	731,108	-0,098	-0,196
-529,306	-45,699	0,122	0,044
-528,291	-79,979	0,020	0,005
-527,277	-26,274	0,113	0,049
-526,262	171,011	-0,040	-0,043
-525,248	-73,353	0,122	0,033
-524,233	56,151	0,020	0,014
-523,218	184,433	0,057	0,062
-522,204	800,000	-0,044	-0,104
-521,189	800,000	-0,015	0,036
-520,175	236,175	-0,030	0,037
-519,160	800,000	-0,024	0,051
-518,145	-145,287	0,143	0,009
-517,131	-200,000	-0,025	0,136
-516,116	603,484	0,017	0,032
-515,102	-90,352	-0,042	0,009
-514,087	-66,934	-0,079	0,023
-513,072	396,772	-0,018	0,028
-512,058	-135,640	-0,060	0,005
-511,043	435,482	-0,072	0,116
-510,029	611,405	-0,012	-0,023
-509,014	64,931	0,123	-0,092
-507,999	-130,882	-0,113	-0,011
-506,985	393,299	0,041	-0,063
-505,970	166,047	0,030	-0,032
-504,956	488,438	-0,037	-0,063
-503,941	800,000	0,023	0,073
-502,926	-200,000	0,002	0,010
-501,912	97,066	0,085	0,072
-500,897	-200,000	-0,003	0,027
-499,883	-175,079	0,021	-0,000
-498,868	355,123	-0,088	0,130
-497,853	3,573	-0,049	-0,026
-496,839	-182,613	0,106	-0,001
-495,824	-200,000	-0,002	0,013
-494,810	-48,834	-0,065	0,023
-493,795	-39,007	0,093	0,036
-492,781	-200,000	0,005	-0,032
-491,766	264,893	0,056	-0,073
-490,751	-153,579	0,034	-0,002
-489,737	800,000	-0,042	-0,133
-488,722	-200,000	-0,014	-0,101
-487,708	146,983	0,062	0,062
-486,693	257,370	0,015	-0,019
-485,678	-137,923	-0,065	0,005
-484,664	342,295	0,043	0,063
-483,649	45,988	0,127	-0,087
-482,635	800,000	0,076	-0,179
-481,620	45,709	-0,044	0,030
-480,605	312,555	0,055	0,076
-479,591	50,914	-0,035	0,024
-478,576	-200,000	0,009	-0,097
-477,562	-200,000	0,012	-0,150
-476,547	800,000	0,029	-0,069
-475,532	275,958	0,012	-0,016
-474,518	366,938	-0,029	0,044
-473,503	-79,784	0,059	0,014
-472,489	-200,000	-0,025	0,160
-471,474	-24,119	-0,091	-0,040
-470,459	-164,281	0,094	-0,003
-469,445	357,197	-0,046	0,067
-468,430	800,000	-0,017	-0,040
-467,416	-189,263	-0,051	-0,000
-466,401	800,000	0,046	0,126
-465,386	11,419	0,167	0,094
-464,372	-200,000	0,033	0,137
-463,357	24,988	0,076	-0,046
-462,343	3,233	0,105	0,056
-461,328	-21,341	0,061	-0,027
-460,313	463,327	0,070	-0,116
-459,299	-49,196	-0,054	0,019
-458,284	90,405	0,118	0,097
-457,270	-200,000	0,015	-0,050
-456,255	-200,000	-0,002	-0,008
-455,241	92,039	-0,062	0,051
-454,226	115,712	-0,096	-0,086
-453,211	-112,175	-0,024	-0,003
-452,197	-29,221	0,143	0,060
-451,182	324,216	-0,058	0,081
-450,168	800,000	-0,020	0,054
-449,153	-200,000	0,012	-0,048
-448,138	-48,652	0,017	-0,006
-447,124	800,000	0,040	-0,104
-446,109	-200,000	0,012	0,074
-445,095	-155,012	-0,093	-0,004
-444,080	90,594	0,065	-0,054
-443,065	524,294	-0,045	0,078
-442,051	800,000	0,018	-0,048
-441,036	1,622	-0,061	0,032
-440,022	402,472	0,069	0,108
-439,007	769,499	-0,065	0,132
-437,992	-54,734	0,121	0,040
-436,978	295,843	-0,060	-0,081
-435,963	140,716	0,092	-0,089
-434,949	-183,526	-0,105	0,001
-433,934	800,000	-0,048	-0,150
-432,919	286,287	-0,050	0,067
-431,905	800,000	-0,009	0,026
-430,890	146,373	-0,106	0,105
-429,876	320,543	0,066	0,092
-428,861	6,556	0,046	-0,025
-427,846	273,104	-0,036	-0,047
-426,832	-200,000	-0,007	0,046
-425,817	231,802	0,130	-0,158
-424,803	-102,634	0,079	0,014
-423,788	-200,000	-0,007	0,069
-422,773	-135,610	-0,135	0,012
-421,759	-14,039	-0,071	-0,034
-420,744	158,704	0,075	0,077
-419,730	-200,000	0,019	-0,165
-418,715	-200,000	-0,030	-0,216
-417,701	303,124	-0,051	0,070
-416,686	-143,524	-0,072	-0,005
-415,671	-5,360	0,081	0,041
-414,657	100,730	0,102	0,087
-413,642	800,000	0,042	0,091
-412,628	-16,992	-0,130	0,060
-411,613	379,635	0,023	-0,034
-410,598	-112,821	-0,165	0,024
-409,584	-182,269	0,146	0,002
-408,569	428,789	0,054	-0,086
-407,555	800,000	0,044	-0,094
-406,540	-29,425	0,054	0,023
-405,525	739,230	-0,047	-0,093
-404,511	-200,000	-0,027	-0,141
-403,496	-100,418	-0,041	-0,007
-402,482	-86,567	-0,071	-0,016
-401,467	-200,000	-0,005	-0,077
-400,452	-200,000	0,002	0,061
-399,438	-200,000	-0,030	0,142
-398,423	-200,000	0,025	-0,106
-397,409	250,461	-0,079	0,099
-396,394	-200,000	-0,007	0,080
-395,379	800,000	0,024	-0,073
-394,365	-184,562	0,093	-0,001
-393,350	-200,000	0,014	0,081
-392,336	-200,000	0,008	0,092
-391,321	-200,000	-0,064	-0,223
-390,306	159,091	-0,110	-0,113
-389,292	-108,287	-0,139	-0,022
-388,277	134,505	0,082	-0,078
-387,263	800,000	-0,039	-0,099
-386,248	-200,000	0,001	-0,106
-385,233	-200,000	-0,028	-0,101
-384,219	-156,816	0,080	-0,004
-383,204	73,457	0,042	0,032
-382,190	-200,000	-0,008	-0,061
-381,175	53,346	-0,031	-0,022
-380,160	395,256	-0,037	-0,057
-379,146	-34,443	-0,034	0,014
-378,131	60,573	0,107	0,078
-377,117	-131,769	-0,042	0,004
-376,102	-133,789	-0,088	-0,008
-375,088	-174,459	0,032	0,001
-374,073	-200,000	-0,016	-0,131
-373,058	800,000	0,071	-0,149
-372,044	543,346	0,032	0,056
-371,029	-200,000	0,006	0,202
-370,015	-200,000	-0,010	0,094
-369,000	-62,595	0,081	0,025
-367,985	436,879	-0,089	-0,143
-366,971	-200,000	-0,007	-0,068
-365,956	364,969	-0,059	-0,088
-364,942	-200,000	0,027	0,117
-363,927	-200,000	-0,005	0,063
-362,912	-42,782	0,035	-0,013
-361,898	-46,696	0,039	0,014
-360,883	-200,000	-0,001	-0,188
-359,869	-200,000	-0,012	-0,060
-358,854	493,042	-0,013	0,023
-357,839	-200,000	-0,015	0,157
-356,825	-117,871	0,247	0,032
-355,810	743,385	-0,031	0,062
-354,796	-89,280	-0,093	0,020
-353,781	335,526	-0,046	-0,065
-352,766	36,281	-0,096	-0,062
-351,752	-200,000	-0,001	-0,013
-350,737	-94,487	0,189	-0,037
-349,723	-99,420	0,104	0,019
-348,708	46,980	0,039	-0,027
-347,693	800,000	-0,030	-0,083
-346,679	-28,063	-0,078	-0,033
-345,664	-91,315	0,058	-0,012
-344,650	-200,000	0,029	0,107
-343,635	-200,000	0,033	0,124
-342,620	800,000	-0,054	0,138
-341,606	-200,000	-0,032	0,159
-340,591	-200,000	-0,009	0,078
-339,577	114,640	-0,059	-0,052
-338,562	67,965	-0,096	-0,072
-337,548	226,505	0,037	0,044
-336,533	76,034	-0,063	-0,049
-335,518	-68,257	0,143	-0,040
-334,504	103,594	0,027	0,024
-333,489	374,657	0,032	-0,048
-332,475	-16,070	-0,052	-0,024
-331,460	231,060	-0,076	-0,091
-330,445	148,611	-0,039	-0,038
-329,431	800,000	-0,027	-0,069
-328,416	578,527	0,080	-0,144
-327,402	9,404	0,047	0,026
-326,387	262,667	0,007	0,008
-325,372	800,000	0,031	-0,072
-324,358	-111,713	-0,106	-0,016
-323,343	-200,000	0,003	-0,065
-322,329	-200,000	0,013	-0,056
-321,314	732,014	0,043	-0,085
-320,299	-200,000	0,002	0,180
-319,285	4,713	0,082	-0,044
-318,270	-55,368	0,130	0,042
-317,256	-137,015	-0,123	0,010
-316,241	-116,439	-0,073	0,010
-315,226	-200,000	0,012	0,062
-314,212	-132,144	0,157	-0,015
-313,197	-69,235	0,046	0,013
-312,183	800,000	0,022	0,063
-311,168	-65,552	0,116	0,034
-310,153	211,337	-0,078	-0,090
-309,139	81,186	-0,126	-0,100
-308,124	-200,000	0,009	0,059
-307,110	800,000	0,043	0,106
-306,095	-79,724	0,046	-0,011
-305,080	632,135	0,019	0,035
-304,066	114,482	-0,089	0,080
-303,051	-2,846	-0,179	0,091
-302,037	409,676	-0,066	-0,102
-301,022	106,764	0,060	-0,052
-300,008	-200,000	-0,012	0,083
-298,993	800,000	0,037	0,082
-297,978	-200,000	-0,014	0,090
-296,964	800,000	-0,037	0,088
-295,949	-70,146	-0,044	-0,012
-294,935	210,840	0,118	0,137
-293,920	-47,620	0,150	0,053
-292,905	800,000	0,039	-0,086
-291,891	-200,000	-0,000	0,086
-290,876	149,761	0,046	0,046
-289,862	-200,000	0,038	0,000
-288,847	-64,531	0,021	-0,006
-287,832	-75,806	-0,215	-0,055
-286,818	83,397	0,025	0,020
-285,803	15,367	0,048	0,027
-284,789	258,882	0,044	0,056
-283,774	370,019	0,061	0,091
-282,759	-200,000	0,015	-0,134
-281,745	55,705	-0,125	-0,089
-280,730	-89,469	0,077	0,017
-279,716	132,155	0,065	-0,062
-278,701	-19,538	0,028	-0,013
-277,686	-200,000	0,022	-0,086
-276,672	42,679	0,052	-0,035
-275,657	-200,000	-0,017	0,084
-274,643	-79,365	-0,101	0,025
-273,628	118,328	-0,051	0,046
-272,613	-151,414	0,054	-0,003
-271,599	130,847	-0,080	-0,075
-270,584	489,883	0,038	0,063
-269,570	498,669	0,105	0,178
-268,555	-124,176	0,181	-0,021
-267,540	331,681	-0,052	-0,073
-266,526	-200,000	0,016	-0,055
-265,511	-57,841	-0,038	-0,012
-264,497	-200,000	0,016	-0,059
-263,482	84,930	0,097	-0,078
-262,467	-93,936	-0,106	0,021
-261,453	-200,000	-0,000	-0,028
-260,438	650,523	0,020	-0,037
-259,424	-102,589	-0,210	-0,036
-258,409	288,812	-0,040	0,053
-257,395	-200,000	0,004	0,217
-256,380	-200,000	-0,003	0,078
-255,365	5,902	0,003	0,001
-254,351	-200,000	-0,011	0,051
-253,336	47,982	0,024	-0,016
-252,322	10,633	-0,074	0,041
-251,307	-200,000	-0,030	-0,102
-250,292	600,240	0,041	0,075
-249,278	128,781	-0,077	-0,072
-248,263	-200,000	-0,032	0,105
-247,249	800,000	-0,024	0,069
-246,234	-78,212	-0,065	-0,016
-245,219	-58,950	-0,138	-0,043
-244,205	800,000	-0,032	0,066
-243,190	170,547	0,107	0,113
-242,176	-57,982	-0,110	0,035
-241,161	266,752	0,087	0,112
-240,146	507,423	-0,056	0,096
-239,132	-89,211	-0,052	-0,011
-238,117	800,000	-0,045	0,136
-237,103	6,686	0,060	0,033
-236,088	-119,613	-0,086	0,011
-235,073	616,058	0,042	0,078
-234,059	-200,000	0,035	0,200
-233,044	-200,000	0,001	0,085
-232,030	-64,932	0,101	-0,030
-231,015	14,511	0,053	-0,030
-230,000	-45,814	0,091	-0,033
-228,986	-200,000	0,014	-0,158
-227,971	800,000	0,009	0,027
-226,957	800,000	0,038	0,082
-225,942	246,641	0,098	0,122
-224,927	-154,565	0,065	0,003
-223,913	-200,000	-0,039	-0,140
-222,898	393,226	-0,035	0,054
-221,884	800,000	-0,027	-0,079
-220,869	493,891	0,025	-0,041
-219,855	677,623	-0,039	0,075
-218,840	800,000	-0,030	0,072
-217,825	800,000	-0,018	-0,052
-216,811	-81,287	-0,098	0,024
-215,796	800,000	0,057	-0,123
-214,782	-200,000	-0,008	-0,180
-213,767	501,156	-0,036	0,061
-212,752	246,901	-0,030	0,038
-211,738	-200,000	-0,018	-0,133
-210,723	800,000	0,034	-0,070
-209,709	-200,000	-0,012	0,081
-208,694	-200,000	-0,038	-0,144
-207,679	127,212	-0,080	-0,074
-206,665	568,078	-0,047	-0,083
-205,650	-64,179	0,041	0,012
-204,636	757,057	0,049	-0,097
-203,621	-33,685	-0,137	0,055
-202,606	-8,396	-0,170	-0,083
-201,592	-200,000	-0,012	-0,053
-200,577	-109,437	-0,110	0,017
-199,563	-2,309	0,022	0,011
-198,548	800,000	0,036	0,080
-197,533	-200,000	0,005	0,048
-196,519	93,258	0,131	-0,108
-195,504	13,792	0,035	0,020
-194,490	67,734	-0,129	0,096
-193,475	-200,000	-0,014	-0,108
-192,460	800,000	-0,030	0,064
-191,446	-200,000	0,027	0,123
-190,431	-20,378	0,052	-0,023
-189,417	36,445	0,139	0,089
-188,402	-15,160	-0,121	0,056
-187,387	1,543	-0,071	-0,037
-186,373	99,158	-0,063	-0,053
-185,358	-136,055	-0,056	0,005
-184,344	-47,744	0,037	-0,013
-183,329	-200,000	0,048	-0,186
-182,315	-126,769	0,048	0,005
-181,300	800,000	0,030	-0,073
-180,285	-200,000	-0,007	-0,032
-179,271	82,525	0,086	-0,068
-178,256	-200,000	0,010	-0,051
-177,242	800,000	-0,055	0,117
-176,227	-200,000	0,009	-0,119
-175,212	-200,000	0,011	0,086
-174,198	800,000	-0,008	0,021
-173,183	137,647	-0,034	0,033
-172,169	174,142	0,075	-0,079
-171,154	118,509	0,048	0,044
-170,139	-95,300	0,021	-0,004
-169,125	203,962	-0,070	0,079
-168,110	-200,000	0,031	0,161
-167,096	800,000	0,058	-0,139
-166,081	355,867	-0,036	0,052
-165,066	608,097	0,040	0,072
-164,052	800,000	0,049	0,107
-163,037	-13,441	0,029	0,014
-162,023	-200,000	-0,013	0,056
-161,008	-86,492	0,050	0,011
-159,993	-200,000	0,029	0,109
-158,979	27,419	-0,103	0,063
-157,964	120,133	-0,037	-0,034
-156,950	-80,235	-0,118	0,029
-155,935	157,529	-0,103	0,104
-154,920	-200,000	-0,009	0,077
-153,906	438,964	-0,022	-0,035
-152,891	-200,000	-0,002	0,028
-151,877	-200,000	0,005	-0,044
-150,862	275,689	0,020	-0,026
-149,847	-200,000	0,010	0,083
-148,833	128,991	0,142	0,132
-147,818	-103,645	-0,081	0,014
-146,804	800,000	-0,079	0,212
-145,789	-73,578	0,077	0,020
-144,775	-200,000	0,018	0,086
-143,760	-61,429	-0,176	0,054
-142,745	63,675	-0,085	-0,062
-141,731	554,459	0,058	0,101
-140,716	-200,000	0,001	0,031
-139,702	-164,303	-0,092	0,003
-138,687	800,000	-0,010	0,027
-137,672	-200,000	0,003	0,091
-136,658	60,332	-0,076	-0,055
-135,643	-113,096	-0,096	0,014
-134,629	40,090	0,055	-0,036
-133,614	-72,582	-0,075	-0,020
-132,599	529,294	-0,094	0,163
-131,585	139,673	0,075	0,072
-130,570	-23,500	-0,093	-0,040
-129,556	-200,000	0,026	-0,138
-128,541	357,920	0,067	0,098
-127,526	234,841	-0,103	-0,124
-126,512	383,919	0,056	-0,084
-125,497	25,573	0,142	0,086
-124,483	-17,451	0,097	0,044
-123,468	163,195	-0,069	0,071
-122,453	-106,666	-0,191	0,031
-121,439	523,347	0,031	-0,054
-120,424	208,823	-0,070	-0,079
-119,410	-200,000	-0,013	-0,041
-118,395	-30,687	-0,094	-0,038
-117,380	-138,481	0,190	-0,015
-116,366	215,764	-0,048	-0,055
-115,351	-123,931	-0,105	0,012
-114,337	653,704	0,072	0,135
-113,322	127,724	-0,117	0,109
-112,307	227,661	-0,024	0,029
-111,293	-200,000	-0,018	-0,071
-110,278	403,776	0,065	-0,099
-109,264	-118,091	-0,078	-0,010
-108,249	-200,000	0,016	-0,154
-107,234	-200,000	-0,018	-0,070
-106,220	649,647	-0,075	0,140
-105,205	184,096	-0,160	0,172
-104,191	2,619	0,079	0,042
-103,176	338,462	0,094	0,134
-102,162	169,098	-0,064	0,066
-101,147	192,495	0,053	0,059
-100,132	259,093	0,008	-0,010
-99,118	-200,000	-0,013	-0,044
-98,103	-103,375	0,020	0,003
-97,089	-87,494	0,100	-0,022
-96,074	47,282	-0,068	0,046
-95,059	-98,494	-0,070	-0,013
-94,045	465,261	-0,042	-0,068
-93,030	54,755	0,038	-0,027
-92,016	-200,000	0,040	0,283
-91,001	-200,000	-0,018	-0,082
-89,986	800,000	0,023	-0,058
-88,972	-200,000	-0,017	0,079
-87,957	-200,000	-0,009	-0,043
-86,943	266,739	0,079	0,101
-85,928	79,169	-0,043	-0,034
-84,913	-200,000	-0,060	-0,192
-83,899	564,867	-0,040	0,071
-82,884	81,985	0,071	0,056
-81,870	509,268	0,025	-0,043
-80,855	102,546	0,100	0,085
-79,840	-9,476	-0,103	-0,050
-78,826	-77,760	-0,099	0,025
-77,811	-6,549	0,030	0,015
-76,797	800,000	0,043	-0,109
-75,782	85,622	-0,048	0,038
-74,767	-3,764	-0,044	0,022
-73,753	-17,499	-0,052	0,024
-72,738	800,000	-0,035	-0,085
-71,724	800,000	0,016	-0,033
-70,709	347,503	0,043	0,062
-69,694	-200,000	0,010	-0,087
-68,680	800,000	0,044	0,097
-67,665	-144,093	-0,169	-0,011
-66,651	-200,000	-0,043	0,188
-65,636	-54,442	-0,014	-0,004
-64,622	-200,000	-0,003	-0,038
-63,607	127,994	0,031	-0,029
-62,592	559,523	-0,067	-0,119
-61,578	-59,129	0,118	0,037
-60,563	32,780	0,070	0,044
-59,549	141,949	-0,091	0,088
-58,534	-139,397	-1,348	-0,103
-57,519	706,112	-0,781	-1,504
-56,505	-200,000	-0,884	-4,397
-55,490	10,610	0,697	-0,385
-54,476	800,000	5,065	11,854
-53,461	-200,000	13,278	252,678
-52,446	-200,000	688,409	2274,009
-51,432	599,204	1623,170	2935,127
-50,417	121,205	1637,003	1479,331
-49,403	73,420	1291,286	979,988
-48,388	38,511	1025,788	662,481
-47,373	24,717	983,013	589,446
-46,359	23,899	973,194	580,849
-45,344	22,978	968,842	575,212
-44,330	22,967	967,241	574,204
-43,315	22,835	965,864	572,931
-42,300	22,862	964,841	572,390
-41,286	22,811	963,826	571,598
-40,271	22,769	963,220	571,080
-39,257	22,748	962,252	570,416
-38,242	22,731	961,113	569,662
-37,227	22,735	960,431	569,251
-36,213	22,857	959,187	568,886
-35,198	22,785	958,449	568,191
-34,184	22,837	957,828	567,969
-33,169	22,766	956,966	567,207
-32,154	22,799	956,153	566,808
-31,140	22,800	955,248	566,253
-30,125	22,835	954,295	565,776
-29,111	22,834	953,573	565,324
-28,096	22,733	953,173	564,739
-27,082	22,788	952,379	564,422
-26,067	22,806	951,371	563,860
-25,052	22,789	950,646	563,355
-24,038	22,785	950,217	563,064
-23,023	22,824	949,568	562,783
-22,009	22,851	948,762	562,369
-20,994	22,872	948,183	562,073
-19,979	22,917	947,464	561,767
-18,965	22,767	947,126	561,065
-17,950	22,808	946,239	560,646
-16,936	22,848	945,398	560,256
-15,921	22,701	944,938	559,491
-14,906	22,623	944,368	558,881
-13,892	22,694	943,604	558,633
-12,877	22,677	943,060	558,236
-11,863	22,711	942,171	557,795
-10,848	22,681	941,930	557,536
-9,833	22,827	941,298	557,602
-8,819	22,771	940,765	557,086
-7,804	22,770	940,010	556,616
-6,790	22,675	939,475	555,975
-5,775	22,659	938,935	555,581
-4,760	22,733	938,141	555,325
-3,746	22,669	937,727	554,856
-2,731	22,528	937,040	553,982
-1,717	22,504	936,209	553,391
-0,702	22,509	935,602	553,028
0,313	22,304	934,903	552,802
1,327	25,525	932,676	561,576
2,342	35,395	797,384	506,435
3,356	33,519	451,816	284,107
4,371	2,061	293,122	153,012
5,386	-2,465	274,140	138,815
6,400	-4,110	268,077	134,212
7,415	-4,626	265,640	132,506
8,429	-4,136	264,528	132,387
9,444	-4,261	263,679	131,837
10,459	-4,254	263,039	131,511
11,473	-4,243	262,376	131,179
12,488	-4,263	261,815	130,868
13,502	-4,518	261,395	130,416
14,517	-4,314	260,789	130,286
15,531	-4,296	260,667	130,230
16,546	-4,236	260,218	130,047
17,561	-4,274	259,931	129,858
18,575	-4,146	259,587	129,789
19,590	-4,193	259,161	129,523
20,604	-4,141	258,924	129,439
21,619	-4,434	258,727	129,068
22,634	-4,265	258,267	128,977
23,648	-4,242	257,864	128,785
24,663	-4,115	257,729	128,819
25,677	-4,407	257,613	128,490
26,692	-4,399	257,322	128,340
27,707	-4,259	257,063	128,324
28,721	-4,214	256,714	128,178
29,736	-4,254	256,415	127,983
30,750	-4,253	256,237	127,883
31,765	-4,411	256,118	127,673
32,780	-4,495	255,828	127,443
33,794	-4,314	255,565	127,460
34,809	-4,269	255,301	127,356
35,823	-4,249	254,896	127,161
36,838	-4,408	254,870	126,996
37,853	-4,380	254,640	126,895
38,867	-4,446	254,451	126,731
39,882	-4,403	254,153	126,610
40,896	-4,415	253,870	126,447
41,911	-4,350	253,661	126,389
42,926	-4,477	253,566	126,219
43,940	-4,372	253,180	126,106
44,955	-4,523	253,005	125,877
45,969	-4,581	252,770	125,699
46,984	-4,805	252,545	125,380
47,999	-4,798	252,157	125,183
49,013	-4,982	252,049	124,958
50,028	-5,087	251,819	124,743
51,042	-5,270	251,439	124,385
52,057	-5,256	251,292	124,313
53,071	-5,406	251,132	124,093
54,086	-5,175	251,073	124,253
55,101	-4,924	250,865	124,355
56,115	-4,845	250,780	124,370
57,130	-4,309	250,469	124,667
58,144	-4,240	250,544	124,752
59,159	-4,195	250,176	124,596
60,174	-4,043	249,840	124,548
61,188	-4,138	249,798	124,434
62,203	-4,312	249,602	124,176
63,217	-4,017	249,271	124,253
64,232	-4,212	249,110	123,995
65,247	-4,198	248,928	123,906
66,261	-4,234	248,756	123,778
67,276	-4,284	248,389	123,542
68,290	-4,529	248,267	123,261
69,305	-4,804	248,000	122,883
70,320	-4,826	247,897	122,803
71,334	-4,220	247,701	123,210
72,349	-4,116	247,481	123,178
73,363	-3,936	247,231	123,195
74,378	-4,160	247,149	122,954
75,393	-4,232	246,851	122,733
76,407	-4,418	246,910	122,594
77,422	-4,396	246,618	122,457
78,436	-4,223	246,422	122,495
79,451	-4,262	246,209	122,345
80,466	-4,457	245,852	121,992
81,480	-4,535	245,572	121,777
82,495	-4,545	245,540	121,742
83,509	-4,542	245,273	121,601
84,524	-4,506	245,152	121,560
85,539	-4,505	244,825	121,389
86,553	-4,796	244,728	121,085
87,568	-4,563	244,624	121,219
88,582	-4,476	244,357	121,149
89,597	-4,493	244,131	121,011
90,611	-4,347	244,002	121,059
91,626	-4,432	243,900	120,925
92,641	-4,225	243,773	121,025
93,655	-4,386	243,529	120,758
94,670	-4,348	243,225	120,629
95,684	-4,424	243,119	120,502
96,699	-4,344	242,878	120,439
97,714	-4,530	242,676	120,173
98,728	-4,559	242,654	120,127
99,743	-4,544	242,284	119,946
100,757	-4,604	242,154	119,821
101,772	-4,758	241,928	119,571
102,787	-4,675	241,889	119,610
103,801	-4,500	241,668	119,635
104,816	-4,332	241,553	119,706
105,830	-4,398	241,507	119,618
106,845	-4,277	241,200	119,555
107,860	-4,400	240,888	119,289
108,874	-4,551	240,955	119,186
109,889	-4,473	240,606	119,068
110,903	-4,610	240,286	118,786
111,918	-4,574	240,213	118,769
112,933	-4,373	239,962	118,799
113,947	-4,446	239,834	118,665
114,962	-4,239	239,750	118,783
115,976	-4,382	239,564	118,563
116,991	-4,228	239,334	118,565
118,006	-4,375	239,318	118,426
119,020	-4,437	239,121	118,267
120,035	-4,404	239,008	118,228
121,049	-4,208	238,749	118,249
122,064	-4,518	238,758	117,989
123,079	-4,213	238,306	118,004
124,093	-4,660	238,239	117,596
125,108	-4,669	238,034	117,478
126,122	-4,891	237,831	117,186
127,137	-4,694	237,615	117,229
128,151	-4,792	237,441	117,054
129,166	-4,722	237,399	117,080
130,181	-4,765	237,059	116,867
131,195	-4,764	236,915	116,785
132,210	-4,564	236,777	116,870
133,224	-4,478	236,695	116,888
134,239	-4,582	236,622	116,758
135,254	-4,165	236,241	116,895
136,268	-4,684	236,054	116,374
137,283	-4,689	235,849	116,259
138,297	-4,917	235,700	115,991
139,312	-4,920	235,372	115,817
140,327	-4,468	235,269	116,119
141,341	-4,008	235,379	116,533
142,356	-4,193	235,376	116,372
143,370	-4,131	235,107	116,279
144,385	-3,940	234,967	116,352
145,400	-4,020	234,857	116,223
146,414	-3,978	234,413	116,027
147,429	-4,047	234,463	115,986
148,443	-4,238	234,280	115,733
149,458	-4,101	234,057	115,721
150,473	-4,187	233,957	115,592
151,487	-3,999	233,609	115,560
152,502	-4,106	233,619	115,470
153,516	-4,092	233,482	115,403
154,531	-4,006	233,170	115,306
155,546	-4,172	233,008	115,085
156,560	-4,360	232,910	114,877
157,575	-4,219	232,537	114,794
158,589	-4,396	232,388	114,570
159,604	-4,121	232,350	114,759
160,619	-4,136	232,219	114,672
161,633	-4,035	232,115	114,691
162,648	-4,204	232,006	114,492
163,662	-4,111	231,810	114,459
164,677	-4,268	231,603	114,223
165,692	-3,950	231,502	114,413
166,706	-3,975	231,322	114,295
167,721	-3,768	231,260	114,417
168,735	-3,823	230,854	114,163
169,750	-3,717	230,769	114,193
170,764	-3,922	230,582	113,931
171,779	-3,948	230,618	113,917
172,794	-3,717	230,446	114,003
173,808	-4,045	230,136	113,583
174,823	-4,798	230,017	112,925
175,837	-4,835	229,741	112,750
176,852	-4,581	229,790	112,963
177,867	-4,056	229,660	113,299
178,881	-4,062	229,502	113,206
179,896	-4,170	229,402	113,063
180,910	-4,306	229,289	112,891
181,925	-3,926	229,021	113,045
182,940	-3,959	228,851	112,926
183,954	-3,971	228,729	112,845
184,969	-4,042	228,680	112,756
185,983	-3,960	228,426	112,684
186,998	-3,907	228,297	112,652
188,013	-3,855	228,078	112,574
189,027	-4,083	228,093	112,395
190,042	-3,787	227,700	112,420
191,056	-3,876	227,666	112,325
192,071	-4,003	227,548	112,158
193,086	-4,082	227,392	112,010
194,100	-3,907	227,148	112,014
195,115	-4,353	226,718	111,449
196,129	-5,085	226,525	110,781
197,144	-2,220	227,536	113,478
198,159	2,037	228,658	117,325
199,173	4,079	229,075	119,110
200,188	4,063	229,083	119,091
201,202	4,078	228,903	118,998
202,217	4,407	228,835	119,206
203,232	4,671	228,644	119,299
204,246	4,965	228,373	119,375
205,261	4,949	228,355	119,341
206,275	4,932	228,281	119,279
207,290	4,999	228,066	119,208
208,304	5,052	227,994	119,200
209,319	4,927	227,865	119,026
210,334	4,709	227,549	118,684
211,348	4,515	227,327	118,408
212,363	3,983	227,193	117,921
213,377	4,122	226,830	117,828
214,392	4,096	226,869	117,818
215,407	4,046	226,683	117,672
216,421	3,960	226,581	117,543
217,436	4,101	226,278	117,483
218,450	4,078	226,028	117,325
219,465	3,878	225,936	117,115
220,480	3,952	225,824	117,102
221,494	4,006	225,712	117,075
222,509	4,009	225,429	116,920
223,523	4,027	225,446	116,932
224,538	3,683	225,281	116,575
225,553	4,034	225,156	116,766
226,567	4,347	224,964	116,893
227,582	4,415	224,919	116,911
228,596	4,538	224,886	116,976
229,611	3,969	224,698	116,438
230,626	3,994	224,289	116,235
231,640	3,906	224,182	116,102
232,655	4,450	224,006	116,411
233,669	4,671	223,972	116,549
234,684	4,633	224,193	116,625
235,699	4,331	223,876	116,222
236,713	4,294	223,650	116,067
237,728	4,035	223,383	115,724
238,742	3,964	223,123	115,525
239,757	4,041	223,051	115,535
240,772	3,956	222,899	115,382
241,786	4,026	222,736	115,341
242,801	4,002	222,827	115,359
243,815	4,226	222,674	115,438
244,830	4,477	222,528	115,539
245,844	4,027	222,263	115,055
246,859	3,930	222,200	114,940
247,874	4,127	222,211	115,083
248,888	4,444	221,885	115,140
249,903	4,278	221,577	114,846
250,917	4,152	221,545	114,725
251,932	4,016	221,463	114,571
252,947	3,921	221,174	114,341
253,961	3,918	220,985	114,231
254,976	4,104	220,755	114,240
255,990	4,291	220,828	114,406
257,005	4,148	220,841	114,297
258,020	4,266	220,620	114,259
259,034	4,324	220,579	114,271
260,049	4,176	220,420	114,069
261,063	4,410	220,137	114,085
262,078	4,343	219,945	113,927
263,093	4,466	220,006	114,038
264,107	4,349	219,662	113,763
265,122	4,457	219,573	113,786
266,136	4,630	219,587	113,912
267,151	4,602	219,406	113,786
268,166	4,246	218,954	113,280
269,180	3,911	218,887	112,990
270,195	3,870	218,720	112,863
271,209	3,995	218,574	112,870
272,224	3,950	218,513	112,795
273,239	4,271	218,358	112,940
274,253	4,055	218,165	112,673
275,268	3,827	218,033	112,427
276,282	3,732	217,780	112,218
277,297	3,899	217,629	112,252
278,312	3,872	217,618	112,216
279,326	4,242	217,493	112,412
280,341	4,075	217,347	112,204
281,355	4,108	217,071	112,076
282,370	3,995	217,103	112,000
283,384	3,880	217,045	111,876
284,399	3,766	216,729	111,621
285,414	3,864	216,647	111,640
286,428	3,750	216,689	111,569
287,443	4,305	216,444	111,835
288,457	4,249	216,328	111,725
289,472	3,887	216,161	111,366
290,487	3,563	215,846	110,960
291,501	3,620	215,821	110,978
292,516	3,793	215,635	110,998
293,530	4,016	215,454	111,055
294,545	3,855	215,211	110,804
295,560	3,609	215,352	110,690
296,574	3,964	215,253	110,885
297,589	4,048	214,929	110,769
298,603	3,921	215,037	110,722
299,618	4,228	214,808	110,816
300,633	3,852	214,734	110,497
301,647	4,482	214,584	110,863
302,662	4,418	214,356	110,689
303,676	4,157	214,412	110,521
304,691	4,267	214,195	110,478
305,706	4,267	213,973	110,354
306,720	4,349	213,893	110,361
307,735	4,037	213,567	109,960
308,749	3,838	213,546	109,798
309,764	4,055	213,417	109,876
310,779	4,190	213,397	109,953
311,793	4,293	213,082	109,854
312,808	4,365	212,938	109,822
313,822	4,442	212,818	109,804
314,837	4,146	212,752	109,550
315,852	3,784	212,589	109,199
316,866	4,112	212,371	109,310
317,881	4,281	212,414	109,442
318,895	4,223	212,187	109,274
319,910	4,011	212,058	109,048
320,925	3,856	211,636	108,712
321,939	3,439	211,657	108,418
322,954	3,833	211,508	108,611
323,968	4,105	211,546	108,812
324,983	3,998	211,594	108,752
325,997	4,443	211,253	108,881
327,012	4,089	211,217	108,603
328,027	4,104	211,022	108,503
329,041	4,201	210,948	108,524
330,056	4,401	210,826	108,592
331,070	4,052	210,560	108,200
332,085	4,125	210,273	108,095
333,100	3,958	210,163	107,911
334,114	3,900	210,138	107,848
335,129	4,059	209,921	107,838
336,143	3,945	209,762	107,667
337,158	3,746	209,821	107,549
338,173	4,101	209,592	107,670
339,187	3,746	209,429	107,329
340,202	3,890	209,322	107,365
341,216	3,621	209,054	107,030
342,231	3,716	209,062	107,091
343,246	3,796	208,712	106,958
344,260	3,920	208,808	107,084
345,275	4,054	208,719	107,122
346,289	4,078	208,558	107,046
347,304	4,125	208,425	107,001
348,319	4,162	208,238	106,921
349,333	4,321	208,074	106,938
350,348	4,314	207,934	106,851
351,362	4,306	207,970	106,855
352,377	4,376	207,845	106,829
353,392	4,052	207,617	106,479
354,406	4,070	207,434	106,388
355,421	193,780	1345,751	1434,411
356,435	154,581	1484,549	1434,546
