DTS Sentinel unit serial number:	SN410029Multiplexer serial number:	ORYXHardware model number:	OX2-SRSoftware version number:	ORYX F/W v4,00 Oryx Data Collector v3.7.2.0data status	okinstallation	B6 Nyhavnadifferential loss correction	single-endedforward channel	channel 2reverse channel	N/Adate	2023/12/09time	02:35:08forward acquisition time	300,00reverse acquisition time	0,00gamma	499,1914k internal	0,3155k external	0,3155temperature offset calibration	1,0000default loss term (dB/km)	0,3820temperature slope calibration	1,0000multiplexer offset coefficient	1,0000multiplexer slope coefficient	1,0000fibre end	0,00T internal ref (°C)	16,03T ext. ref 1 (°C)	-0,19T ext. ref 2 (°C)	-0,20length (m)	temperature (°C)	Stokes	anti-Stokes-744,400	16,186	-0,065	0,038
-743,385	-104,221	-0,328	0,056
-742,371	-200,000	-0,013	0,045
-741,356	35,186	-0,234	0,151
-740,342	-75,425	0,090	0,023
-739,327	-152,530	-0,224	-0,012
-738,312	757,129	0,030	-0,060
-737,298	-113,429	-0,395	0,057
-736,283	-114,774	0,165	-0,023
-735,269	-104,163	-0,281	0,048
-734,254	-8,714	0,146	-0,072
-733,239	-60,165	-0,501	-0,157
-732,225	-156,203	0,198	-0,009
-731,210	-112,334	0,036	-0,005
-730,196	-99,697	-0,028	0,005
-729,181	323,009	-0,129	0,182
-728,167	-97,900	0,068	0,013
-727,152	-167,832	0,070	0,002
-726,137	541,248	-0,059	-0,104
-725,123	520,614	0,077	-0,133
-724,108	-85,011	-0,242	-0,056
-723,094	-200,000	0,000	-0,092
-722,079	142,986	-0,076	-0,074
-721,064	-200,000	0,044	-0,158
-720,050	173,463	0,062	-0,066
-719,035	269,307	-0,096	-0,124
-718,021	168,620	-0,054	-0,057
-717,006	29,207	-0,031	-0,019
-715,991	99,902	-0,086	-0,073
-714,977	392,871	-0,098	-0,151
-713,962	445,917	-0,075	-0,121
-712,948	541,441	0,030	0,054
-711,933	39,020	-0,064	-0,042
-710,918	40,034	-0,059	0,039
-709,904	171,881	-0,107	0,113
-708,889	-122,428	-0,158	0,019
-707,875	527,391	-0,016	0,027
-706,860	405,892	-0,074	0,116
-705,845	287,500	-0,009	0,012
-704,831	-75,560	-0,043	-0,011
-703,816	-200,000	-0,020	-0,066
-702,802	-137,945	-0,216	-0,018
-701,787	-109,406	0,129	-0,020
-700,772	158,473	-0,026	-0,027
-699,758	-200,000	0,014	0,062
-698,743	184,177	-0,047	0,051
-697,729	-20,344	0,047	0,021
-696,714	-200,000	-0,012	-0,072
-695,699	241,395	-0,085	-0,104
-694,685	19,232	-0,034	0,020
-693,670	800,000	0,057	-0,119
-692,656	-23,571	-0,028	0,012
-691,641	800,000	0,021	0,046
-690,627	355,008	0,068	-0,100
-689,612	800,000	-0,027	0,057
-688,597	-78,543	-0,109	-0,027
-687,583	-40,870	-0,027	0,010
-686,568	531,917	-0,028	0,048
-685,554	240,586	0,060	-0,074
-684,539	58,694	-0,033	0,024
-683,524	96,255	0,083	0,070
-682,510	-75,180	-0,136	0,035
-681,495	800,000	-0,042	-0,126
-680,481	41,816	0,064	0,043
-679,466	800,000	0,019	-0,054
-678,451	-4,175	0,026	-0,013
-677,437	-20,485	0,034	0,015
-676,422	723,683	-0,015	-0,030
-675,408	53,968	-0,115	-0,081
-674,393	58,759	-0,102	-0,074
-673,378	800,000	0,051	-0,132
-672,364	325,528	0,037	-0,053
-671,349	-26,808	-0,055	-0,024
-670,335	-200,000	-0,014	0,060
-669,320	123,213	-0,012	-0,011
-668,305	285,153	-0,016	0,021
-667,291	297,292	-0,048	-0,066
-666,276	-200,000	0,016	-0,125
-665,262	-23,383	-0,204	-0,090
-664,247	-200,000	-0,003	0,104
-663,232	510,937	-0,038	-0,066
-662,218	59,438	0,052	-0,038
-661,203	143,222	-0,080	-0,078
-660,189	603,532	-0,067	-0,124
-659,174	-118,196	-0,088	-0,011
-658,159	-200,000	-0,018	0,084
-657,145	-200,000	-0,014	0,060
-656,130	37,847	-0,193	0,126
-655,116	-200,000	0,007	0,036
-654,101	388,951	0,060	0,091
-653,086	-142,979	-0,217	0,015
-652,072	-200,000	-0,030	-0,156
-651,057	-200,000	0,001	-0,080
-650,043	-200,000	-0,021	-0,091
-649,028	228,290	0,052	-0,063
-648,014	-200,000	-0,016	-0,075
-646,999	-200,000	0,024	0,097
-645,984	-200,000	-0,003	0,106
-644,970	128,581	-0,025	-0,023
-643,955	-92,153	-0,128	0,026
-642,941	40,370	-0,131	-0,087
-641,926	135,147	-0,064	-0,061
-640,911	387,816	0,032	0,049
-639,897	-160,757	-0,177	-0,007
-638,882	-61,435	0,041	0,013
-637,868	-62,158	-0,020	-0,006
-636,853	800,000	-0,029	0,063
-635,838	376,728	-0,047	-0,070
-634,824	-160,214	-0,049	-0,002
-633,809	-69,778	0,091	-0,025
-632,795	-200,000	0,002	-0,120
-631,780	-200,000	0,005	0,024
-630,765	-200,000	-0,034	0,145
-629,751	77,635	-0,065	0,051
-628,736	39,785	-0,122	0,081
-627,722	78,804	0,150	0,118
-626,707	87,412	0,029	0,024
-625,692	-84,296	0,056	-0,013
-624,678	800,000	0,007	0,022
-623,663	-31,280	-0,023	0,010
-622,649	-200,000	0,018	0,069
-621,634	-79,283	0,109	0,027
-620,619	-15,231	-0,138	0,065
-619,605	-200,000	-0,001	0,034
-618,590	800,000	0,040	0,092
-617,576	-200,000	0,013	-0,067
-616,561	-120,750	0,136	0,017
-615,546	4,862	-0,045	0,024
-614,532	547,387	0,029	-0,051
-613,517	-102,767	-0,056	-0,010
-612,503	131,435	0,029	-0,028
-611,488	11,316	0,094	-0,052
-610,474	73,793	0,111	0,085
-609,459	142,782	0,088	-0,086
-608,444	-166,444	0,055	0,002
-607,430	550,607	-0,060	-0,106
-606,415	-200,000	0,034	-0,155
-605,401	-74,826	-0,105	0,028
-604,386	-169,743	0,043	0,001
-603,371	75,654	-0,041	0,032
-602,357	-99,198	-0,170	-0,031
-601,342	-1,966	-0,050	-0,026
-600,328	213,062	-0,029	0,034
-599,313	800,000	0,034	0,082
-598,298	-12,406	0,054	-0,026
-597,284	-48,377	-0,171	-0,060
-596,269	342,143	-0,075	0,108
-595,255	510,763	0,065	-0,112
-594,240	-105,398	-0,084	-0,014
-593,225	180,876	-0,038	-0,041
-592,211	800,000	-0,032	0,097
-591,196	800,000	-0,024	0,075
-590,182	-154,026	-0,070	-0,003
-589,167	800,000	-0,012	-0,025
-588,152	-72,047	0,077	-0,021
-587,138	800,000	-0,020	-0,057
-586,123	-200,000	0,019	-0,066
-585,109	-144,480	0,062	0,004
-584,094	-200,000	0,014	0,106
-583,079	800,000	0,043	0,134
-582,065	-117,804	0,011	0,001
-581,050	-200,000	0,012	-0,070
-580,036	72,606	0,113	0,086
-579,021	795,950	0,026	0,054
-578,006	-113,441	-0,043	-0,006
-576,992	-200,000	0,041	0,193
-575,977	47,944	-0,043	0,030
-574,963	78,295	0,165	0,129
-573,948	269,875	0,116	0,150
-572,934	139,479	-0,045	0,043
-571,919	412,892	0,054	0,085
-570,904	77,852	0,090	-0,070
-569,890	-51,972	-0,125	0,042
-568,875	-73,147	-0,078	0,021
-567,861	240,781	0,014	-0,017
-566,846	-50,054	-0,026	-0,009
-565,831	-0,906	-0,061	-0,032
-564,817	61,676	-0,085	0,062
-563,802	-102,770	-0,046	0,008
-562,788	-43,669	0,034	-0,013
-561,773	-95,518	-0,092	-0,018
-560,758	800,000	0,021	0,045
-559,744	32,105	-0,059	0,037
-558,729	350,485	-0,086	0,124
-557,715	510,744	0,030	0,052
-556,700	-200,000	0,000	-0,012
-555,685	-112,683	0,026	-0,004
-554,671	-77,295	-0,057	0,014
-553,656	37,973	-0,061	0,040
-552,642	230,385	-0,042	0,051
-551,627	-200,000	-0,003	-0,059
-550,612	230,841	-0,128	0,153
-549,598	-112,473	0,160	0,023
-548,583	-184,683	-0,137	-0,002
-547,569	800,000	-0,014	0,036
-546,554	-78,524	0,111	0,028
-545,539	-200,000	-0,007	0,057
-544,525	327,950	-0,057	0,081
-543,510	347,836	-0,012	0,017
-542,496	60,150	-0,096	-0,070
-541,481	-120,995	-0,087	-0,011
-540,466	150,602	0,059	-0,059
-539,452	-76,109	0,086	-0,022
-538,437	800,000	0,038	0,087
-537,423	800,000	-0,020	0,045
-536,408	800,000	0,028	-0,073
-535,393	-108,046	-0,024	0,004
-534,379	-42,274	-0,171	-0,064
-533,364	800,000	-0,049	0,131
-532,350	143,375	-0,057	0,056
-531,335	-18,903	0,102	0,046
-530,321	85,356	0,044	0,035
-529,306	129,745	0,041	-0,038
-528,291	428,259	-0,051	0,081
-527,277	-200,000	0,018	-0,068
-526,262	117,309	-0,019	-0,017
-525,248	219,086	0,129	-0,152
-524,233	-12,909	0,108	0,051
-523,218	-200,000	0,034	0,113
-522,204	133,939	-0,036	0,034
-521,189	172,677	0,093	-0,098
-520,175	44,244	0,024	-0,016
-519,160	800,000	0,025	0,068
-518,145	800,000	0,027	-0,062
-517,131	-98,140	-0,071	0,013
-516,116	467,224	-0,027	0,045
-515,102	-84,334	-0,221	-0,051
-514,087	-99,290	0,080	-0,015
-513,072	-200,000	-0,005	-0,154
-512,058	800,000	0,037	-0,085
-511,043	362,733	0,107	-0,158
-510,029	-200,000	0,023	-0,082
-509,014	674,659	-0,054	0,103
-507,999	-66,595	0,030	-0,009
-506,985	-86,309	-0,054	0,012
-505,970	-200,000	0,004	-0,097
-504,956	800,000	0,043	0,126
-503,941	47,187	0,063	0,042
-502,926	-200,000	-0,007	-0,029
-501,912	14,964	-0,047	0,027
-500,897	-86,697	-0,129	-0,029
-499,883	388,401	-0,038	0,057
-498,868	-81,188	0,088	-0,021
-497,853	29,149	0,030	-0,019
-496,839	99,852	-0,088	-0,075
-495,824	-68,239	0,123	0,035
-494,810	75,687	-0,041	0,032
-493,795	-71,924	0,117	-0,032
-492,781	-125,773	-0,038	-0,004
-491,766	-67,588	-0,039	-0,011
-490,751	-157,462	-0,063	0,003
-489,737	258,513	-0,057	0,072
-488,722	59,202	0,047	-0,034
-487,708	273,596	0,033	0,043
-486,693	800,000	-0,019	-0,047
-485,678	233,103	-0,066	0,080
-484,664	-200,000	0,012	0,046
-483,649	105,516	-0,055	0,047
-482,635	-200,000	0,003	0,035
-481,620	800,000	0,036	0,115
-480,605	800,000	0,049	0,154
-479,591	271,159	0,066	-0,085
-478,576	-200,000	-0,014	-0,098
-477,562	-200,000	0,008	-0,029
-476,547	70,540	-0,022	-0,017
-475,532	191,919	-0,063	0,069
-474,518	-133,499	0,071	0,006
-473,503	640,609	-0,097	0,181
-472,489	108,648	-0,061	0,054
-471,474	135,539	0,030	0,028
-470,459	22,274	-0,063	-0,037
-469,445	-200,000	-0,022	-0,160
-468,430	-200,000	-0,002	0,056
-467,416	800,000	-0,018	0,039
-466,401	-77,120	0,116	-0,029
-465,386	-0,583	-0,103	-0,053
-464,372	643,890	-0,030	-0,057
-463,357	800,000	0,025	-0,052
-462,343	-200,000	0,009	-0,131
-461,328	800,000	-0,016	-0,043
-460,313	-200,000	0,022	-0,074
-459,299	101,160	0,164	0,140
-458,284	-200,000	-0,006	0,097
-457,270	139,995	-0,044	-0,042
-456,255	800,000	-0,034	-0,082
-455,241	228,261	0,009	-0,011
-454,226	-200,000	-0,001	0,014
-453,211	27,677	0,027	-0,017
-452,197	-126,040	-0,015	-0,002
-451,182	-18,574	0,052	0,024
-450,168	520,612	0,053	0,090
-449,153	-17,127	0,055	-0,025
-448,138	800,000	-0,010	-0,026
-447,124	800,000	-0,029	-0,085
-446,109	-200,000	0,007	0,059
-445,095	-43,071	0,134	-0,049
-444,080	-81,866	0,095	-0,022
-443,065	34,956	0,079	0,050
-442,051	-200,000	-0,004	-0,036
-441,036	505,168	0,026	-0,044
-440,022	-200,000	-0,035	-0,125
-439,007	-187,325	-0,107	0,001
-437,992	-200,000	0,008	0,044
-436,978	-100,117	0,086	-0,015
-435,963	-200,000	-0,011	0,037
-434,949	-25,623	-0,167	0,071
-433,934	151,406	0,027	0,027
-432,919	32,855	0,038	-0,024
-431,905	64,798	-0,030	0,022
-430,890	395,249	0,033	0,051
-429,876	-200,000	-0,008	0,095
-428,861	173,068	0,055	-0,058
-427,846	-200,000	0,003	0,113
-426,832	-200,000	-0,082	-0,000
-425,817	66,196	-0,048	0,035
-424,803	-59,232	0,067	-0,021
-423,788	-200,000	0,006	-0,060
-422,773	162,105	0,164	0,167
-421,759	-200,000	-0,013	-0,061
-420,744	444,731	0,032	-0,052
-419,730	800,000	-0,054	-0,111
-418,715	-200,000	-0,021	-0,080
-417,701	63,845	0,093	-0,068
-416,686	-200,000	-0,015	-0,079
-415,671	800,000	-0,012	-0,028
-414,657	-139,406	-0,123	-0,009
-413,642	-200,000	-0,005	-0,081
-412,628	-200,000	-0,021	0,098
-411,613	16,025	-0,065	-0,037
-410,598	-7,993	-0,127	-0,062
-409,584	13,309	-0,110	-0,062
-408,569	97,924	-0,010	0,009
-407,555	-85,295	0,078	0,018
-406,540	800,000	-0,019	0,061
-405,525	-141,757	-0,189	0,014
-404,511	277,281	-0,007	-0,009
-403,496	346,820	0,117	-0,169
-402,482	-6,993	0,211	0,104
-401,467	112,241	0,045	0,039
-400,452	180,346	0,074	0,079
-399,438	-71,442	0,189	0,051
-398,423	-169,847	-0,141	-0,004
-397,409	-136,082	0,048	-0,004
-396,394	273,241	-0,097	-0,125
-395,379	647,640	0,032	-0,060
-394,365	-200,000	-0,011	-0,056
-393,350	-200,000	0,011	-0,065
-392,336	87,166	0,083	0,066
-391,321	-139,189	-0,009	0,001
-390,306	-200,000	-0,039	-0,143
-389,292	197,789	0,044	0,049
-388,277	-74,462	-0,134	0,035
-387,263	-200,000	-0,000	0,083
-386,248	-200,000	0,021	-0,078
-385,233	18,241	0,075	-0,044
-384,219	-200,000	-0,017	0,139
-383,204	84,675	-0,121	-0,097
-382,190	738,792	-0,054	-0,106
-381,175	800,000	-0,042	0,103
-380,160	-149,247	0,035	-0,002
-379,146	128,247	0,049	0,046
-378,131	800,000	0,029	-0,079
-377,117	-200,000	-0,010	0,079
-376,102	800,000	0,068	-0,184
-375,088	107,164	0,037	0,032
-374,073	525,588	-0,077	0,132
-373,058	-25,302	-0,108	0,046
-372,044	112,017	-0,043	0,038
-371,029	-43,433	0,048	-0,018
-370,015	330,499	0,009	-0,012
-369,000	354,024	0,064	-0,093
-367,985	-147,721	-0,039	0,002
-366,971	-77,224	-0,066	0,017
-365,956	-21,963	-0,062	-0,027
-364,942	-129,780	0,048	-0,005
-363,927	434,658	-0,069	0,110
-362,912	193,925	0,125	0,137
-361,898	192,753	0,052	0,058
-360,883	800,000	0,026	-0,065
-359,869	167,043	-0,078	0,080
-358,854	24,320	0,225	-0,135
-357,839	141,378	0,010	-0,010
-356,825	131,647	-0,065	-0,061
-355,810	44,762	0,056	-0,038
-354,796	106,743	-0,092	0,080
-353,781	-5,780	-0,054	0,027
-352,766	-200,000	-0,011	-0,091
-351,752	366,143	0,095	0,140
-350,737	340,675	-0,033	-0,047
-349,723	-200,000	0,004	-0,039
-348,708	-200,000	0,025	-0,103
-347,693	590,057	0,048	-0,086
-346,679	432,014	-0,063	-0,100
-345,664	78,846	0,052	-0,040
-344,650	123,723	-0,025	0,023
-343,635	52,025	0,079	-0,054
-342,620	-93,791	0,043	-0,009
-341,606	100,895	0,044	0,037
-340,591	56,151	0,010	0,007
-339,577	-200,000	0,004	-0,053
-338,562	800,000	-0,047	-0,120
-337,548	-200,000	-0,005	0,087
-336,533	138,618	0,076	-0,072
-335,518	-20,724	0,168	-0,075
-334,504	800,000	-0,018	0,054
-333,489	-200,000	0,012	0,159
-332,475	76,481	-0,044	0,034
-331,460	7,926	-0,100	-0,054
-330,445	39,678	0,037	0,024
-329,431	-200,000	-0,004	-0,075
-328,416	-2,399	-0,115	-0,058
-327,402	800,000	0,030	0,072
-326,387	-87,691	-0,050	-0,011
-325,372	-200,000	0,017	-0,087
-324,358	-20,526	0,017	-0,008
-323,343	107,320	-0,152	-0,132
-322,329	50,791	0,022	-0,015
-321,314	59,569	0,055	-0,039
-320,299	589,013	0,055	-0,098
-319,285	-74,965	-0,066	0,017
-318,270	-1,026	0,062	-0,032
-317,256	-200,000	-0,001	-0,014
-316,241	-200,000	-0,006	0,041
-315,226	-110,648	0,056	0,008
-314,212	800,000	0,039	0,081
-313,197	56,497	0,057	0,040
-312,183	-200,000	-0,001	-0,031
-311,168	-165,734	0,107	0,003
-310,153	-42,474	-0,102	0,037
-309,139	78,306	-0,051	0,039
-308,124	294,934	-0,073	-0,098
-307,110	32,495	0,077	0,048
-306,095	627,744	-0,051	0,093
-305,080	82,447	-0,126	0,099
-304,066	449,517	-0,108	-0,174
-303,051	176,466	-0,035	-0,036
-302,037	-200,000	0,020	0,072
-301,022	402,550	-0,077	0,117
-300,008	46,533	-0,125	-0,084
-298,993	-60,198	0,138	-0,042
-297,978	571,436	-0,045	-0,080
-296,964	-130,155	0,084	-0,008
-295,949	800,000	0,041	0,111
-294,935	34,203	0,059	0,037
-293,920	104,309	0,059	-0,050
-292,905	800,000	0,026	0,070
-291,891	189,136	0,082	0,089
-290,876	800,000	0,002	0,007
-289,862	-200,000	0,019	-0,094
-288,847	258,433	-0,049	-0,061
-287,832	164,316	-0,075	-0,077
-286,818	77,045	-0,098	-0,075
-285,803	-200,000	0,018	0,077
-284,789	469,643	0,045	-0,073
-283,774	159,313	-0,099	0,100
-282,759	32,118	0,050	0,031
-281,745	66,712	-0,127	0,094
-280,730	92,412	0,164	-0,134
-279,716	800,000	0,073	-0,195
-278,701	-79,723	-0,105	0,025
-277,686	270,363	0,057	-0,073
-276,672	800,000	-0,029	0,079
-275,657	175,888	-0,072	0,076
-274,643	-39,905	-0,058	-0,022
-273,628	49,615	-0,063	0,043
-272,613	-131,874	0,114	0,011
-271,599	9,399	-0,039	-0,021
-270,584	278,571	0,084	0,108
-269,570	-200,000	0,017	0,074
-268,555	-200,000	-0,022	-0,080
-267,540	16,032	0,038	-0,022
-266,526	800,000	-0,090	-0,233
-265,511	511,227	-0,033	-0,057
-264,497	26,670	0,099	0,060
-263,482	-76,161	0,066	-0,017
-262,467	-200,000	0,014	0,145
-261,453	378,788	0,071	0,105
-260,438	-200,000	0,007	0,035
-259,424	13,023	-0,122	0,068
-258,409	319,205	-0,033	-0,046
-257,395	-156,466	0,101	0,004
-256,380	-120,116	-0,121	-0,015
-255,365	-85,721	-0,046	-0,010
-254,351	128,193	-0,051	-0,047
-253,336	-200,000	-0,021	-0,105
-252,322	800,000	0,041	-0,121
-251,307	-65,821	-0,084	-0,024
-250,292	-90,533	0,086	-0,018
-249,278	102,699	0,096	0,082
-248,263	-63,574	-0,074	0,022
-247,249	800,000	0,031	0,079
-246,234	-200,000	0,016	-0,116
-245,219	-108,292	-0,112	0,017
-244,205	216,413	0,037	0,043
-243,190	28,550	-0,056	0,034
-242,176	181,878	0,038	-0,040
-241,161	-126,405	0,111	-0,012
-240,146	-120,255	0,115	0,014
-239,132	405,587	-0,041	0,062
-238,117	-57,371	-0,047	0,015
-237,103	16,139	0,045	-0,026
-236,088	800,000	-0,020	0,041
-235,073	112,457	0,092	0,081
-234,059	-200,000	0,009	0,093
-233,044	-28,132	0,030	-0,012
-232,030	57,309	0,037	-0,026
-231,015	-100,843	-0,095	0,017
-230,000	-200,000	-0,003	0,045
-228,986	-200,000	0,016	-0,078
-227,971	-200,000	0,012	0,117
-226,957	-200,000	0,011	-0,041
-225,942	-142,668	0,164	0,011
-224,927	362,055	-0,057	0,083
-223,913	-81,745	-0,155	0,037
-222,898	-6,531	0,169	0,083
-221,884	-178,635	-0,030	-0,000
-220,869	-200,000	0,002	-0,019
-219,855	57,762	0,085	0,060
-218,840	449,978	-0,042	-0,067
-217,825	571,236	-0,048	-0,085
-216,811	800,000	-0,036	-0,074
-215,796	-26,406	-0,066	-0,028
-214,782	-200,000	0,007	-0,031
-213,767	-200,000	0,008	0,048
-212,752	-159,041	0,029	-0,001
-211,738	-131,371	0,156	0,015
-210,723	-39,937	0,001	-0,000
-209,709	-15,262	-0,135	-0,062
-208,694	-58,680	0,200	0,062
-207,679	63,518	-0,054	-0,039
-206,665	-200,000	0,000	0,019
-205,650	-88,755	0,103	0,022
-204,636	57,077	0,116	-0,082
-203,621	43,911	-0,038	-0,025
-202,606	-78,180	-0,062	0,015
-201,592	-24,318	-0,052	0,023
-200,577	-200,000	-0,001	-0,042
-199,563	-145,455	0,112	0,007
-198,548	-200,000	0,054	0,178
-197,533	6,280	0,048	0,026
-196,519	-142,474	0,124	0,009
-195,504	-102,827	0,061	0,010
-194,490	800,000	-0,013	-0,036
-193,475	414,926	0,035	-0,055
-192,460	97,721	0,071	-0,059
-191,446	-52,546	-0,100	-0,033
-190,431	-86,976	-0,042	-0,009
-189,417	-167,506	0,048	0,001
-188,402	799,034	0,030	0,059
-187,387	-89,452	-0,097	0,020
-186,373	800,000	-0,034	0,107
-185,358	-200,000	0,014	-0,204
-184,344	-13,027	0,036	0,017
-183,329	45,838	-0,054	-0,036
-182,315	-114,559	0,064	-0,009
-181,300	344,658	-0,034	-0,048
-180,285	-114,276	-0,119	0,016
-179,271	284,953	-0,068	-0,088
-178,256	713,018	0,040	0,078
-177,242	370,763	-0,041	0,061
-176,227	-57,385	0,032	0,010
-175,212	-200,000	0,015	0,052
-174,198	-101,250	-0,116	0,020
-173,183	39,015	0,055	-0,035
-172,169	-130,521	-0,042	-0,004
-171,154	-200,000	0,014	-0,051
-170,139	-200,000	0,002	0,029
-169,125	461,948	0,042	0,068
-168,110	-200,000	0,010	-0,069
-167,096	-200,000	-0,023	-0,111
-166,081	-200,000	-0,009	0,038
-165,066	-58,670	-0,094	-0,029
-164,052	-200,000	0,018	-0,116
-163,037	-200,000	0,002	-0,025
-162,023	-200,000	0,039	-0,129
-161,008	-200,000	-0,027	-0,156
-159,993	-64,995	0,055	-0,016
-158,979	80,546	0,064	-0,050
-157,964	676,424	-0,022	0,041
-156,950	-200,000	-0,027	-0,086
-155,935	193,973	-0,124	-0,136
-154,920	-200,000	-0,022	0,093
-153,906	-200,000	0,012	0,062
-152,891	-8,635	0,031	-0,015
-151,877	-148,812	-0,161	-0,009
-150,862	268,994	0,071	-0,090
-149,847	-200,000	-0,017	-0,080
-148,833	800,000	-0,041	0,086
-147,818	-1,325	0,019	0,010
-146,804	191,095	-0,027	0,029
-145,789	67,321	0,042	-0,031
-144,775	-200,000	-0,008	0,046
-143,760	-200,000	-0,006	-0,112
-142,745	-200,000	0,026	-0,145
-141,731	41,372	0,093	-0,060
-140,716	-103,001	0,053	0,009
-139,702	-115,319	0,118	0,016
-138,687	-113,245	-0,021	0,003
-137,672	-200,000	0,030	-0,112
-136,658	-128,658	-0,028	-0,003
-135,643	125,965	0,086	0,078
-134,629	-112,144	0,022	-0,003
-133,614	142,716	-0,030	0,029
-132,599	-81,000	0,096	0,023
-131,585	271,421	-0,040	-0,051
-130,570	-200,000	-0,007	0,055
-129,556	-200,000	0,000	0,082
-128,541	-146,595	-0,113	0,007
-127,526	-200,000	-0,002	-0,033
-126,512	800,000	-0,023	-0,061
-125,497	-135,666	-0,036	-0,003
-124,483	800,000	-0,033	0,078
-123,468	-200,000	-0,021	0,113
-122,453	-200,000	-0,001	-0,009
-121,439	258,504	-0,059	0,073
-120,424	56,114	0,066	0,046
-119,410	99,531	0,121	0,101
-118,395	391,579	-0,037	0,056
-117,380	-59,599	-0,083	-0,026
-116,366	800,000	-0,053	0,112
-115,351	91,119	-0,041	-0,033
-114,337	-200,000	0,014	-0,078
-113,322	282,126	-0,089	-0,115
-112,307	-95,905	-0,106	0,020
-111,293	212,950	0,086	-0,098
-110,278	-154,052	-0,057	0,003
-109,264	800,000	-0,046	0,108
-108,249	102,663	-0,067	0,057
-107,234	144,875	0,120	-0,115
-106,220	6,179	0,114	0,061
-105,205	125,049	-0,076	-0,069
-104,191	80,292	0,064	-0,049
-103,176	404,814	0,044	0,067
-102,162	800,000	0,038	-0,085
-101,147	-200,000	0,004	0,036
-100,132	800,000	0,009	0,019
-99,118	-200,000	0,016	0,095
-98,103	6,466	0,002	-0,001
-97,089	-200,000	-0,015	0,048
-96,074	-200,000	-0,014	0,102
-95,059	-104,810	0,057	0,009
-94,045	96,176	0,127	0,104
-93,030	309,016	-0,077	0,104
-92,016	375,473	-0,040	-0,060
-91,001	800,000	0,001	-0,002
-89,986	-14,153	-0,011	0,005
-88,972	800,000	0,009	0,021
-87,957	-200,000	-0,005	0,083
-86,943	800,000	-0,044	0,089
-85,928	188,892	-0,029	-0,031
-84,913	-158,886	0,101	-0,004
-83,899	269,932	-0,055	-0,070
-82,884	-95,281	0,091	0,018
-81,870	-63,193	0,093	0,027
-80,855	-200,000	-0,006	-0,028
-79,840	800,000	0,016	-0,052
-78,826	800,000	-0,052	-0,141
-77,811	245,694	-0,019	0,023
-76,797	-43,808	-0,190	0,068
-75,782	132,204	0,086	0,080
-74,767	-59,696	-0,059	0,018
-73,753	800,000	0,018	-0,040
-72,738	95,046	0,030	-0,024
-71,724	106,173	-0,087	-0,074
-70,709	200,592	0,064	-0,070
-69,694	25,887	-0,032	0,019
-68,680	800,000	0,049	0,130
-67,665	-200,000	-0,004	0,112
-66,651	28,022	0,123	0,074
-65,636	800,000	0,014	0,036
-64,622	-200,000	0,012	-0,149
-63,607	-58,729	-0,092	0,028
-62,592	360,985	-0,032	0,047
-61,578	800,000	-0,015	0,041
-60,563	102,446	-0,072	-0,061
-59,549	-94,887	-0,064	-0,012
-58,534	17,673	-1,953	-1,114
-57,519	-200,000	-0,274	-0,982
-56,505	-200,000	-1,339	-4,855
-55,490	16,401	0,684	0,387
-54,476	800,000	5,366	12,368
-53,461	-200,000	17,453	279,819
-52,446	800,000	720,762	2202,492
-51,432	532,005	1634,073	2787,655
-50,417	111,692	1627,338	1410,425
-49,403	75,127	1285,930	972,588
-48,388	32,804	1030,563	639,235
-47,373	20,073	992,412	573,449
-46,359	18,666	980,872	562,125
-45,344	16,405	976,736	552,307
-44,330	16,519	975,160	551,768
-43,315	16,135	973,615	549,613
-42,300	16,080	972,497	548,780
-41,286	16,072	971,562	548,203
-40,271	16,093	970,593	547,705
-39,257	16,088	969,536	547,070
-38,242	16,005	968,967	546,456
-37,227	16,063	967,921	546,032
-36,213	16,037	967,242	545,545
-35,198	16,052	966,259	545,017
-34,184	16,101	965,524	544,739
-33,169	16,041	964,618	544,010
-32,154	16,142	963,435	543,650
-31,140	16,034	962,752	542,895
-30,125	16,101	961,988	542,657
-29,111	16,120	960,838	542,050
-28,096	16,142	960,316	541,806
-27,082	16,058	959,737	541,186
-26,067	16,119	958,981	540,935
-25,052	16,021	958,254	540,186
-24,038	16,066	957,576	539,927
-23,023	16,013	956,937	539,377
-22,009	16,083	956,258	539,196
-20,994	16,086	955,538	538,779
-19,979	16,134	954,942	538,577
-18,965	16,113	954,268	538,107
-17,950	16,057	953,798	537,642
-16,936	16,007	953,114	537,072
-15,921	16,041	952,584	536,863
-14,906	15,960	951,652	536,055
-13,892	15,986	951,087	535,800
-12,877	15,878	950,558	535,137
-11,863	15,890	949,905	534,784
-10,848	15,919	949,435	534,593
-9,833	16,046	948,828	534,634
-8,819	16,020	948,274	534,217
-7,804	15,933	947,728	533,611
-6,790	15,947	946,794	533,110
-5,775	16,015	946,242	532,995
-4,760	15,940	945,721	532,439
-3,746	15,937	945,051	532,031
-2,731	15,848	944,432	531,380
-1,717	15,868	943,774	531,053
-0,702	15,772	943,108	530,351
0,313	15,623	942,459	530,314
1,327	19,007	940,568	539,908
2,342	28,296	794,817	480,867
3,356	25,114	447,579	266,021
4,371	-4,441	296,023	146,348
5,386	-8,432	277,468	133,374
6,400	-9,713	271,860	129,474
7,415	-9,953	269,445	128,091
8,429	-9,973	268,139	127,440
9,444	-10,041	267,210	126,925
10,459	-10,063	266,711	126,656
11,473	-10,233	265,882	126,096
12,488	-10,264	265,459	125,856
13,502	-10,572	264,936	125,318
14,517	-10,396	264,490	125,255
15,531	-10,506	264,138	124,978
16,546	-10,319	263,697	124,926
17,561	-10,159	263,268	124,857
18,575	-10,197	263,102	124,733
19,590	-10,218	262,549	124,441
20,604	-10,389	262,475	124,241
21,619	-10,526	262,112	123,935
22,634	-10,534	261,696	123,720
23,648	-10,405	261,213	123,596
24,663	-10,385	261,116	123,557
25,677	-10,389	260,864	123,423
26,692	-10,317	260,436	123,274
27,707	-10,533	260,461	123,082
28,721	-10,469	260,094	122,955
29,736	-10,483	259,846	122,814
30,750	-10,340	259,413	122,725
31,765	-10,610	259,138	122,345
32,780	-10,568	259,049	122,329
33,794	-10,659	258,816	122,128
34,809	-10,510	258,529	122,113
35,823	-10,576	258,187	121,883
36,838	-10,643	258,064	121,755
37,853	-10,505	257,683	121,686
38,867	-10,623	257,703	121,580
39,882	-10,701	257,376	121,346
40,896	-10,589	257,227	121,364
41,911	-10,732	256,921	121,083
42,926	-10,616	256,654	121,049
43,940	-10,491	256,242	120,952
44,955	-10,641	255,987	120,691
45,969	-10,884	255,877	120,415
46,984	-11,021	255,547	120,130
47,999	-11,178	255,402	119,914
49,013	-11,298	255,107	119,661
50,028	-11,517	254,757	119,295
51,042	-11,434	254,580	119,273
52,057	-11,418	254,427	119,205
53,071	-11,547	254,197	118,975
54,086	-11,346	254,061	119,074
55,101	-11,258	253,879	119,055
56,115	-11,104	253,799	119,140
57,130	-10,550	253,612	119,521
58,144	-10,191	253,554	119,794
59,159	-10,227	253,220	119,594
60,174	-10,134	253,025	119,572
61,188	-10,470	252,885	119,205
62,203	-10,375	252,649	119,165
63,217	-10,598	252,566	118,923
64,232	-10,500	252,132	118,793
65,247	-10,478	252,207	118,836
66,261	-10,337	251,802	118,756
67,276	-10,555	251,497	118,414
68,290	-10,916	251,191	117,951
69,305	-11,001	250,971	117,764
70,320	-11,105	250,801	117,585
71,334	-10,787	250,560	117,733
72,349	-10,394	250,553	118,055
73,363	-10,198	250,473	118,174
74,378	-10,176	250,085	117,999
75,393	-10,467	249,837	117,624
76,407	-10,589	249,719	117,453
77,422	-10,471	249,529	117,455
78,436	-10,365	249,266	117,410
79,451	-10,560	249,139	117,175
80,466	-10,540	248,860	117,050
81,480	-10,864	248,685	116,682
82,495	-10,951	248,447	116,487
83,509	-10,834	248,238	116,478
84,524	-11,046	248,116	116,231
85,539	-11,031	247,715	116,045
86,553	-10,682	247,562	116,257
87,568	-10,687	247,331	116,134
88,582	-10,560	247,162	116,151
89,597	-10,844	246,996	115,824
90,611	-10,699	247,053	115,962
91,626	-10,562	246,741	115,920
92,641	-10,700	246,546	115,703
93,655	-10,663	246,294	115,606
94,670	-10,633	246,031	115,497
95,684	-10,654	246,065	115,485
96,699	-10,762	245,655	115,192
97,714	-10,805	245,606	115,123
98,728	-10,900	245,281	114,881
99,743	-11,127	245,305	114,693
100,757	-11,029	244,824	114,539
101,772	-10,968	244,652	114,499
102,787	-10,883	244,525	114,500
103,801	-10,668	244,391	114,606
104,816	-10,715	244,183	114,459
105,830	-10,715	244,224	114,468
106,845	-10,478	243,917	114,511
107,860	-10,554	243,793	114,379
108,874	-10,613	243,426	114,148
109,889	-10,696	243,342	114,029
110,903	-10,859	243,177	113,808
111,918	-10,899	242,917	113,643
112,933	-10,817	242,696	113,597
113,947	-10,625	242,512	113,658
114,962	-10,781	242,422	113,478
115,976	-10,488	242,155	113,584
116,991	-10,593	242,120	113,471
118,006	-10,552	241,862	113,373
119,020	-10,654	241,834	113,267
120,035	-10,422	241,618	113,346
121,049	-10,489	241,584	113,264
122,064	-10,681	241,281	112,955
123,079	-10,536	241,060	112,960
124,093	-10,821	240,857	112,622
125,108	-11,054	240,625	112,313
126,122	-11,055	240,314	112,157
127,137	-11,169	240,239	112,020
128,151	-11,092	240,033	111,977
129,166	-10,922	239,723	111,960
130,181	-10,984	239,626	111,855
131,195	-10,881	239,510	111,874
132,210	-10,673	239,369	111,967
133,224	-10,691	239,145	111,837
134,239	-10,536	239,186	111,972
135,254	-10,586	238,924	111,799
136,268	-10,809	238,573	111,445
137,283	-11,149	238,348	111,054
138,297	-11,278	238,210	110,877
139,312	-11,299	238,143	110,819
140,327	-10,818	238,046	111,151
141,341	-10,402	237,796	111,360
142,356	-10,413	237,724	111,307
143,370	-10,239	237,769	111,458
144,385	-10,289	237,474	111,270
145,400	-10,115	237,301	111,319
146,414	-10,067	237,097	111,252
147,429	-10,008	236,823	111,161
148,443	-10,199	236,731	110,955
149,458	-10,317	236,501	110,742
150,473	-10,440	236,352	110,565
151,487	-10,440	236,278	110,520
152,502	-10,543	236,175	110,380
153,516	-10,149	235,901	110,556
154,531	-10,286	235,764	110,373
155,546	-10,401	235,489	110,143
156,560	-10,345	235,314	110,095
157,575	-10,365	235,016	109,930
158,589	-10,475	235,013	109,832
159,604	-10,295	234,839	109,883
160,619	-10,241	234,861	109,927
161,633	-10,195	234,657	109,858
162,648	-10,185	234,491	109,779
163,662	-10,196	234,366	109,701
164,677	-10,368	234,190	109,473
165,692	-10,157	234,115	109,595
166,706	-10,070	233,963	109,583
167,721	-10,093	233,807	109,482
168,735	-9,930	233,531	109,472
169,750	-9,887	233,293	109,384
170,764	-10,274	233,133	108,994
171,779	-10,314	233,179	108,975
172,794	-10,123	232,983	109,023
173,808	-10,171	232,590	108,792
174,823	-10,974	232,355	108,043
175,837	-10,958	232,102	107,928
176,852	-10,567	232,125	108,236
177,867	-10,124	231,923	108,479
178,881	-10,110	231,848	108,445
179,896	-9,997	231,654	108,432
180,910	-10,111	231,587	108,303
181,925	-9,993	231,522	108,355
182,940	-9,971	231,329	108,272
183,954	-9,919	231,052	108,173
184,969	-10,041	230,965	108,028
185,983	-9,932	230,935	108,089
186,998	-10,058	230,614	107,831
188,013	-9,851	230,533	107,945
189,027	-10,040	230,308	107,683
190,042	-9,925	230,232	107,727
191,056	-9,925	230,165	107,686
192,071	-9,984	229,962	107,535
193,086	-10,180	229,841	107,318
194,100	-10,083	229,713	107,323
195,115	-10,031	229,326	107,173
196,129	-10,128	229,399	107,123
197,144	-5,522	231,033	111,458
198,159	-0,019	232,572	116,487
199,173	3,145	233,490	119,410
200,188	3,750	233,109	119,676
201,202	3,710	233,072	119,615
202,217	3,976	232,959	119,753
203,232	4,149	232,905	119,849
204,246	4,092	232,640	119,658
205,261	4,143	232,486	119,608
206,275	4,349	232,566	119,798
207,290	4,361	232,389	119,705
208,304	4,289	232,239	119,562
209,319	3,964	232,072	119,213
210,334	4,063	231,884	119,183
211,348	3,737	231,707	118,829
212,363	3,552	231,350	118,492
213,377	3,189	231,248	118,150
214,392	3,400	230,972	118,161
215,407	3,578	230,956	118,279
216,421	3,645	230,688	118,183
217,436	3,426	230,515	117,915
218,450	3,157	230,338	117,607
219,465	3,143	230,285	117,559
220,480	3,104	230,002	117,374
221,494	3,392	229,925	117,545
222,509	3,519	229,885	117,612
223,523	3,470	229,570	117,402
224,538	3,202	229,446	117,124
225,553	3,340	229,341	117,165
226,567	3,338	229,333	117,149
227,582	3,813	229,094	117,380
228,596	3,701	229,129	117,301
229,611	3,487	228,911	117,015
230,626	3,350	228,479	116,680
231,640	3,198	228,345	116,485
232,655	3,694	228,345	116,853
233,669	4,011	228,292	117,057
234,684	4,270	228,129	117,159
235,699	3,718	227,932	116,628
236,713	3,437	227,723	116,298
237,728	3,595	227,495	116,291
238,742	3,140	227,333	115,853
239,757	3,314	227,332	115,974
240,772	3,278	227,099	115,817
241,786	3,373	226,910	115,782
242,801	3,474	226,923	115,855
243,815	3,848	226,912	116,122
244,830	3,918	226,569	115,988
245,844	3,532	226,310	115,555
246,859	3,412	226,279	115,439
247,874	3,730	226,081	115,566
248,888	3,745	225,975	115,514
249,903	3,656	225,751	115,322
250,917	3,437	225,686	115,114
251,932	3,441	225,549	115,036
252,947	3,254	225,286	114,752
253,961	3,044	225,282	114,582
254,976	3,207	225,073	114,587
255,990	3,542	225,008	114,795
257,005	3,592	224,972	114,804
258,020	3,488	224,839	114,648
259,034	3,634	224,500	114,574
260,049	3,691	224,450	114,580
261,063	3,440	224,397	114,357
262,078	3,723	224,325	114,520
263,093	3,739	224,122	114,418
264,107	3,636	223,971	114,255
265,122	3,814	223,613	114,194
266,136	3,859	223,657	114,240
267,151	4,008	223,421	114,219
268,166	3,645	223,143	113,798
269,180	3,153	223,064	113,383
270,195	3,336	222,832	113,390
271,209	3,138	222,844	113,240
272,224	3,226	222,712	113,227
273,239	3,489	222,417	113,262
274,253	3,244	222,286	113,004
275,268	3,327	222,074	112,948
276,282	3,094	222,032	112,744
277,297	3,075	221,883	112,645
278,312	3,291	221,740	112,721
279,326	3,405	221,684	112,767
280,341	3,431	221,545	112,705
281,355	3,561	221,243	112,637
282,370	3,396	221,176	112,471
283,384	3,173	220,962	112,189
284,399	3,058	220,800	112,013
285,414	2,969	220,590	111,831
286,428	3,422	220,632	112,174
287,443	3,451	220,559	112,148
288,457	3,581	220,329	112,116
289,472	3,372	220,251	111,914
290,487	2,841	220,061	111,420
291,501	2,950	219,651	111,281
292,516	3,126	219,744	111,447
293,530	3,114	219,518	111,314
294,545	3,007	219,428	111,180
295,560	3,052	219,436	111,207
296,574	3,384	219,233	111,336
297,589	3,142	219,163	111,114
298,603	3,330	218,993	111,154
299,618	3,587	218,876	111,272
300,633	3,541	218,763	111,171
301,647	3,738	218,653	111,248
302,662	3,746	218,465	111,148
303,676	3,837	218,297	111,119
304,691	3,726	218,154	110,956
305,706	3,578	218,162	110,843
306,720	3,553	217,948	110,706
307,735	3,414	217,677	110,459
308,749	3,473	217,424	110,363
309,764	3,540	217,311	110,344
310,779	3,596	217,239	110,338
311,793	3,550	217,203	110,276
312,808	3,439	216,984	110,075
313,822	3,437	216,874	110,009
314,837	3,466	216,752	109,957
315,852	3,103	216,486	109,552
316,866	3,296	216,466	109,671
317,881	3,423	216,280	109,658
318,895	3,451	216,285	109,671
319,910	3,266	216,065	109,417
320,925	2,795	215,777	108,925
321,939	2,824	215,667	108,881
322,954	3,316	215,703	109,241
323,968	3,686	215,669	109,477
324,983	3,553	215,407	109,240
325,997	3,685	215,222	109,230
327,012	3,464	215,059	108,981
328,027	3,452	214,867	108,865
329,041	3,879	214,895	109,172
330,056	3,784	214,875	109,086
331,070	3,609	214,623	108,823
332,085	3,236	214,398	108,436
333,100	3,437	214,193	108,464
334,114	3,243	214,230	108,337
335,129	3,597	213,991	108,457
336,143	3,420	213,810	108,230
337,158	3,302	213,653	108,057
338,173	3,626	213,546	108,222
339,187	3,033	213,497	107,769
340,202	3,200	213,279	107,767
341,216	2,963	213,060	107,480
342,231	3,398	212,970	107,732
343,246	3,072	212,851	107,432
344,260	3,278	212,667	107,475
345,275	3,256	212,585	107,408
346,289	3,564	212,490	107,567
347,304	3,708	212,410	107,617
348,319	3,471	212,263	107,367
349,333	3,386	212,066	107,199
350,348	3,600	211,987	107,299
351,362	3,638	212,007	107,326
352,377	3,863	211,630	107,282
353,392	3,497	211,652	107,029
354,406	3,377	211,426	106,821
355,421	195,819	1340,930	1420,954
356,435	156,431	1478,524	1420,944
