DTS Sentinel unit serial number:	SN410029Multiplexer serial number:	ORYXHardware model number:	OX2-SRSoftware version number:	ORYX F/W v4,00 Oryx Data Collector v3.7.2.0data status	okinstallation	B6 Nyhavnadifferential loss correction	single-endedforward channel	channel 2reverse channel	N/Adate	2023/12/10time	15:15:08forward acquisition time	300,00reverse acquisition time	0,00gamma	499,1914k internal	0,3122k external	0,3122temperature offset calibration	1,0000default loss term (dB/km)	0,3820temperature slope calibration	1,0000multiplexer offset coefficient	1,0000multiplexer slope coefficient	1,0000fibre end	0,00T internal ref (°C)	22,48T ext. ref 1 (°C)	5,92T ext. ref 2 (°C)	5,94length (m)	temperature (°C)	Stokes	anti-Stokes-744,400	28,127	0,133	0,083
-743,385	-95,882	-0,266	0,052
-742,371	-107,860	0,069	0,011
-741,356	-64,997	-0,242	0,072
-740,342	-105,229	0,206	0,035
-739,327	-124,018	-0,285	0,033
-738,312	-117,913	0,053	-0,007
-737,298	91,028	-0,170	0,142
-736,283	-200,000	-0,006	-0,180
-735,269	-83,372	-0,247	0,059
-734,254	292,458	0,029	-0,040
-733,239	-52,275	-0,431	-0,148
-732,225	-200,000	-0,009	0,034
-731,210	-131,282	-0,155	0,015
-730,196	800,000	-0,035	-0,083
-729,181	90,818	0,046	0,038
-728,167	48,852	-0,033	-0,023
-727,152	45,441	-0,040	0,027
-726,137	104,857	-0,128	-0,112
-725,123	-125,001	-0,128	0,014
-724,108	54,553	-0,164	-0,118
-723,094	44,033	-0,159	-0,108
-722,079	193,011	-0,135	-0,152
-721,064	-200,000	0,017	0,078
-720,050	181,946	0,113	0,124
-719,035	-200,000	-0,023	0,102
-718,021	42,159	-0,123	0,083
-717,006	-200,000	0,018	-0,092
-715,991	-200,000	-0,009	-0,051
-714,977	-87,428	-0,154	-0,034
-713,962	-200,000	-0,019	-0,065
-712,948	-75,284	0,103	-0,027
-711,933	56,384	-0,070	-0,051
-710,918	116,493	0,056	-0,051
-709,904	127,724	-0,025	0,024
-708,889	639,057	0,021	0,040
-707,875	-91,665	-0,046	-0,010
-706,860	-200,000	-0,018	-0,111
-705,845	367,991	-0,033	0,050
-704,831	-200,000	0,033	0,145
-703,816	221,733	-0,100	0,120
-702,802	-112,515	-0,130	-0,019
-701,787	14,459	-0,126	0,073
-700,772	-200,000	-0,022	-0,248
-699,758	15,994	0,107	-0,062
-698,743	-200,000	-0,013	-0,088
-697,729	-145,011	-0,098	-0,007
-696,714	-200,000	0,001	-0,088
-695,699	34,207	-0,104	-0,067
-694,685	260,884	-0,088	-0,114
-693,670	258,895	0,048	0,062
-692,656	-38,646	0,079	0,031
-691,641	-196,164	0,146	-0,001
-690,627	-108,322	0,011	0,002
-689,612	800,000	-0,036	0,080
-688,597	296,208	-0,052	0,072
-687,583	800,000	-0,074	-0,163
-686,568	61,819	-0,106	-0,078
-685,554	712,621	-0,018	-0,036
-684,539	-200,000	-0,017	-0,142
-683,524	-128,810	0,116	-0,012
-682,510	58,669	-0,068	-0,050
-681,495	800,000	-0,027	0,069
-680,481	-200,000	-0,023	0,089
-679,466	580,071	0,022	0,040
-678,451	-161,245	-0,117	0,004
-677,437	-160,991	-0,194	-0,007
-676,422	24,807	0,057	0,035
-675,408	-200,000	0,012	0,080
-674,393	800,000	0,029	0,073
-673,378	-42,692	-0,033	-0,013
-672,364	563,266	0,011	-0,020
-671,349	-57,842	-0,084	0,027
-670,335	522,273	0,033	-0,059
-669,320	-200,000	-0,004	0,013
-668,305	229,460	0,089	-0,108
-667,291	800,000	0,031	-0,065
-666,276	317,168	-0,068	-0,096
-665,262	292,727	0,074	-0,101
-664,247	531,958	-0,028	-0,049
-663,232	-200,000	-0,021	-0,118
-662,218	-200,000	0,015	0,055
-661,203	-138,195	0,028	0,002
-660,189	216,449	0,080	-0,094
-659,174	-143,190	0,072	0,005
-658,159	800,000	-0,014	-0,039
-657,145	561,131	0,049	-0,089
-656,130	-139,025	0,091	0,007
-655,116	800,000	-0,025	-0,068
-654,101	-10,299	-0,069	-0,034
-653,086	23,922	0,071	0,044
-652,072	-0,207	-0,044	-0,023
-651,057	-140,158	-0,099	-0,008
-650,043	-200,000	-0,015	0,117
-649,028	-200,000	-0,051	0,195
-648,014	-152,440	0,086	-0,005
-646,999	388,612	0,047	0,073
-645,984	77,883	0,031	-0,024
-644,970	6,107	-0,051	-0,028
-643,955	54,523	-0,122	-0,087
-642,941	109,208	-0,099	-0,088
-641,926	-51,487	-0,074	0,026
-640,911	-200,000	0,014	0,091
-639,897	311,049	0,043	0,060
-638,882	-46,260	0,126	-0,046
-637,868	62,547	0,032	0,023
-636,853	67,273	-0,096	-0,072
-635,838	800,000	-0,068	-0,187
-634,824	-90,031	0,169	0,036
-633,809	800,000	-0,070	-0,187
-632,795	12,453	0,024	0,014
-631,780	800,000	0,041	0,086
-630,765	-200,000	-0,036	-0,145
-629,751	85,137	-0,133	-0,108
-628,736	57,419	-0,079	-0,057
-627,722	-200,000	0,001	-0,062
-626,707	-200,000	-0,017	-0,093
-625,692	-64,877	0,072	-0,021
-624,678	-200,000	0,025	0,086
-623,663	-117,913	0,058	0,008
-622,649	468,028	-0,074	0,123
-621,634	165,037	-0,081	0,084
-620,619	45,391	0,088	-0,060
-619,605	-192,112	0,082	0,001
-618,590	335,957	0,069	-0,100
-617,576	21,935	0,152	-0,092
-616,561	17,076	0,031	0,018
-615,546	-6,974	0,061	-0,031
-614,532	683,581	-0,055	-0,107
-613,517	800,000	0,062	-0,161
-612,503	-56,165	-0,051	-0,017
-611,488	-200,000	0,045	-0,177
-610,474	-109,903	0,055	-0,008
-609,459	280,769	-0,045	-0,060
-608,444	331,794	0,014	-0,020
-607,430	-169,548	-0,058	0,002
-606,415	-80,218	-0,113	-0,028
-605,401	800,000	0,027	0,071
-604,386	261,508	0,023	0,030
-603,371	225,613	0,112	-0,135
-602,357	800,000	-0,029	-0,072
-601,342	-77,006	-0,051	0,013
-600,328	-18,237	-0,129	-0,060
-599,313	-184,907	-0,097	0,001
-598,298	293,547	0,014	0,019
-597,284	126,601	0,133	0,125
-596,269	-130,004	0,089	0,009
-595,255	294,691	0,034	-0,046
-594,240	-200,000	-0,018	-0,150
-593,225	800,000	-0,044	-0,120
-592,211	-200,000	0,018	-0,075
-591,196	800,000	0,022	-0,052
-590,182	-110,539	-0,049	-0,007
-589,167	564,009	0,023	-0,042
-588,152	800,000	0,019	-0,047
-587,138	71,090	0,052	0,040
-586,123	-200,000	-0,031	-0,133
-585,109	-200,000	-0,013	0,065
-584,094	113,210	0,010	0,009
-583,079	0,188	0,041	0,022
-582,065	-140,329	0,058	-0,004
-581,050	-52,664	0,057	0,019
-580,036	-200,000	0,006	0,026
-579,021	312,261	0,068	-0,095
-578,006	-17,913	-0,081	0,038
-576,992	-200,000	0,149	0,000
-575,977	290,282	-0,061	-0,082
-574,963	-59,980	-0,035	0,011
-573,948	-200,000	0,041	0,155
-572,934	669,980	-0,067	0,129
-571,919	-137,472	-0,079	0,007
-570,904	-36,026	0,032	-0,013
-569,890	-122,758	-0,064	0,008
-568,875	396,958	-0,016	0,025
-567,861	370,640	-0,109	-0,165
-566,846	-200,000	0,003	0,041
-565,831	79,520	0,079	0,062
-564,817	224,344	-0,039	-0,046
-563,802	-200,000	-0,017	0,191
-562,788	-72,938	0,083	-0,022
-561,773	-200,000	0,030	-0,110
-560,758	-166,027	0,085	0,003
-559,744	-11,998	0,113	0,055
-558,729	-57,623	0,051	0,016
-557,715	432,393	-0,048	0,077
-556,700	194,238	-0,098	-0,110
-555,685	800,000	0,033	0,070
-554,671	-161,176	-0,082	-0,003
-553,656	-93,664	0,059	0,012
-552,642	-200,000	0,011	0,134
-551,627	-200,000	-0,001	-0,141
-550,612	-200,000	0,011	-0,114
-549,598	-200,000	-0,060	-0,220
-548,583	-77,857	-0,114	0,029
-547,569	-200,000	-0,026	0,103
-546,554	-200,000	0,026	-0,093
-545,539	-86,535	0,043	0,010
-544,525	-32,310	-0,135	0,056
-543,510	-72,661	0,077	0,021
-542,496	67,194	0,089	0,067
-541,481	-198,363	-0,111	0,000
-540,466	410,528	0,102	0,160
-539,452	-138,450	0,064	0,005
-538,437	800,000	-0,030	-0,064
-537,423	-200,000	-0,004	0,017
-536,408	-200,000	-0,022	-0,080
-535,393	-50,093	0,020	0,007
-534,379	492,255	0,095	0,161
-533,364	-41,089	-0,124	-0,047
-532,350	3,562	-0,113	0,061
-531,335	-120,334	0,116	-0,014
-530,321	36,562	0,097	-0,063
-529,306	-138,557	-0,066	-0,005
-528,291	209,934	-0,087	-0,102
-527,277	-200,000	-0,005	-0,100
-526,262	-11,585	-0,090	-0,043
-525,248	23,802	-0,051	0,031
-524,233	77,984	-0,028	-0,022
-523,218	-200,000	-0,001	-0,027
-522,204	8,315	0,026	0,015
-521,189	-127,917	-0,029	-0,003
-520,175	91,689	0,028	-0,023
-519,160	203,677	-0,042	-0,049
-518,145	800,000	0,011	0,030
-517,131	111,796	0,127	0,114
-516,116	800,000	-0,004	-0,011
-515,102	350,803	-0,052	0,076
-514,087	-200,000	0,002	-0,044
-513,072	800,000	-0,022	0,049
-512,058	497,851	0,030	-0,051
-511,043	-200,000	-0,023	-0,095
-510,029	-125,419	-0,004	-0,000
-509,014	49,935	0,054	-0,037
-507,999	800,000	0,028	0,060
-506,985	-74,851	0,084	-0,022
-505,970	545,394	0,071	-0,126
-504,956	-19,513	0,157	-0,072
-503,941	-200,000	-0,020	-0,069
-502,926	-200,000	-0,002	0,033
-501,912	800,000	-0,033	0,074
-500,897	231,291	0,036	-0,044
-499,883	646,659	0,054	0,102
-498,868	137,105	-0,101	-0,097
-497,853	-87,259	-0,027	0,006
-496,839	-200,000	-0,023	-0,100
-495,824	70,290	0,090	0,069
-494,810	-183,010	0,141	-0,002
-493,795	256,944	-0,013	0,017
-492,781	101,449	0,061	-0,052
-491,766	-36,794	-0,041	0,016
-490,751	-100,100	0,115	0,021
-489,737	800,000	0,027	-0,074
-488,722	-200,000	0,002	-0,029
-487,708	103,346	-0,041	0,035
-486,693	166,510	-0,019	-0,020
-485,678	-200,000	-0,000	0,019
-484,664	-200,000	-0,018	0,060
-483,649	756,054	0,042	-0,085
-482,635	52,655	-0,059	-0,041
-481,620	-200,000	-0,002	-0,010
-480,605	32,127	-0,070	0,045
-479,591	800,000	0,032	0,083
-478,576	-48,183	-0,064	0,023
-477,562	245,657	-0,013	0,016
-476,547	800,000	0,063	-0,131
-475,532	-200,000	-0,010	0,122
-474,518	379,992	0,087	-0,132
-473,503	735,343	0,019	-0,037
-472,489	-46,821	-0,094	-0,034
-471,474	-178,642	-0,047	0,001
-470,459	-200,000	0,029	-0,117
-469,445	-142,345	-0,041	0,003
-468,430	-79,320	-0,255	-0,063
-467,416	172,565	-0,026	0,028
-466,401	800,000	0,073	0,167
-465,386	-200,000	-0,002	-0,040
-464,372	-80,296	-0,075	0,018
-463,357	375,671	-0,024	-0,036
-462,343	800,000	0,075	-0,214
-461,328	219,300	-0,154	-0,182
-460,313	-200,000	-0,021	-0,089
-459,299	-200,000	0,028	0,101
-458,284	800,000	0,012	-0,025
-457,270	-11,702	-0,060	0,029
-456,255	47,891	0,020	-0,014
-455,241	-48,414	-0,097	-0,034
-454,226	-41,941	0,101	0,038
-453,211	-200,000	-0,016	-0,073
-452,197	256,440	-0,041	0,052
-451,182	23,860	0,073	0,044
-450,168	230,520	-0,065	-0,078
-449,153	800,000	0,022	0,048
-448,138	470,290	-0,093	-0,155
-447,124	375,771	0,104	-0,157
-446,109	-200,000	0,027	0,088
-445,095	-60,804	0,079	-0,024
-444,080	-13,999	0,093	-0,044
-443,065	-178,563	0,099	0,002
-442,051	524,536	-0,004	-0,006
-441,036	-115,694	0,091	-0,012
-440,022	538,781	-0,048	0,085
-439,007	640,413	0,016	-0,031
-437,992	47,241	0,116	0,080
-436,978	-77,031	-0,043	-0,011
-435,963	800,000	-0,093	0,216
-434,949	-140,476	-0,060	-0,005
-433,934	-200,000	-0,018	-0,176
-432,919	-2,001	-0,107	-0,055
-431,905	-100,136	0,107	-0,020
-430,890	-200,000	-0,032	0,135
-429,876	109,661	-0,045	-0,040
-428,861	-200,000	-0,143	-0,000
-427,846	-200,000	-0,030	0,118
-426,832	-200,000	0,007	-0,077
-425,817	-200,000	-0,018	-0,081
-424,803	-61,174	-0,005	0,001
-423,788	585,357	0,087	0,159
-422,773	800,000	-0,020	0,042
-421,759	-200,000	0,010	0,183
-420,744	800,000	-0,022	0,057
-419,730	493,994	-0,034	-0,057
-418,715	-19,136	-0,093	-0,042
-417,701	-200,000	0,018	0,083
-416,686	-200,000	-0,004	0,021
-415,671	-200,000	0,005	0,139
-414,657	717,167	-0,028	0,055
-413,642	-200,000	-0,017	0,068
-412,628	-124,784	0,076	0,009
-411,613	-101,722	-0,066	-0,012
-410,598	-154,995	-0,104	-0,005
-409,584	-24,898	-0,047	-0,020
-408,569	-64,889	-0,080	-0,024
-407,555	-100,542	0,154	0,028
-406,540	-112,636	0,047	-0,007
-405,525	-162,225	0,044	-0,002
-404,511	-77,642	-0,097	-0,024
-403,496	530,809	-0,043	-0,075
-402,482	800,000	0,047	-0,110
-401,467	-89,186	0,068	-0,015
-400,452	38,072	0,120	-0,079
-399,438	150,499	0,074	0,074
-398,423	10,980	-0,163	0,091
-397,409	225,016	0,015	0,017
-396,394	-28,165	0,105	0,044
-395,379	-123,653	0,046	0,005
-394,365	-103,364	0,123	0,021
-393,350	59,842	0,099	-0,072
-392,336	317,953	0,086	0,120
-391,321	800,000	-0,033	0,086
-390,306	435,566	0,053	0,085
-389,292	147,215	-0,076	-0,075
-388,277	149,921	-0,054	-0,053
-387,263	397,570	-0,020	-0,031
-386,248	60,450	0,174	0,127
-385,233	-200,000	-0,022	-0,074
-384,219	-56,038	-0,048	0,016
-383,204	-152,042	-0,137	-0,007
-382,190	126,397	-0,088	0,082
-381,175	-200,000	0,001	-0,030
-380,160	104,898	0,046	-0,040
-379,146	595,775	-0,073	0,133
-378,131	-200,000	-0,001	0,075
-377,117	-200,000	-0,009	0,134
-376,102	225,665	-0,138	0,165
-375,088	75,809	-0,047	0,037
-374,073	476,502	-0,015	0,025
-373,058	249,084	0,077	0,096
-372,044	-3,961	-0,045	-0,023
-371,029	-100,479	0,125	-0,022
-370,015	-200,000	-0,012	0,051
-369,000	36,836	-0,117	-0,076
-367,985	190,035	0,005	0,006
-366,971	-182,387	-0,067	0,001
-365,956	-200,000	-0,015	0,098
-364,942	470,088	0,035	0,058
-363,927	800,000	-0,015	0,042
-362,912	586,365	-0,033	0,060
-361,898	425,351	-0,049	0,077
-360,883	112,406	0,078	-0,069
-359,869	-200,000	0,009	-0,082
-358,854	800,000	0,017	0,040
-357,839	63,606	0,111	0,081
-356,825	179,951	0,099	0,106
-355,810	-200,000	-0,003	0,082
-354,796	-190,447	0,080	-0,001
-353,781	10,541	-0,219	-0,122
-352,766	404,769	-0,027	-0,043
-351,752	51,348	0,098	0,068
-350,737	-52,268	0,125	0,042
-349,723	-145,381	-0,088	0,006
-348,708	-131,025	0,170	0,016
-347,693	216,600	0,016	-0,019
-346,679	800,000	-0,037	-0,084
-345,664	-200,000	0,039	0,189
-344,650	-200,000	0,012	0,140
-343,635	635,417	0,063	-0,118
-342,620	416,027	0,057	0,089
-341,606	-200,000	0,019	-0,120
-340,591	800,000	-0,039	0,093
-339,577	243,945	-0,036	-0,045
-338,562	21,643	-0,120	0,072
-337,548	84,081	-0,081	-0,065
-336,533	800,000	-0,042	0,129
-335,518	-200,000	0,012	0,158
-334,504	-164,947	0,124	-0,004
-333,489	-37,209	0,015	-0,006
-332,475	-83,559	-0,127	-0,029
-331,460	81,738	-0,067	-0,053
-330,445	350,440	-0,017	-0,025
-329,431	-131,151	0,070	0,007
-328,416	-44,977	0,032	-0,012
-327,402	427,577	-0,046	0,072
-326,387	30,659	-0,058	0,036
-325,372	46,968	0,101	-0,069
-324,358	-76,554	0,046	0,012
-323,343	-200,000	-0,041	0,000
-322,329	228,872	0,114	0,136
-321,314	-99,602	0,053	0,010
-320,299	-93,686	-0,046	-0,009
-319,285	278,283	-0,026	-0,034
-318,270	-200,000	-0,003	-0,029
-317,256	800,000	0,049	-0,144
-316,241	-114,733	0,006	0,001
-315,226	-200,000	0,020	0,115
-314,212	-20,894	-0,085	0,038
-313,197	-124,912	-0,053	0,006
-312,183	150,716	-0,102	-0,102
-311,168	-53,532	0,080	-0,027
-310,153	-121,829	-0,073	0,009
-309,139	-19,192	-0,099	-0,045
-308,124	-6,917	0,102	0,051
-307,110	329,419	-0,099	0,140
-306,095	-54,654	0,100	0,033
-305,080	214,096	0,034	0,040
-304,066	-200,000	-0,002	-0,045
-303,051	-131,914	-0,097	-0,009
-302,037	800,000	-0,076	-0,158
-301,022	-200,000	-0,003	-0,065
-300,008	-6,089	0,049	-0,024
-298,993	-51,933	-0,095	-0,032
-297,978	-27,835	0,090	0,038
-296,964	-54,209	0,056	-0,019
-295,949	-169,432	-0,106	-0,003
-294,935	200,261	-0,089	-0,101
-293,920	-200,000	-0,003	-0,067
-292,905	208,981	0,077	0,089
-291,891	-18,039	0,242	0,110
-290,876	241,497	-0,096	0,117
-289,862	800,000	-0,031	-0,076
-288,847	800,000	-0,019	-0,059
-287,832	54,573	-0,080	-0,056
-286,818	317,482	-0,025	0,035
-285,803	800,000	-0,015	0,040
-284,789	94,613	0,078	0,065
-283,774	-32,076	0,085	0,035
-282,759	-6,018	-0,072	-0,036
-281,745	-200,000	0,012	-0,158
-280,730	-200,000	-0,013	-0,074
-279,716	241,665	0,066	0,081
-278,701	-164,699	0,051	0,002
-277,686	46,922	-0,152	0,103
-276,672	-200,000	0,032	0,131
-275,657	-96,653	-0,139	0,027
-274,643	-200,000	0,018	-0,063
-273,628	800,000	-0,044	-0,091
-272,613	-109,695	0,139	0,021
-271,599	-73,654	0,073	-0,019
-270,584	-83,403	0,204	-0,047
-269,570	-11,496	-0,019	0,009
-268,555	800,000	0,035	0,078
-267,540	115,772	-0,137	0,122
-266,526	272,126	0,066	0,085
-265,511	-76,427	-0,012	-0,003
-264,497	800,000	-0,039	-0,079
-263,482	-200,000	0,024	0,115
-262,467	-126,980	0,045	-0,005
-261,453	-21,595	0,019	-0,009
-260,438	-200,000	0,052	-0,221
-259,424	148,571	-0,077	-0,076
-258,409	129,045	-0,078	0,072
-257,395	155,147	0,074	0,075
-256,380	-29,526	0,007	-0,003
-255,365	590,534	0,037	0,067
-254,351	-48,683	-0,033	0,012
-253,336	-200,000	-0,028	-0,123
-252,322	415,303	-0,032	-0,050
-251,307	26,294	0,053	-0,032
-250,292	218,930	0,024	-0,029
-249,278	-200,000	0,000	0,080
-248,263	-200,000	-0,034	0,140
-247,249	591,894	-0,066	0,121
-246,234	-13,259	-0,119	-0,056
-245,219	-170,493	-0,107	-0,003
-244,205	-200,000	-0,034	-0,196
-243,190	24,714	-0,021	-0,013
-242,176	-200,000	0,009	0,033
-241,161	441,816	0,084	0,135
-240,146	106,643	0,043	-0,037
-239,132	-3,766	-0,008	0,004
-238,117	800,000	-0,051	0,116
-237,103	-43,617	-0,041	0,015
-236,088	-200,000	0,004	0,027
-235,073	141,714	-0,031	-0,030
-234,059	27,912	0,068	0,042
-233,044	-200,000	-0,013	0,047
-232,030	-200,000	0,006	0,215
-231,015	-87,342	0,201	0,044
-230,000	-6,860	-0,036	-0,018
-228,986	800,000	-0,012	-0,027
-227,971	800,000	0,048	-0,138
-226,957	16,181	0,043	0,025
-225,942	21,673	0,103	-0,061
-224,927	-200,000	0,020	0,070
-223,913	-131,116	0,145	0,014
-222,898	75,534	-0,089	0,068
-221,884	-25,224	0,031	0,013
-220,869	-150,321	-0,154	-0,009
-219,855	127,932	0,070	0,065
-218,840	-200,000	0,013	0,087
-217,825	425,805	0,014	-0,023
-216,811	800,000	0,027	0,058
-215,796	-200,000	-0,026	-0,089
-214,782	103,122	-0,156	-0,134
-213,767	-200,000	-0,007	0,115
-212,752	800,000	-0,052	0,152
-211,738	-1,444	-0,082	0,042
-210,723	-200,000	-0,005	0,061
-209,709	17,176	0,034	-0,020
-208,694	772,412	0,022	-0,045
-207,679	229,595	-0,097	0,116
-206,665	-8,468	-0,016	0,008
-205,650	705,602	-0,056	0,109
-204,636	473,956	0,019	-0,032
-203,621	800,000	0,017	0,049
-202,606	127,478	-0,005	0,005
-201,592	-173,149	-0,142	-0,003
-200,577	-53,580	-0,046	0,015
-199,563	-200,000	0,010	0,061
-198,548	25,390	0,044	0,027
-197,533	653,643	-0,012	-0,022
-196,519	-13,896	0,192	0,090
-195,504	-61,923	0,061	-0,018
-194,490	-26,406	-0,021	0,009
-193,475	274,315	-0,058	-0,075
-192,460	52,508	0,145	-0,101
-191,446	800,000	-0,024	-0,051
-190,431	800,000	-0,067	0,177
-189,417	176,997	0,079	0,084
-188,402	-183,822	-0,114	-0,001
-187,387	-0,765	-0,034	-0,017
-186,373	525,388	-0,058	0,099
-185,358	76,325	-0,126	0,098
-184,344	-200,000	-0,015	0,091
-183,329	48,899	0,110	0,075
-182,315	3,415	-0,005	0,003
-181,300	-122,061	0,131	-0,016
-180,285	800,000	0,040	-0,095
-179,271	-200,000	0,009	0,033
-178,256	800,000	0,034	-0,087
-177,242	-20,333	0,007	-0,003
-176,227	-200,000	-0,005	-0,116
-175,212	-104,145	0,022	-0,004
-174,198	-200,000	-0,015	-0,084
-173,183	800,000	-0,035	-0,076
-172,169	403,978	0,038	0,058
-171,154	-200,000	-0,011	0,044
-170,139	793,450	-0,037	-0,075
-169,125	221,855	-0,048	0,056
-168,110	25,779	0,003	-0,002
-167,096	246,359	-0,111	-0,136
-166,081	-164,785	0,128	0,004
-165,066	158,223	-0,049	0,050
-164,052	-10,358	-0,109	-0,052
-163,037	-23,854	-0,020	-0,009
-162,023	-15,578	0,113	-0,052
-161,008	-158,080	0,128	-0,005
-159,993	647,335	-0,060	-0,112
-158,979	-200,000	-0,021	-0,113
-157,964	-200,000	-0,030	-0,111
-156,950	-200,000	0,005	-0,030
-155,935	195,640	0,084	-0,094
-154,920	-200,000	0,004	0,051
-153,906	304,103	-0,048	-0,065
-152,891	-56,638	-0,107	-0,034
-151,877	-107,844	-0,086	-0,013
-150,862	451,310	0,008	0,012
-149,847	-72,129	-0,170	0,046
-148,833	36,657	0,085	-0,055
-147,818	-200,000	-0,013	0,066
-146,804	16,930	-0,097	0,056
-145,789	800,000	0,007	-0,018
-144,775	125,260	-0,077	0,070
-143,760	800,000	-0,006	-0,013
-142,745	-118,447	-0,077	0,010
-141,731	-9,046	-0,136	-0,066
-140,716	-116,235	0,077	-0,010
-139,702	800,000	0,030	0,083
-138,687	275,566	0,022	0,029
-137,672	12,339	0,088	-0,049
-136,658	-143,446	-0,085	-0,006
-135,643	447,041	-0,044	0,071
-134,629	-48,620	-0,085	0,030
-133,614	199,478	0,064	-0,071
-132,599	277,949	-0,003	0,004
-131,585	121,316	-0,062	-0,057
-130,570	65,998	-0,058	0,043
-129,556	800,000	0,046	0,095
-128,541	800,000	0,031	-0,078
-127,526	-130,559	0,123	-0,012
-126,512	800,000	0,013	0,031
-125,497	89,251	0,038	0,031
-124,483	326,370	0,008	-0,012
-123,468	800,000	-0,028	0,085
-122,453	-94,516	-0,098	-0,019
-121,439	-200,000	-0,021	-0,076
-120,424	-200,000	0,018	-0,140
-119,410	180,250	-0,044	-0,047
-118,395	-38,443	-0,089	-0,034
-117,380	111,323	0,050	0,044
-116,366	-94,691	-0,063	-0,012
-115,351	27,478	-0,066	-0,040
-114,337	-200,000	0,018	-0,091
-113,322	213,596	-0,042	0,049
-112,307	1,909	-0,093	0,048
-111,293	101,697	0,181	0,154
-110,278	-200,000	-0,008	0,053
-109,264	800,000	-0,015	0,048
-108,249	-32,524	-0,130	0,052
-107,234	-13,487	-0,061	0,029
-106,220	-22,071	-0,083	0,036
-105,205	800,000	0,096	0,256
-104,191	-200,000	0,017	0,090
-103,176	235,860	-0,080	0,096
-102,162	-200,000	-0,005	0,111
-101,147	-200,000	0,020	0,183
-100,132	177,032	-0,033	0,035
-99,118	29,404	0,042	0,026
-98,103	273,320	-0,114	-0,147
-97,089	-200,000	0,038	0,135
-96,074	800,000	-0,033	0,077
-95,059	-200,000	0,002	0,091
-94,045	302,027	-0,031	0,042
-93,030	800,000	-0,041	0,095
-92,016	-98,768	0,100	-0,018
-91,001	150,078	-0,015	-0,015
-89,986	-51,530	0,108	-0,036
-88,972	-10,657	0,100	-0,048
-87,957	-83,383	0,142	0,033
-86,943	247,168	0,092	-0,114
-85,928	-35,792	0,102	0,040
-84,913	-40,162	0,133	-0,050
-83,899	-143,696	-0,149	-0,010
-82,884	305,719	0,046	-0,062
-81,870	-36,942	0,070	0,027
-80,855	800,000	-0,046	0,128
-79,840	-24,036	0,076	-0,033
-78,826	226,679	-0,060	-0,070
-77,811	263,356	-0,079	-0,099
-76,797	800,000	0,021	-0,060
-75,782	800,000	0,021	-0,056
-74,767	-200,000	0,009	-0,057
-73,753	281,065	0,054	0,071
-72,738	-11,436	-0,111	0,053
-71,724	21,849	-0,116	0,069
-70,709	52,156	0,064	-0,044
-69,694	-200,000	-0,006	0,057
-68,680	-54,385	-0,078	0,026
-67,665	343,385	0,022	0,031
-66,651	118,799	0,029	-0,026
-65,636	199,038	0,042	-0,047
-64,622	-24,792	-0,147	-0,063
-63,607	-194,071	0,126	-0,001
-62,592	132,798	0,030	0,028
-61,578	-64,066	-0,086	0,025
-60,563	-200,000	-0,031	0,107
-59,549	717,029	-0,055	0,106
-58,534	-150,744	-1,402	-0,076
-57,519	791,933	-0,785	-1,576
-56,505	-200,000	-0,879	-4,455
-55,490	53,416	0,616	-0,428
-54,476	800,000	5,124	12,031
-53,461	-200,000	13,383	252,952
-52,446	-200,000	689,070	2263,936
-51,432	594,093	1622,235	2923,194
-50,417	119,940	1635,623	1471,889
-49,403	73,569	1289,290	978,959
-48,388	38,223	1024,482	660,574
-47,373	24,426	982,154	587,891
-46,359	23,657	971,580	579,018
-45,344	22,717	967,448	573,461
-44,330	22,669	965,957	572,396
-43,315	22,537	964,590	571,133
-42,300	22,516	963,452	570,369
-41,286	22,507	962,634	569,831
-40,271	22,460	961,728	569,119
-39,257	22,482	960,751	568,592
-38,242	22,570	959,583	568,163
-37,227	22,447	959,145	567,481
-36,213	22,497	957,987	566,935
-35,198	22,393	957,412	566,238
-34,184	22,505	956,738	566,178
-33,169	22,435	955,795	565,372
-32,154	22,549	954,666	565,049
-31,140	22,521	953,938	564,506
-30,125	22,516	953,206	564,032
-29,111	22,540	952,023	563,389
-28,096	22,516	951,629	563,055
-27,082	22,456	951,028	562,484
-26,067	22,509	950,168	562,123
-25,052	22,462	949,568	561,596
-24,038	22,536	948,660	561,273
-23,023	22,504	948,232	560,896
-22,009	22,546	947,577	560,621
-20,994	22,607	946,903	560,394
-19,979	22,540	946,356	559,834
-18,965	22,545	945,618	559,392
-17,950	22,597	944,968	559,150
-16,936	22,499	944,401	558,482
-15,921	22,506	943,448	557,916
-14,906	22,435	942,844	557,312
-13,892	22,405	942,367	556,913
-12,877	22,388	941,704	556,445
-11,863	22,352	941,122	555,964
-10,848	22,416	940,419	555,729
-9,833	22,474	940,135	555,723
-8,819	22,466	939,527	555,317
-7,804	22,429	938,730	554,705
-6,790	22,406	938,189	554,293
-5,775	22,480	937,395	554,034
-4,760	22,442	936,925	553,615
-3,746	22,346	936,441	553,005
-2,731	22,278	935,697	552,329
-1,717	22,263	934,966	551,828
-0,702	22,262	934,131	551,310
0,313	22,029	933,761	551,188
1,327	25,089	931,575	559,471
2,342	34,529	796,560	503,550
3,356	32,380	451,814	282,352
4,371	1,576	293,440	152,668
5,386	-2,804	274,170	138,492
6,400	-4,552	268,371	133,932
7,415	-4,947	265,902	132,325
8,429	-4,701	264,757	131,968
9,444	-4,812	264,055	131,506
10,459	-4,520	263,266	131,367
11,473	-4,770	262,697	130,844
12,488	-4,919	262,098	130,399
13,502	-4,749	261,623	130,305
14,517	-4,907	261,136	129,908
15,531	-4,650	260,762	129,942
16,546	-4,384	260,347	129,962
17,561	-4,747	260,337	129,620
18,575	-4,581	259,900	129,539
19,590	-4,690	259,477	129,220
20,604	-4,689	259,252	129,097
21,619	-4,553	258,862	129,013
22,634	-4,544	258,576	128,867
23,648	-4,688	258,260	128,570
24,663	-4,833	258,098	128,348
25,677	-4,704	257,845	128,325
26,692	-4,764	257,429	128,054
27,707	-4,612	257,140	128,034
28,721	-4,760	257,030	127,836
29,736	-4,705	256,705	127,712
30,750	-4,775	256,526	127,550
31,765	-4,711	256,276	127,470
32,780	-4,891	256,143	127,234
33,794	-4,784	255,700	127,097
34,809	-4,689	255,497	127,068
35,823	-4,819	255,315	126,852
36,838	-4,878	255,103	126,684
37,853	-4,927	254,880	126,519
38,867	-5,099	254,620	126,227
39,882	-4,901	254,315	126,238
40,896	-4,806	254,165	126,236
41,911	-4,829	253,941	126,093
42,926	-4,888	253,673	125,898
43,940	-4,843	253,376	125,778
44,955	-4,877	253,140	125,620
45,969	-4,986	252,935	125,412
46,984	-5,081	252,701	125,202
47,999	-5,284	252,533	124,931
49,013	-5,514	252,181	124,547
50,028	-5,635	252,091	124,386
51,042	-5,845	251,782	124,040
52,057	-5,706	251,436	123,979
53,071	-5,778	251,383	123,880
54,086	-5,641	251,212	123,903
55,101	-5,417	251,107	124,034
56,115	-5,105	250,789	124,135
57,130	-4,818	250,815	124,384
58,144	-4,679	250,837	124,504
59,159	-4,604	250,429	124,354
60,174	-4,648	250,316	124,250
61,188	-4,510	249,970	124,185
62,203	-4,673	249,896	123,998
63,217	-4,868	249,688	123,715
64,232	-4,895	249,474	123,576
65,247	-4,695	249,229	123,614
66,261	-4,710	248,937	123,446
67,276	-5,085	248,843	123,067
68,290	-5,176	248,446	122,783
69,305	-5,305	248,268	122,573
70,320	-5,104	248,094	122,648
71,334	-4,903	248,024	122,774
72,349	-4,467	247,853	123,049
73,363	-4,320	247,378	122,927
74,378	-4,476	247,412	122,801
75,393	-4,767	247,319	122,497
76,407	-4,621	247,012	122,458
77,422	-4,847	246,736	122,118
78,436	-4,824	246,636	122,077
79,451	-4,788	246,347	121,954
80,466	-4,893	246,191	121,777
81,480	-4,898	245,893	121,614
82,495	-5,073	245,712	121,366
83,509	-4,864	245,617	121,484
84,524	-4,718	245,398	121,489
85,539	-5,095	244,956	120,942
86,553	-5,163	244,931	120,863
87,568	-5,200	244,861	120,786
88,582	-5,063	244,724	120,822
89,597	-5,035	244,464	120,707
90,611	-4,901	244,296	120,725
91,626	-4,865	244,171	120,683
92,641	-4,725	243,951	120,681
93,655	-4,788	243,667	120,477
94,670	-5,038	243,691	120,269
95,684	-4,963	243,293	120,124
96,699	-4,888	243,182	120,121
97,714	-4,885	242,901	119,974
98,728	-5,116	242,893	119,767
99,743	-5,217	242,468	119,463
100,757	-5,045	242,434	119,578
101,772	-5,196	242,209	119,332
102,787	-5,036	242,010	119,356
103,801	-4,916	241,960	119,420
104,816	-5,008	241,818	119,263
105,830	-4,943	241,645	119,221
106,845	-4,864	241,430	119,170
107,860	-4,655	241,183	119,209
108,874	-4,889	241,078	118,953
109,889	-5,176	240,727	118,533
110,903	-4,999	240,649	118,630
111,918	-5,126	240,412	118,398
112,933	-4,942	240,371	118,519
113,947	-5,064	240,237	118,342
114,962	-4,864	239,912	118,336
115,976	-4,861	239,880	118,312
116,991	-4,825	239,731	118,257
118,006	-4,797	239,405	118,108
119,020	-4,756	239,410	118,135
120,035	-4,807	239,256	118,006
121,049	-4,548	239,004	118,082
122,064	-4,824	238,797	117,744
123,079	-5,070	238,649	117,460
124,093	-5,050	238,396	117,342
125,108	-5,213	238,286	117,144
126,122	-5,333	237,977	116,885
127,137	-5,303	237,789	116,805
128,151	-5,137	237,594	116,835
129,166	-5,141	237,482	116,766
130,181	-5,181	237,198	116,583
131,195	-5,224	237,021	116,451
132,210	-5,134	237,011	116,508
133,224	-4,988	236,793	116,509
134,239	-4,933	236,708	116,502
135,254	-4,805	236,432	116,458
136,268	-5,002	236,269	116,209
137,283	-5,162	235,978	115,927
138,297	-5,474	236,034	115,692
139,312	-5,296	235,660	115,641
140,327	-5,228	235,618	115,666
141,341	-4,610	235,640	116,163
142,356	-4,581	235,471	116,093
143,370	-4,512	235,235	116,022
144,385	-4,606	235,132	115,885
145,400	-4,616	235,013	115,808
146,414	-4,515	234,894	115,820
147,429	-4,448	234,515	115,676
148,443	-4,718	234,465	115,426
149,458	-4,752	234,295	115,304
150,473	-4,527	234,020	115,339
151,487	-4,582	233,911	115,230
152,502	-4,531	233,749	115,181
153,516	-4,654	233,583	114,991
154,531	-4,454	233,435	115,067
155,546	-4,581	233,196	114,837
156,560	-4,826	233,059	114,565
157,575	-4,775	232,817	114,477
158,589	-4,755	232,609	114,380
159,604	-4,393	232,525	114,615
160,619	-4,425	232,430	114,533
161,633	-4,424	232,267	114,444
162,648	-4,418	232,133	114,372
163,662	-4,442	231,923	114,240
164,677	-4,706	231,718	113,920
165,692	-4,685	231,685	113,910
166,706	-4,367	231,468	114,044
167,721	-4,536	231,347	113,841
168,735	-4,558	231,205	113,744
169,750	-4,419	230,978	113,731
170,764	-4,589	231,021	113,609
171,779	-4,599	230,832	113,498
172,794	-4,530	230,444	113,350
173,808	-4,660	230,325	113,180
174,823	-4,851	229,908	112,816
175,837	-5,310	229,962	112,473
176,852	-4,916	229,816	112,700
177,867	-4,710	229,800	112,842
178,881	-4,496	229,651	112,926
179,896	-4,488	229,546	112,871
180,910	-4,486	229,302	112,743
181,925	-4,480	229,196	112,685
182,940	-4,544	229,091	112,574
183,954	-4,323	228,792	112,588
184,969	-4,622	228,871	112,385
185,983	-4,644	228,722	112,285
186,998	-4,290	228,399	112,391
188,013	-4,466	228,311	112,201
189,027	-4,407	228,182	112,173
190,042	-4,306	227,891	112,098
191,056	-4,422	227,851	111,979
192,071	-4,272	227,692	112,007
193,086	-4,372	227,432	111,792
194,100	-4,431	227,309	111,676
195,115	-5,027	226,908	111,009
196,129	-5,315	226,710	110,681
197,144	-2,267	227,687	113,504
198,159	1,700	228,929	117,188
199,173	3,813	229,376	119,044
200,188	4,026	229,401	119,212
201,202	4,274	228,996	119,183
202,217	4,397	229,040	119,290
203,232	4,585	228,942	119,374
204,246	4,716	228,751	119,365
205,261	4,847	228,647	119,401
206,275	4,782	228,593	119,312
207,290	5,010	228,345	119,347
208,304	4,791	228,200	119,092
209,319	4,868	228,029	119,051
210,334	4,873	227,788	118,919
211,348	4,578	227,618	118,593
212,363	4,169	227,354	118,131
213,377	4,049	227,048	117,870
214,392	3,801	227,087	117,690
215,407	3,892	226,931	117,668
216,421	4,056	226,709	117,668
217,436	4,186	226,567	117,683
218,450	3,809	226,350	117,272
219,465	3,538	226,432	117,097
220,480	3,886	225,958	117,107
221,494	3,632	225,999	116,924
222,509	3,898	225,992	117,113
223,523	3,909	225,675	116,946
224,538	3,629	225,507	116,636
225,553	3,903	225,498	116,829
226,567	4,046	225,180	116,762
227,582	4,351	225,185	116,986
228,596	4,463	225,097	117,014
229,611	4,085	224,971	116,652
230,626	3,834	224,737	116,331
231,640	4,003	224,454	116,302
232,655	4,205	224,500	116,468
233,669	4,557	224,353	116,647
234,684	4,594	224,247	116,609
235,699	4,354	224,089	116,336
236,713	4,243	223,844	116,114
237,728	3,971	223,590	115,768
238,742	3,793	223,508	115,581
239,757	3,913	223,294	115,550
240,772	3,985	223,092	115,490
241,786	3,908	223,067	115,408
242,801	4,071	222,970	115,470
243,815	4,324	222,900	115,613
244,830	4,104	222,792	115,382
245,844	4,016	222,585	115,198
246,859	4,076	222,496	115,188
247,874	4,207	222,196	115,120
248,888	4,295	222,039	115,094
249,903	4,242	222,002	115,025
250,917	3,899	221,969	114,742
251,932	3,948	221,604	114,579
252,947	3,806	221,458	114,388
253,961	3,993	221,223	114,395
254,976	3,937	221,264	114,365
255,990	3,981	221,007	114,255
257,005	4,157	220,948	114,344
258,020	4,199	220,911	114,346
259,034	4,471	220,807	114,484
260,049	4,183	220,626	114,166
261,063	4,042	220,424	113,947
262,078	4,161	220,257	113,939
263,093	4,412	220,095	114,030
264,107	4,212	219,903	113,773
265,122	4,304	219,872	113,814
266,136	4,358	219,799	113,806
267,151	4,503	219,616	113,808
268,166	4,089	219,238	113,298
269,180	3,757	219,120	112,982
270,195	3,806	218,942	112,917
271,209	3,689	218,906	112,802
272,224	3,921	218,796	112,906
273,239	3,958	218,744	112,896
274,253	3,908	218,464	112,705
275,268	3,866	218,237	112,547
276,282	3,674	218,148	112,351
277,297	3,714	217,857	112,219
278,312	3,575	217,832	112,095
279,326	3,949	217,690	112,285
280,341	4,008	217,657	112,301
281,355	4,174	217,570	112,368
282,370	4,079	217,442	112,222
283,384	3,860	217,254	111,955
284,399	3,634	216,971	111,635
285,414	3,608	216,860	111,549
286,428	3,971	216,847	111,796
287,443	4,005	216,800	111,787
288,457	4,009	216,626	111,690
289,472	4,023	216,282	111,513
290,487	3,613	216,164	111,145
291,501	3,310	216,051	110,858
292,516	3,773	215,865	111,088
293,530	3,867	215,818	111,121
294,545	3,647	215,656	110,869
295,560	3,879	215,447	110,919
296,574	3,745	215,376	110,776
297,589	3,953	215,281	110,867
298,603	3,776	215,121	110,647
299,618	3,782	215,006	110,582
300,633	3,782	214,952	110,545
301,647	4,277	214,863	110,846
302,662	4,343	214,607	110,751
303,676	4,041	214,531	110,485
304,691	4,091	214,421	110,454
305,706	4,357	214,288	110,567
306,720	4,229	214,133	110,385
307,735	4,097	213,898	110,160
308,749	3,716	213,767	109,810
309,764	4,060	213,779	110,053
310,779	4,154	213,554	109,994
311,793	4,062	213,424	109,852
312,808	4,090	213,251	109,772
313,822	4,195	213,156	109,789
314,837	3,973	212,963	109,521
315,852	3,771	212,821	109,295
316,866	3,688	212,787	109,209
317,881	4,294	212,596	109,532
318,895	4,320	212,466	109,474
319,910	4,380	212,220	109,379
320,925	3,624	212,101	108,773
321,939	3,463	211,920	108,556
322,954	3,711	211,808	108,664
323,968	3,913	211,758	108,772
324,983	4,214	211,598	108,893
325,997	4,045	211,616	108,773
327,012	3,894	211,432	108,562
328,027	3,936	211,347	108,538
329,041	4,144	211,238	108,620
330,056	4,374	211,049	108,675
331,070	4,004	210,844	108,299
332,085	3,584	210,512	107,823
333,100	3,791	210,367	107,885
334,114	3,827	210,397	107,916
335,129	3,964	210,265	107,935
336,143	3,991	210,084	107,851
337,158	3,917	209,799	107,644
338,173	3,701	209,919	107,544
339,187	3,662	209,748	107,420
340,202	3,516	209,490	107,176
341,216	3,573	209,348	107,134
342,231	3,831	209,254	107,256
343,246	3,771	209,013	107,081
344,260	3,785	209,033	107,092
345,275	4,056	208,911	107,208
346,289	3,799	208,828	106,977
347,304	4,050	208,738	107,097
348,319	4,026	208,535	106,965
349,333	3,979	208,415	106,862
350,348	4,177	208,209	106,885
351,362	4,196	208,144	106,855
352,377	4,150	208,061	106,771
353,392	4,097	207,901	106,642
354,406	4,128	207,768	106,586
355,421	193,833	1344,316	1432,874
356,435	154,640	1482,892	1432,996
