DTS Sentinel unit serial number:	SN410029Multiplexer serial number:	ORYXHardware model number:	OX2-SRSoftware version number:	ORYX F/W v4,00 Oryx Data Collector v3.7.2.0data status	okinstallation	B6 Nyhavnadifferential loss correction	single-endedforward channel	channel 2reverse channel	N/Adate	2023/12/08time	02:30:08forward acquisition time	300,00reverse acquisition time	0,00gamma	499,1914k internal	0,3165k external	0,3165temperature offset calibration	1,0000default loss term (dB/km)	0,3820temperature slope calibration	1,0000multiplexer offset coefficient	1,0000multiplexer slope coefficient	1,0000fibre end	0,00T internal ref (°C)	13,17T ext. ref 1 (°C)	-3,69T ext. ref 2 (°C)	-3,68length (m)	temperature (°C)	Stokes	anti-Stokes-744,400	800,000	0,046	0,131
-743,385	-32,840	-0,274	0,112
-742,371	800,000	0,058	0,156
-741,356	89,889	-0,199	0,164
-740,342	-68,056	0,123	-0,035
-739,327	-60,424	-0,228	-0,071
-738,312	-172,406	0,207	-0,005
-737,298	-141,492	-0,317	0,023
-736,283	0,367	0,123	0,064
-735,269	-147,529	-0,416	-0,025
-734,254	-51,301	0,157	0,054
-733,239	-47,441	-0,482	-0,171
-732,225	2,630	0,267	0,142
-731,210	501,881	0,067	0,114
-730,196	-189,061	-0,075	-0,001
-729,181	236,823	0,050	-0,061
-728,167	800,000	-0,024	0,079
-727,152	-55,131	-0,194	0,064
-726,137	6,587	-0,093	-0,051
-725,123	301,411	-0,106	-0,144
-724,108	-40,647	-0,200	-0,076
-723,094	55,906	-0,153	-0,109
-722,079	119,366	-0,079	-0,072
-721,064	-200,000	0,001	-0,065
-720,050	17,379	-0,034	-0,020
-719,035	79,921	-0,037	-0,029
-718,021	-200,000	-0,028	-0,125
-717,006	73,629	-0,172	-0,132
-715,991	108,644	-0,069	-0,061
-714,977	105,494	-0,076	-0,066
-713,962	-200,000	-0,021	0,081
-712,948	-200,000	-0,001	-0,017
-711,933	-8,120	0,125	0,062
-710,918	800,000	0,046	0,104
-709,904	463,914	-0,043	-0,072
-708,889	-137,731	0,151	-0,012
-707,875	361,345	0,032	0,048
-706,860	39,468	-0,043	0,028
-705,845	800,000	0,018	-0,044
-704,831	625,492	0,012	-0,022
-703,816	173,249	-0,120	0,127
-702,802	3,263	0,010	-0,006
-701,787	-200,000	0,006	-0,048
-700,772	-200,000	0,013	-0,189
-699,758	46,870	-0,135	-0,092
-698,743	86,125	0,085	0,069
-697,729	-55,872	0,022	0,007
-696,714	-146,646	0,117	-0,007
-695,699	800,000	0,035	0,108
-694,685	-14,345	-0,168	-0,079
-693,670	-15,931	-0,146	-0,068
-692,656	-200,000	0,003	0,048
-691,641	800,000	0,026	0,055
-690,627	610,336	0,091	0,168
-689,612	-200,000	0,002	0,098
-688,597	-6,621	-0,114	-0,057
-687,583	-20,779	-0,044	-0,020
-686,568	148,967	-0,132	0,131
-685,554	99,993	-0,048	0,041
-684,539	49,589	0,102	0,070
-683,524	65,202	0,054	0,040
-682,510	23,740	-0,033	-0,020
-681,495	-102,638	-0,183	0,032
-680,481	-200,000	0,014	0,070
-679,466	-31,559	-0,080	-0,033
-678,451	-200,000	0,000	0,070
-677,437	-43,401	-0,191	0,071
-676,422	-200,000	-0,021	-0,074
-675,408	174,195	-0,017	-0,018
-674,393	-157,513	0,195	0,008
-673,378	289,185	-0,076	0,101
-672,364	-200,000	-0,002	-0,084
-671,349	-200,000	0,019	-0,150
-670,335	-142,091	0,152	0,011
-669,320	-58,818	0,092	-0,029
-668,305	800,000	-0,018	0,048
-667,291	-114,625	0,061	0,008
-666,276	-81,006	-0,094	0,023
-665,262	-112,373	-0,119	0,017
-664,247	-200,000	0,001	-0,108
-663,232	559,961	0,072	0,128
-662,218	-200,000	-0,011	0,097
-661,203	-200,000	0,020	-0,108
-660,189	-75,589	0,074	0,019
-659,174	84,615	-0,048	-0,038
-658,159	-200,000	0,031	0,163
-657,145	182,889	-0,111	0,120
-656,130	-5,377	-0,028	-0,014
-655,116	155,275	0,061	0,062
-654,101	800,000	0,052	0,150
-653,086	-200,000	0,004	0,111
-652,072	14,023	-0,048	-0,027
-651,057	446,485	0,043	-0,070
-650,043	-69,600	-0,038	0,011
-649,028	-22,431	0,030	0,013
-648,014	-200,000	-0,020	0,066
-646,999	703,951	0,069	0,133
-645,984	-200,000	-0,001	0,122
-644,970	333,220	-0,022	-0,031
-643,955	376,760	0,043	-0,064
-642,941	-168,343	-0,062	-0,002
-641,926	-17,471	-0,118	0,054
-640,911	-52,414	0,070	-0,024
-639,897	77,047	0,112	-0,087
-638,882	-200,000	-0,010	0,091
-637,868	137,914	-0,028	0,027
-636,853	242,239	0,021	0,026
-635,838	199,041	0,072	-0,081
-634,824	800,000	-0,012	0,027
-633,809	-50,006	0,058	-0,020
-632,795	-72,524	0,096	-0,026
-631,780	153,426	-0,055	0,055
-630,765	-111,993	-0,007	-0,001
-629,751	-20,645	-0,074	-0,033
-628,736	800,000	-0,021	-0,055
-627,722	800,000	0,024	0,050
-626,707	34,635	-0,054	-0,034
-625,692	-132,589	-0,023	-0,002
-624,678	-114,476	0,051	0,007
-623,663	-200,000	0,018	-0,072
-622,649	626,157	-0,023	0,043
-621,634	217,117	-0,049	-0,058
-620,619	-157,551	0,115	0,005
-619,605	-84,509	-0,171	-0,039
-618,590	86,433	0,068	0,055
-617,576	-9,492	0,100	-0,049
-616,561	174,038	-0,070	-0,074
-615,546	113,984	0,050	-0,044
-614,532	3,959	0,081	0,043
-613,517	-98,723	-0,133	-0,025
-612,503	-199,270	0,028	-0,000
-611,488	800,000	0,012	0,036
-610,474	363,682	0,083	0,123
-609,459	115,218	0,145	0,129
-608,444	282,357	0,071	0,094
-607,430	222,137	-0,093	-0,110
-606,415	-59,001	0,154	0,048
-605,401	-149,115	-0,047	0,003
-604,386	762,603	-0,057	0,114
-603,371	800,000	0,047	0,150
-602,357	665,486	-0,055	0,104
-601,342	-143,289	0,062	0,004
-600,328	111,732	-0,116	-0,102
-599,313	234,613	0,064	0,078
-598,298	158,706	0,146	0,148
-597,284	800,000	0,038	-0,096
-596,269	-33,102	0,100	0,040
-595,255	-200,000	-0,028	0,149
-594,240	31,869	0,149	0,094
-593,225	-161,586	-0,009	0,000
-592,211	800,000	-0,042	-0,117
-591,196	-17,876	-0,084	-0,038
-590,182	758,711	-0,052	-0,103
-589,167	-151,794	0,119	0,006
-588,152	-200,000	-0,017	0,068
-587,138	255,494	-0,009	0,011
-586,123	63,063	-0,109	-0,079
-585,109	-200,000	0,003	0,124
-584,094	-36,489	0,008	0,003
-583,079	0,861	-0,029	-0,015
-582,065	12,258	0,075	-0,042
-581,050	6,637	0,052	-0,028
-580,036	800,000	-0,017	-0,043
-579,021	25,125	-0,173	-0,105
-578,006	133,510	0,029	-0,028
-576,992	-200,000	-0,001	-0,023
-575,977	579,777	0,037	0,066
-574,963	33,973	0,119	-0,076
-573,948	-200,000	-0,019	-0,080
-572,934	326,959	0,066	0,093
-571,919	800,000	0,006	-0,016
-570,904	-200,000	0,019	-0,078
-569,890	324,576	-0,059	-0,083
-568,875	-200,000	0,040	0,156
-567,861	-123,307	-0,162	-0,019
-566,846	-93,124	-0,071	-0,014
-565,831	62,736	0,012	0,009
-564,817	-200,000	0,006	-0,042
-563,802	-139,621	-0,046	0,004
-562,788	-139,358	0,013	0,001
-561,773	99,857	0,048	-0,041
-560,758	430,276	0,027	0,043
-559,744	7,284	-0,092	0,050
-558,729	-200,000	0,000	0,024
-557,715	-182,543	0,099	-0,001
-556,700	109,729	-0,132	-0,115
-555,685	185,354	-0,102	-0,111
-554,671	101,603	0,111	-0,094
-553,656	-200,000	0,015	0,081
-552,642	28,026	0,164	0,101
-551,627	302,805	-0,029	0,040
-550,612	579,573	0,018	-0,032
-549,598	-33,088	-0,055	0,022
-548,583	-200,000	0,016	0,082
-547,569	-37,834	0,040	-0,016
-546,554	203,850	0,114	0,129
-545,539	-200,000	0,031	-0,174
-544,525	201,397	0,031	0,035
-543,510	-112,856	-0,216	0,031
-542,496	-113,021	-0,123	0,017
-541,481	254,472	-0,055	-0,069
-540,466	687,305	-0,056	-0,107
-539,452	-200,000	0,005	0,023
-538,437	-187,506	0,068	0,001
-537,423	176,614	0,018	-0,019
-536,408	610,471	0,030	-0,056
-535,393	-13,817	-0,011	-0,005
-534,379	66,607	0,036	0,027
-533,364	232,548	-0,044	-0,053
-532,350	-200,000	0,024	0,173
-531,335	800,000	0,055	-0,153
-530,321	427,948	-0,044	0,069
-529,306	-15,145	0,083	0,039
-528,291	-200,000	0,014	-0,063
-527,277	800,000	-0,029	-0,072
-526,262	298,816	0,050	-0,067
-525,248	268,946	-0,028	-0,036
-524,233	-80,423	-0,183	0,044
-523,218	-200,000	-0,006	-0,057
-522,204	-200,000	0,057	-0,197
-521,189	-63,723	-0,133	0,039
-520,175	216,783	-0,106	0,123
-519,160	-162,837	-0,040	0,001
-518,145	269,372	0,121	0,156
-517,131	-200,000	0,012	-0,082
-516,116	58,487	0,037	0,026
-515,102	618,647	-0,093	0,171
-514,087	-200,000	-0,101	0,000
-513,072	230,614	0,008	0,010
-512,058	519,758	0,037	-0,064
-511,043	-200,000	0,000	0,084
-510,029	-100,943	0,013	0,002
-509,014	214,710	-0,066	0,076
-507,999	-43,688	-0,075	-0,027
-506,985	383,355	0,062	0,093
-505,970	-200,000	0,006	-0,062
-504,956	151,407	-0,097	-0,096
-503,941	55,082	0,061	0,043
-502,926	-200,000	-0,046	-0,155
-501,912	182,248	0,040	0,044
-500,897	140,441	0,022	0,021
-499,883	261,558	-0,070	-0,088
-498,868	-91,612	0,058	-0,012
-497,853	800,000	0,011	-0,030
-496,839	-167,031	0,174	0,005
-495,824	-112,623	-0,027	-0,004
-494,810	-200,000	0,001	0,141
-493,795	159,401	0,040	-0,040
-492,781	74,167	0,086	0,066
-491,766	352,759	-0,071	-0,103
-490,751	-200,000	0,000	-0,113
-489,737	-200,000	0,022	0,133
-488,722	800,000	-0,028	0,069
-487,708	82,441	0,050	0,040
-486,693	239,560	0,067	0,082
-485,678	-189,708	0,081	-0,001
-484,664	-36,557	-0,146	-0,057
-483,649	61,504	0,007	-0,005
-482,635	194,526	0,054	-0,060
-481,620	-200,000	0,072	0,000
-480,605	224,415	0,033	0,039
-479,591	-146,933	0,140	-0,009
-478,576	16,275	-0,080	-0,046
-477,562	-157,435	-0,151	-0,006
-476,547	-11,252	0,111	0,053
-475,532	194,762	0,094	0,104
-474,518	44,126	0,036	0,024
-473,503	-173,474	0,176	-0,004
-472,489	615,116	-0,026	-0,048
-471,474	162,576	-0,087	0,089
-470,459	419,337	0,026	-0,040
-469,445	627,176	-0,037	-0,068
-468,430	-200,000	-0,002	-0,159
-467,416	276,304	0,036	0,047
-466,401	-200,000	0,010	0,082
-465,386	30,459	0,094	0,058
-464,372	437,159	0,058	-0,093
-463,357	384,436	-0,034	0,051
-462,343	800,000	0,025	-0,053
-461,328	-200,000	0,004	-0,020
-460,313	800,000	-0,037	0,082
-459,299	200,578	0,085	0,095
-458,284	300,187	0,046	0,061
-457,270	-200,000	-0,005	-0,027
-456,255	105,199	-0,083	0,071
-455,241	-47,971	0,142	-0,050
-454,226	521,273	0,042	-0,072
-453,211	236,609	0,051	-0,061
-452,197	-72,922	-0,055	-0,015
-451,182	-200,000	0,001	0,051
-450,168	-200,000	-0,005	0,038
-449,153	-141,697	0,105	-0,008
-448,138	36,983	0,062	0,040
-447,124	800,000	0,035	-0,091
-446,109	-200,000	0,006	0,075
-445,095	215,257	0,088	0,101
-444,080	-86,951	0,062	0,014
-443,065	800,000	0,016	-0,046
-442,051	-132,506	-0,090	-0,008
-441,036	-23,548	-0,126	-0,055
-440,022	664,569	0,029	0,055
-439,007	800,000	-0,021	-0,058
-437,992	-16,568	0,088	0,040
-436,978	-78,926	0,104	0,025
-435,963	-200,000	0,038	0,126
-434,949	63,720	-0,116	-0,084
-433,934	42,954	0,030	0,020
-432,919	99,006	0,095	-0,080
-431,905	8,924	-0,046	-0,025
-430,890	800,000	-0,022	0,050
-429,876	-200,000	0,011	0,062
-428,861	-44,412	0,068	0,025
-427,846	-13,687	-0,085	-0,040
-426,832	-6,523	0,006	-0,003
-425,817	80,050	-0,118	-0,092
-424,803	183,995	0,043	0,046
-423,788	-200,000	0,006	0,036
-422,773	50,446	-0,065	-0,045
-421,759	-200,000	0,026	-0,097
-420,744	408,410	-0,068	0,104
-419,730	-200,000	-0,055	0,191
-418,715	-182,781	-0,059	0,001
-417,701	-200,000	0,005	-0,201
-416,686	800,000	0,023	-0,070
-415,671	800,000	0,019	-0,052
-414,657	18,984	0,028	0,016
-413,642	-200,000	0,056	-0,195
-412,628	-34,203	-0,102	0,041
-411,613	800,000	0,015	0,032
-410,598	-83,981	-0,044	0,010
-409,584	-134,004	-0,064	-0,006
-408,569	-200,000	-0,012	-0,091
-407,555	-20,475	0,077	0,034
-406,540	593,615	-0,005	-0,009
-405,525	-200,000	0,016	0,086
-404,511	-200,000	-0,006	-0,079
-403,496	-200,000	-0,015	0,070
-402,482	-3,535	-0,066	-0,033
-401,467	-200,000	0,003	0,086
-400,452	-171,132	0,086	-0,002
-399,438	129,234	-0,092	0,085
-398,423	124,073	0,060	0,055
-397,409	-200,000	0,020	-0,089
-396,394	36,268	0,173	0,110
-395,379	429,144	-0,019	-0,030
-394,365	416,287	0,014	0,021
-393,350	-29,456	0,092	-0,038
-392,336	-87,252	0,093	0,020
-391,321	-3,420	-0,140	0,071
-390,306	800,000	-0,048	0,123
-389,292	-200,000	0,011	-0,118
-388,277	-200,000	0,003	0,028
-387,263	-200,000	0,014	-0,098
-386,248	363,256	0,046	-0,067
-385,233	800,000	0,013	-0,042
-384,219	-200,000	0,041	0,163
-383,204	3,764	-0,150	0,079
-382,190	460,059	-0,024	-0,039
-381,175	-43,949	0,123	0,045
-380,160	-73,925	-0,067	-0,017
-379,146	113,109	-0,121	0,106
-378,131	-200,000	-0,028	0,144
-377,117	5,588	0,048	0,026
-376,102	800,000	-0,054	-0,171
-375,088	-47,508	-0,238	-0,083
-374,073	800,000	0,022	0,045
-373,058	-172,649	-0,121	0,003
-372,044	-13,056	0,035	0,017
-371,029	53,721	0,067	0,046
-370,015	58,573	-0,007	-0,005
-369,000	-200,000	-0,024	0,237
-367,985	-104,713	-0,138	-0,023
-366,971	82,606	0,016	0,012
-365,956	749,837	-0,062	0,122
-364,942	385,144	0,061	0,091
-363,927	33,840	-0,068	-0,043
-362,912	-200,000	-0,001	0,064
-361,898	-200,000	-0,024	-0,099
-360,883	800,000	-0,038	-0,121
-359,869	138,061	0,043	-0,041
-358,854	126,033	0,073	0,067
-357,839	800,000	0,019	0,057
-356,825	-200,000	-0,028	0,151
-355,810	53,668	-0,113	-0,079
-354,796	-200,000	-0,009	-0,064
-353,781	96,774	-0,083	-0,069
-352,766	-2,461	-0,161	-0,082
-351,752	800,000	-0,016	0,036
-350,737	-200,000	0,010	0,132
-349,723	-37,080	-0,118	0,046
-348,708	440,385	0,032	-0,050
-347,693	137,059	-0,127	-0,120
-346,679	-8,679	-0,056	-0,027
-345,664	-169,919	-0,026	-0,001
-344,650	63,128	0,117	0,085
-343,635	800,000	-0,044	0,133
-342,620	20,813	0,058	-0,034
-341,606	800,000	0,024	-0,052
-340,591	-200,000	-0,020	-0,304
-339,577	-200,000	-0,020	-0,072
-338,562	-200,000	0,003	-0,054
-337,548	507,661	-0,070	-0,118
-336,533	-96,660	0,114	0,022
-335,518	56,185	-0,011	-0,008
-334,504	181,523	0,077	-0,082
-333,489	21,120	-0,037	0,022
-332,475	-200,000	-0,020	0,183
-331,460	463,872	-0,027	0,044
-330,445	-200,000	0,031	0,106
-329,431	-129,756	-0,121	0,012
-328,416	-93,458	0,057	0,011
-327,402	149,047	0,015	0,015
-326,387	239,653	0,066	-0,080
-325,372	-40,193	-0,099	0,037
-324,358	144,486	-0,083	-0,080
-323,343	-200,000	-0,005	-0,140
-322,329	-200,000	0,000	0,078
-321,314	135,111	0,076	0,072
-320,299	-12,748	-0,108	-0,051
-319,285	285,124	0,078	0,102
-318,270	461,826	0,026	0,042
-317,256	-200,000	0,014	0,116
-316,241	-33,913	-0,106	0,042
-315,226	2,682	0,152	0,079
-314,212	157,664	0,057	-0,057
-313,197	-101,267	-0,053	0,009
-312,183	408,335	-0,022	0,033
-311,168	-41,192	-0,101	-0,037
-310,153	-200,000	-0,058	-0,215
-309,139	487,656	-0,025	-0,041
-308,124	-13,276	0,083	-0,039
-307,110	485,002	-0,102	0,169
-306,095	-200,000	0,005	-0,144
-305,080	-23,667	0,123	-0,053
-304,066	-200,000	-0,016	0,071
-303,051	-200,000	0,008	-0,045
-302,037	49,537	-0,148	0,101
-301,022	-152,707	0,038	0,002
-300,008	800,000	0,052	0,111
-298,993	-200,000	-0,028	-0,120
-297,978	800,000	-0,031	-0,083
-296,964	-87,572	-0,123	-0,027
-295,949	-23,678	-0,122	0,052
-294,935	800,000	0,006	0,017
-293,920	-171,500	0,092	0,002
-292,905	7,565	-0,053	0,029
-291,891	161,035	0,134	-0,136
-290,876	235,428	-0,035	-0,042
-289,862	800,000	0,013	-0,031
-288,847	-200,000	0,019	-0,063
-287,832	800,000	0,020	-0,040
-286,818	800,000	0,018	-0,044
-285,803	426,555	-0,078	-0,122
-284,789	374,841	-0,027	0,040
-283,774	486,821	0,066	0,109
-282,759	-97,181	0,059	-0,011
-281,745	-4,075	-0,067	0,033
-280,730	163,262	0,034	0,035
-279,716	-200,000	-0,014	-0,103
-278,701	-200,000	0,027	-0,143
-277,686	-51,775	0,106	0,036
-276,672	-39,532	-0,064	-0,024
-275,657	86,307	0,036	-0,028
-274,643	85,201	-0,113	-0,090
-273,628	-87,671	-0,108	0,023
-272,613	-181,215	-0,039	-0,001
-271,599	212,813	0,096	-0,109
-270,584	-200,000	0,010	0,070
-269,570	175,792	-0,081	-0,085
-268,555	71,746	-0,117	0,088
-267,540	-200,000	0,009	0,050
-266,526	15,702	-0,074	0,042
-265,511	-49,844	-0,074	-0,025
-264,497	-200,000	-0,016	0,083
-263,482	-200,000	-0,014	-0,065
-262,467	-200,000	0,009	0,105
-261,453	-14,397	0,122	0,056
-260,438	-200,000	-0,006	0,050
-259,424	340,233	0,027	0,038
-258,409	75,248	0,073	0,055
-257,395	553,891	-0,016	0,028
-256,380	-4,754	0,024	-0,012
-255,365	7,311	0,083	0,044
-254,351	182,234	0,057	0,061
-253,336	373,870	0,034	-0,050
-252,322	30,328	0,087	-0,054
-251,307	800,000	-0,043	-0,117
-250,292	199,036	0,061	0,067
-249,278	-102,001	0,099	0,017
-248,263	-200,000	-0,016	0,053
-247,249	-200,000	-0,003	0,090
-246,234	-200,000	-0,022	-0,209
-245,219	-145,623	0,141	-0,009
-244,205	-22,063	0,046	-0,020
-243,190	167,160	-0,081	0,083
-242,176	-102,758	0,093	0,016
-241,161	-63,992	0,080	-0,023
-240,146	217,838	0,067	0,077
-239,132	800,000	-0,047	-0,124
-238,117	-121,130	-0,079	-0,009
-237,103	-134,761	0,073	0,006
-236,088	499,676	-0,029	0,048
-235,073	800,000	-0,017	0,040
-234,059	-200,000	0,003	-0,087
-233,044	-39,752	-0,062	0,023
-232,030	-80,337	-0,121	-0,029
-231,015	800,000	0,016	-0,036
-230,000	-200,000	-0,004	-0,102
-228,986	64,131	0,046	-0,033
-227,971	68,569	0,088	-0,065
-226,957	-81,899	-0,094	-0,022
-225,942	348,781	0,054	-0,077
-224,927	-200,000	0,009	-0,039
-223,913	-200,000	-0,025	-0,092
-222,898	800,000	0,044	-0,100
-221,884	-200,000	0,031	0,136
-220,869	75,497	0,103	-0,079
-219,855	-200,000	-0,000	0,121
-218,840	-30,593	0,060	-0,024
-217,825	800,000	-0,030	-0,064
-216,811	86,335	-0,092	-0,073
-215,796	-84,650	-0,033	-0,007
-214,782	-200,000	-0,020	-0,070
-213,767	800,000	-0,049	0,100
-212,752	800,000	0,049	0,157
-211,738	800,000	-0,052	0,107
-210,723	-80,230	-0,113	0,027
-209,709	-53,865	-0,064	-0,021
-208,694	-200,000	0,024	-0,171
-207,679	800,000	-0,027	-0,054
-206,665	-200,000	0,002	-0,013
-205,650	206,981	0,092	-0,104
-204,636	-34,071	0,049	0,019
-203,621	-56,636	0,063	-0,020
-202,606	-16,929	-0,109	-0,049
-201,592	65,876	-0,019	-0,014
-200,577	2,836	-0,056	0,029
-199,563	-87,158	-0,040	0,009
-198,548	-200,000	0,008	0,094
-197,533	49,211	0,101	-0,068
-196,519	221,743	0,113	0,131
-195,504	800,000	-0,040	-0,087
-194,490	375,746	-0,044	-0,065
-193,475	688,446	0,032	0,060
-192,460	-102,045	-0,119	-0,021
-191,446	-6,397	0,080	0,039
-190,431	-200,000	0,024	-0,111
-189,417	-200,000	-0,001	-0,085
-188,402	126,054	-0,074	0,067
-187,387	-128,957	0,046	-0,005
-186,373	32,307	-0,102	0,063
-185,358	-200,000	-0,016	-0,149
-184,344	158,790	0,086	0,086
-183,329	235,026	-0,029	-0,035
-182,315	12,955	0,150	-0,083
-181,300	274,817	-0,136	0,174
-180,285	108,582	-0,052	0,045
-179,271	61,003	0,039	-0,028
-178,256	362,323	0,055	0,080
-177,242	21,530	0,086	0,050
-176,227	240,266	0,017	0,020
-175,212	-200,000	0,000	-0,107
-174,198	24,353	0,044	0,026
-173,183	369,199	-0,044	-0,064
-172,169	43,508	0,044	0,029
-171,154	440,438	0,028	-0,043
-170,139	113,459	-0,063	-0,055
-169,125	800,000	-0,031	0,071
-168,110	108,895	-0,064	-0,055
-167,096	-157,030	0,285	0,012
-166,081	-144,873	-0,143	-0,009
-165,066	349,606	-0,074	-0,105
-164,052	-62,646	-0,152	0,045
-163,037	479,120	0,040	-0,065
-162,023	-200,000	-0,004	-0,079
-161,008	-133,371	-0,034	-0,003
-159,993	38,182	0,113	0,072
-158,979	244,016	-0,051	0,062
-157,964	-5,151	-0,063	0,031
-156,950	574,693	-0,038	0,067
-155,935	234,312	0,090	0,107
-154,920	-111,848	-0,213	-0,031
-153,906	96,046	0,028	0,023
-152,891	800,000	-0,036	-0,107
-151,877	-80,412	-0,143	0,034
-150,862	-79,470	0,079	0,019
-149,847	800,000	0,034	-0,072
-148,833	-152,003	0,075	0,004
-147,818	-101,037	0,060	-0,010
-146,804	-78,258	0,116	-0,028
-145,789	-200,000	-0,011	0,153
-144,775	-8,588	-0,026	-0,012
-143,760	-27,351	-0,136	0,056
-142,745	92,717	-0,088	-0,071
-141,731	-200,000	-0,004	0,130
-140,716	-87,567	-0,162	0,035
-139,702	651,451	-0,013	0,025
-138,687	31,767	0,019	0,012
-137,672	-200,000	0,011	0,054
-136,658	-200,000	0,021	-0,128
-135,643	421,920	-0,052	-0,081
-134,629	-75,878	0,047	-0,012
-133,614	274,351	0,081	0,103
-132,599	-78,579	-0,132	0,032
-131,585	-200,000	0,002	-0,079
-130,570	800,000	0,031	-0,063
-129,556	-200,000	-0,011	0,056
-128,541	-103,544	-0,091	-0,015
-127,526	800,000	0,058	-0,117
-126,512	-200,000	0,011	0,084
-125,497	-161,544	0,104	0,004
-124,483	800,000	-0,012	0,038
-123,468	-200,000	0,009	-0,126
-122,453	-122,800	-0,156	-0,018
-121,439	-200,000	0,003	-0,011
-120,424	-61,536	0,104	-0,031
-119,410	115,868	-0,011	0,010
-118,395	129,270	-0,042	-0,038
-117,380	24,723	-0,126	0,075
-116,366	800,000	-0,019	-0,053
-115,351	-104,075	-0,052	-0,009
-114,337	126,820	0,057	0,052
-113,322	-36,862	-0,106	0,041
-112,307	-200,000	0,031	0,130
-111,293	24,935	0,158	-0,094
-110,278	-200,000	-0,012	-0,098
-109,264	198,033	-0,073	0,080
-108,249	-200,000	-0,000	-0,031
-107,234	-200,000	0,004	0,099
-106,220	261,808	-0,066	-0,082
-105,205	-86,182	-0,117	0,026
-104,191	-9,116	-0,112	0,054
-103,176	44,791	-0,083	-0,055
-102,162	800,000	0,058	0,140
-101,147	605,624	0,033	-0,059
-100,132	-124,039	-0,111	0,012
-99,118	-156,491	0,103	-0,005
-98,103	800,000	-0,062	-0,135
-97,089	207,297	0,050	0,056
-96,074	-91,739	0,061	0,012
-95,059	130,172	0,027	-0,025
-94,045	-48,609	-0,090	0,031
-93,030	175,975	-0,079	-0,082
-92,016	-200,000	0,003	0,151
-91,001	-155,114	0,096	-0,004
-89,986	-147,857	-0,071	0,004
-88,972	741,836	0,051	-0,099
-87,957	161,981	-0,099	0,100
-86,943	-200,000	-0,002	0,086
-85,928	788,492	-0,051	-0,100
-84,913	-61,888	0,066	-0,020
-83,899	232,203	-0,028	-0,033
-82,884	-15,197	0,057	-0,026
-81,870	149,548	-0,092	0,090
-80,855	-122,387	-0,035	-0,004
-79,840	-130,105	0,045	-0,004
-78,826	800,000	0,054	-0,146
-77,811	800,000	0,007	0,020
-76,797	-200,000	-0,059	0,227
-75,782	237,786	-0,074	0,088
-74,767	-200,000	0,020	0,068
-73,753	-55,951	0,076	0,024
-72,738	735,392	0,049	0,094
-71,724	101,651	-0,112	-0,094
-70,709	200,937	-0,017	-0,019
-69,694	-134,391	-0,085	0,007
-68,680	-95,645	-0,098	-0,019
-67,665	-200,000	-0,017	0,066
-66,651	-200,000	0,009	0,149
-65,636	523,830	0,121	0,205
-64,622	-175,381	0,090	0,002
-63,607	800,000	-0,022	0,064
-62,592	-93,163	-0,115	-0,023
-61,578	37,120	0,070	0,044
-60,563	-130,326	0,215	0,021
-59,549	-95,730	-0,051	0,010
-58,534	31,402	-2,220	-1,363
-57,519	-200,000	0,014	-0,595
-56,505	-200,000	-1,508	-5,272
-55,490	100,758	0,940	0,782
-54,476	800,000	5,415	12,227
-53,461	-200,000	18,839	319,329
-52,446	800,000	741,164	2324,228
-51,432	549,634	1654,871	2851,819
-50,417	109,926	1637,329	1406,154
-49,403	73,493	1288,208	964,682
-48,388	29,550	1029,620	625,557
-47,373	19,616	992,662	570,259
-46,359	16,918	980,361	554,309
-45,344	13,551	976,453	541,029
-44,330	13,835	974,938	541,100
-43,315	13,251	973,003	538,095
-42,300	13,216	971,994	537,400
-41,286	13,193	971,026	536,769
-40,271	13,222	970,113	536,337
-39,257	13,201	969,160	535,719
-38,242	13,137	968,462	535,105
-37,227	13,224	967,495	534,832
-36,213	13,180	966,561	534,152
-35,198	13,147	965,765	533,583
-34,184	13,273	965,070	533,587
-33,169	13,141	964,080	532,591
-32,154	13,246	963,100	532,368
-31,140	13,208	962,084	531,664
-30,125	13,191	961,640	531,341
-29,111	13,241	960,597	530,906
-28,096	13,233	959,913	530,481
-27,082	13,209	959,285	530,035
-26,067	13,198	958,522	529,556
-25,052	13,151	957,957	529,072
-24,038	13,175	957,018	528,610
-23,023	13,195	956,496	528,364
-22,009	13,290	955,865	528,302
-20,994	13,244	955,180	527,752
-19,979	13,186	954,551	527,200
-18,965	13,250	953,795	526,966
-17,950	13,136	953,538	526,437
-16,936	13,221	952,700	526,226
-15,921	13,174	952,085	525,715
-14,906	13,063	951,369	524,943
-13,892	13,138	950,613	524,745
-12,877	13,137	949,928	524,343
-11,863	13,044	949,605	523,848
-10,848	13,071	948,929	523,540
-9,833	13,170	948,499	523,596
-8,819	13,139	947,844	523,115
-7,804	13,148	947,063	522,694
-6,790	13,155	946,595	522,435
-5,775	13,181	945,708	522,007
-4,760	13,121	945,371	521,611
-3,746	13,069	944,841	521,134
-2,731	12,916	944,047	520,190
-1,717	12,958	943,238	519,854
-0,702	12,936	942,680	519,458
0,313	12,759	942,103	519,364
1,327	16,199	939,591	528,797
2,342	25,225	790,256	468,536
3,356	21,125	445,103	257,794
4,371	-7,901	298,006	143,345
5,386	-11,496	279,818	131,149
6,400	-12,880	274,226	127,219
7,415	-13,062	271,884	125,952
8,429	-13,168	270,370	125,142
9,444	-13,182	269,473	124,703
10,459	-13,191	268,916	124,425
11,473	-13,139	268,331	124,192
12,488	-13,263	267,545	123,703
13,502	-13,510	267,017	123,223
14,517	-13,423	266,614	123,105
15,531	-13,330	266,161	122,969
16,546	-13,104	265,926	123,055
17,561	-13,416	265,590	122,605
18,575	-13,311	265,242	122,529
19,590	-13,251	264,704	122,324
20,604	-13,277	264,547	122,217
21,619	-13,257	264,114	122,024
22,634	-13,419	263,798	121,721
23,648	-13,607	263,520	121,414
24,663	-13,499	263,362	121,426
25,677	-13,384	263,060	121,380
26,692	-13,314	262,610	121,224
27,707	-13,376	262,275	121,003
28,721	-13,303	262,069	120,963
29,736	-13,252	261,847	120,894
30,750	-13,469	261,683	120,615
31,765	-13,288	261,327	120,601
32,780	-13,450	261,147	120,363
33,794	-13,423	260,834	120,233
34,809	-13,388	260,574	120,133
35,823	-13,437	260,363	119,981
36,838	-13,381	260,068	119,885
37,853	-13,433	259,836	119,720
38,867	-13,535	259,656	119,536
39,882	-13,418	259,266	119,450
40,896	-13,540	259,197	119,299
41,911	-13,618	258,929	119,097
42,926	-13,293	258,551	119,199
43,940	-13,600	258,386	118,841
44,955	-13,679	258,133	118,645
45,969	-13,750	257,969	118,497
46,984	-13,703	257,736	118,420
47,999	-14,026	257,329	117,940
49,013	-14,175	257,216	117,747
50,028	-14,279	256,929	117,514
51,042	-14,310	256,640	117,344
52,057	-14,357	256,335	117,153
53,071	-14,272	256,194	117,152
54,086	-14,123	256,019	117,192
55,101	-14,119	255,825	117,096
56,115	-13,946	255,887	117,264
57,130	-13,534	255,750	117,551
58,144	-13,484	255,583	117,506
59,159	-13,383	255,280	117,444
60,174	-13,303	254,953	117,353
61,188	-13,478	254,715	117,082
62,203	-13,459	254,542	117,008
63,217	-13,407	254,363	116,960
64,232	-13,391	254,244	116,909
65,247	-13,440	253,973	116,731
66,261	-13,242	253,630	116,734
67,276	-13,596	253,442	116,332
68,290	-13,881	253,205	115,968
69,305	-13,976	252,790	115,685
70,320	-14,048	252,808	115,621
71,334	-13,453	252,580	116,018
72,349	-13,325	252,498	116,080
73,363	-13,423	252,390	115,935
74,378	-13,461	252,125	115,771
75,393	-13,404	251,827	115,673
76,407	-13,526	251,659	115,481
77,422	-13,316	251,158	115,420
78,436	-13,532	251,193	115,241
79,451	-13,447	250,888	115,164
80,466	-13,596	250,641	114,913
81,480	-13,602	250,460	114,815
82,495	-13,723	250,103	114,538
83,509	-13,658	250,130	114,596
84,524	-13,638	249,782	114,442
85,539	-13,889	249,463	114,074
86,553	-13,675	249,444	114,236
87,568	-13,777	249,304	114,075
88,582	-13,716	248,999	113,977
89,597	-13,740	248,746	113,831
90,611	-13,696	248,650	113,814
91,626	-13,598	248,618	113,872
92,641	-13,452	248,446	113,906
93,655	-13,558	248,132	113,663
94,670	-13,774	247,961	113,392
95,684	-13,621	247,725	113,403
96,699	-13,605	247,533	113,319
97,714	-13,553	247,283	113,238
98,728	-13,734	247,045	112,967
99,743	-13,884	246,974	112,798
100,757	-13,810	246,794	112,768
101,772	-13,805	246,367	112,567
102,787	-13,918	246,475	112,512
103,801	-13,647	246,269	112,635
104,816	-13,538	246,102	112,638
105,830	-13,505	245,849	112,540
106,845	-13,486	245,771	112,510
107,860	-13,510	245,592	112,398
108,874	-13,417	245,223	112,297
109,889	-13,566	245,079	112,098
110,903	-13,694	244,931	111,914
111,918	-13,756	244,642	111,720
112,933	-13,687	244,522	111,712
113,947	-13,381	244,367	111,885
114,962	-13,366	244,093	111,762
115,976	-13,471	244,030	111,636
116,991	-13,442	243,909	111,595
118,006	-13,381	243,622	111,504
119,020	-13,381	243,577	111,473
120,035	-13,376	243,471	111,419
121,049	-13,529	243,286	111,198
122,064	-13,416	242,988	111,145
123,079	-13,469	242,878	111,042
124,093	-13,393	242,544	110,941
125,108	-13,777	242,304	110,507
126,122	-13,790	242,071	110,380
127,137	-14,106	241,852	110,012
128,151	-13,841	241,686	110,143
129,166	-13,819	241,557	110,092
130,181	-13,931	241,289	109,869
131,195	-13,881	241,130	109,828
132,210	-13,694	240,920	109,874
133,224	-13,565	240,989	110,001
134,239	-13,338	240,672	110,031
135,254	-13,593	240,802	109,874
136,268	-13,668	240,277	109,564
137,283	-13,950	240,002	109,199
138,297	-14,143	239,852	108,965
139,312	-13,765	239,569	109,133
140,327	-13,550	239,523	109,277
141,341	-13,253	239,677	109,577
142,356	-13,220	239,491	109,509
143,370	-13,243	239,191	109,344
144,385	-13,321	239,100	109,229
145,400	-13,174	238,922	109,257
146,414	-13,093	238,637	109,182
147,429	-13,199	238,512	109,030
148,443	-13,225	238,272	108,889
149,458	-13,381	238,344	108,787
150,473	-13,197	237,891	108,719
151,487	-13,157	237,668	108,638
152,502	-13,116	237,644	108,651
153,516	-13,243	237,552	108,497
154,531	-13,426	237,461	108,300
155,546	-13,234	237,008	108,237
156,560	-13,444	236,976	108,044
157,575	-13,426	236,666	107,908
158,589	-13,327	236,373	107,844
159,604	-13,065	236,510	108,106
160,619	-13,157	236,243	107,901
161,633	-13,010	236,043	107,917
162,648	-12,902	235,841	107,901
163,662	-13,196	235,731	107,607
164,677	-13,341	235,543	107,396
165,692	-13,389	235,511	107,334
166,706	-13,305	235,323	107,306
167,721	-13,099	235,203	107,405
168,735	-12,948	235,066	107,452
169,750	-13,077	234,770	107,205
170,764	-13,105	234,665	107,125
171,779	-13,151	234,604	107,051
172,794	-13,139	234,457	106,984
173,808	-13,378	234,118	106,632
174,823	-13,665	233,866	106,282
175,837	-13,762	233,632	106,089
176,852	-13,383	233,781	106,446
177,867	-13,324	233,634	106,416
178,881	-13,233	233,429	106,384
179,896	-13,170	233,381	106,403
180,910	-12,799	233,002	106,512
181,925	-13,035	232,930	106,284
182,940	-13,028	232,799	106,220
183,954	-13,029	232,619	106,128
184,969	-12,997	232,523	106,100
185,983	-13,020	232,357	105,996
186,998	-12,918	232,172	105,982
188,013	-12,887	231,943	105,892
189,027	-13,008	231,870	105,756
190,042	-13,095	231,703	105,602
191,056	-13,021	231,448	105,534
192,071	-13,046	231,409	105,488
193,086	-12,987	231,242	105,448
194,100	-13,050	231,142	105,344
195,115	-13,347	230,644	104,877
196,129	-13,180	230,812	105,074
197,144	-7,897	232,500	109,959
198,159	-2,535	234,140	114,931
199,173	1,872	235,522	119,067
200,188	2,851	235,474	119,801
201,202	2,709	235,354	119,618
202,217	2,864	235,195	119,647
203,232	3,209	235,042	119,829
204,246	2,933	234,921	119,541
205,261	3,313	234,751	119,741
206,275	3,334	234,667	119,704
207,290	3,259	234,514	119,557
208,304	3,235	234,562	119,552
209,319	3,287	234,096	119,344
210,334	3,042	234,095	119,142
211,348	3,052	233,722	118,949
212,363	2,605	233,547	118,502
213,377	2,241	233,452	118,160
214,392	2,286	233,222	118,069
215,407	2,462	233,078	118,121
216,421	2,621	232,826	118,107
217,436	2,526	232,695	117,955
218,450	2,122	232,746	117,658
219,465	2,157	232,442	117,521
220,480	2,271	232,227	117,490
221,494	2,207	232,130	117,381
222,509	2,645	232,009	117,647
223,523	2,633	231,888	117,566
224,538	2,307	231,660	117,189
225,553	2,508	231,365	117,183
226,567	2,621	231,281	117,218
227,582	2,777	231,328	117,351
228,596	2,704	231,248	117,245
229,611	2,589	230,949	116,994
230,626	2,240	230,600	116,539
231,640	2,406	230,450	116,580
232,655	2,721	230,470	116,821
233,669	2,837	230,426	116,877
234,684	2,934	230,305	116,880
235,699	2,779	230,164	116,679
236,713	2,665	230,046	116,522
237,728	2,524	229,571	116,163
238,742	2,601	229,367	116,108
239,757	2,704	229,366	116,176
240,772	2,329	229,280	115,837
241,786	2,314	229,139	115,743
242,801	2,445	229,163	115,844
243,815	2,928	228,973	116,106
244,830	3,019	228,773	116,063
245,844	2,485	228,494	115,506
246,859	2,417	228,320	115,356
247,874	2,710	228,323	115,569
248,888	2,703	228,108	115,445
249,903	2,674	227,961	115,339
250,917	2,323	227,794	114,978
251,932	2,445	227,581	114,953
252,947	2,344	227,442	114,796
253,961	2,498	227,150	114,754
254,976	2,268	227,207	114,600
255,990	2,708	227,135	114,885
257,005	2,724	227,017	114,827
258,020	2,699	226,696	114,635
259,034	2,652	226,676	114,579
260,049	2,820	226,479	114,596
261,063	2,628	226,427	114,415
262,078	2,944	226,312	114,585
263,093	3,035	226,143	114,557
264,107	2,884	225,914	114,317
265,122	2,683	225,992	114,196
266,136	2,945	225,886	114,328
267,151	2,968	225,520	114,150
268,166	2,637	225,232	113,747
269,180	2,390	224,983	113,427
270,195	2,258	224,962	113,309
271,209	2,386	224,775	113,299
272,224	2,592	224,756	113,433
273,239	2,569	224,593	113,323
274,253	2,615	224,258	113,178
275,268	2,322	224,225	112,934
276,282	2,129	224,192	112,764
277,297	2,162	223,955	112,659
278,312	2,466	223,716	112,754
279,326	2,390	223,755	112,707
280,341	2,513	223,537	112,678
281,355	2,742	223,406	112,772
282,370	2,580	223,336	112,607
283,384	2,252	223,066	112,218
284,399	1,963	222,816	111,869
285,414	2,336	222,669	112,061
286,428	2,439	222,689	112,136
287,443	2,681	222,661	112,291
288,457	2,538	222,587	112,138
289,472	2,353	222,239	111,817
290,487	1,865	222,125	111,390
291,501	1,885	221,812	111,239
292,516	2,191	221,606	111,350
293,530	2,117	221,568	111,267
294,545	2,174	221,489	111,258
295,560	2,615	221,363	111,508
296,574	2,452	221,293	111,343
297,589	2,551	221,135	111,327
298,603	2,722	221,001	111,374
299,618	2,527	220,998	111,220
300,633	2,760	220,742	111,252
301,647	2,688	220,641	111,138
302,662	2,783	220,496	111,125
303,676	2,946	220,352	111,160
304,691	2,815	220,194	110,976
305,706	2,738	220,037	110,831
306,720	2,931	219,821	110,853
307,735	2,525	219,746	110,509
308,749	2,429	219,569	110,341
309,764	2,616	219,433	110,399
310,779	2,892	219,389	110,566
311,793	2,765	219,105	110,322
312,808	2,738	219,013	110,246
313,822	2,421	218,945	109,973
314,837	2,312	218,891	109,857
315,852	2,477	218,474	109,757
316,866	2,663	218,376	109,832
317,881	2,641	218,315	109,776
318,895	2,267	218,294	109,486
319,910	2,021	218,012	109,158
320,925	2,208	217,683	109,118
321,939	1,751	217,462	108,669
322,954	1,921	217,508	108,805
323,968	2,649	217,469	109,298
324,983	2,835	217,315	109,344
325,997	2,647	217,144	109,113
327,012	2,507	217,181	109,022
328,027	2,744	217,020	109,101
329,041	2,835	217,004	109,148
330,056	2,928	216,737	109,071
331,070	2,753	216,445	108,789
332,085	2,567	216,207	108,527
333,100	2,285	216,234	108,330
334,114	2,654	216,034	108,483
335,129	2,850	215,914	108,553
336,143	2,730	215,668	108,334
337,158	2,264	215,723	108,021
338,173	2,195	215,602	107,902
339,187	2,277	215,297	107,798
340,202	2,355	215,362	107,876
341,216	2,437	215,152	107,819
342,231	2,714	215,011	107,935
343,246	2,335	214,880	107,591
344,260	2,532	214,799	107,680
345,275	2,592	214,775	107,701
346,289	2,792	214,557	107,723
347,304	2,544	214,374	107,448
348,319	2,356	214,279	107,257
349,333	2,618	214,015	107,300
350,348	2,695	213,910	107,292
351,362	2,923	213,716	107,345
352,377	2,864	213,708	107,290
353,392	2,831	213,436	107,121
354,406	2,696	213,517	107,057
355,421	198,294	1314,146	1395,937
356,435	158,703	1448,185	1395,881
