DTS Sentinel unit serial number:	SN410029Multiplexer serial number:	ORYXHardware model number:	OX2-SRSoftware version number:	ORYX F/W v4,00 Oryx Data Collector v3.7.2.0data status	okinstallation	B6 Nyhavnadifferential loss correction	single-endedforward channel	channel 2reverse channel	N/Adate	2023/12/09time	01:00:08forward acquisition time	300,00reverse acquisition time	0,00gamma	499,1914k internal	0,3156k external	0,3156temperature offset calibration	1,0000default loss term (dB/km)	0,3820temperature slope calibration	1,0000multiplexer offset coefficient	1,0000multiplexer slope coefficient	1,0000fibre end	0,00T internal ref (°C)	15,69T ext. ref 1 (°C)	-0,67T ext. ref 2 (°C)	-0,66length (m)	temperature (°C)	Stokes	anti-Stokes-744,400	-66,702	0,103	0,030
-743,385	-152,650	-0,352	0,018
-742,371	111,022	0,121	0,108
-741,356	-143,198	-0,204	-0,014
-740,342	-16,196	0,110	0,051
-739,327	-57,805	-0,467	-0,150
-738,312	183,360	0,104	0,113
-737,298	-109,601	-0,224	0,034
-736,283	-147,530	0,118	-0,007
-735,269	-173,342	-0,220	0,005
-734,254	409,907	0,054	0,084
-733,239	-58,902	-0,463	-0,147
-732,225	-172,610	0,209	-0,005
-731,210	352,371	-0,055	-0,081
-730,196	-200,000	-0,018	-0,068
-729,181	-200,000	0,039	-0,159
-728,167	45,890	0,045	0,030
-727,152	800,000	0,024	-0,071
-726,137	-200,000	-0,038	-0,247
-725,123	58,583	-0,100	0,072
-724,108	263,820	-0,028	-0,036
-723,094	280,506	-0,107	-0,141
-722,079	-200,000	0,014	-0,050
-721,064	30,448	0,072	0,045
-720,050	3,339	0,083	-0,045
-719,035	51,352	0,020	0,014
-718,021	800,000	0,028	0,072
-717,006	-100,679	0,021	-0,004
-715,991	368,009	0,131	-0,195
-714,977	256,407	-0,092	-0,116
-713,962	365,252	-0,019	0,028
-712,948	-183,939	0,060	0,001
-711,933	-180,153	-0,115	0,002
-710,918	109,945	-0,026	-0,023
-709,904	224,244	-0,028	0,033
-708,889	523,721	-0,024	-0,042
-707,875	159,887	0,016	-0,016
-706,860	26,571	0,027	-0,016
-705,845	800,000	-0,035	0,102
-704,831	800,000	0,016	-0,049
-703,816	-129,185	0,105	0,011
-702,802	18,240	-0,065	0,038
-701,787	211,701	-0,080	-0,093
-700,772	186,429	0,058	-0,064
-699,758	-200,000	-0,012	-0,153
-698,743	-200,000	-0,025	-0,089
-697,729	35,252	-0,083	0,054
-696,714	403,083	-0,019	-0,029
-695,699	-12,440	-0,147	0,070
-694,685	-32,710	-0,102	-0,042
-693,670	85,560	-0,079	-0,064
-692,656	800,000	0,049	-0,105
-691,641	-200,000	0,039	0,147
-690,627	13,431	0,136	0,077
-689,612	-200,000	0,026	0,112
-688,597	271,687	0,033	-0,043
-687,583	-25,436	-0,216	-0,094
-686,568	1,118	0,135	-0,071
-685,554	114,734	0,092	-0,083
-684,539	800,000	0,026	-0,082
-683,524	-26,424	0,119	0,051
-682,510	186,913	-0,026	0,028
-681,495	-59,099	-0,134	0,042
-680,481	330,519	0,060	-0,086
-679,466	800,000	0,021	0,048
-678,451	-200,000	0,023	-0,167
-677,437	58,254	-0,021	-0,015
-676,422	-102,871	0,095	-0,016
-675,408	357,289	0,043	0,063
-674,393	800,000	0,013	-0,040
-673,378	800,000	0,022	0,057
-672,364	-200,000	0,014	-0,066
-671,349	36,502	-0,061	0,039
-670,335	-186,397	0,080	0,001
-669,320	800,000	-0,037	0,104
-668,305	21,358	0,155	-0,092
-667,291	-200,000	-0,001	0,005
-666,276	446,977	-0,043	0,069
-665,262	800,000	-0,017	-0,049
-664,247	800,000	-0,047	-0,123
-663,232	184,589	-0,072	-0,079
-662,218	157,263	0,076	-0,077
-661,203	248,428	-0,134	0,168
-660,189	67,157	-0,127	0,095
-659,174	412,074	-0,075	-0,118
-658,159	800,000	-0,055	-0,171
-657,145	-96,676	-0,015	0,003
-656,130	-200,000	0,006	-0,073
-655,116	393,728	0,042	0,064
-654,101	-200,000	-0,010	-0,051
-653,086	192,088	0,049	0,055
-652,072	800,000	0,035	0,085
-651,057	190,379	-0,182	-0,201
-650,043	-200,000	0,001	-0,184
-649,028	-200,000	-0,000	-0,144
-648,014	-47,537	0,077	0,027
-646,999	800,000	0,034	0,092
-645,984	-139,971	0,052	0,004
-644,970	800,000	-0,031	-0,078
-643,955	70,662	0,020	-0,015
-642,941	497,583	-0,043	-0,072
-641,926	40,575	-0,118	-0,078
-640,911	124,965	0,106	-0,098
-639,897	800,000	0,037	0,086
-638,882	-38,095	-0,078	-0,030
-637,868	35,653	0,101	0,065
-636,853	80,632	-0,040	0,032
-635,838	-84,348	-0,067	0,016
-634,824	-200,000	-0,027	-0,173
-633,809	800,000	0,032	-0,101
-632,795	284,698	0,037	0,049
-631,780	-200,000	0,015	0,106
-630,765	23,146	-0,020	-0,012
-629,751	50,990	-0,046	0,032
-628,736	106,669	-0,093	-0,081
-627,722	26,428	0,071	-0,044
-626,707	-138,767	-0,087	-0,007
-625,692	100,094	-0,025	0,021
-624,678	671,572	-0,062	0,118
-623,663	768,475	0,028	-0,056
-622,649	-46,183	-0,083	0,030
-621,634	476,902	0,032	-0,053
-620,619	-200,000	-0,019	-0,070
-619,605	-146,624	-0,118	0,007
-618,590	-200,000	0,011	0,051
-617,576	252,343	0,078	-0,098
-616,561	-200,000	-0,006	-0,049
-615,546	126,032	-0,067	-0,062
-614,532	-54,947	0,010	-0,003
-613,517	51,102	-0,168	-0,117
-612,503	338,371	0,050	-0,072
-611,488	-200,000	-0,015	0,069
-610,474	-110,027	0,124	0,019
-609,459	120,769	-0,140	-0,128
-608,444	255,118	-0,015	-0,019
-607,430	-200,000	-0,004	-0,052
-606,415	315,779	-0,048	-0,066
-605,401	246,157	0,045	0,056
-604,386	34,125	0,021	0,013
-603,371	-200,000	0,015	0,117
-602,357	122,908	-0,029	0,027
-601,342	-116,621	-0,085	0,011
-600,328	108,365	0,061	-0,053
-599,313	800,000	0,028	-0,061
-598,298	15,780	-0,132	-0,076
-597,284	-74,845	0,105	-0,027
-596,269	-81,619	0,089	-0,021
-595,255	-108,516	0,022	-0,003
-594,240	-194,802	0,076	-0,000
-593,225	800,000	0,050	-0,139
-592,211	800,000	0,057	-0,125
-591,196	-200,000	0,040	0,145
-590,182	-96,121	0,146	0,028
-589,167	-72,234	-0,111	0,030
-588,152	-143,298	0,084	0,006
-587,138	-149,418	-0,027	-0,002
-586,123	800,000	-0,029	0,060
-585,109	80,525	0,073	-0,058
-584,094	31,352	-0,035	0,022
-583,079	800,000	-0,054	-0,134
-582,065	265,853	0,082	-0,106
-581,050	-147,215	0,022	-0,001
-580,036	-200,000	0,070	-0,235
-579,021	-200,000	-0,037	-0,148
-578,006	49,874	0,018	0,012
-576,992	28,290	0,068	-0,042
-575,977	-70,983	-0,092	0,025
-574,963	-62,792	0,089	0,027
-573,948	800,000	-0,061	0,124
-572,934	65,066	-0,100	0,074
-571,919	-6,790	-0,113	-0,056
-570,904	506,446	-0,035	-0,060
-569,890	-200,000	-0,002	-0,085
-568,875	-114,387	-0,138	-0,019
-567,861	1,364	0,048	0,025
-566,846	150,347	-0,042	-0,042
-565,831	481,070	0,054	0,091
-564,817	-200,000	0,014	-0,061
-563,802	55,697	-0,091	-0,065
-562,788	800,000	-0,069	0,148
-561,773	-65,984	0,059	-0,017
-560,758	800,000	0,007	-0,016
-559,744	-200,000	-0,037	0,000
-558,729	273,216	0,035	0,046
-557,715	-200,000	0,008	-0,029
-556,700	155,818	0,029	-0,029
-555,685	509,420	-0,030	-0,051
-554,671	-110,984	0,124	0,018
-553,656	-95,188	-0,076	0,015
-552,642	221,739	0,046	-0,054
-551,627	116,980	0,076	-0,068
-550,612	-200,000	-0,013	-0,064
-549,598	24,840	-0,132	-0,080
-548,583	139,805	-0,008	0,008
-547,569	615,131	0,051	0,093
-546,554	-55,007	0,050	-0,016
-545,539	50,802	0,095	0,066
-544,525	10,989	0,080	-0,045
-543,510	-119,142	-0,095	0,012
-542,496	-109,933	-0,082	0,012
-541,481	-42,009	-0,107	-0,040
-540,466	-200,000	0,001	0,091
-539,452	-200,000	-0,011	0,064
-538,437	109,512	0,102	0,090
-537,423	34,846	0,030	0,019
-536,408	800,000	0,053	0,126
-535,393	172,386	0,105	0,111
-534,379	-65,257	-0,146	0,043
-533,364	278,167	0,069	0,090
-532,350	418,792	0,017	-0,026
-531,335	-1,973	-0,061	0,031
-530,321	-200,000	-0,018	0,099
-529,306	9,181	0,085	-0,047
-528,291	13,302	-0,089	0,051
-527,277	-64,151	-0,178	0,053
-526,262	30,910	0,033	0,020
-525,248	438,409	0,047	-0,074
-524,233	-40,824	-0,158	-0,059
-523,218	81,523	0,100	0,079
-522,204	-62,093	-0,088	-0,027
-521,189	213,943	-0,062	0,072
-520,175	800,000	0,040	-0,097
-519,160	800,000	0,031	0,070
-518,145	71,846	0,077	-0,058
-517,131	491,686	0,046	0,077
-516,116	-200,000	0,011	-0,112
-515,102	497,435	0,020	-0,033
-514,087	253,143	-0,077	0,097
-513,072	-200,000	-0,000	0,050
-512,058	128,462	-0,066	-0,061
-511,043	197,326	0,008	0,008
-510,029	-125,208	0,094	0,010
-509,014	10,301	-0,051	-0,028
-507,999	800,000	0,057	-0,122
-506,985	599,534	0,133	-0,243
-505,970	-45,969	0,006	-0,002
-504,956	-58,844	-0,084	0,026
-503,941	-200,000	0,015	-0,074
-502,926	3,720	0,140	0,075
-501,912	-26,527	0,120	0,051
-500,897	13,820	-0,142	0,081
-499,883	350,560	-0,036	-0,052
-498,868	-40,131	-0,089	-0,034
-497,853	800,000	-0,018	-0,044
-496,839	-109,714	-0,056	0,009
-495,824	-42,664	0,092	-0,034
-494,810	-200,000	0,002	0,039
-493,795	612,831	-0,065	-0,119
-492,781	-114,879	0,125	0,017
-491,766	68,245	-0,172	-0,128
-490,751	-78,289	0,059	0,015
-489,737	224,948	-0,058	0,069
-488,722	-200,000	0,007	-0,067
-487,708	39,355	0,099	0,065
-486,693	196,125	-0,058	-0,065
-485,678	-200,000	0,012	0,040
-484,664	-137,436	0,044	-0,004
-483,649	204,724	-0,069	-0,079
-482,635	742,457	0,042	-0,083
-481,620	-200,000	0,018	0,100
-480,605	-141,063	0,083	-0,006
-479,591	-200,000	-0,009	0,063
-478,576	-200,000	-0,002	0,044
-477,562	297,616	0,047	-0,064
-476,547	-10,005	-0,089	-0,043
-475,532	262,086	-0,018	0,023
-474,518	-200,000	0,013	0,058
-473,503	99,549	0,056	-0,048
-472,489	-200,000	0,011	0,136
-471,474	212,642	0,049	0,057
-470,459	-38,426	-0,085	-0,033
-469,445	-129,340	0,049	-0,005
-468,430	800,000	-0,031	-0,097
-467,416	424,194	0,021	-0,032
-466,401	156,290	0,089	0,090
-465,386	-200,000	-0,005	0,158
-464,372	183,660	-0,039	-0,042
-463,357	-200,000	0,012	-0,083
-462,343	74,381	0,030	0,023
-461,328	532,260	-0,095	-0,164
-460,313	-126,435	-0,096	-0,010
-459,299	-17,537	0,217	0,099
-458,284	-20,278	-0,155	-0,069
-457,270	800,000	0,029	0,059
-456,255	104,767	-0,035	0,030
-455,241	583,480	0,013	0,024
-454,226	197,228	-0,083	-0,093
-453,211	248,102	0,043	0,054
-452,197	-200,000	-0,008	0,104
-451,182	-18,456	0,119	0,054
-450,168	-200,000	-0,002	0,023
-449,153	-200,000	0,031	0,136
-448,138	575,860	-0,088	-0,157
-447,124	800,000	-0,007	0,023
-446,109	800,000	-0,050	-0,111
-445,095	-200,000	0,174	0,000
-444,080	59,036	-0,071	-0,051
-443,065	-200,000	0,002	-0,022
-442,051	-137,956	-0,058	-0,005
-441,036	82,192	-0,103	-0,081
-440,022	-82,803	-0,044	-0,010
-439,007	508,438	-0,076	-0,129
-437,992	-200,000	-0,005	-0,032
-436,978	-91,379	0,045	0,009
-435,963	95,461	-0,078	0,065
-434,949	800,000	-0,013	-0,030
-433,934	800,000	0,043	-0,112
-432,919	-113,804	-0,095	-0,013
-431,905	-200,000	-0,011	-0,116
-430,890	0,068	0,043	-0,022
-429,876	44,086	0,072	0,048
-428,861	91,827	0,043	0,035
-427,846	-200,000	0,001	0,020
-426,832	800,000	-0,023	-0,057
-425,817	-71,638	0,062	0,017
-424,803	-50,498	0,091	-0,031
-423,788	64,051	-0,035	0,026
-422,773	-200,000	0,016	-0,060
-421,759	53,662	0,060	-0,042
-420,744	170,125	0,023	0,024
-419,730	-200,000	-0,028	-0,154
-418,715	100,439	-0,091	-0,077
-417,701	-83,843	0,109	-0,025
-416,686	68,693	-0,050	-0,037
-415,671	261,411	0,039	0,049
-414,657	-200,000	0,035	0,158
-413,642	157,041	-0,058	0,059
-412,628	-97,304	-0,157	0,030
-411,613	-39,235	0,026	-0,010
-410,598	800,000	-0,046	-0,141
-409,584	-77,278	0,214	-0,054
-408,569	42,155	0,083	-0,055
-407,555	-200,000	0,009	0,075
-406,540	-55,783	0,082	-0,026
-405,525	584,729	-0,039	-0,071
-404,511	-200,000	-0,005	-0,094
-403,496	-107,555	-0,086	-0,013
-402,482	-200,000	-0,040	0,176
-401,467	-161,002	0,078	0,003
-400,452	-200,000	-0,039	-0,166
-399,438	215,108	-0,035	-0,041
-398,423	-122,700	-0,138	0,016
-397,409	-117,103	-0,057	0,007
-396,394	-54,546	0,017	0,005
-395,379	-200,000	-0,004	-0,114
-394,365	800,000	0,037	0,087
-393,350	120,122	0,105	0,095
-392,336	800,000	0,004	0,010
-391,321	-200,000	-0,002	0,053
-390,306	597,510	-0,045	0,082
-389,292	-75,426	-0,031	0,008
-388,277	800,000	-0,035	0,080
-387,263	402,297	0,074	0,114
-386,248	800,000	0,031	-0,094
-385,233	-5,034	0,039	0,019
-384,219	78,606	0,080	0,062
-383,204	12,102	-0,038	-0,021
-382,190	-200,000	-0,005	-0,044
-381,175	-200,000	-0,014	-0,064
-380,160	800,000	-0,057	0,120
-379,146	-9,770	-0,015	0,007
-378,131	103,845	0,079	0,068
-377,117	-200,000	0,013	0,115
-376,102	-200,000	-0,037	0,142
-375,088	-36,949	0,074	0,029
-374,073	-200,000	0,013	0,063
-373,058	23,851	0,051	-0,030
-372,044	425,131	0,061	0,095
-371,029	261,386	-0,045	-0,057
-370,015	-176,266	-0,027	0,001
-369,000	623,472	0,050	-0,093
-367,985	-106,875	-0,058	-0,009
-366,971	-69,333	-0,142	-0,039
-365,956	-165,530	0,175	-0,005
-364,942	251,225	0,085	0,106
-363,927	-116,221	-0,118	-0,016
-362,912	-200,000	0,013	0,103
-361,898	-113,348	0,102	-0,014
-360,883	112,770	-0,071	-0,063
-359,869	-116,229	-0,145	-0,019
-358,854	-200,000	-0,006	0,161
-357,839	-66,136	0,038	-0,011
-356,825	-2,041	0,082	0,041
-355,810	-73,162	-0,040	0,011
-354,796	-200,000	0,021	-0,115
-353,781	800,000	-0,015	0,030
-352,766	-17,641	0,043	-0,020
-351,752	161,928	0,059	0,060
-350,737	15,327	-0,028	0,016
-349,723	5,066	-0,045	-0,024
-348,708	395,908	0,087	0,133
-347,693	800,000	0,031	0,081
-346,679	-121,244	-0,136	0,016
-345,664	800,000	-0,035	-0,087
-344,650	-112,743	0,064	-0,009
-343,635	-200,000	-0,025	-0,134
-342,620	242,296	0,113	0,137
-341,606	427,498	-0,050	0,078
-340,591	238,263	-0,118	0,143
-339,577	125,516	0,079	-0,073
-338,562	-200,000	-0,010	0,041
-337,548	-128,737	-0,164	0,017
-336,533	-4,974	0,053	0,027
-335,518	118,602	0,101	0,091
-334,504	319,669	-0,033	0,045
-333,489	800,000	0,024	-0,069
-332,475	800,000	-0,048	-0,148
-331,460	-200,000	-0,007	0,053
-330,445	46,737	0,076	0,051
-329,431	347,573	-0,062	0,089
-328,416	662,982	0,036	0,067
-327,402	10,173	-0,095	0,052
-326,387	-107,072	0,130	0,021
-325,372	-200,000	0,003	-0,038
-324,358	651,281	-0,060	-0,113
-323,343	-73,795	-0,068	-0,018
-322,329	12,954	-0,047	-0,026
-321,314	235,997	0,042	-0,051
-320,299	154,785	0,083	0,083
-319,285	-200,000	0,015	0,124
-318,270	-115,616	-0,039	0,005
-317,256	225,090	-0,091	-0,107
-316,241	-17,915	-0,047	0,021
-315,226	800,000	-0,014	0,036
-314,212	180,649	-0,059	0,063
-313,197	-81,296	0,171	0,041
-312,183	-31,848	-0,058	0,024
-311,168	-200,000	0,001	0,081
-310,153	800,000	0,017	-0,043
-309,139	68,142	0,128	-0,095
-308,124	-20,176	-0,074	0,033
-307,110	178,014	0,073	0,078
-306,095	800,000	0,035	-0,075
-305,080	800,000	-0,028	-0,072
-304,066	53,687	0,098	0,068
-303,051	-169,091	-0,056	0,001
-302,037	-48,513	-0,148	-0,051
-301,022	800,000	-0,045	0,113
-300,008	6,267	0,112	0,060
-298,993	800,000	0,045	0,131
-297,978	-40,626	0,131	0,049
-296,964	-102,433	-0,099	-0,017
-295,949	-89,384	0,111	0,024
-294,935	-200,000	0,041	-0,190
-293,920	123,923	-0,081	0,073
-292,905	157,374	-0,032	-0,032
-291,891	-15,458	0,101	0,047
-290,876	8,739	-0,075	0,041
-289,862	-200,000	-0,003	-0,020
-288,847	-124,836	-0,197	-0,022
-287,832	304,264	0,125	0,168
-286,818	-84,299	0,033	-0,007
-285,803	-200,000	0,023	-0,115
-284,789	21,153	0,110	-0,065
-283,774	134,469	-0,020	-0,019
-282,759	159,095	-0,061	0,061
-281,745	75,352	-0,163	0,125
-280,730	800,000	0,076	-0,169
-279,716	-200,000	-0,008	-0,145
-278,701	800,000	0,081	0,166
-277,686	-157,602	0,109	-0,005
-276,672	-114,440	0,076	-0,010
-275,657	800,000	0,040	0,084
-274,643	13,530	-0,050	0,028
-273,628	-200,000	0,010	-0,066
-272,613	-131,569	-0,025	0,002
-271,599	800,000	0,036	0,114
-270,584	800,000	-0,014	0,041
-269,570	-200,000	-0,026	0,123
-268,555	504,240	0,041	-0,069
-267,540	-40,745	-0,058	-0,021
-266,526	-200,000	0,028	-0,115
-265,511	-200,000	0,047	0,193
-264,497	-200,000	-0,019	0,127
-263,482	-41,025	0,119	-0,044
-262,467	501,895	-0,036	0,060
-261,453	256,660	-0,025	0,031
-260,438	-36,594	0,066	-0,026
-259,424	102,467	0,024	-0,020
-258,409	1,156	-0,080	-0,041
-257,395	-200,000	-0,002	0,084
-256,380	-200,000	0,003	-0,030
-255,365	81,370	0,113	0,088
-254,351	162,962	-0,059	0,060
-253,336	-174,811	0,082	0,002
-252,322	137,529	-0,109	-0,103
-251,307	18,752	0,046	-0,026
-250,292	-28,153	0,020	-0,008
-249,278	-31,822	0,051	0,021
-248,263	-200,000	-0,001	-0,019
-247,249	-200,000	-0,004	0,089
-246,234	-45,061	-0,163	-0,058
-245,219	120,465	-0,121	0,109
-244,205	-125,563	0,076	0,008
-243,190	350,504	-0,050	-0,071
-242,176	596,966	-0,023	-0,042
-241,161	708,910	0,039	0,075
-240,146	800,000	-0,022	0,053
-239,132	47,537	-0,135	-0,091
-238,117	-29,778	-0,157	0,064
-237,103	661,226	-0,077	-0,143
-236,088	-50,608	0,087	-0,030
-235,073	81,821	-0,028	-0,022
-234,059	-42,274	0,056	0,021
-233,044	11,302	0,110	-0,061
-232,030	172,181	-0,052	0,054
-231,015	-76,184	0,023	-0,006
-230,000	-200,000	0,030	-0,180
-228,986	-200,000	0,001	0,052
-227,971	800,000	-0,036	0,085
-226,957	-117,990	0,112	0,014
-225,942	302,463	-0,034	-0,045
-224,927	22,766	-0,055	0,032
-223,913	-68,719	-0,093	0,026
-222,898	23,783	0,091	0,054
-221,884	157,057	0,110	0,110
-220,869	-200,000	-0,015	-0,062
-219,855	483,460	0,051	-0,085
-218,840	-150,424	-0,137	0,007
-217,825	327,361	-0,051	-0,071
-216,811	354,941	-0,101	0,145
-215,796	-200,000	0,005	0,040
-214,782	429,665	-0,036	0,056
-213,767	749,933	0,105	0,207
-212,752	-200,000	-0,000	-0,078
-211,738	-200,000	0,006	0,065
-210,723	461,051	-0,023	0,037
-209,709	-14,786	0,061	-0,028
-208,694	-98,520	-0,070	-0,013
-207,679	-18,153	-0,064	-0,029
-206,665	-200,000	0,004	0,063
-205,650	-200,000	0,003	0,030
-204,636	-200,000	-0,015	0,090
-203,621	53,381	-0,083	-0,057
-202,606	760,906	-0,030	0,059
-201,592	448,212	0,022	-0,035
-200,577	724,394	-0,049	-0,094
-199,563	315,174	-0,015	-0,020
-198,548	-67,054	0,155	-0,044
-197,533	-18,043	0,020	0,009
-196,519	-200,000	0,040	-0,156
-195,504	-10,708	-0,128	-0,061
-194,490	-200,000	0,001	-0,018
-193,475	-147,186	-0,076	0,005
-192,460	-200,000	0,032	-0,120
-191,446	-17,962	-0,066	0,030
-190,431	16,483	-0,104	0,059
-189,417	65,552	-0,063	0,046
-188,402	185,157	-0,060	-0,064
-187,387	-97,138	0,085	0,016
-186,373	-19,633	-0,134	-0,060
-185,358	18,475	0,047	0,027
-184,344	-200,000	-0,004	0,072
-183,329	42,636	0,104	0,068
-182,315	704,404	0,062	0,119
-181,300	-200,000	-0,024	0,102
-180,285	-200,000	0,012	0,038
-179,271	-153,794	0,068	0,003
-178,256	800,000	-0,030	-0,076
-177,242	640,265	-0,025	0,046
-176,227	100,461	0,050	0,042
-175,212	454,807	0,107	0,171
-174,198	-200,000	-0,025	-0,097
-173,183	184,712	-0,031	0,033
-172,169	-200,000	-0,006	0,064
-171,154	68,240	-0,036	0,027
-170,139	14,382	0,081	-0,046
-169,125	-84,329	0,117	0,026
-168,110	64,956	-0,086	-0,062
-167,096	175,005	0,052	0,055
-166,081	334,140	0,040	-0,056
-165,066	-200,000	0,008	-0,096
-164,052	262,821	-0,012	0,015
-163,037	800,000	0,038	0,081
-162,023	775,057	-0,025	-0,049
-161,008	-40,011	0,066	-0,025
-159,993	-2,644	0,063	0,032
-158,979	55,025	0,035	-0,024
-157,964	-44,208	-0,124	-0,045
-156,950	89,439	0,063	-0,051
-155,935	-84,718	-0,025	-0,006
-154,920	-200,000	-0,005	-0,061
-153,906	800,000	-0,030	-0,069
-152,891	615,389	0,050	-0,090
-151,877	294,059	-0,020	-0,027
-150,862	-200,000	0,027	-0,110
-149,847	32,638	-0,118	-0,073
-148,833	155,627	-0,058	0,057
-147,818	800,000	-0,003	-0,006
-146,804	-42,086	0,119	-0,044
-145,789	4,145	-0,058	-0,031
-144,775	503,277	0,015	-0,024
-143,760	15,293	-0,047	-0,027
-142,745	439,215	-0,067	-0,105
-141,731	-19,248	0,164	0,073
-140,716	-18,797	0,070	0,031
-139,702	-200,000	-0,001	-0,021
-138,687	141,728	0,084	0,080
-137,672	-200,000	-0,028	0,098
-136,658	-200,000	-0,016	-0,226
-135,643	-70,157	-0,065	-0,018
-134,629	23,686	-0,053	0,031
-133,614	-83,811	-0,105	-0,024
-132,599	-200,000	0,005	-0,069
-131,585	800,000	0,013	0,037
-130,570	-81,269	0,010	-0,002
-129,556	-51,860	-0,075	-0,025
-128,541	28,960	0,076	0,046
-127,526	-149,221	0,061	0,003
-126,512	331,231	0,028	0,039
-125,497	-46,066	0,113	0,040
-124,483	-200,000	0,013	-0,116
-123,468	-200,000	-0,001	0,042
-122,453	383,977	0,015	-0,022
-121,439	800,000	-0,044	0,116
-120,424	568,076	0,017	0,029
-119,410	800,000	0,049	0,128
-118,395	139,459	0,046	0,043
-117,380	118,197	-0,021	-0,019
-116,366	128,932	-0,130	0,120
-115,351	94,230	-0,089	-0,073
-114,337	-200,000	-0,044	-0,175
-113,322	284,995	0,083	-0,108
-112,307	-50,763	0,122	0,041
-111,293	267,970	-0,027	0,034
-110,278	186,230	-0,059	0,064
-109,264	-127,806	-0,080	-0,008
-108,249	-170,908	-0,046	-0,001
-107,234	145,204	-0,100	0,096
-106,220	676,605	0,045	-0,085
-105,205	-46,672	-0,137	0,048
-104,191	-8,728	0,100	0,048
-103,176	284,320	0,015	0,020
-102,162	-200,000	-0,013	0,092
-101,147	-200,000	0,001	0,119
-100,132	-200,000	-0,008	0,087
-99,118	21,290	0,022	0,013
-98,103	-49,468	-0,085	-0,029
-97,089	-54,243	0,048	0,016
-96,074	-184,125	-0,114	-0,001
-95,059	-200,000	0,002	0,070
-94,045	40,116	-0,130	-0,084
-93,030	779,237	0,057	-0,113
-92,016	-200,000	-0,022	-0,213
-91,001	-11,484	0,048	0,023
-89,986	84,127	0,071	0,056
-88,972	488,968	0,088	0,144
-87,957	-127,739	-0,088	0,009
-86,943	150,355	-0,052	-0,050
-85,928	82,941	-0,070	0,055
-84,913	152,457	0,060	0,059
-83,899	602,994	-0,068	0,123
-82,884	274,509	0,046	0,059
-81,870	22,468	0,098	0,057
-80,855	-158,980	0,135	-0,005
-79,840	344,069	-0,021	-0,029
-78,826	276,469	0,032	-0,041
-77,811	-106,712	-0,135	-0,021
-76,797	-172,242	0,206	0,005
-75,782	618,356	-0,028	-0,051
-74,767	29,971	0,094	0,057
-73,753	160,045	-0,120	0,120
-72,738	-200,000	-0,004	0,106
-71,724	800,000	0,017	0,040
-70,709	30,575	-0,119	0,073
-69,694	103,479	0,050	-0,042
-68,680	800,000	-0,019	0,058
-67,665	633,863	-0,039	-0,072
-66,651	-200,000	0,005	0,073
-65,636	-200,000	0,009	0,035
-64,622	-75,342	-0,093	-0,024
-63,607	9,487	-0,070	-0,038
-62,592	800,000	0,046	-0,099
-61,578	-200,000	0,000	0,028
-60,563	51,379	-0,107	-0,073
-59,549	379,039	0,032	0,047
-58,534	7,209	-1,989	-1,063
-57,519	-200,000	-0,127	-0,961
-56,505	-200,000	-1,399	-4,962
-55,490	15,625	0,830	0,467
-54,476	800,000	5,376	12,183
-53,461	-200,000	17,606	287,382
-52,446	800,000	723,383	2229,268
-51,432	540,029	1636,450	2807,440
-50,417	111,149	1628,061	1407,763
-49,403	74,451	1284,216	968,105
-48,388	32,326	1028,109	635,769
-47,373	20,068	990,015	571,762
-46,359	18,526	978,330	559,930
-45,344	16,007	974,321	549,359
-44,330	16,158	972,898	549,032
-43,315	15,761	971,048	546,668
-42,300	15,692	970,059	545,863
-41,286	15,684	969,082	545,264
-40,271	15,713	968,047	544,755
-39,257	15,772	966,974	544,322
-38,242	15,739	966,244	543,783
-37,227	15,698	965,506	543,213
-36,213	15,725	964,557	542,746
-35,198	15,699	963,716	542,167
-34,184	15,745	962,829	541,796
-33,169	15,701	962,021	541,176
-32,154	15,717	961,070	540,673
-31,140	15,710	960,130	540,100
-30,125	15,770	959,341	539,827
-29,111	15,771	958,703	539,448
-28,096	15,745	958,035	538,970
-27,082	15,731	957,440	538,566
-26,067	15,708	956,695	538,053
-25,052	15,762	955,814	537,711
-24,038	15,746	954,864	537,102
-23,023	15,712	954,460	536,745
-22,009	15,654	953,901	536,222
-20,994	15,751	953,189	536,111
-19,979	15,739	952,667	535,758
-18,965	15,726	951,938	535,286
-17,950	15,748	951,453	535,063
-16,936	15,657	950,642	534,294
-15,921	15,618	950,081	533,833
-14,906	15,622	949,268	533,368
-13,892	15,613	948,741	533,023
-12,877	15,623	948,050	532,646
-11,863	15,608	947,470	532,251
-10,848	15,574	946,939	531,823
-9,833	15,680	946,517	531,900
-8,819	15,666	945,755	531,407
-7,804	15,571	945,135	530,738
-6,790	15,602	944,588	530,507
-5,775	15,613	944,029	530,207
-4,760	15,599	943,388	529,781
-3,746	15,634	942,732	529,503
-2,731	15,493	942,034	528,641
-1,717	15,418	941,363	528,008
-0,702	15,445	940,868	527,794
0,313	15,222	940,088	527,449
1,327	18,524	937,942	536,611
2,342	27,659	792,151	477,337
3,356	24,380	445,913	263,807
4,371	-4,928	295,554	145,551
5,386	-8,821	277,110	132,766
6,400	-10,239	271,558	128,776
7,415	-10,441	269,222	127,471
8,429	-10,482	267,869	126,782
9,444	-10,345	266,980	126,474
10,459	-10,270	266,234	126,178
11,473	-10,562	265,898	125,742
12,488	-10,524	265,130	125,402
13,502	-10,790	264,569	124,885
14,517	-10,784	264,185	124,698
15,531	-10,677	263,813	124,608
16,546	-10,756	263,335	124,299
17,561	-10,769	263,073	124,153
18,575	-10,420	262,785	124,320
19,590	-10,850	262,323	123,705
20,604	-10,766	262,142	123,684
21,619	-10,710	261,735	123,531
22,634	-10,665	261,353	123,379
23,648	-10,944	261,143	123,020
24,663	-10,674	260,732	123,056
25,677	-10,735	260,542	122,902
26,692	-10,779	260,109	122,647
27,707	-10,754	259,954	122,585
28,721	-10,753	259,717	122,463
29,736	-10,774	259,533	122,347
30,750	-10,861	259,231	122,117
31,765	-10,894	259,160	122,043
32,780	-10,813	258,814	121,941
33,794	-10,915	258,570	121,725
34,809	-10,668	258,243	121,778
35,823	-10,856	257,914	121,446
36,838	-10,840	257,824	121,408
37,853	-10,803	257,470	121,262
38,867	-10,830	257,284	121,140
39,882	-11,001	257,104	120,895
40,896	-10,883	256,791	120,840
41,911	-10,809	256,515	120,764
42,926	-10,991	256,338	120,511
43,940	-11,015	256,141	120,386
44,955	-11,125	255,843	120,139
45,969	-10,951	255,576	120,155
46,984	-11,232	255,385	119,810
47,999	-11,438	255,119	119,495
49,013	-11,675	254,852	119,153
50,028	-11,768	254,540	118,916
51,042	-11,698	254,285	118,847
52,057	-11,850	254,173	118,652
53,071	-11,665	253,862	118,656
54,086	-11,599	253,777	118,664
55,101	-11,584	253,631	118,598
56,115	-11,367	253,376	118,656
57,130	-10,900	253,355	119,038
58,144	-10,586	253,276	119,261
59,159	-10,688	253,031	119,047
60,174	-10,681	252,789	118,929
61,188	-10,560	252,583	118,926
62,203	-10,851	252,294	118,529
63,217	-10,607	252,077	118,626
64,232	-10,627	251,968	118,547
65,247	-10,688	251,706	118,361
66,261	-10,774	251,467	118,164
67,276	-11,130	251,169	117,709
68,290	-11,224	250,808	117,449
69,305	-11,432	250,740	117,229
70,320	-11,398	250,459	117,117
71,334	-10,991	250,361	117,407
72,349	-10,808	250,251	117,501
73,363	-10,642	250,136	117,577
74,378	-10,765	249,948	117,375
75,393	-10,570	249,613	117,372
76,407	-10,590	249,405	117,247
77,422	-10,726	249,127	116,991
78,436	-10,884	248,958	116,767
79,451	-10,695	248,776	116,831
80,466	-10,958	248,442	116,441
81,480	-11,019	248,283	116,305
82,495	-11,104	248,055	116,116
83,509	-11,087	247,938	116,065
84,524	-11,067	247,709	115,964
85,539	-11,299	247,492	115,657
86,553	-11,317	247,216	115,503
87,568	-11,296	247,204	115,505
88,582	-11,124	246,806	115,453
89,597	-11,087	246,706	115,427
90,611	-10,872	246,464	115,484
91,626	-10,953	246,400	115,376
92,641	-10,995	246,224	115,247
93,655	-10,824	245,996	115,273
94,670	-11,064	245,834	114,986
95,684	-11,096	245,602	114,841
96,699	-11,159	245,473	114,718
97,714	-11,106	245,106	114,580
98,728	-11,342	245,064	114,354
99,743	-11,353	244,642	114,138
100,757	-11,237	244,407	114,114
101,772	-11,336	244,370	114,004
102,787	-11,196	244,218	114,040
103,801	-11,067	244,092	114,078
104,816	-10,930	243,757	114,024
105,830	-10,939	243,852	114,051
106,845	-10,740	243,682	114,126
107,860	-10,769	243,391	113,956
108,874	-10,995	243,091	113,618
109,889	-11,009	242,849	113,484
110,903	-11,071	242,725	113,365
111,918	-11,171	242,585	113,207
112,933	-11,224	242,430	113,081
113,947	-11,093	242,237	113,089
114,962	-10,937	242,078	113,133
115,976	-10,758	241,964	113,216
116,991	-10,943	241,702	112,932
118,006	-10,937	241,596	112,876
119,020	-11,037	241,599	112,786
120,035	-10,866	241,423	112,834
121,049	-10,744	241,117	112,781
122,064	-10,860	240,966	112,605
123,079	-10,899	240,917	112,540
124,093	-11,136	240,573	112,177
125,108	-11,346	240,387	111,908
126,122	-11,315	239,959	111,725
127,137	-11,417	239,764	111,541
128,151	-11,391	239,645	111,496
129,166	-11,285	239,581	111,543
130,181	-11,283	239,297	111,403
131,195	-11,296	239,120	111,299
132,210	-11,192	239,222	111,421
133,224	-11,118	239,059	111,396
134,239	-10,981	238,765	111,360
135,254	-10,887	238,592	111,345
136,268	-10,965	238,175	111,078
137,283	-11,264	238,012	110,751
138,297	-11,195	237,758	110,678
139,312	-11,319	237,641	110,514
140,327	-11,057	237,603	110,697
141,341	-10,359	237,639	111,266
142,356	-10,207	237,343	111,239
143,370	-10,487	237,396	111,029
144,385	-10,475	237,160	110,918
145,400	-10,665	236,967	110,666
146,414	-10,387	236,757	110,781
147,429	-10,505	236,644	110,623
148,443	-10,703	236,331	110,309
149,458	-10,463	236,204	110,432
150,473	-10,546	236,217	110,361
151,487	-10,689	235,855	110,068
152,502	-10,584	235,839	110,135
153,516	-10,482	235,443	110,022
154,531	-10,548	235,339	109,910
155,546	-10,561	235,191	109,821
156,560	-10,534	235,068	109,775
157,575	-10,898	234,840	109,370
158,589	-10,758	234,580	109,350
159,604	-10,564	234,481	109,448
160,619	-10,286	234,324	109,585
161,633	-10,349	234,147	109,443
162,648	-10,354	234,132	109,422
163,662	-10,518	234,017	109,229
164,677	-10,486	233,634	109,065
165,692	-10,799	233,698	108,839
166,706	-10,387	233,571	109,095
167,721	-10,339	233,391	109,039
168,735	-10,276	233,329	109,050
169,750	-10,457	232,992	108,740
170,764	-10,432	232,804	108,662
171,779	-10,473	232,790	108,614
172,794	-10,423	232,654	108,580
173,808	-10,745	232,416	108,207
174,823	-11,138	231,974	107,683
175,837	-11,392	231,874	107,429
176,852	-10,719	231,957	107,985
177,867	-10,761	231,903	107,917
178,881	-10,456	231,662	108,034
179,896	-10,249	231,368	108,049
180,910	-10,362	231,330	107,933
181,925	-10,368	231,238	107,876
182,940	-10,401	231,043	107,749
183,954	-10,416	230,820	107,624
184,969	-10,355	230,694	107,603
185,983	-10,274	230,685	107,652
186,998	-10,386	230,410	107,427
188,013	-10,401	230,338	107,372
189,027	-10,308	230,095	107,322
190,042	-10,321	229,935	107,228
191,056	-10,393	229,768	107,084
192,071	-10,236	229,663	107,147
193,086	-10,316	229,515	107,007
194,100	-10,314	229,516	107,000
195,115	-10,504	229,093	106,646
196,129	-10,370	229,126	106,756
197,144	-5,007	230,798	111,689
198,159	0,311	232,423	116,611
199,173	3,075	233,261	119,178
200,188	3,559	233,061	119,442
201,202	3,687	232,993	119,497
202,217	3,836	232,832	119,519
203,232	3,868	232,733	119,483
204,246	3,873	232,761	119,490
205,261	4,029	232,472	119,452
206,275	4,273	232,301	119,543
207,290	4,345	232,240	119,557
208,304	4,400	231,921	119,424
209,319	4,477	231,677	119,348
210,334	4,125	231,614	119,033
211,348	3,955	231,440	118,801
212,363	3,608	231,037	118,316
213,377	3,282	231,039	118,055
214,392	3,399	230,771	117,998
215,407	3,395	230,755	117,976
216,421	3,368	230,508	117,818
217,436	3,505	230,327	117,821
218,450	3,351	229,996	117,523
219,465	3,184	229,901	117,336
220,480	3,129	229,848	117,256
221,494	3,223	229,746	117,266
222,509	3,558	229,664	117,470
223,523	3,319	229,387	117,135
224,538	3,343	229,215	117,055
225,553	3,283	229,094	116,937
226,567	3,496	228,943	117,012
227,582	3,909	228,941	117,316
228,596	3,558	228,969	117,052
229,611	3,388	228,724	116,786
230,626	3,169	228,398	116,443
231,640	3,252	228,311	116,452
232,655	3,557	228,174	116,603
233,669	3,818	228,177	116,793
234,684	4,065	228,064	116,912
235,699	3,765	227,777	116,527
236,713	3,718	227,557	116,368
237,728	3,534	227,332	116,104
238,742	3,178	227,221	115,767
239,757	3,264	227,148	115,785
240,772	3,231	226,996	115,672
241,786	3,237	226,876	115,605
242,801	3,673	226,684	115,826
243,815	3,954	226,623	115,996
244,830	3,855	226,468	115,832
245,844	3,507	226,312	115,480
246,859	3,502	226,047	115,330
247,874	3,597	226,021	115,378
248,888	3,851	225,756	115,424
249,903	3,431	225,718	115,079
250,917	3,431	225,541	114,978
251,932	3,340	225,382	114,818
252,947	3,256	225,104	114,604
253,961	3,149	224,915	114,417
254,976	3,414	224,824	114,558
255,990	3,476	224,750	114,557
257,005	3,708	224,647	114,668
258,020	3,569	224,604	114,532
259,034	3,968	224,420	114,726
260,049	3,913	224,300	114,613
261,063	3,777	224,091	114,395
262,078	3,615	224,014	114,225
263,093	3,810	223,902	114,302
264,107	3,988	223,673	114,308
265,122	3,740	223,549	114,050
266,136	3,874	223,473	114,100
267,151	3,722	223,381	113,930
268,166	3,373	223,095	113,515
269,180	3,353	222,871	113,376
270,195	3,283	222,809	113,283
271,209	3,307	222,536	113,152
272,224	3,424	222,379	113,149
273,239	3,634	222,263	113,234
274,253	3,421	222,092	112,980
275,268	2,973	222,064	112,625
276,282	3,159	221,798	112,617
277,297	3,068	221,675	112,477
278,312	3,111	221,445	112,383
279,326	3,355	221,443	112,551
280,341	3,591	221,256	112,619
281,355	3,453	221,165	112,462
282,370	3,653	221,027	112,528
283,384	3,227	220,739	112,060
284,399	3,225	220,474	111,914
285,414	3,004	220,524	111,767
286,428	3,414	220,395	111,992
287,443	3,397	220,516	112,031
288,457	3,657	220,199	112,049
289,472	3,467	219,900	111,749
290,487	2,945	219,735	111,275
291,501	2,822	219,644	111,129
292,516	3,270	219,355	111,299
293,530	2,996	219,483	111,155
294,545	2,892	219,315	110,984
295,560	3,259	219,214	111,190
296,574	3,566	219,025	111,307
297,589	3,448	218,904	111,150
298,603	3,455	218,794	111,089
299,618	3,326	218,744	110,960
300,633	3,361	218,585	110,895
301,647	3,654	218,476	111,041
302,662	3,658	218,351	110,971
303,676	3,607	218,013	110,753
304,691	3,773	217,943	110,827
305,706	3,746	217,820	110,735
306,720	3,682	217,696	110,616
307,735	3,602	217,453	110,425
308,749	3,365	217,420	110,228
309,764	3,282	217,398	110,147
310,779	3,800	217,209	110,414
311,793	3,522	217,166	110,183
312,808	3,643	216,754	110,051
313,822	3,529	216,618	109,889
314,837	3,475	216,501	109,782
315,852	3,302	216,324	109,559
316,866	3,229	216,434	109,552
317,881	3,748	216,083	109,736
318,895	3,703	216,000	109,652
319,910	3,487	215,738	109,354
320,925	3,391	215,488	109,150
321,939	3,022	215,352	108,808
322,954	2,917	215,239	108,667
323,968	3,469	215,232	109,047
324,983	3,802	215,229	109,272
325,997	3,670	215,237	109,173
327,012	3,544	214,925	108,915
328,027	3,658	214,780	108,913
329,041	3,663	214,790	108,912
330,056	3,988	214,610	109,041
331,070	3,381	214,458	108,524
332,085	3,081	214,138	108,141
333,100	3,252	213,869	108,116
334,114	3,590	213,904	108,362
335,129	3,588	214,001	108,400
336,143	3,322	213,618	108,009
337,158	3,412	213,333	107,919
338,173	3,437	213,306	107,914
339,187	3,226	213,330	107,767
340,202	3,158	213,032	107,559
341,216	3,152	212,943	107,500
342,231	3,085	212,851	107,397
343,246	3,353	212,593	107,446
344,260	3,174	212,503	107,265
345,275	3,513	212,347	107,415
346,289	3,795	212,264	107,560
347,304	3,699	212,176	107,439
348,319	3,448	212,044	107,187
349,333	3,288	211,961	107,024
350,348	3,382	211,745	106,970
351,362	3,556	211,760	107,090
352,377	3,554	211,615	107,006
353,392	3,416	211,464	106,824
354,406	3,446	211,293	106,749
355,421	196,805	1340,487	1422,950
356,435	157,249	1478,052	1422,920
