DTS Sentinel unit serial number:	SN410029Multiplexer serial number:	ORYXHardware model number:	OX2-SRSoftware version number:	ORYX F/W v4,00 Oryx Data Collector v3.7.2.0data status	okinstallation	B6 Nyhavnadifferential loss correction	single-endedforward channel	channel 2reverse channel	N/Adate	2023/12/10time	11:35:08forward acquisition time	300,00reverse acquisition time	0,00gamma	499,1914k internal	0,3123k external	0,3123temperature offset calibration	1,0000default loss term (dB/km)	0,3820temperature slope calibration	1,0000multiplexer offset coefficient	1,0000multiplexer slope coefficient	1,0000fibre end	0,00T internal ref (°C)	22,67T ext. ref 1 (°C)	6,59T ext. ref 2 (°C)	6,59length (m)	temperature (°C)	Stokes	anti-Stokes-744,400	800,000	-0,025	-0,055
-743,385	422,331	-0,108	0,174
-742,371	14,189	-0,018	0,011
-741,356	444,737	-0,175	0,287
-740,342	154,459	-0,057	-0,058
-739,327	-52,661	-0,106	-0,036
-738,312	50,424	-0,034	-0,024
-737,298	-43,335	-0,255	0,096
-736,283	273,500	0,088	-0,116
-735,269	-12,881	-0,261	0,126
-734,254	252,681	0,064	0,082
-733,239	-97,003	-0,416	-0,081
-732,225	-67,755	0,129	-0,037
-731,210	546,211	-0,077	0,138
-730,196	-78,055	-0,102	-0,026
-729,181	-69,082	-0,093	0,026
-728,167	800,000	-0,034	0,072
-727,152	43,276	-0,048	0,032
-726,137	10,644	-0,106	0,060
-725,123	-142,683	-0,059	0,004
-724,108	253,970	-0,118	-0,151
-723,094	165,239	-0,126	-0,133
-722,079	-63,175	0,032	-0,010
-721,064	-53,429	0,095	0,032
-720,050	-146,103	-0,045	-0,003
-719,035	-101,236	-0,070	-0,013
-718,021	346,090	0,025	0,036
-717,006	64,063	-0,141	-0,105
-715,991	800,000	-0,085	-0,209
-714,977	83,762	-0,120	-0,097
-713,962	307,964	-0,019	-0,027
-712,948	-100,538	-0,019	-0,004
-711,933	-31,761	-0,016	0,007
-710,918	128,601	-0,079	0,075
-709,904	-190,940	-0,143	0,001
-708,889	-200,000	-0,011	-0,302
-707,875	-4,183	-0,089	-0,046
-706,860	92,748	-0,189	0,158
-705,845	-104,554	0,094	0,016
-704,831	25,494	0,047	0,029
-703,816	-200,000	0,005	-0,113
-702,802	23,537	-0,087	-0,053
-701,787	-200,000	0,010	-0,050
-700,772	185,191	0,105	-0,116
-699,758	-95,066	-0,092	-0,018
-698,743	214,568	0,120	-0,142
-697,729	145,277	0,091	-0,091
-696,714	94,169	-0,036	-0,030
-695,699	-14,315	-0,046	0,022
-694,685	3,156	-0,078	-0,042
-693,670	591,184	-0,068	-0,126
-692,656	-200,000	0,001	-0,019
-691,641	-200,000	-0,018	0,116
-690,627	800,000	-0,033	-0,086
-689,612	-41,577	-0,068	0,026
-688,597	-200,000	-0,014	0,128
-687,583	112,426	-0,023	-0,021
-686,568	-200,000	-0,036	-0,119
-685,554	550,525	0,037	-0,067
-684,539	-200,000	0,038	-0,160
-683,524	-43,849	-0,017	0,006
-682,510	462,817	-0,053	0,088
-681,495	1,455	-0,083	0,044
-680,481	800,000	0,027	0,061
-679,466	118,092	-0,082	-0,075
-678,451	355,951	-0,015	0,022
-677,437	217,210	-0,119	0,141
-676,422	88,786	-0,055	-0,045
-675,408	-16,518	0,077	-0,036
-674,393	781,683	0,051	0,104
-673,378	800,000	0,024	0,066
-672,364	-15,054	-0,157	-0,074
-671,349	131,797	-0,148	-0,142
-670,335	-28,820	-0,090	0,038
-669,320	-200,000	-0,002	-0,040
-668,305	653,588	0,026	0,050
-667,291	-41,973	-0,131	0,050
-666,276	800,000	-0,032	-0,095
-665,262	-44,869	0,069	0,025
-664,247	800,000	0,019	0,045
-663,232	222,469	0,055	0,066
-662,218	-69,074	0,093	-0,026
-661,203	141,480	-0,064	0,063
-660,189	188,865	0,029	-0,032
-659,174	800,000	-0,049	-0,151
-658,159	800,000	-0,032	-0,101
-657,145	251,161	-0,032	-0,040
-656,130	511,005	0,046	0,079
-655,116	800,000	-0,014	-0,042
-654,101	-189,534	-0,061	-0,001
-653,086	39,145	-0,046	0,031
-652,072	-35,308	-0,087	-0,035
-651,057	-200,000	0,021	-0,147
-650,043	-200,000	0,011	-0,036
-649,028	189,841	0,089	-0,099
-648,014	61,526	-0,064	0,048
-646,999	-200,000	-0,004	0,019
-645,984	-200,000	-0,021	0,076
-644,970	-200,000	-0,002	-0,148
-643,955	147,258	-0,113	-0,113
-642,941	-172,902	-0,100	-0,002
-641,926	800,000	-0,061	-0,176
-640,911	-19,161	0,114	-0,052
-639,897	800,000	0,051	0,154
-638,882	137,730	-0,021	-0,020
-637,868	-200,000	-0,015	-0,074
-636,853	55,973	-0,091	-0,066
-635,838	-56,087	0,096	-0,031
-634,824	452,364	-0,041	0,067
-633,809	-62,494	-0,133	0,041
-632,795	124,636	-0,063	-0,059
-631,780	38,768	0,077	0,051
-630,765	-200,000	0,026	0,121
-629,751	800,000	0,029	0,070
-628,736	-33,718	-0,065	-0,027
-627,722	-200,000	0,004	-0,095
-626,707	800,000	-0,031	-0,066
-625,692	0,834	-0,031	0,016
-624,678	494,508	-0,045	0,077
-623,663	219,104	0,032	-0,038
-622,649	-200,000	-0,028	-0,121
-621,634	-200,000	-0,009	0,090
-620,619	192,483	-0,089	0,100
-619,605	800,000	-0,029	-0,090
-618,590	-200,000	0,005	-0,050
-617,576	102,227	0,119	0,103
-616,561	-16,462	-0,036	-0,017
-615,546	800,000	-0,035	-0,096
-614,532	-200,000	-0,005	-0,074
-613,517	63,330	0,051	-0,038
-612,503	-200,000	0,070	-0,237
-611,488	371,264	0,059	-0,089
-610,474	-152,478	-0,031	0,002
-609,459	387,325	0,044	-0,068
-608,444	-200,000	0,002	0,010
-607,430	143,528	-0,071	-0,071
-606,415	-81,828	-0,117	0,028
-605,401	174,184	0,075	-0,080
-604,386	211,999	0,071	0,083
-603,371	-200,000	-0,036	0,127
-602,357	111,678	0,040	-0,036
-601,342	148,325	0,165	-0,165
-600,328	303,597	-0,045	-0,062
-599,313	-200,000	-0,028	-0,135
-598,298	-200,000	0,009	-0,261
-597,284	339,694	0,047	0,068
-596,269	-94,341	-0,149	-0,030
-595,255	-200,000	-0,018	0,166
-594,240	290,058	0,104	0,140
-593,225	99,739	-0,042	0,036
-592,211	-200,000	-0,001	-0,031
-591,196	-83,815	-0,111	0,026
-590,182	52,065	0,137	-0,097
-589,167	652,669	-0,035	-0,066
-588,152	800,000	0,053	0,143
-587,138	-162,590	-0,060	-0,002
-586,123	141,297	-0,047	-0,046
-585,109	768,875	0,036	-0,074
-584,094	800,000	-0,032	0,066
-583,079	332,255	0,091	0,130
-582,065	180,271	0,040	0,043
-581,050	5,695	0,124	0,068
-580,036	24,436	-0,045	-0,028
-579,021	-116,205	-0,080	0,011
-578,006	52,477	-0,070	-0,049
-576,992	382,200	-0,064	0,098
-575,977	321,007	-0,111	0,157
-574,963	-124,891	0,141	0,016
-573,948	-155,163	-0,048	0,002
-572,934	230,308	-0,037	-0,044
-571,919	-200,000	0,022	-0,165
-570,904	-200,000	-0,017	-0,112
-569,890	-101,610	-0,171	-0,030
-568,875	-91,300	0,112	-0,024
-567,861	-200,000	0,011	0,085
-566,846	-200,000	0,006	0,075
-565,831	180,990	-0,033	0,035
-564,817	-96,511	-0,133	-0,026
-563,802	-109,813	0,112	-0,017
-562,788	80,288	0,078	-0,062
-561,773	470,659	-0,055	0,091
-560,758	212,350	0,066	0,078
-559,744	-200,000	-0,014	-0,078
-558,729	73,366	-0,056	-0,043
-557,715	-42,453	-0,200	0,075
-556,700	800,000	-0,044	-0,100
-555,685	-200,000	-0,002	0,007
-554,671	532,860	-0,036	0,064
-553,656	134,142	-0,024	0,023
-552,642	54,452	-0,092	0,065
-551,627	500,388	-0,062	-0,106
-550,612	800,000	-0,056	0,122
-549,598	-195,247	0,160	-0,001
-548,583	376,533	-0,046	0,069
-547,569	-200,000	-0,001	0,007
-546,554	-47,685	-0,076	-0,027
-545,539	-200,000	0,002	-0,071
-544,525	-200,000	-0,014	0,121
-543,510	-200,000	0,009	0,103
-542,496	681,759	0,022	-0,043
-541,481	800,000	-0,026	-0,074
-540,466	137,076	-0,101	-0,098
-539,452	787,729	0,031	0,063
-538,437	-138,859	0,028	-0,002
-537,423	-9,192	-0,113	0,056
-536,408	-190,932	-0,039	-0,000
-535,393	50,277	-0,090	0,063
-534,379	19,623	-0,083	-0,049
-533,364	102,132	0,030	-0,026
-532,350	6,025	0,081	-0,044
-531,335	-111,845	0,173	-0,026
-530,321	-200,000	0,001	0,003
-529,306	-200,000	0,013	-0,058
-528,291	126,630	-0,096	0,090
-527,277	-200,000	-0,035	-0,210
-526,262	-200,000	0,015	-0,094
-525,248	-105,968	0,048	-0,008
-524,233	290,510	0,093	0,125
-523,218	198,374	0,057	-0,065
-522,204	-57,121	-0,061	-0,020
-521,189	-3,282	-0,032	0,016
-520,175	168,074	-0,093	-0,097
-519,160	-200,000	-0,033	-0,131
-518,145	-62,273	0,190	0,058
-517,131	-23,351	0,033	0,015
-516,116	-200,000	-0,009	-0,078
-515,102	25,057	-0,069	0,042
-514,087	-4,044	-0,093	0,047
-513,072	800,000	-0,037	-0,100
-512,058	123,058	-0,080	0,074
-511,043	35,225	-0,050	-0,033
-510,029	-109,163	0,056	0,009
-509,014	-17,168	0,085	0,040
-507,999	508,770	0,095	-0,163
-506,985	105,707	0,094	0,082
-505,970	800,000	0,052	0,115
-504,956	-173,769	-0,100	-0,002
-503,941	501,014	0,029	0,049
-502,926	-200,000	0,035	0,138
-501,912	470,472	0,083	0,138
-500,897	-200,000	-0,082	0,000
-499,883	216,048	-0,074	0,087
-498,868	52,356	-0,106	-0,075
-497,853	-139,550	-0,091	0,007
-496,839	-129,506	-0,018	-0,002
-495,824	440,016	-0,091	0,147
-494,810	800,000	-0,066	-0,138
-493,795	-178,677	0,077	-0,001
-492,781	111,170	-0,040	0,036
-491,766	-200,000	-0,044	-0,152
-490,751	256,439	0,040	-0,051
-489,737	-200,000	-0,021	-0,140
-488,722	-200,000	-0,001	-0,081
-487,708	290,035	-0,027	0,037
-486,693	50,850	0,102	0,071
-485,678	130,543	0,065	0,061
-484,664	-200,000	-0,033	-0,142
-483,649	148,490	0,028	-0,028
-482,635	-106,070	-0,099	-0,016
-481,620	71,363	-0,072	-0,055
-480,605	395,765	0,067	0,104
-479,591	-35,227	-0,145	0,058
-478,576	480,870	0,008	-0,013
-477,562	-200,000	0,006	-0,091
-476,547	-77,618	-0,065	-0,017
-475,532	-200,000	-0,025	-0,137
-474,518	-200,000	-0,010	0,101
-473,503	-200,000	0,007	0,073
-472,489	-28,360	0,108	0,046
-471,474	77,064	-0,066	-0,051
-470,459	-88,763	-0,026	-0,006
-469,445	-200,000	-0,003	-0,060
-468,430	67,990	0,040	0,030
-467,416	170,125	-0,061	0,064
-466,401	-108,461	0,092	0,014
-465,386	123,428	0,043	0,040
-464,372	-98,601	0,025	-0,005
-463,357	-165,306	0,035	0,001
-462,343	-200,000	-0,012	0,042
-461,328	384,167	-0,085	0,129
-460,313	162,478	0,071	-0,074
-459,299	53,488	-0,069	-0,049
-458,284	-24,247	-0,174	0,076
-457,270	183,276	-0,133	-0,145
-456,255	119,042	-0,021	0,019
-455,241	188,244	0,025	-0,028
-454,226	-136,547	0,105	0,009
-453,211	-42,706	0,029	0,011
-452,197	-139,024	0,071	0,006
-451,182	-148,997	0,197	-0,012
-450,168	-83,329	0,024	-0,006
-449,153	-200,000	0,025	0,141
-448,138	-122,917	0,058	-0,007
-447,124	-143,801	0,243	0,017
-446,109	25,090	0,035	0,022
-445,095	-200,000	-0,041	0,236
-444,080	-55,923	0,049	-0,016
-443,065	-200,000	0,037	-0,128
-442,051	-200,000	0,018	0,078
-441,036	-147,300	0,042	-0,003
-440,022	71,517	-0,140	-0,107
-439,007	578,747	0,045	-0,082
-437,992	-43,141	-0,056	0,021
-436,978	8,155	-0,024	-0,013
-435,963	332,046	-0,103	0,146
-434,949	-145,779	0,102	0,007
-433,934	-200,000	0,025	-0,166
-432,919	-200,000	-0,023	-0,129
-431,905	92,818	0,081	-0,067
-430,890	184,420	-0,032	-0,035
-429,876	-54,239	0,074	0,025
-428,861	153,441	-0,062	-0,063
-427,846	-200,000	-0,018	0,094
-426,832	310,677	-0,063	-0,087
-425,817	72,774	-0,022	-0,017
-424,803	355,749	-0,035	-0,051
-423,788	198,676	0,051	-0,058
-422,773	-81,658	0,181	0,043
-421,759	800,000	-0,041	0,099
-420,744	115,857	-0,094	0,085
-419,730	800,000	-0,018	0,040
-418,715	181,443	0,072	-0,078
-417,701	-200,000	0,000	0,014
-416,686	-200,000	-0,005	-0,095
-415,671	800,000	0,046	0,099
-414,657	355,665	0,110	0,162
-413,642	534,463	-0,068	0,120
-412,628	172,399	-0,035	-0,037
-411,613	203,130	-0,008	-0,009
-410,598	-16,727	0,028	0,013
-409,584	-200,000	-0,021	-0,074
-408,569	129,944	0,020	-0,019
-407,555	-74,441	0,161	-0,042
-406,540	800,000	0,049	-0,100
-405,525	410,096	0,047	0,073
-404,511	-100,533	-0,090	-0,016
-403,496	471,734	-0,062	-0,103
-402,482	800,000	-0,019	-0,049
-401,467	800,000	-0,015	0,049
-400,452	-90,856	0,129	-0,027
-399,438	428,369	-0,088	0,141
-398,423	115,521	-0,053	0,047
-397,409	-159,928	0,082	0,003
-396,394	-200,000	-0,016	-0,113
-395,379	-51,512	0,085	0,029
-394,365	31,359	-0,054	0,034
-393,350	130,103	0,051	0,048
-392,336	311,552	0,089	0,123
-391,321	-200,000	-0,002	-0,023
-390,306	219,734	-0,081	0,096
-389,292	15,770	0,020	0,011
-388,277	625,074	0,045	0,084
-387,263	-141,035	-0,070	0,005
-386,248	-200,000	0,036	0,120
-385,233	28,013	0,124	0,077
-384,219	16,709	-0,067	-0,039
-383,204	-111,413	-0,088	-0,013
-382,190	-200,000	-0,027	-0,114
-381,175	800,000	0,037	0,104
-380,160	-200,000	-0,011	0,055
-379,146	-200,000	0,035	0,237
-378,131	113,418	0,055	0,049
-377,117	-200,000	-0,006	0,037
-376,102	-200,000	0,006	-0,161
-375,088	28,409	-0,086	0,053
-374,073	-67,522	0,073	0,021
-373,058	156,718	0,097	0,099
-372,044	324,892	-0,053	-0,075
-371,029	157,490	-0,077	-0,079
-370,015	71,074	-0,066	0,050
-369,000	587,558	-0,031	0,056
-367,985	455,736	-0,051	-0,084
-366,971	-24,361	-0,114	-0,050
-365,956	-17,617	0,036	0,017
-364,942	-98,293	-0,036	0,007
-363,927	-200,000	-0,023	0,090
-362,912	-200,000	0,003	0,049
-361,898	449,296	-0,110	-0,178
-360,883	81,045	0,110	-0,087
-359,869	329,874	-0,047	0,067
-358,854	-60,654	0,069	0,021
-357,839	474,414	0,053	0,088
-356,825	-14,990	0,015	0,007
-355,810	-200,000	0,020	0,173
-354,796	-35,084	0,047	-0,019
-353,781	-123,851	-0,152	0,017
-352,766	-200,000	-0,022	-0,224
-351,752	-46,759	0,096	0,034
-350,737	800,000	-0,037	0,105
-349,723	652,622	0,021	0,040
-348,708	59,212	-0,068	0,049
-347,693	-200,000	-0,018	-0,113
-346,679	-32,354	-0,105	0,043
-345,664	-200,000	-0,035	-0,207
-344,650	1,089	0,065	0,034
-343,635	-98,312	0,136	0,025
-342,620	536,188	-0,032	0,056
-341,606	800,000	-0,026	0,054
-340,591	17,138	-0,152	-0,088
-339,577	-200,000	-0,011	-0,129
-338,562	120,959	0,042	-0,038
-337,548	377,418	0,092	0,139
-336,533	180,192	0,081	0,088
-335,518	390,339	-0,131	0,200
-334,504	-200,000	-0,004	0,100
-333,489	-200,000	-0,008	0,139
-332,475	555,266	0,044	0,077
-331,460	-183,208	-0,092	-0,001
-330,445	-200,000	-0,002	-0,009
-329,431	-41,148	0,136	0,051
-328,416	103,092	0,072	0,062
-327,402	54,348	0,100	-0,070
-326,387	-200,000	0,008	-0,026
-325,372	-200,000	-0,047	-0,158
-324,358	194,273	0,117	-0,130
-323,343	-200,000	0,011	-0,064
-322,329	800,000	-0,058	0,125
-321,314	-150,135	-0,058	0,003
-320,299	175,271	0,024	-0,026
-319,285	-63,101	0,161	0,048
-318,270	321,357	-0,064	-0,090
-317,256	113,368	-0,066	-0,059
-316,241	800,000	0,059	-0,132
-315,226	-44,449	0,038	0,014
-314,212	466,426	0,060	0,099
-313,197	-200,000	-0,020	0,069
-312,183	-30,864	-0,091	-0,038
-311,168	800,000	-0,030	-0,085
-310,153	-10,978	0,132	0,064
-309,139	-24,261	0,024	-0,011
-308,124	-23,730	-0,041	-0,018
-307,110	-18,109	0,049	0,022
-306,095	-9,457	0,055	0,027
-305,080	305,778	-0,053	-0,072
-304,066	-62,008	0,040	0,012
-303,051	-154,179	-0,150	-0,007
-302,037	-200,000	-0,020	-0,071
-301,022	54,145	0,075	0,053
-300,008	224,419	0,078	0,093
-298,993	448,188	0,040	0,065
-297,978	688,551	0,060	0,115
-296,964	159,841	-0,090	0,091
-295,949	-200,000	-0,017	-0,110
-294,935	-200,000	-0,067	-0,343
-293,920	800,000	0,017	0,050
-292,905	128,786	0,051	0,048
-291,891	304,812	0,071	0,097
-290,876	657,221	0,025	0,048
-289,862	160,548	-0,074	0,076
-288,847	289,103	-0,073	-0,097
-287,832	-22,188	-0,063	0,028
-286,818	122,312	0,045	-0,042
-285,803	800,000	0,060	0,180
-284,789	-39,537	0,114	0,043
-283,774	-15,400	0,124	-0,058
-282,759	800,000	-0,070	0,172
-281,745	800,000	-0,031	-0,066
-280,730	111,664	-0,113	-0,100
-279,716	-200,000	0,012	0,104
-278,701	-200,000	-0,021	0,106
-277,686	-102,819	0,041	0,007
-276,672	-200,000	-0,024	0,091
-275,657	-200,000	0,012	-0,041
-274,643	800,000	0,019	-0,041
-273,628	800,000	-0,015	-0,039
-272,613	800,000	-0,008	0,026
-271,599	-200,000	0,019	-0,208
-270,584	130,116	0,067	0,063
-269,570	67,139	0,041	0,031
-268,555	-47,165	0,036	0,013
-267,540	-49,727	-0,045	0,016
-266,526	-200,000	-0,018	-0,063
-265,511	-200,000	-0,007	0,061
-264,497	-19,356	0,092	0,042
-263,482	-200,000	-0,010	-0,040
-262,467	-200,000	-0,006	0,135
-261,453	-77,603	0,125	-0,032
-260,438	-200,000	-0,012	-0,070
-259,424	341,416	0,069	-0,099
-258,409	-10,505	-0,041	0,020
-257,395	-200,000	-0,005	0,100
-256,380	-200,000	-0,009	0,068
-255,365	1,952	-0,047	0,025
-254,351	233,533	0,059	0,071
-253,336	-26,095	-0,065	-0,028
-252,322	-166,303	-0,063	-0,002
-251,307	81,294	-0,049	0,039
-250,292	-200,000	-0,070	0,241
-249,278	800,000	-0,029	0,075
-248,263	-117,532	-0,035	0,005
-247,249	82,250	-0,031	0,024
-246,234	-75,808	-0,061	0,016
-245,219	800,000	-0,030	-0,064
-244,205	-200,000	-0,008	0,062
-243,190	-200,000	-0,000	0,007
-242,176	-98,176	-0,029	0,005
-241,161	-200,000	0,030	-0,164
-240,146	800,000	-0,038	0,095
-239,132	-200,000	-0,005	-0,056
-238,117	77,296	0,115	0,089
-237,103	-200,000	-0,011	0,060
-236,088	310,233	0,061	0,084
-235,073	800,000	-0,074	0,166
-234,059	46,823	0,050	0,034
-233,044	-132,737	0,071	0,007
-232,030	-4,095	0,059	-0,030
-231,015	380,097	0,072	-0,108
-230,000	228,936	-0,047	-0,057
-228,986	192,861	0,076	0,084
-227,971	800,000	0,038	0,099
-226,957	-127,005	0,173	-0,018
-225,942	800,000	0,033	-0,087
-224,927	-45,436	0,046	0,017
-223,913	-200,000	-0,009	-0,040
-222,898	-105,986	0,037	-0,006
-221,884	150,432	-0,099	-0,098
-220,869	-157,770	0,056	0,002
-219,855	-200,000	-0,005	-0,086
-218,840	800,000	0,026	-0,054
-217,825	257,855	-0,034	-0,043
-216,811	-60,355	-0,096	-0,030
-215,796	800,000	-0,052	-0,110
-214,782	800,000	-0,016	-0,052
-213,767	-54,702	-0,109	0,036
-212,752	81,071	0,041	-0,032
-211,738	524,029	-0,062	0,108
-210,723	0,796	-0,104	0,054
-209,709	-120,530	0,107	-0,013
-208,694	800,000	0,006	-0,015
-207,679	204,210	-0,101	-0,114
-206,665	-160,361	0,034	0,001
-205,650	-146,393	0,101	-0,006
-204,636	-92,318	-0,033	0,007
-203,621	192,190	-0,019	0,021
-202,606	-115,176	0,053	-0,007
-201,592	60,813	-0,099	-0,072
-200,577	-97,339	-0,110	0,021
-199,563	0,378	0,150	0,078
-198,548	8,589	0,101	-0,055
-197,533	-37,301	-0,011	0,004
-196,519	-26,950	0,097	-0,041
-195,504	-55,021	0,113	0,037
-194,490	-10,634	-0,015	-0,007
-193,475	-58,279	-0,066	-0,021
-192,460	98,419	-0,073	-0,062
-191,446	-200,000	-0,009	-0,112
-190,431	-118,527	0,125	0,016
-189,417	-55,013	0,074	0,024
-188,402	-136,242	-0,134	-0,011
-187,387	-113,011	0,080	-0,011
-186,373	-121,100	-0,110	0,013
-185,358	-109,978	0,090	0,014
-184,344	-200,000	0,015	-0,071
-183,329	800,000	0,096	-0,201
-182,315	322,058	0,087	-0,121
-181,300	800,000	-0,049	-0,102
-180,285	79,507	-0,063	-0,049
-179,271	-200,000	0,006	0,084
-178,256	800,000	0,069	-0,144
-177,242	-121,150	0,113	0,014
-176,227	10,530	0,047	0,026
-175,212	-2,518	0,090	0,046
-174,198	800,000	-0,051	0,145
-173,183	40,885	-0,063	0,041
-172,169	193,735	-0,111	0,122
-171,154	-200,000	0,044	-0,225
-170,139	118,584	0,007	0,007
-169,125	449,371	0,060	-0,097
-168,110	2,446	0,094	-0,049
-167,096	-200,000	-0,011	-0,104
-166,081	-200,000	0,005	-0,038
-165,066	697,339	-0,042	0,082
-164,052	263,153	-0,030	0,039
-163,037	32,717	-0,081	0,051
-162,023	99,687	-0,030	-0,025
-161,008	217,274	-0,071	-0,083
-159,993	324,820	-0,048	0,067
-158,979	69,870	-0,048	0,036
-157,964	-132,576	-0,046	-0,004
-156,950	17,254	0,092	-0,053
-155,935	120,055	-0,036	-0,033
-154,920	-200,000	-0,011	0,130
-153,906	-13,328	0,046	0,022
-152,891	800,000	0,034	0,074
-151,877	-200,000	0,005	-0,121
-150,862	-84,351	-0,061	-0,014
-149,847	800,000	0,017	-0,045
-148,833	-200,000	0,010	0,056
-147,818	800,000	-0,025	0,076
-146,804	800,000	-0,052	0,165
-145,789	-77,708	0,161	0,040
-144,775	94,930	0,047	-0,039
-143,760	13,794	-0,081	-0,046
-142,745	800,000	0,050	-0,139
-141,731	334,772	-0,029	0,042
-140,716	-143,687	0,111	-0,008
-139,702	538,889	0,032	0,056
-138,687	236,785	-0,053	-0,064
-137,672	153,016	-0,035	0,035
-136,658	-200,000	-0,005	-0,144
-135,643	401,270	-0,069	0,105
-134,629	1,371	-0,077	-0,040
-133,614	359,984	-0,036	-0,052
-132,599	-123,623	-0,146	-0,017
-131,585	800,000	-0,060	0,142
-130,570	-200,000	0,020	0,087
-129,556	484,959	-0,036	-0,059
-128,541	-178,712	-0,101	0,002
-127,526	-26,444	-0,022	0,010
-126,512	95,126	-0,016	0,013
-125,497	-140,060	0,226	0,017
-124,483	141,248	-0,041	-0,039
-123,468	12,468	-0,098	-0,055
-122,453	800,000	0,043	0,102
-121,439	234,087	0,111	-0,134
-120,424	166,236	0,061	0,063
-119,410	-200,000	-0,004	0,057
-118,395	-200,000	-0,009	0,066
-117,380	-200,000	-0,010	0,143
-116,366	69,281	-0,065	-0,048
-115,351	361,219	-0,018	0,026
-114,337	399,658	-0,038	-0,058
-113,322	800,000	-0,023	-0,053
-112,307	800,000	0,051	-0,114
-111,293	124,840	0,091	-0,084
-110,278	222,473	0,042	0,049
-109,264	567,959	-0,043	0,076
-108,249	-200,000	-0,002	0,091
-107,234	-107,673	-0,084	-0,013
-106,220	800,000	0,088	-0,220
-105,205	-117,290	0,077	0,010
-104,191	540,826	0,041	-0,071
-103,176	8,806	0,069	-0,037
-102,162	-200,000	-0,012	-0,074
-101,147	16,924	-0,080	-0,046
-100,132	87,060	-0,045	0,036
-99,118	495,379	0,033	0,056
-98,103	-192,524	-0,086	0,001
-97,089	344,363	0,090	0,129
-96,074	-33,998	0,194	0,077
-95,059	-200,000	0,015	0,074
-94,045	57,991	0,128	0,091
-93,030	692,667	0,045	-0,086
-92,016	-200,000	-0,002	-0,013
-91,001	24,081	0,060	-0,036
-89,986	-32,115	0,120	-0,048
-88,972	216,045	0,046	-0,053
-87,957	96,860	0,058	-0,049
-86,943	-85,673	0,140	0,031
-85,928	133,013	0,026	-0,024
-84,913	43,982	-0,064	-0,043
-83,899	25,550	-0,062	-0,037
-82,884	-47,970	0,023	0,008
-81,870	-68,112	-0,021	0,006
-80,855	-118,113	0,119	-0,015
-79,840	800,000	-0,038	-0,103
-78,826	92,950	0,047	0,038
-77,811	-200,000	-0,026	-0,090
-76,797	193,270	0,027	0,030
-75,782	173,268	-0,077	-0,080
-74,767	-6,284	-0,037	0,018
-73,753	-31,561	0,054	0,022
-72,738	230,903	-0,056	0,067
-71,724	123,439	-0,098	0,090
-70,709	251,609	-0,019	-0,023
-69,694	-150,710	0,081	-0,004
-68,680	-68,924	0,148	-0,041
-67,665	-200,000	0,008	0,090
-66,651	800,000	0,025	-0,070
-65,636	456,715	-0,069	-0,111
-64,622	-200,000	-0,023	0,109
-63,607	-200,000	0,037	0,140
-62,592	165,908	-0,022	0,023
-61,578	75,719	0,077	-0,059
-60,563	-0,966	-0,049	0,025
-59,549	-200,000	-0,010	0,049
-58,534	-108,681	-1,188	-0,183
-57,519	408,158	-0,960	-1,478
-56,505	-200,000	-0,805	-4,347
-55,490	128,632	0,566	-0,523
-54,476	800,000	4,955	11,846
-53,461	-200,000	13,263	253,202
-52,446	-200,000	688,516	2271,787
-51,432	598,041	1622,687	2931,351
-50,417	121,087	1636,773	1478,226
-49,403	73,602	1290,822	980,158
-48,388	38,506	1025,442	662,089
-47,373	24,600	982,691	588,731
-46,359	23,888	972,341	580,171
-45,344	22,883	968,380	574,499
-44,330	22,785	966,984	573,326
-43,315	22,689	965,682	572,218
-42,300	22,690	964,633	571,577
-41,286	22,699	963,492	570,909
-40,271	22,712	962,461	570,316
-39,257	22,705	961,592	569,756
-38,242	22,714	960,636	569,195
-37,227	22,669	959,854	568,563
-36,213	22,677	959,008	568,068
-35,198	22,630	958,148	567,382
-34,184	22,696	957,496	567,187
-33,169	22,653	956,634	566,515
-32,154	22,680	955,651	565,999
-31,140	22,708	954,772	565,546
-30,125	22,700	954,028	565,056
-29,111	22,723	953,207	564,623
-28,096	22,700	952,470	564,090
-27,082	22,711	951,933	563,783
-26,067	22,708	950,940	563,164
-25,052	22,718	950,484	562,904
-24,038	22,653	949,748	562,236
-23,023	22,753	948,993	562,087
-22,009	22,755	948,425	561,735
-20,994	22,752	947,664	561,253
-19,979	22,791	947,276	561,127
-18,965	22,726	946,594	560,491
-17,950	22,754	946,004	560,208
-16,936	22,644	945,349	559,448
-15,921	22,689	944,432	559,027
-14,906	22,622	943,919	558,487
-13,892	22,633	943,080	558,005
-12,877	22,568	942,556	557,466
-11,863	22,598	941,882	557,139
-10,848	22,560	941,499	556,771
-9,833	22,696	940,869	556,806
-8,819	22,680	940,185	556,330
-7,804	22,636	939,536	555,784
-6,790	22,553	939,271	555,341
-5,775	22,651	938,448	555,143
-4,760	22,618	937,892	554,688
-3,746	22,564	937,282	554,134
-2,731	22,416	936,607	553,246
-1,717	22,437	935,932	552,890
-0,702	22,428	935,198	552,408
0,313	22,213	934,475	552,137
1,327	25,337	932,446	560,720
2,342	35,228	796,989	505,629
3,356	33,449	451,891	283,985
4,371	2,111	293,400	153,172
5,386	-2,317	274,331	139,021
6,400	-3,776	268,520	134,712
7,415	-4,259	266,068	133,026
8,429	-3,999	264,729	132,583
9,444	-3,896	263,991	132,295
10,459	-4,115	263,360	131,768
11,473	-4,104	262,580	131,376
12,488	-4,224	262,274	131,103
13,502	-4,403	261,781	130,683
14,517	-4,365	261,315	130,473
15,531	-4,112	260,791	130,427
16,546	-4,188	260,390	130,147
17,561	-4,162	259,910	129,919
18,575	-4,123	259,710	129,842
19,590	-4,253	259,408	129,564
20,604	-4,014	259,113	129,618
21,619	-4,423	258,963	129,166
22,634	-4,183	258,579	129,177
23,648	-4,172	258,211	128,992
24,663	-4,242	257,815	128,719
25,677	-4,399	257,796	128,559
26,692	-4,324	257,530	128,482
27,707	-4,121	257,195	128,483
28,721	-4,169	256,871	128,267
29,736	-4,246	256,694	128,099
30,750	-4,275	256,420	127,926
31,765	-4,292	256,150	127,764
32,780	-4,256	255,956	127,688
33,794	-4,213	255,704	127,590
34,809	-4,188	255,452	127,474
35,823	-4,204	255,271	127,358
36,838	-4,322	254,971	127,094
37,853	-4,437	254,787	126,889
38,867	-4,482	254,601	126,747
39,882	-4,439	254,447	126,695
40,896	-4,435	254,091	126,511
41,911	-4,443	253,855	126,375
42,926	-4,363	253,733	126,373
43,940	-4,324	253,431	126,245
44,955	-4,415	253,100	125,990
45,969	-4,527	253,007	125,835
46,984	-4,622	252,655	125,566
47,999	-4,846	252,362	125,215
49,013	-5,030	252,247	124,986
50,028	-4,958	251,876	124,854
51,042	-5,173	251,689	124,565
52,057	-5,126	251,415	124,458
53,071	-5,067	251,164	124,374
54,086	-5,058	251,193	124,385
55,101	-4,999	251,006	124,332
56,115	-4,705	250,713	124,430
57,130	-4,400	250,788	124,718
58,144	-4,137	250,675	124,878
59,159	-4,144	250,456	124,752
60,174	-4,120	250,120	124,593
61,188	-4,112	250,136	124,597
62,203	-4,155	249,747	124,355
63,217	-4,313	249,555	124,114
64,232	-4,309	249,436	124,046
65,247	-4,181	249,212	124,034
66,261	-4,162	248,855	123,861
67,276	-4,420	248,652	123,529
68,290	-4,664	248,312	123,141
69,305	-4,619	248,086	123,056
70,320	-4,764	248,092	122,925
71,334	-4,290	247,777	123,160
72,349	-4,232	247,769	123,195
73,363	-4,313	247,686	123,074
74,378	-4,357	247,439	122,902
75,393	-4,205	246,994	122,800
76,407	-4,425	247,084	122,646
77,422	-4,345	246,873	122,599
78,436	-4,284	246,676	122,542
79,451	-4,241	246,393	122,427
80,466	-4,331	246,003	122,146
81,480	-4,414	245,801	121,964
82,495	-4,464	245,677	121,850
83,509	-4,457	245,459	121,737
84,524	-4,550	245,412	121,625
85,539	-4,772	245,025	121,236
86,553	-4,664	244,825	121,217
87,568	-4,535	244,728	121,266
88,582	-4,516	244,563	121,189
89,597	-4,535	244,476	121,119
90,611	-4,374	244,145	121,080
91,626	-4,310	244,127	121,113
92,641	-4,512	243,976	120,859
93,655	-4,354	243,729	120,857
94,670	-4,407	243,508	120,693
95,684	-4,471	243,312	120,531
96,699	-4,347	243,141	120,539
97,714	-4,516	243,046	120,341
98,728	-4,605	242,647	120,058
99,743	-4,680	242,602	119,963
100,757	-4,600	242,184	119,812
101,772	-4,672	242,103	119,702
102,787	-4,606	241,910	119,650
103,801	-4,551	241,893	119,677
104,816	-4,524	241,729	119,607
105,830	-4,302	241,482	119,658
106,845	-4,342	241,468	119,607
107,860	-4,241	241,180	119,537
108,874	-4,239	240,892	119,386
109,889	-4,356	240,778	119,222
110,903	-4,319	240,645	119,176
111,918	-4,474	240,485	118,959
112,933	-4,206	240,130	118,992
113,947	-4,176	240,071	118,977
114,962	-4,093	239,820	118,910
115,976	-4,341	239,657	118,616
116,991	-4,445	239,592	118,487
118,006	-4,482	239,433	118,369
119,020	-4,138	239,274	118,561
120,035	-4,447	239,261	118,290
121,049	-4,358	239,070	118,259
122,064	-4,127	238,782	118,294
123,079	-4,349	238,590	118,008
124,093	-4,522	238,425	117,774
125,108	-4,330	238,111	117,765
126,122	-4,810	237,981	117,300
127,137	-4,806	237,653	117,131
128,151	-4,797	237,574	117,089
129,166	-4,522	237,526	117,278
130,181	-4,418	237,127	117,155
131,195	-4,678	236,982	116,862
132,210	-4,552	236,971	116,948
133,224	-4,297	236,785	117,052
134,239	-4,280	236,671	116,999
135,254	-4,382	236,605	116,873
136,268	-4,524	236,206	116,552
137,283	-4,776	236,102	116,287
138,297	-4,981	235,826	115,976
139,312	-4,564	235,599	116,189
140,327	-4,335	235,526	116,327
141,341	-4,305	235,664	116,408
142,356	-4,073	235,459	116,484
143,370	-4,024	235,271	116,419
144,385	-3,934	235,004	116,349
145,400	-3,993	234,926	116,253
146,414	-4,055	234,552	116,008
147,429	-4,081	234,673	116,036
148,443	-4,121	234,361	115,840
149,458	-3,992	234,287	115,896
150,473	-4,125	234,148	115,711
151,487	-4,175	233,980	115,577
152,502	-4,077	233,696	115,505
153,516	-4,009	233,592	115,497
154,531	-3,973	233,381	115,411
155,546	-4,018	233,177	115,264
156,560	-4,167	233,053	115,074
157,575	-4,175	232,723	114,895
158,589	-4,346	232,725	114,750
159,604	-3,996	232,594	114,952
160,619	-4,057	232,433	114,815
161,633	-3,904	232,292	114,856
162,648	-3,928	232,248	114,805
163,662	-3,918	231,971	114,666
164,677	-4,144	231,720	114,353
165,692	-4,044	231,592	114,358
166,706	-3,937	231,636	114,454
167,721	-3,984	231,501	114,340
168,735	-3,859	231,161	114,261
169,750	-4,003	231,093	114,103
170,764	-4,023	230,826	113,946
171,779	-4,026	230,876	113,957
172,794	-3,793	230,681	114,034
173,808	-4,117	230,366	113,614
174,823	-4,499	229,988	113,119
175,837	-4,584	229,810	112,955
176,852	-4,161	229,916	113,328
177,867	-3,851	229,977	113,590
178,881	-3,836	229,666	113,438
179,896	-3,701	229,502	113,452
180,910	-3,970	229,441	113,203
181,925	-3,853	229,246	113,187
182,940	-3,990	229,171	113,033
183,954	-3,871	228,842	112,953
184,969	-3,689	228,831	113,080
185,983	-3,749	228,664	112,940
186,998	-3,957	228,575	112,725
188,013	-3,877	228,495	112,737
189,027	-3,729	228,238	112,715
190,042	-3,726	227,996	112,588
191,056	-3,819	227,932	112,474
192,071	-3,777	227,760	112,412
193,086	-3,700	227,475	112,321
194,100	-3,710	227,379	112,255
195,115	-3,900	227,128	111,975
196,129	-4,672	226,808	111,213
197,144	-1,336	228,072	114,404
198,159	2,704	229,081	118,032
199,173	4,328	229,276	119,379
200,188	4,133	229,128	119,141
201,202	4,015	229,021	118,984
202,217	4,570	228,986	119,384
203,232	4,633	228,828	119,339
204,246	4,551	228,743	119,221
205,261	4,674	228,567	119,214
206,275	5,017	228,399	119,380
207,290	4,907	228,223	119,192
208,304	4,809	228,250	119,120
209,319	4,769	228,030	118,964
210,334	4,907	227,673	118,873
211,348	4,659	227,512	118,588
212,363	4,156	227,263	118,062
213,377	3,861	227,020	117,700
214,392	3,909	226,857	117,642
215,407	4,173	226,781	117,793
216,421	4,163	226,759	117,764
217,436	4,160	226,482	117,607
218,450	3,640	226,248	117,078
219,465	3,924	226,004	117,158
220,480	3,952	225,962	117,147
221,494	3,751	225,846	116,924
222,509	4,158	225,650	117,122
223,523	3,882	225,676	116,915
224,538	4,081	225,204	116,811
225,553	4,068	225,277	116,828
226,567	4,089	225,097	116,741
227,582	4,148	225,265	116,862
228,596	4,464	225,094	117,002
229,611	4,047	224,776	116,511
230,626	3,740	224,688	116,223
231,640	4,112	224,457	116,374
232,655	4,305	224,278	116,416
233,669	4,583	224,369	116,663
234,684	4,584	224,053	116,489
235,699	4,441	223,953	116,319
236,713	4,040	223,826	115,940
237,728	4,052	223,590	115,817
238,742	3,959	223,233	115,552
239,757	4,023	223,238	115,593
240,772	3,943	223,114	115,458
241,786	3,865	222,866	115,261
242,801	4,143	222,908	115,480
243,815	4,309	222,800	115,539
244,830	4,628	222,465	115,593
245,844	4,273	222,501	115,336
246,859	4,275	222,208	115,176
247,874	4,316	222,159	115,171
248,888	4,296	222,055	115,091
249,903	4,266	221,791	114,922
250,917	3,997	221,637	114,631
251,932	4,084	221,538	114,634
252,947	3,989	221,421	114,494
253,961	3,941	221,116	114,289
254,976	3,891	221,017	114,192
255,990	4,216	220,995	114,411
257,005	4,126	220,917	114,294
258,020	4,109	220,676	114,146
259,034	4,309	220,537	114,212
260,049	4,121	220,454	114,020
261,063	4,163	220,396	114,011
262,078	4,300	220,244	114,024
263,093	4,468	220,083	114,054
264,107	4,247	219,829	113,749
265,122	4,413	219,747	113,819
266,136	4,453	219,742	113,835
267,151	4,461	219,664	113,791
268,166	4,182	219,201	113,336
269,180	3,879	219,031	113,015
270,195	4,091	218,879	113,082
271,209	3,966	218,664	112,870
272,224	3,918	218,607	112,795
273,239	4,241	218,555	112,995
274,253	3,922	218,443	112,693
275,268	3,876	218,143	112,495
276,282	3,806	218,060	112,390
277,297	3,839	217,840	112,292
278,312	3,617	217,870	112,135
279,326	4,171	217,708	112,445
280,341	3,754	217,733	112,144
281,355	4,099	217,465	112,248
282,370	3,955	217,330	112,063
283,384	3,729	217,045	111,741
284,399	3,584	216,871	111,536
285,414	3,618	216,710	111,468
286,428	3,929	216,755	111,707
287,443	4,221	216,723	111,893
288,457	4,201	216,494	111,750
289,472	4,256	216,284	111,672
290,487	3,515	216,005	110,981
291,501	3,769	215,779	111,039
292,516	3,880	215,772	111,106
293,530	3,631	215,512	110,782
294,545	3,882	215,566	110,982
295,560	3,926	215,362	110,898
296,574	4,286	215,274	111,103
297,589	4,164	215,317	111,027
298,603	4,241	215,016	110,917
299,618	4,155	214,949	110,811
300,633	4,248	214,817	110,800
301,647	4,241	214,798	110,775
302,662	4,152	214,684	110,643
303,676	4,314	214,346	110,575
304,691	4,356	214,264	110,552
305,706	4,189	214,309	110,446
306,720	4,323	213,809	110,275
307,735	4,158	213,819	110,152
308,749	3,982	213,561	109,883
309,764	4,025	213,694	109,973
310,779	4,287	213,483	110,042
311,793	4,140	213,318	109,842
312,808	4,090	213,100	109,684
313,822	4,233	212,951	109,700
314,837	4,112	212,795	109,523
315,852	3,880	212,616	109,256
316,866	4,099	212,460	109,322
317,881	4,124	212,503	109,353
318,895	4,282	212,295	109,347
319,910	4,116	212,141	109,140
320,925	3,775	211,956	108,794
321,939	3,675	211,703	108,584
322,954	3,543	211,745	108,502
323,968	4,011	211,600	108,749
324,983	4,286	211,625	108,946
325,997	4,224	211,406	108,781
327,012	4,212	211,340	108,728
328,027	4,125	211,217	108,594
329,041	4,180	211,200	108,614
330,056	4,482	211,013	108,721
331,070	4,063	210,649	108,230
332,085	4,014	210,405	108,060
333,100	3,821	210,379	107,902
334,114	4,132	210,272	108,055
335,129	3,860	210,191	107,814
336,143	3,856	209,896	107,649
337,158	3,675	209,825	107,476
338,173	4,006	209,736	107,653
339,187	4,021	209,497	107,532
340,202	3,630	209,544	107,273
341,216	3,481	209,352	107,060
342,231	3,911	209,081	107,213
343,246	3,726	209,052	107,059
344,260	3,793	208,915	107,026
345,275	4,022	208,887	107,162
346,289	4,153	208,747	107,172
347,304	3,898	208,737	106,979
348,319	4,169	208,395	106,982
349,333	4,107	208,410	106,938
350,348	4,197	208,162	106,863
351,362	4,238	208,109	106,855
352,377	4,128	207,955	106,690
353,392	4,193	207,772	106,632
354,406	4,274	207,563	106,571
355,421	192,997	1346,623	1432,442
356,435	153,921	1485,511	1432,564
