DTS Sentinel unit serial number:	SN410029Multiplexer serial number:	ORYXHardware model number:	OX2-SRSoftware version number:	ORYX F/W v4,00 Oryx Data Collector v3.7.2.0data status	okinstallation	B6 Nyhavnadifferential loss correction	single-endedforward channel	channel 2reverse channel	N/Adate	2023/12/09time	09:00:08forward acquisition time	300,00reverse acquisition time	0,00gamma	499,1914k internal	0,3138k external	0,3138temperature offset calibration	1,0000default loss term (dB/km)	0,3820temperature slope calibration	1,0000multiplexer offset coefficient	1,0000multiplexer slope coefficient	1,0000fibre end	0,00T internal ref (°C)	18,44T ext. ref 1 (°C)	1,96T ext. ref 2 (°C)	1,96length (m)	temperature (°C)	Stokes	anti-Stokes-744,400	223,530	0,058	-0,070
-743,385	-133,866	-0,263	0,024
-742,371	15,481	0,096	0,056
-741,356	-11,531	-0,267	0,130
-740,342	800,000	0,043	-0,097
-739,327	129,866	-0,104	0,099
-738,312	348,627	0,103	-0,151
-737,298	-82,608	-0,222	0,053
-736,283	32,078	0,086	-0,055
-735,269	-85,913	-0,271	0,062
-734,254	-200,000	0,014	0,057
-733,239	-109,689	-0,360	-0,056
-732,225	52,112	0,119	0,084
-731,210	99,594	0,064	-0,055
-730,196	229,672	0,068	-0,082
-729,181	800,000	0,041	-0,106
-728,167	-115,438	0,051	-0,007
-727,152	800,000	0,023	-0,072
-726,137	-23,082	-0,037	-0,016
-725,123	377,134	-0,044	-0,066
-724,108	-200,000	-0,050	-0,196
-723,094	-200,000	-0,011	-0,063
-722,079	59,446	-0,104	-0,076
-721,064	800,000	-0,027	-0,056
-720,050	174,702	-0,082	0,088
-719,035	-163,997	-0,149	0,005
-718,021	676,552	-0,069	-0,133
-717,006	414,801	-0,097	-0,154
-715,991	568,882	-0,054	-0,099
-714,977	-118,020	-0,161	0,021
-713,962	-33,528	-0,018	0,007
-712,948	26,168	0,012	0,008
-711,933	45,655	0,032	-0,022
-710,918	-200,000	-0,007	0,059
-709,904	139,441	-0,150	-0,147
-708,889	566,615	-0,117	-0,211
-707,875	-200,000	0,034	-0,117
-706,860	-200,000	-0,019	0,085
-705,845	-145,936	0,066	0,004
-704,831	113,153	0,024	-0,022
-703,816	-17,529	0,063	-0,029
-702,802	-200,000	-0,041	-0,141
-701,787	-200,000	-0,008	0,066
-700,772	-200,000	0,006	-0,058
-699,758	-166,283	-0,122	-0,004
-698,743	-143,578	0,088	-0,006
-697,729	-200,000	0,001	0,034
-696,714	30,816	-0,020	0,013
-695,699	800,000	-0,024	-0,077
-694,685	-18,471	-0,053	0,024
-693,670	-200,000	-0,023	-0,115
-692,656	-69,686	-0,081	0,023
-691,641	287,950	0,029	0,039
-690,627	264,596	-0,117	0,151
-689,612	79,320	-0,088	-0,070
-688,597	-86,594	-0,066	-0,015
-687,583	-39,367	-0,130	0,050
-686,568	-88,233	-0,177	0,039
-685,554	800,000	-0,046	0,136
-684,539	-89,241	0,085	0,018
-683,524	800,000	-0,009	-0,025
-682,510	-200,000	-0,001	0,038
-681,495	106,415	0,055	0,049
-680,481	-87,385	-0,090	0,020
-679,466	77,395	-0,019	0,015
-678,451	-84,060	-0,032	0,008
-677,437	788,108	0,067	0,137
-676,422	800,000	-0,032	-0,075
-675,408	73,330	-0,025	-0,019
-674,393	337,687	-0,083	-0,120
-673,378	-39,248	0,059	0,023
-672,364	800,000	-0,067	-0,155
-671,349	-63,651	-0,103	0,031
-670,335	436,007	0,025	-0,040
-669,320	-200,000	0,004	-0,082
-668,305	194,725	-0,076	0,085
-667,291	-200,000	0,033	0,135
-666,276	-16,386	0,049	-0,023
-665,262	119,096	-0,082	0,075
-664,247	800,000	0,016	-0,044
-663,232	-200,000	0,010	-0,073
-662,218	-3,151	0,010	0,005
-661,203	282,808	0,039	0,052
-660,189	800,000	-0,035	-0,089
-659,174	-122,574	0,046	0,005
-658,159	-200,000	-0,018	0,060
-657,145	-200,000	0,002	-0,090
-656,130	-138,888	0,088	-0,007
-655,116	-98,664	-0,031	0,006
-654,101	-200,000	-0,020	0,107
-653,086	800,000	-0,035	0,094
-652,072	445,849	0,024	-0,038
-651,057	800,000	0,019	0,044
-650,043	800,000	0,035	-0,099
-649,028	143,497	-0,014	-0,014
-648,014	39,185	-0,037	0,025
-646,999	-114,018	0,029	0,004
-645,984	210,154	-0,127	0,147
-644,970	198,357	-0,054	0,061
-643,955	-200,000	-0,010	-0,209
-642,941	202,867	-0,057	-0,065
-641,926	61,080	-0,078	-0,057
-640,911	146,694	-0,050	-0,050
-639,897	-200,000	0,010	0,077
-638,882	763,962	-0,023	0,046
-637,868	302,434	0,079	-0,108
-636,853	-9,313	0,056	0,027
-635,838	16,853	0,063	-0,037
-634,824	84,867	-0,111	-0,090
-633,809	-68,483	-0,094	-0,027
-632,795	-200,000	-0,005	-0,030
-631,780	186,573	-0,040	0,044
-630,765	684,855	-0,035	0,068
-629,751	800,000	0,028	-0,070
-628,736	118,023	-0,041	0,037
-627,722	-200,000	0,011	-0,098
-626,707	-49,757	0,032	0,011
-625,692	103,539	0,115	0,100
-624,678	-200,000	0,005	0,056
-623,663	-200,000	0,029	-0,151
-622,649	128,594	0,020	-0,019
-621,634	59,778	-0,231	-0,168
-620,619	67,830	-0,057	-0,043
-619,605	800,000	-0,033	-0,081
-618,590	-80,838	0,068	-0,016
-617,576	72,474	0,056	0,043
-616,561	126,848	0,067	0,063
-615,546	261,504	-0,124	-0,159
-614,532	-200,000	-0,009	-0,132
-613,517	-200,000	0,000	0,085
-612,503	800,000	0,030	0,081
-611,488	22,561	-0,011	-0,007
-610,474	800,000	0,043	0,122
-609,459	54,338	-0,050	0,035
-608,444	-42,299	-0,098	0,037
-607,430	-136,569	-0,041	-0,003
-606,415	-65,686	-0,069	0,020
-605,401	-200,000	0,013	0,143
-604,386	-200,000	0,007	-0,047
-603,371	118,583	-0,064	-0,058
-602,357	409,876	-0,036	0,057
-601,342	-200,000	0,070	-0,266
-600,328	-85,179	-0,058	-0,013
-599,313	-138,658	-0,117	-0,009
-598,298	198,643	0,057	-0,065
-597,284	-200,000	0,013	0,103
-596,269	-200,000	-0,002	0,036
-595,255	95,657	-0,098	0,083
-594,240	95,750	0,012	0,010
-593,225	-50,560	0,014	-0,005
-592,211	-200,000	-0,015	-0,082
-591,196	401,590	0,046	-0,071
-590,182	17,318	-0,028	-0,016
-589,167	-4,278	-0,130	-0,066
-588,152	-200,000	-0,011	0,053
-587,138	-60,071	0,052	0,016
-586,123	249,010	-0,101	-0,127
-585,109	710,013	-0,031	-0,061
-584,094	3,664	-0,083	-0,044
-583,079	-109,299	0,155	0,024
-582,065	55,676	-0,024	0,017
-581,050	315,099	-0,065	-0,090
-580,036	134,028	0,050	0,048
-579,021	95,865	0,080	0,067
-578,006	-131,756	-0,086	-0,008
-576,992	58,618	-0,074	-0,054
-575,977	-149,008	-0,031	-0,002
-574,963	554,646	0,015	-0,026
-573,948	-93,793	0,140	0,028
-572,934	104,812	0,026	-0,023
-571,919	141,398	0,044	-0,043
-570,904	-200,000	-0,103	0,000
-569,890	145,871	0,093	0,092
-568,875	404,541	-0,019	0,030
-567,861	12,964	-0,123	0,070
-566,846	-6,417	0,054	-0,027
-565,831	10,755	0,088	-0,049
-564,817	-200,000	0,013	-0,074
-563,802	800,000	0,021	0,057
-562,788	542,085	-0,037	-0,065
-561,773	217,698	0,029	0,035
-560,758	249,711	0,032	0,040
-559,744	-200,000	0,004	-0,022
-558,729	-95,073	0,122	0,024
-557,715	653,359	-0,064	-0,121
-556,700	307,916	-0,103	-0,142
-555,685	-200,000	-0,003	-0,076
-554,671	143,756	-0,026	0,025
-553,656	-200,000	-0,005	-0,064
-552,642	126,485	-0,066	0,061
-551,627	319,036	0,055	0,078
-550,612	800,000	0,018	-0,049
-549,598	85,610	0,045	0,036
-548,583	-200,000	0,002	0,046
-547,569	748,592	0,026	0,052
-546,554	73,928	0,076	-0,059
-545,539	47,333	0,043	0,030
-544,525	-0,091	0,074	0,039
-543,510	800,000	0,052	-0,123
-542,496	257,211	-0,032	-0,040
-541,481	-200,000	0,002	0,036
-540,466	800,000	-0,028	0,067
-539,452	-149,786	0,056	0,003
-538,437	69,507	0,120	0,091
-537,423	-200,000	-0,001	-0,070
-536,408	100,914	-0,083	-0,071
-535,393	-139,129	-0,065	0,005
-534,379	-200,000	-0,008	0,084
-533,364	800,000	0,040	0,117
-532,350	-200,000	0,001	0,043
-531,335	-73,258	-0,078	0,021
-530,321	-200,000	0,012	-0,043
-529,306	-200,000	0,022	-0,075
-528,291	239,871	-0,082	-0,100
-527,277	-169,467	0,039	-0,001
-526,262	146,190	-0,111	-0,110
-525,248	175,306	0,036	-0,038
-524,233	-17,333	0,009	-0,004
-523,218	-200,000	0,033	0,179
-522,204	-200,000	-0,047	-0,176
-521,189	-16,856	-0,109	0,050
-520,175	87,708	-0,049	-0,040
-519,160	800,000	-0,025	-0,052
-518,145	-52,375	0,091	-0,031
-517,131	-200,000	0,019	-0,095
-516,116	-200,000	0,011	0,144
-515,102	800,000	0,018	-0,039
-514,087	-134,685	-0,228	-0,020
-513,072	129,230	0,041	0,038
-512,058	379,951	-0,073	-0,110
-511,043	362,720	0,048	0,071
-510,029	-121,268	-0,122	0,015
-509,014	-91,423	-0,099	-0,021
-507,999	-200,000	0,016	-0,119
-506,985	376,389	-0,061	-0,091
-505,970	-1,677	-0,106	0,055
-504,956	0,017	0,070	0,037
-503,941	377,603	-0,018	0,028
-502,926	29,022	0,164	0,102
-501,912	800,000	-0,019	-0,056
-500,897	800,000	0,011	0,033
-499,883	-200,000	0,004	-0,068
-498,868	675,427	-0,045	0,086
-497,853	-131,527	0,114	0,011
-496,839	800,000	-0,065	-0,149
-495,824	800,000	0,039	0,091
-494,810	81,567	-0,077	0,061
-493,795	263,433	0,094	-0,120
-492,781	-143,800	-0,137	-0,009
-491,766	-44,514	-0,071	0,026
-490,751	-95,810	-0,145	0,028
-489,737	-62,448	-0,064	0,019
-488,722	128,373	0,032	-0,030
-487,708	265,727	0,026	-0,034
-486,693	368,287	0,017	0,025
-485,678	-200,000	-0,009	-0,046
-484,664	-200,000	-0,001	-0,217
-483,649	231,478	-0,038	-0,046
-482,635	800,000	-0,006	-0,018
-481,620	-159,818	0,010	0,000
-480,605	3,844	0,054	0,029
-479,591	169,416	0,056	0,059
-478,576	-76,655	-0,115	-0,029
-477,562	367,392	0,113	-0,168
-476,547	-200,000	-0,053	-0,217
-475,532	800,000	0,032	-0,075
-474,518	-200,000	0,019	0,081
-473,503	128,376	0,053	0,050
-472,489	105,134	0,060	0,052
-471,474	-87,679	-0,110	0,024
-470,459	131,054	0,060	-0,056
-469,445	-129,840	-0,071	-0,007
-468,430	145,446	-0,116	-0,115
-467,416	251,656	-0,048	-0,060
-466,401	44,062	0,062	0,042
-465,386	290,824	0,091	0,122
-464,372	-200,000	0,009	-0,077
-463,357	24,474	-0,022	0,013
-462,343	122,085	-0,064	-0,059
-461,328	177,156	0,029	-0,031
-460,313	-3,423	-0,081	-0,041
-459,299	800,000	0,013	0,034
-458,284	2,441	0,104	-0,055
-457,270	800,000	0,044	0,125
-456,255	-68,686	-0,082	-0,023
-455,241	118,364	-0,051	-0,046
-454,226	14,430	-0,052	0,030
-453,211	800,000	-0,040	0,100
-452,197	800,000	0,060	0,149
-451,182	-200,000	-0,061	0,000
-450,168	-4,592	0,065	-0,033
-449,153	24,151	-0,008	0,005
-448,138	179,639	-0,013	-0,014
-447,124	160,483	-0,087	-0,089
-446,109	563,986	0,024	-0,042
-445,095	-48,844	-0,116	-0,041
-444,080	-174,385	0,112	0,002
-443,065	-133,842	-0,051	0,005
-442,051	346,020	0,039	-0,056
-441,036	-74,290	0,068	0,018
-440,022	-200,000	-0,029	0,134
-439,007	-200,000	0,017	0,126
-437,992	-73,318	-0,037	0,010
-436,978	-54,351	-0,041	-0,014
-435,963	-200,000	-0,030	0,127
-434,949	13,293	0,105	-0,060
-433,934	-200,000	0,004	-0,081
-432,919	23,481	-0,072	0,043
-431,905	308,242	0,042	0,058
-430,890	573,307	-0,046	0,083
-429,876	-62,743	0,096	-0,029
-428,861	800,000	0,038	0,092
-427,846	-38,564	-0,043	-0,017
-426,832	-182,169	-0,107	-0,001
-425,817	-189,353	-0,175	-0,001
-424,803	100,698	-0,061	0,052
-423,788	476,409	0,104	0,173
-422,773	105,353	0,127	-0,110
-421,759	-200,000	0,021	-0,172
-420,744	323,984	0,075	-0,105
-419,730	-200,000	-0,006	-0,098
-418,715	-12,555	0,142	-0,068
-417,701	723,456	0,015	0,028
-416,686	-200,000	-0,006	-0,106
-415,671	90,323	0,094	0,077
-414,657	-132,554	0,051	-0,005
-413,642	285,859	-0,116	-0,154
-412,628	-200,000	-0,009	0,084
-411,613	-110,971	-0,081	0,012
-410,598	-58,368	-0,075	-0,024
-409,584	-118,538	-0,040	0,005
-408,569	68,752	0,037	0,028
-407,555	112,984	-0,099	0,088
-406,540	-7,689	0,089	0,044
-405,525	800,000	-0,023	0,065
-404,511	-108,086	-0,109	-0,017
-403,496	-10,741	-0,065	-0,032
-402,482	-102,136	0,045	-0,008
-401,467	-49,929	-0,113	0,039
-400,452	-131,656	-0,094	-0,009
-399,438	196,852	-0,085	0,095
-398,423	415,465	0,083	0,130
-397,409	800,000	-0,034	-0,106
-396,394	-29,150	0,034	0,014
-395,379	-133,907	0,095	0,008
-394,365	167,486	-0,055	0,057
-393,350	800,000	0,040	0,106
-392,336	229,707	-0,036	0,043
-391,321	800,000	0,030	-0,074
-390,306	-200,000	0,012	0,064
-389,292	-200,000	0,012	-0,079
-388,277	130,592	0,151	0,141
-387,263	-42,694	0,164	0,061
-386,248	-106,914	0,053	0,008
-385,233	-200,000	0,025	0,197
-384,219	137,805	-0,033	-0,032
-383,204	-123,575	-0,127	-0,015
-382,190	-200,000	-0,014	0,086
-381,175	800,000	-0,044	0,108
-380,160	-4,716	-0,083	0,042
-379,146	126,682	-0,106	0,098
-378,131	800,000	0,046	0,125
-377,117	-200,000	-0,004	0,150
-376,102	-200,000	-0,036	-0,143
-375,088	-91,760	-0,050	0,010
-374,073	20,796	-0,088	0,052
-373,058	448,400	0,054	0,088
-372,044	-28,568	-0,025	0,011
-371,029	-49,381	0,065	-0,022
-370,015	31,242	-0,087	0,054
-369,000	-200,000	-0,012	-0,247
-367,985	51,565	-0,122	0,085
-366,971	462,238	-0,053	0,087
-365,956	-200,000	-0,012	-0,086
-364,942	310,419	0,050	-0,069
-363,927	-161,897	0,008	0,000
-362,912	-58,016	0,046	0,015
-361,898	28,249	-0,088	0,054
-360,883	-200,000	-0,032	-0,137
-359,869	276,627	0,021	0,027
-358,854	-200,000	-0,006	-0,039
-357,839	336,010	-0,071	0,101
-356,825	-200,000	-0,005	0,159
-355,810	67,061	-0,075	0,056
-354,796	474,092	0,113	0,187
-353,781	-200,000	-0,009	-0,033
-352,766	-200,000	0,008	-0,085
-351,752	-200,000	0,014	0,142
-350,737	275,318	0,047	-0,061
-349,723	501,440	-0,047	-0,080
-348,708	-42,224	-0,064	-0,024
-347,693	177,064	0,021	0,023
-346,679	800,000	-0,027	-0,056
-345,664	-200,000	-0,006	-0,074
-344,650	-113,886	-0,097	-0,014
-343,635	800,000	-0,048	0,146
-342,620	-45,221	-0,022	0,008
-341,606	283,528	0,051	0,067
-340,591	-200,000	-0,030	0,100
-339,577	800,000	-0,019	0,056
-338,562	-56,767	-0,012	0,004
-337,548	-200,000	-0,015	-0,090
-336,533	-200,000	0,008	0,042
-335,518	186,690	0,049	-0,053
-334,504	-43,785	-0,018	-0,007
-333,489	-171,334	0,112	0,003
-332,475	213,466	-0,033	-0,038
-331,460	-200,000	-0,027	-0,105
-330,445	-200,000	0,006	-0,048
-329,431	18,509	-0,046	-0,027
-328,416	146,878	0,036	0,035
-327,402	-82,723	0,053	0,012
-326,387	377,802	0,072	0,108
-325,372	800,000	-0,044	0,130
-324,358	7,947	-0,035	-0,019
-323,343	800,000	-0,030	-0,085
-322,329	-200,000	-0,055	0,242
-321,314	800,000	0,038	-0,082
-320,299	200,941	-0,068	-0,076
-319,285	800,000	0,024	0,073
-318,270	-49,386	0,099	-0,034
-317,256	217,954	-0,084	-0,098
-316,241	325,787	-0,018	-0,025
-315,226	770,381	0,019	-0,038
-314,212	37,129	0,067	-0,043
-313,197	-155,052	-0,050	0,002
-312,183	72,152	0,110	0,083
-311,168	800,000	0,006	-0,017
-310,153	429,743	0,040	-0,064
-309,139	-200,000	0,002	-0,088
-308,124	99,718	-0,009	-0,008
-307,110	-200,000	0,009	0,033
-306,095	32,044	0,055	0,035
-305,080	218,505	0,004	-0,005
-304,066	-200,000	-0,014	-0,107
-303,051	-5,040	-0,092	0,046
-302,037	-129,357	0,062	0,006
-301,022	-200,000	0,005	0,044
-300,008	-200,000	0,010	-0,161
-298,993	-200,000	-0,006	0,049
-297,978	128,611	-0,054	0,050
-296,964	-182,730	-0,073	0,001
-295,949	-200,000	-0,022	0,077
-294,935	-55,560	0,052	0,017
-293,920	722,206	0,067	0,130
-292,905	546,321	0,068	0,119
-291,891	30,039	0,083	0,052
-290,876	-36,302	-0,019	-0,007
-289,862	406,209	0,028	-0,044
-288,847	-200,000	0,026	-0,097
-287,832	800,000	-0,005	0,013
-286,818	800,000	0,040	-0,098
-285,803	-200,000	-0,007	0,041
-284,789	154,909	0,061	-0,061
-283,774	14,629	0,049	-0,028
-282,759	559,864	-0,015	0,027
-281,745	-200,000	-0,000	-0,077
-280,730	320,982	-0,024	-0,033
-279,716	458,910	-0,056	-0,091
-278,701	-200,000	0,021	0,106
-277,686	272,604	0,098	0,127
-276,672	-44,673	0,042	0,015
-275,657	183,845	-0,090	0,097
-274,643	-113,349	-0,045	-0,006
-273,628	-200,000	0,006	-0,097
-272,613	-200,000	0,031	-0,104
-271,599	526,801	0,055	-0,096
-270,584	-46,665	0,216	-0,077
-269,570	-93,790	-0,034	-0,007
-268,555	39,047	0,106	0,069
-267,540	62,597	0,113	-0,082
-266,526	84,142	-0,098	0,078
-265,511	-78,182	-0,041	-0,010
-264,497	87,413	0,053	-0,043
-263,482	-78,770	-0,133	-0,033
-262,467	744,898	0,035	0,069
-261,453	-86,626	0,023	-0,005
-260,438	-27,305	0,090	-0,038
-259,424	800,000	-0,037	0,080
-258,409	-200,000	0,003	-0,037
-257,395	-98,165	0,124	0,023
-256,380	415,868	0,022	-0,035
-255,365	384,267	0,011	-0,017
-254,351	-95,833	-0,090	-0,017
-253,336	-200,000	-0,017	-0,069
-252,322	156,732	-0,076	-0,076
-251,307	-200,000	0,005	-0,051
-250,292	800,000	0,029	0,082
-249,278	275,309	0,043	0,056
-248,263	-200,000	-0,026	0,210
-247,249	115,977	0,044	-0,039
-246,234	214,159	0,058	0,067
-245,219	-200,000	-0,033	-0,135
-244,205	-49,502	-0,064	0,022
-243,190	308,765	-0,048	-0,065
-242,176	199,366	0,161	0,180
-241,161	-200,000	0,013	0,206
-240,146	-146,766	-0,036	0,002
-239,132	-38,748	0,094	0,036
-238,117	-90,116	0,055	0,012
-237,103	171,979	-0,026	-0,027
-236,088	11,671	0,096	0,053
-235,073	-21,289	0,058	0,026
-234,059	-200,000	-0,015	0,086
-233,044	-17,040	0,181	0,083
-232,030	84,081	-0,006	-0,005
-231,015	336,031	0,032	-0,045
-230,000	-44,190	-0,072	-0,026
-228,986	-200,000	0,002	-0,021
-227,971	800,000	0,040	-0,115
-226,957	126,123	0,061	-0,057
-225,942	-200,000	0,027	0,091
-224,927	-200,000	0,015	-0,063
-223,913	800,000	0,038	-0,079
-222,898	56,873	-0,075	0,053
-221,884	-118,348	0,112	0,014
-220,869	228,077	-0,013	-0,015
-219,855	-200,000	0,009	0,048
-218,840	-200,000	0,000	-0,004
-217,825	530,499	-0,059	0,101
-216,811	122,110	-0,100	-0,091
-215,796	-155,115	-0,080	0,004
-214,782	-78,475	0,145	-0,036
-213,767	-200,000	0,025	0,118
-212,752	181,171	0,042	0,045
-211,738	-116,015	0,201	0,027
-210,723	-122,014	-0,043	-0,005
-209,709	318,274	-0,060	-0,083
-208,694	-153,459	-0,099	-0,005
-207,679	162,834	0,033	-0,034
-206,665	512,020	-0,047	-0,081
-205,650	-200,000	0,010	-0,137
-204,636	186,208	0,061	0,066
-203,621	68,888	-0,017	-0,013
-202,606	-200,000	-0,013	-0,148
-201,592	-108,696	-0,085	-0,013
-200,577	-47,012	-0,173	0,061
-199,563	359,471	0,028	-0,040
-198,548	800,000	-0,035	0,083
-197,533	800,000	0,035	0,084
-196,519	-200,000	-0,063	0,203
-195,504	42,933	0,084	0,056
-194,490	748,024	0,027	-0,052
-193,475	180,635	-0,052	-0,055
-192,460	35,586	0,040	0,025
-191,446	288,325	0,054	0,071
-190,431	330,800	0,045	0,063
-189,417	-90,736	0,064	0,013
-188,402	387,458	0,058	-0,087
-187,387	372,092	-0,059	0,088
-186,373	-55,312	-0,109	0,035
-185,358	63,166	0,040	-0,029
-184,344	800,000	-0,009	0,018
-183,329	-13,711	0,051	-0,024
-182,315	800,000	-0,002	-0,005
-181,300	-185,159	0,169	-0,002
-180,285	-200,000	-0,040	-0,150
-179,271	-11,992	0,102	0,048
-178,256	-200,000	-0,009	0,039
-177,242	-200,000	-0,041	0,149
-176,227	-200,000	-0,008	-0,035
-175,212	174,234	0,036	0,038
-174,198	800,000	-0,060	0,131
-173,183	177,502	0,045	-0,048
-172,169	-9,953	0,052	0,025
-171,154	254,745	-0,101	-0,126
-170,139	-17,767	0,159	0,072
-169,125	-132,221	0,066	-0,006
-168,110	106,506	0,007	-0,006
-167,096	202,300	-0,048	-0,053
-166,081	36,205	0,099	-0,063
-165,066	-123,704	0,101	0,011
-164,052	800,000	0,031	0,080
-163,037	800,000	0,020	0,045
-162,023	218,692	0,080	-0,092
-161,008	-200,000	0,030	0,141
-159,993	-43,485	0,103	-0,037
-158,979	-15,316	0,131	-0,060
-157,964	-200,000	-0,005	-0,108
-156,950	-30,917	-0,046	-0,019
-155,935	57,666	-0,074	0,052
-154,920	-99,065	0,085	0,016
-153,906	-200,000	0,001	-0,097
-152,891	-86,835	0,180	0,040
-151,877	800,000	-0,040	0,095
-150,862	112,288	-0,083	-0,073
-149,847	650,707	0,031	0,058
-148,833	6,208	-0,046	0,024
-147,818	-200,000	-0,014	0,170
-146,804	241,115	0,033	0,041
-145,789	141,726	0,041	0,039
-144,775	691,719	0,043	0,083
-143,760	-200,000	0,004	-0,120
-142,745	-200,000	-0,000	-0,069
-141,731	243,142	0,054	0,066
-140,716	800,000	0,012	-0,032
-139,702	-83,095	0,122	-0,028
-138,687	-97,694	0,062	0,012
-137,672	-200,000	0,008	0,195
-136,658	49,259	-0,051	0,035
-135,643	100,291	-0,087	-0,073
-134,629	-130,811	0,142	0,014
-133,614	95,196	0,078	-0,064
-132,599	159,371	-0,086	0,086
-131,585	-51,321	0,059	0,020
-130,570	9,869	-0,048	0,026
-129,556	-135,304	-0,172	-0,015
-128,541	138,861	-0,059	0,056
-127,526	-22,045	0,055	-0,024
-126,512	800,000	0,068	0,142
-125,497	-46,297	-0,134	-0,047
-124,483	-200,000	-0,039	0,150
-123,468	477,328	-0,013	-0,021
-122,453	-200,000	-0,015	-0,054
-121,439	800,000	0,014	0,034
-120,424	800,000	-0,021	-0,061
-119,410	-107,045	-0,041	0,006
-118,395	51,319	-0,038	-0,026
-117,380	626,252	0,024	0,045
-116,366	185,666	-0,076	-0,082
-115,351	-127,812	-0,103	-0,011
-114,337	189,552	0,017	-0,018
-113,322	165,319	0,161	-0,165
-112,307	-39,091	0,089	-0,034
-111,293	-142,265	0,015	-0,001
-110,278	282,603	0,048	-0,063
-109,264	-140,591	-0,033	0,002
-108,249	800,000	-0,051	-0,123
-107,234	368,421	-0,018	-0,026
-106,220	25,411	-0,051	0,031
-105,205	62,921	-0,054	0,039
-104,191	108,525	0,068	0,059
-103,176	28,890	0,061	-0,037
-102,162	-49,926	0,109	0,037
-101,147	-200,000	0,029	-0,103
-100,132	-200,000	-0,004	-0,104
-99,118	265,820	-0,078	-0,099
-98,103	-136,194	0,123	-0,010
-97,089	-143,270	0,084	0,006
-96,074	142,983	-0,098	0,094
-95,059	-200,000	-0,009	0,035
-94,045	-30,851	-0,132	-0,054
-93,030	-200,000	-0,010	-0,050
-92,016	-150,205	-0,109	0,006
-91,001	800,000	-0,044	-0,111
-89,986	-113,250	0,151	-0,021
-88,972	-200,000	-0,043	0,138
-87,957	4,657	-0,113	0,060
-86,943	-200,000	-0,019	0,066
-85,928	-200,000	-0,001	-0,071
-84,913	196,805	-0,094	-0,104
-83,899	258,839	-0,103	-0,129
-82,884	404,838	0,102	-0,156
-81,870	235,705	0,079	0,094
-80,855	269,413	-0,109	0,138
-79,840	732,450	0,009	-0,017
-78,826	51,995	-0,030	-0,021
-77,811	-200,000	-0,000	-0,075
-76,797	-5,086	0,081	0,040
-75,782	199,051	0,059	0,066
-74,767	126,377	-0,176	0,161
-73,753	109,446	0,045	0,039
-72,738	800,000	0,035	0,082
-71,724	-6,628	-0,203	0,099
-70,709	-200,000	0,011	-0,104
-69,694	-200,000	0,024	0,080
-68,680	-5,240	0,059	0,029
-67,665	-41,318	-0,087	-0,032
-66,651	-200,000	0,029	0,098
-65,636	-200,000	-0,006	0,093
-64,622	-200,000	-0,013	-0,062
-63,607	-200,000	-0,010	-0,087
-62,592	134,111	0,051	-0,047
-61,578	500,165	-0,088	0,147
-60,563	-200,000	-0,023	0,089
-59,549	-200,000	-0,034	0,195
-58,534	-16,995	-1,756	-0,798
-57,519	800,000	-0,492	-1,130
-56,505	-200,000	-1,014	-4,709
-55,490	-167,564	0,809	-0,023
-54,476	800,000	5,263	12,153
-53,461	-200,000	15,947	279,102
-52,446	-200,000	702,802	2249,961
-51,432	565,575	1618,730	2845,757
-50,417	122,105	1622,889	1463,125
-49,403	82,973	1283,927	1007,498
-48,388	36,937	1028,216	655,230
-47,373	21,524	990,231	580,042
-46,359	20,442	978,832	569,772
-45,344	18,705	974,842	561,714
-44,330	18,840	973,377	561,291
-43,315	18,547	971,755	559,373
-42,300	18,508	970,506	558,504
-41,286	18,492	969,797	558,023
-40,271	18,505	968,700	557,412
-39,257	18,543	967,845	557,022
-38,242	18,465	967,097	556,314
-37,227	18,502	966,401	556,011
-36,213	18,398	965,773	555,290
-35,198	18,474	964,496	554,782
-34,184	18,526	963,801	554,529
-33,169	18,399	963,032	553,651
-32,154	18,495	962,151	553,435
-31,140	18,535	961,193	552,990
-30,125	18,562	960,501	552,657
-29,111	18,494	959,566	551,877
-28,096	18,520	959,064	551,651
-27,082	18,488	958,380	551,133
-26,067	18,494	957,730	550,757
-25,052	18,469	956,817	550,129
-24,038	18,488	955,932	549,659
-23,023	18,408	955,467	549,112
-22,009	18,499	954,718	548,953
-20,994	18,478	954,184	548,557
-19,979	18,481	953,594	548,206
-18,965	18,477	952,978	547,818
-17,950	18,475	952,297	547,395
-16,936	18,459	951,621	546,936
-15,921	18,442	950,973	546,488
-14,906	18,360	950,220	545,768
-13,892	18,382	949,555	545,437
-12,877	18,316	949,086	544,935
-11,863	18,311	948,392	544,498
-10,848	18,331	947,889	544,251
-9,833	18,406	947,512	544,252
-8,819	18,397	946,756	543,767
-7,804	18,393	945,996	543,297
-6,790	18,322	945,410	542,713
-5,775	18,339	944,967	542,492
-4,760	18,327	944,415	542,114
-3,746	18,393	943,685	541,886
-2,731	18,217	942,856	540,828
-1,717	18,214	942,088	540,357
-0,702	18,161	941,519	539,841
0,313	17,934	940,943	539,603
1,327	21,074	939,206	548,506
2,342	30,217	796,515	489,534
3,356	27,249	449,627	271,857
4,371	-2,533	295,749	148,919
5,386	-6,674	276,709	135,383
6,400	-7,880	271,082	131,493
7,415	-8,358	268,737	129,902
8,429	-8,155	267,550	129,503
9,444	-8,153	266,677	129,071
10,459	-8,328	266,200	128,669
11,473	-8,348	265,443	128,273
12,488	-8,368	264,845	127,954
13,502	-8,443	264,213	127,570
14,517	-8,694	263,925	127,191
15,531	-8,367	263,561	127,300
16,546	-8,368	263,136	127,083
17,561	-8,656	262,876	126,686
18,575	-8,310	262,556	126,833
19,590	-8,424	261,933	126,418
20,604	-8,577	261,877	126,242
21,619	-8,440	261,448	126,147
22,634	-8,227	261,125	126,171
23,648	-8,401	260,755	125,825
24,663	-8,672	260,650	125,521
25,677	-8,527	260,282	125,462
26,692	-8,461	260,053	125,399
27,707	-8,617	259,920	125,185
28,721	-8,529	259,543	125,070
29,736	-8,543	259,228	124,895
30,750	-8,501	258,830	124,729
31,765	-8,510	258,794	124,693
32,780	-8,527	258,668	124,606
33,794	-8,611	258,391	124,387
34,809	-8,460	258,066	124,354
35,823	-8,578	257,735	124,078
36,838	-8,553	257,476	123,964
37,853	-8,745	257,434	123,764
38,867	-8,467	257,049	123,813
39,882	-8,336	256,836	123,815
40,896	-8,427	256,582	123,601
41,911	-8,571	256,443	123,396
42,926	-8,705	256,189	123,145
43,940	-8,756	256,006	123,001
44,955	-8,803	255,757	122,830
45,969	-8,817	255,537	122,701
46,984	-8,980	255,209	122,390
47,999	-9,246	254,960	122,027
49,013	-9,228	254,696	121,905
50,028	-9,385	254,342	121,588
51,042	-9,529	254,269	121,416
52,057	-9,479	253,998	121,320
53,071	-9,390	253,704	121,246
54,086	-9,541	253,710	121,107
55,101	-9,137	253,468	121,332
56,115	-8,924	253,266	121,409
57,130	-8,554	253,205	121,690
58,144	-8,292	253,143	121,877
59,159	-8,412	252,998	121,691
60,174	-8,275	252,617	121,616
61,188	-8,440	252,380	121,348
62,203	-8,643	252,242	121,096
63,217	-8,470	252,111	121,172
64,232	-8,430	251,712	121,004
65,247	-8,419	251,562	120,930
66,261	-8,484	251,341	120,757
67,276	-8,758	251,064	120,378
68,290	-8,906	250,731	120,080
69,305	-9,112	250,701	119,878
70,320	-8,763	250,285	119,968
71,334	-8,830	250,267	119,891
72,349	-8,398	250,355	120,293
73,363	-8,361	250,003	120,145
74,378	-8,460	249,777	119,940
75,393	-8,702	249,464	119,574
76,407	-8,617	249,439	119,624
77,422	-8,625	249,071	119,429
78,436	-8,435	248,923	119,510
79,451	-8,661	248,687	119,193
80,466	-8,580	248,552	119,186
81,480	-8,854	248,167	118,759
82,495	-8,791	247,932	118,689
83,509	-8,910	247,777	118,504
84,524	-8,920	247,608	118,403
85,539	-8,986	247,428	118,252
86,553	-8,966	247,288	118,191
87,568	-8,942	247,091	118,106
88,582	-8,750	246,831	118,134
89,597	-8,884	246,790	117,990
90,611	-8,707	246,591	118,033
91,626	-8,434	246,407	118,165
92,641	-8,590	246,263	117,954
93,655	-8,697	245,965	117,711
94,670	-8,587	245,657	117,646
95,684	-8,786	245,568	117,425
96,699	-8,538	245,406	117,545
97,714	-8,717	245,216	117,294
98,728	-8,858	245,040	117,082
99,743	-8,967	244,745	116,839
100,757	-9,112	244,514	116,597
101,772	-8,875	244,325	116,694
102,787	-8,733	244,286	116,784
103,801	-8,670	244,069	116,722
104,816	-8,717	243,813	116,550
105,830	-8,467	243,867	116,773
106,845	-8,559	243,653	116,584
107,860	-8,718	243,425	116,332
108,874	-8,857	243,220	116,109
109,889	-8,645	242,892	116,118
110,903	-8,988	242,707	115,735
111,918	-8,804	242,669	115,859
112,933	-8,513	242,436	115,978
113,947	-8,628	242,390	115,850
114,962	-8,740	242,211	115,662
115,976	-8,475	242,061	115,798
116,991	-8,596	241,666	115,500
118,006	-8,682	241,631	115,402
119,020	-8,831	241,519	115,216
120,035	-8,671	241,330	115,246
121,049	-8,634	241,326	115,265
122,064	-8,561	241,028	115,172
123,079	-8,647	240,807	114,986
124,093	-8,752	240,546	114,764
125,108	-8,943	240,541	114,596
126,122	-8,900	240,014	114,369
127,137	-9,112	239,975	114,168
128,151	-9,027	239,807	114,147
129,166	-9,163	239,618	113,935
130,181	-8,898	239,472	114,072
131,195	-8,971	239,230	113,887
132,210	-8,847	239,059	113,897
133,224	-8,647	238,979	114,011
134,239	-8,645	238,797	113,916
135,254	-8,994	238,743	113,596
136,268	-8,748	238,345	113,596
137,283	-8,964	238,100	113,295
138,297	-9,133	237,946	113,074
139,312	-9,189	237,791	112,945
140,327	-8,795	237,733	113,226
141,341	-8,284	237,716	113,621
142,356	-8,208	237,561	113,599
143,370	-8,369	237,501	113,430
144,385	-8,239	237,196	113,378
145,400	-8,167	237,041	113,353
146,414	-8,128	236,796	113,256
147,429	-8,263	236,626	113,057
148,443	-8,420	236,645	112,929
149,458	-8,285	236,204	112,817
150,473	-8,261	236,224	112,836
151,487	-8,242	235,863	112,668
152,502	-8,252	235,830	112,635
153,516	-8,320	235,618	112,469
154,531	-8,366	235,457	112,345
155,546	-8,286	235,248	112,300
156,560	-8,467	235,047	112,049
157,575	-8,441	234,788	111,936
158,589	-8,425	234,591	111,845
159,604	-8,157	234,543	112,025
160,619	-8,171	234,504	111,986
161,633	-8,037	234,242	111,957
162,648	-8,141	234,275	111,880
163,662	-8,347	234,055	111,602
164,677	-8,439	233,812	111,403
165,692	-8,295	233,838	111,519
166,706	-8,165	233,675	111,535
167,721	-8,287	233,526	111,357
168,735	-8,053	233,472	111,507
169,750	-8,222	233,070	111,172
170,764	-8,171	233,018	111,177
171,779	-8,047	232,766	111,144
172,794	-8,305	232,661	110,881
173,808	-8,236	232,395	110,799
174,823	-8,942	232,058	110,073
175,837	-8,881	231,878	110,025
176,852	-8,521	231,892	110,305
177,867	-8,290	231,881	110,472
178,881	-8,264	231,829	110,458
179,896	-8,135	231,723	110,498
180,910	-8,360	231,553	110,231
181,925	-8,272	231,325	110,182
182,940	-8,298	230,992	109,993
183,954	-8,231	231,034	110,056
184,969	-8,140	230,914	110,060
185,983	-8,008	230,735	110,067
186,998	-8,134	230,578	109,885
188,013	-8,117	230,311	109,761
189,027	-8,065	230,250	109,762
190,042	-8,060	230,079	109,675
191,056	-8,060	229,827	109,545
192,071	-8,102	229,741	109,462
193,086	-7,946	229,583	109,498
194,100	-8,118	229,517	109,324
195,115	-8,343	229,116	108,948
196,129	-8,651	228,974	108,632
197,144	-3,926	230,624	113,090
198,159	1,469	232,001	117,975
199,173	3,005	232,558	119,449
200,188	3,184	232,389	119,492
201,202	3,436	232,259	119,611
202,217	3,419	232,277	119,596
203,232	3,972	232,106	119,928
204,246	4,054	231,945	119,898
205,261	3,944	231,922	119,790
206,275	4,245	231,600	119,847
207,290	4,365	231,516	119,886
208,304	4,230	231,352	119,685
209,319	3,998	231,263	119,449
210,334	4,057	230,957	119,326
211,348	4,173	230,882	119,366
212,363	3,389	230,473	118,538
213,377	3,246	230,386	118,372
214,392	3,344	230,201	118,343
215,407	3,367	230,079	118,287
216,421	3,512	229,711	118,199
217,436	3,445	229,687	118,124
218,450	3,102	229,528	117,768
219,465	3,134	229,377	117,705
220,480	3,032	229,228	117,539
221,494	3,228	229,028	117,577
222,509	3,211	229,097	117,588
223,523	3,354	228,763	117,516
224,538	3,266	228,735	117,424
225,553	3,257	228,519	117,296
226,567	3,386	228,420	117,333
227,582	3,550	228,285	117,379
228,596	3,715	228,254	117,479
229,611	3,549	228,057	117,240
230,626	3,024	227,989	116,793
231,640	3,148	227,672	116,715
232,655	3,487	227,633	116,944
233,669	3,757	227,552	117,097
234,684	4,259	227,306	117,343
235,699	3,661	227,274	116,860
236,713	3,611	226,866	116,602
237,728	3,450	226,786	116,428
238,742	3,048	226,683	116,060
239,757	3,253	226,483	116,102
240,772	3,434	226,318	116,145
241,786	3,296	226,226	115,983
242,801	3,539	225,863	115,970
243,815	3,729	226,003	116,175
244,830	3,889	225,800	116,181
245,844	3,318	225,670	115,673
246,859	3,336	225,376	115,526
247,874	3,381	225,347	115,534
248,888	3,620	225,333	115,697
249,903	3,581	225,002	115,488
250,917	3,570	224,820	115,376
251,932	3,344	224,694	115,131
252,947	3,387	224,512	115,059
253,961	3,364	224,326	114,936
254,976	3,458	224,315	114,991
255,990	3,741	224,216	115,142
257,005	3,601	224,074	114,954
258,020	3,741	223,844	114,930
259,034	3,756	223,940	114,981
260,049	3,570	223,807	114,763
261,063	3,672	223,612	114,729
262,078	3,726	223,337	114,618
263,093	3,747	223,314	114,612
264,107	3,529	223,201	114,381
265,122	3,653	223,026	114,374
266,136	3,675	222,802	114,265
267,151	3,686	222,660	114,191
268,166	3,343	222,382	113,783
269,180	3,255	222,039	113,531
270,195	3,419	222,040	113,643
271,209	3,232	221,914	113,430
272,224	3,419	221,796	113,499
273,239	3,487	221,705	113,492
274,253	3,402	221,436	113,281
275,268	3,173	221,313	113,039
276,282	2,881	221,266	112,789
277,297	3,134	221,004	112,832
278,312	3,437	220,916	113,001
279,326	3,390	220,856	112,926
280,341	3,506	220,697	112,919
281,355	3,409	220,617	112,797
282,370	3,349	220,330	112,596
283,384	2,987	220,233	112,270
284,399	3,044	220,032	112,200
285,414	3,201	219,894	112,235
286,428	3,373	219,870	112,339
287,443	3,580	219,653	112,369
288,457	3,651	219,629	112,399
289,472	3,400	219,373	112,075
290,487	3,018	219,067	111,629
291,501	2,849	219,082	111,503
292,516	2,973	218,964	111,524
293,530	2,990	218,898	111,493
294,545	2,982	218,678	111,365
295,560	3,276	218,549	111,503
296,574	3,207	218,418	111,377
297,589	3,422	218,252	111,438
298,603	3,655	218,238	111,590
299,618	3,418	218,072	111,323
300,633	3,502	218,050	111,364
301,647	3,734	217,902	111,446
302,662	3,713	217,613	111,273
303,676	3,351	217,621	111,005
304,691	3,596	217,380	111,050
305,706	3,765	217,328	111,135
306,720	3,601	217,115	110,898
307,735	3,541	217,055	110,814
308,749	3,394	216,776	110,556
309,764	3,401	216,682	110,503
310,779	3,590	216,438	110,505
311,793	3,519	216,214	110,329
312,808	3,328	216,184	110,167
313,822	3,470	216,052	110,192
314,837	3,552	215,845	110,136
315,852	3,255	215,744	109,861
316,866	3,437	215,742	109,981
317,881	3,737	215,581	110,104
318,895	3,723	215,429	110,007
319,910	3,466	215,235	109,713
320,925	3,050	215,132	109,354
321,939	2,727	214,932	109,011
322,954	2,924	214,781	109,066
323,968	3,445	214,799	109,437
324,983	3,561	214,670	109,444
325,997	3,657	214,590	109,462
327,012	3,723	214,431	109,419
328,027	3,461	214,131	109,069
329,041	3,441	214,300	109,132
330,056	3,816	214,227	109,351
331,070	3,318	213,790	108,765
332,085	3,243	213,548	108,579
333,100	3,156	213,475	108,470
334,114	3,344	213,412	108,562
335,129	3,495	213,176	108,539
336,143	3,410	213,003	108,381
337,158	3,406	212,944	108,339
338,173	3,433	212,779	108,264
339,187	3,178	212,609	107,989
340,202	3,173	212,368	107,853
341,216	2,999	212,261	107,666
342,231	3,184	212,205	107,758
343,246	3,016	212,111	107,583
344,260	3,221	212,051	107,687
345,275	3,118	211,905	107,531
346,289	3,407	211,795	107,669
347,304	3,594	211,672	107,727
348,319	3,253	211,390	107,335
349,333	3,478	211,293	107,434
350,348	3,232	211,352	107,282
351,362	3,659	211,094	107,441
352,377	3,526	210,980	107,280
353,392	3,252	210,910	107,043
354,406	3,364	210,578	106,943
355,421	195,093	1341,555	1426,736
356,435	155,789	1479,386	1426,771
