DTS Sentinel unit serial number:	SN410029Multiplexer serial number:	ORYXHardware model number:	OX2-SRSoftware version number:	ORYX F/W v4,00 Oryx Data Collector v3.7.2.0data status	okinstallation	B6 Nyhavnadifferential loss correction	single-endedforward channel	channel 2reverse channel	N/Adate	2023/12/08time	20:25:08forward acquisition time	300,00reverse acquisition time	0,00gamma	499,1914k internal	0,3158k external	0,3158temperature offset calibration	1,0000default loss term (dB/km)	0,3820temperature slope calibration	1,0000multiplexer offset coefficient	1,0000multiplexer slope coefficient	1,0000fibre end	0,00T internal ref (°C)	15,20T ext. ref 1 (°C)	-1,36T ext. ref 2 (°C)	-1,37length (m)	temperature (°C)	Stokes	anti-Stokes-744,400	-79,737	0,147	0,036
-743,385	-130,192	-0,284	0,028
-742,371	-17,000	0,169	0,079
-741,356	-65,326	-0,335	0,099
-740,342	-200,000	0,004	-0,033
-739,327	-104,599	-0,321	-0,054
-738,312	-60,039	0,227	0,071
-737,298	-11,552	-0,321	-0,155
-736,283	331,036	0,060	-0,086
-735,269	-78,028	-0,373	0,094
-734,254	160,528	0,106	0,109
-733,239	-71,074	-0,541	-0,149
-732,225	-29,802	0,097	0,041
-731,210	-5,859	-0,012	0,006
-730,196	23,412	-0,024	0,014
-729,181	-72,326	0,046	0,012
-728,167	800,000	-0,055	-0,124
-727,152	35,099	-0,108	-0,069
-726,137	1,036	-0,091	0,048
-725,123	19,606	-0,078	-0,046
-724,108	4,620	-0,117	0,063
-723,094	150,104	-0,120	-0,120
-722,079	-9,367	0,088	-0,043
-721,064	-150,832	-0,091	0,005
-720,050	-200,000	0,021	0,106
-719,035	47,116	0,060	0,041
-718,021	81,596	0,077	0,062
-717,006	-183,133	-0,089	0,001
-715,991	246,073	-0,032	-0,039
-714,977	151,706	-0,079	0,079
-713,962	-200,000	-0,025	-0,107
-712,948	77,709	0,062	-0,049
-711,933	-67,498	0,060	-0,017
-710,918	800,000	-0,089	-0,190
-709,904	402,098	-0,066	-0,102
-708,889	17,072	-0,050	0,029
-707,875	-98,764	-0,142	0,026
-706,860	-200,000	-0,005	0,056
-705,845	-200,000	-0,012	-0,042
-704,831	157,931	0,015	0,015
-703,816	-200,000	0,059	0,197
-702,802	800,000	-0,043	0,131
-701,787	-8,315	-0,076	-0,037
-700,772	-200,000	-0,015	-0,135
-699,758	275,582	0,071	-0,093
-698,743	725,210	0,036	0,072
-697,729	123,319	0,070	0,065
-696,714	-84,449	0,018	-0,004
-695,699	130,836	0,050	-0,047
-694,685	800,000	-0,018	0,056
-693,670	-46,395	0,081	-0,029
-692,656	-127,103	-0,091	0,010
-691,641	800,000	0,019	-0,052
-690,627	800,000	0,052	-0,130
-689,612	-134,413	-0,111	0,010
-688,597	-200,000	-0,030	-0,108
-687,583	132,678	-0,115	-0,109
-686,568	-89,597	-0,109	0,023
-685,554	747,631	-0,057	-0,113
-684,539	485,619	0,061	-0,103
-683,524	93,687	-0,037	0,031
-682,510	176,802	0,018	-0,019
-681,495	800,000	0,036	0,089
-680,481	-200,000	0,019	-0,114
-679,466	-133,097	0,031	-0,003
-678,451	-96,626	-0,189	-0,036
-677,437	590,627	0,076	-0,139
-676,422	286,077	0,072	-0,095
-675,408	231,889	0,017	0,021
-674,393	493,078	-0,009	0,016
-673,378	49,402	-0,082	0,057
-672,364	295,485	0,063	0,085
-671,349	-36,890	-0,042	0,016
-670,335	-121,954	-0,060	-0,007
-669,320	-200,000	0,015	-0,066
-668,305	539,893	-0,087	0,152
-667,291	-168,913	-0,113	0,003
-666,276	-110,264	-0,158	-0,024
-665,262	484,683	0,016	-0,027
-664,247	58,701	-0,020	-0,014
-663,232	800,000	0,047	-0,117
-662,218	-61,344	0,132	0,041
-661,203	11,236	-0,097	0,054
-660,189	-200,000	0,006	0,033
-659,174	114,678	-0,050	0,045
-658,159	-200,000	-0,014	-0,061
-657,145	800,000	0,047	-0,098
-656,130	-6,358	0,064	-0,032
-655,116	628,735	0,030	0,056
-654,101	699,515	0,051	0,100
-653,086	168,088	0,171	0,179
-652,072	87,807	-0,093	0,076
-651,057	-200,000	0,005	-0,143
-650,043	291,553	0,022	0,029
-649,028	-200,000	-0,016	-0,061
-648,014	22,269	-0,070	-0,042
-646,999	-200,000	0,012	0,055
-645,984	475,881	0,046	0,076
-644,970	-200,000	-0,008	-0,084
-643,955	-68,356	-0,041	0,012
-642,941	-12,929	-0,170	0,081
-641,926	800,000	-0,093	-0,223
-640,911	800,000	0,016	0,040
-639,897	-200,000	-0,004	0,079
-638,882	21,018	0,106	-0,063
-637,868	-49,250	-0,112	-0,039
-636,853	299,375	0,036	-0,049
-635,838	-200,000	0,057	0,216
-634,824	373,768	0,070	-0,105
-633,809	8,818	-0,117	0,065
-632,795	352,269	-0,051	0,075
-631,780	-1,703	-0,048	0,025
-630,765	-10,598	0,102	-0,050
-629,751	-83,952	0,024	0,006
-628,736	-150,189	-0,045	0,003
-627,722	-118,386	-0,038	-0,005
-626,707	800,000	0,054	-0,157
-625,692	-66,522	0,184	0,053
-624,678	-200,000	-0,036	0,164
-623,663	139,299	-0,025	0,024
-622,649	-75,367	-0,041	0,011
-621,634	800,000	-0,019	0,041
-620,619	-21,366	-0,081	0,036
-619,605	800,000	0,023	-0,059
-618,590	-200,000	0,005	-0,090
-617,576	-91,599	-0,121	0,025
-616,561	-152,758	0,057	0,003
-615,546	800,000	-0,058	-0,134
-614,532	93,376	-0,056	-0,047
-613,517	-200,000	0,010	-0,076
-612,503	-200,000	-0,005	0,043
-611,488	-72,007	0,110	-0,030
-610,474	-25,930	-0,106	0,046
-609,459	85,684	-0,053	-0,043
-608,444	175,285	-0,030	0,032
-607,430	-102,321	0,081	-0,014
-606,415	-200,000	-0,009	-0,106
-605,401	-0,671	-0,061	-0,031
-604,386	-200,000	0,003	-0,035
-603,371	-58,804	-0,064	0,020
-602,357	-31,093	0,025	-0,010
-601,342	-200,000	-0,009	0,054
-600,328	-107,091	-0,094	0,015
-599,313	-200,000	0,007	-0,031
-598,298	19,981	0,062	-0,037
-597,284	312,362	0,063	0,087
-596,269	-177,545	-0,057	0,001
-595,255	192,257	0,037	0,041
-594,240	800,000	0,040	0,126
-593,225	-8,924	-0,203	-0,100
-592,211	8,918	-0,112	-0,062
-591,196	-15,211	-0,076	-0,036
-590,182	581,415	0,041	0,073
-589,167	635,169	-0,040	0,075
-588,152	31,024	-0,035	-0,022
-587,138	533,222	0,064	0,111
-586,123	-12,201	-0,124	-0,059
-585,109	24,601	0,169	0,102
-584,094	217,830	-0,065	-0,077
-583,079	268,791	0,044	-0,057
-582,065	800,000	0,038	-0,116
-581,050	510,276	0,041	0,069
-580,036	-112,024	-0,219	0,032
-579,021	-85,330	-0,047	0,011
-578,006	316,077	0,035	0,048
-576,992	42,905	-0,075	-0,050
-575,977	-63,554	0,113	-0,034
-574,963	102,472	-0,162	0,139
-573,948	201,221	0,060	0,068
-572,934	-108,080	-0,020	-0,003
-571,919	23,185	-0,034	0,020
-570,904	-21,317	-0,060	-0,027
-569,890	-200,000	0,025	0,173
-568,875	146,039	0,057	-0,056
-567,861	-200,000	-0,001	0,015
-566,846	336,753	0,061	0,086
-565,831	-200,000	0,008	-0,118
-564,817	-43,876	-0,123	-0,045
-563,802	-144,643	-0,039	0,003
-562,788	800,000	-0,015	0,035
-561,773	-55,915	-0,035	-0,011
-560,758	-185,177	0,161	-0,002
-559,744	-50,404	-0,130	0,045
-558,729	235,347	0,057	0,069
-557,715	152,942	0,058	0,058
-556,700	800,000	-0,030	-0,092
-555,685	401,472	0,023	-0,036
-554,671	-21,860	0,132	-0,058
-553,656	15,491	0,019	0,011
-552,642	180,106	-0,023	0,025
-551,627	173,292	-0,023	0,024
-550,612	148,207	-0,135	-0,134
-549,598	89,446	-0,047	-0,038
-548,583	-200,000	-0,013	-0,053
-547,569	225,098	0,029	0,034
-546,554	308,485	0,031	0,042
-545,539	-200,000	0,007	0,089
-544,525	318,583	0,037	-0,051
-543,510	346,719	-0,048	0,069
-542,496	144,716	-0,103	-0,101
-541,481	-46,773	-0,068	-0,024
-540,466	57,519	-0,147	-0,105
-539,452	800,000	0,036	-0,085
-538,437	-94,540	0,075	-0,015
-537,423	559,156	-0,059	-0,104
-536,408	-1,745	-0,043	-0,022
-535,393	-43,972	-0,085	-0,031
-534,379	18,797	-0,139	-0,081
-533,364	800,000	-0,015	-0,035
-532,350	-200,000	-0,017	-0,085
-531,335	-77,470	0,094	-0,024
-530,321	-144,715	-0,094	-0,006
-529,306	15,973	0,070	-0,040
-528,291	-200,000	-0,022	-0,104
-527,277	-150,721	-0,038	0,002
-526,262	793,576	0,011	0,023
-525,248	7,785	-0,036	0,020
-524,233	483,879	0,063	0,104
-523,218	-48,414	0,022	0,008
-522,204	356,592	0,037	0,054
-521,189	116,641	-0,106	-0,095
-520,175	-101,669	0,061	-0,011
-519,160	489,386	-0,075	0,126
-518,145	27,115	0,114	-0,070
-517,131	-200,000	-0,001	-0,049
-516,116	6,442	0,122	0,066
-515,102	-200,000	-0,014	0,109
-514,087	-115,562	0,009	0,001
-513,072	-68,924	0,056	0,016
-512,058	587,621	0,003	-0,006
-511,043	-200,000	0,003	-0,119
-510,029	-22,735	-0,144	0,063
-509,014	-200,000	-0,001	-0,074
-507,999	633,442	0,025	0,047
-506,985	481,083	-0,037	0,061
-505,970	554,697	-0,017	-0,030
-504,956	-161,450	-0,017	-0,001
-503,941	147,895	-0,051	0,050
-502,926	222,360	-0,021	-0,024
-501,912	-200,000	0,037	-0,129
-500,897	544,178	-0,052	0,091
-499,883	243,325	0,155	0,190
-498,868	177,753	-0,046	0,049
-497,853	336,729	0,084	-0,119
-496,839	30,546	0,083	-0,052
-495,824	-200,000	-0,001	0,100
-494,810	-31,332	0,006	0,002
-493,795	75,124	-0,088	0,068
-492,781	-178,250	0,095	-0,002
-491,766	-81,366	-0,044	0,011
-490,751	-94,914	-0,162	-0,032
-489,737	-6,953	0,172	-0,085
-488,722	371,214	0,058	0,087
-487,708	-200,000	0,017	0,104
-486,693	20,546	-0,051	0,030
-485,678	800,000	0,019	-0,044
-484,664	-171,297	-0,084	-0,002
-483,649	-80,716	0,054	0,013
-482,635	129,261	0,069	0,064
-481,620	-126,690	-0,107	-0,011
-480,605	-200,000	0,009	0,065
-479,591	-200,000	-0,021	0,101
-478,576	-7,013	0,044	-0,022
-477,562	-118,207	0,063	-0,008
-476,547	47,825	-0,040	-0,027
-475,532	-200,000	0,019	-0,077
-474,518	64,271	0,208	0,152
-473,503	177,947	0,041	0,044
-472,489	-154,105	-0,054	0,003
-471,474	-100,345	0,109	0,020
-470,459	19,600	-0,115	0,067
-469,445	-200,000	0,005	-0,104
-468,430	371,789	0,047	0,070
-467,416	800,000	-0,039	-0,086
-466,401	-139,425	0,094	0,007
-465,386	-200,000	0,011	-0,065
-464,372	-39,786	-0,073	0,028
-463,357	800,000	-0,050	-0,141
-462,343	-112,418	-0,084	-0,012
-461,328	800,000	-0,019	0,062
-460,313	82,344	-0,095	-0,075
-459,299	-51,720	0,071	-0,024
-458,284	82,620	0,132	0,104
-457,270	-200,000	0,012	-0,062
-456,255	-200,000	-0,018	-0,061
-455,241	743,123	-0,047	-0,093
-454,226	73,455	0,107	-0,082
-453,211	-200,000	0,001	0,005
-452,197	-200,000	-0,008	-0,057
-451,182	181,933	-0,049	-0,053
-450,168	-200,000	0,015	-0,064
-449,153	82,937	0,035	-0,028
-448,138	-200,000	-0,010	-0,075
-447,124	-22,140	-0,155	-0,068
-446,109	-200,000	-0,014	0,078
-445,095	739,857	-0,035	-0,070
-444,080	115,476	0,055	0,049
-443,065	-200,000	-0,029	0,095
-442,051	-200,000	-0,001	-0,050
-441,036	102,078	-0,156	-0,133
-440,022	31,252	0,120	0,075
-439,007	17,707	0,114	0,066
-437,992	223,401	0,033	0,039
-436,978	800,000	-0,018	-0,051
-435,963	265,577	-0,038	-0,049
-434,949	800,000	-0,025	-0,079
-433,934	300,928	-0,141	0,191
-432,919	-1,978	-0,040	-0,020
-431,905	-132,490	0,136	0,013
-430,890	-138,437	-0,089	0,007
-429,876	-200,000	-0,013	0,084
-428,861	800,000	-0,014	-0,039
-427,846	51,919	-0,139	-0,096
-426,832	-124,169	-0,083	-0,009
-425,817	286,570	-0,007	-0,009
-424,803	44,466	-0,057	0,038
-423,788	-106,612	0,159	0,026
-422,773	180,229	-0,057	0,060
-421,759	-112,948	0,066	0,009
-420,744	85,957	-0,107	0,085
-419,730	-106,351	0,053	-0,009
-418,715	-41,493	-0,085	0,032
-417,701	327,656	0,012	-0,017
-416,686	-40,797	-0,122	0,046
-415,671	-146,551	0,066	0,004
-414,657	30,708	0,149	0,093
-413,642	37,585	-0,062	-0,040
-412,628	-200,000	0,025	0,143
-411,613	628,288	-0,067	-0,123
-410,598	-200,000	0,007	-0,060
-409,584	-200,000	0,140	0,000
-408,569	53,547	0,020	0,014
-407,555	-200,000	0,002	-0,065
-406,540	800,000	0,007	0,018
-405,525	596,603	-0,105	-0,189
-404,511	187,072	-0,025	-0,027
-403,496	174,698	-0,061	-0,064
-402,482	-200,000	0,018	0,147
-401,467	800,000	0,020	0,064
-400,452	-200,000	-0,002	0,078
-399,438	-175,523	0,054	-0,001
-398,423	-97,967	-0,046	-0,008
-397,409	10,043	-0,080	-0,044
-396,394	5,958	0,090	0,048
-395,379	-29,133	-0,092	-0,038
-394,365	-179,145	0,112	0,002
-393,350	90,495	-0,065	0,053
-392,336	231,457	0,102	0,122
-391,321	112,182	-0,076	0,067
-390,306	-140,861	-0,102	-0,008
-389,292	323,555	0,054	0,075
-388,277	10,866	0,030	0,016
-387,263	757,986	0,038	0,076
-386,248	-200,000	-0,005	0,056
-385,233	800,000	0,056	-0,114
-384,219	181,772	0,038	-0,040
-383,204	-200,000	-0,015	0,086
-382,190	-133,524	-0,068	0,006
-381,175	138,102	0,095	-0,090
-380,160	800,000	-0,035	0,085
-379,146	311,346	0,008	0,010
-378,131	796,513	-0,033	-0,065
-377,117	-200,000	-0,005	0,072
-376,102	190,071	0,098	0,107
-375,088	800,000	-0,004	0,008
-374,073	-119,574	-0,049	-0,006
-373,058	15,146	0,093	0,053
-372,044	22,327	-0,078	0,046
-371,029	267,864	0,057	-0,073
-370,015	-200,000	0,022	0,185
-369,000	38,418	0,132	-0,085
-367,985	-200,000	-0,009	-0,039
-366,971	-127,171	-0,090	0,009
-365,956	83,913	0,107	0,085
-364,942	420,001	0,088	0,137
-363,927	-84,842	0,073	-0,016
-362,912	164,224	0,059	-0,060
-361,898	271,927	0,049	0,063
-360,883	-45,485	-0,087	-0,031
-359,869	120,467	-0,096	-0,087
-358,854	-200,000	0,013	-0,074
-357,839	-33,678	-0,076	0,031
-356,825	27,668	0,116	0,071
-355,810	26,457	0,050	0,030
-354,796	518,971	-0,036	-0,061
-353,781	-19,471	0,030	-0,013
-352,766	68,324	-0,037	0,028
-351,752	-147,929	0,110	-0,007
-350,737	159,095	-0,094	0,095
-349,723	4,501	-0,116	0,062
-348,708	-200,000	0,012	-0,103
-347,693	36,082	-0,061	-0,039
-346,679	-200,000	0,025	-0,095
-345,664	-200,000	0,028	-0,146
-344,650	-200,000	-0,011	0,037
-343,635	-200,000	0,011	0,170
-342,620	-95,919	0,052	-0,010
-341,606	658,566	-0,077	0,145
-340,591	-18,625	-0,088	0,040
-339,577	35,336	0,062	-0,039
-338,562	94,158	-0,077	-0,063
-337,548	-144,116	-0,091	-0,006
-336,533	14,445	-0,125	0,071
-335,518	-200,000	-0,010	-0,058
-334,504	89,313	-0,027	-0,022
-333,489	-162,066	-0,059	0,002
-332,475	-75,032	0,074	-0,019
-331,460	-200,000	0,033	-0,134
-330,445	129,162	-0,081	0,075
-329,431	-54,315	0,036	-0,012
-328,416	19,316	0,184	0,107
-327,402	550,804	0,025	-0,044
-326,387	577,454	0,018	-0,032
-325,372	800,000	-0,040	-0,098
-324,358	-200,000	-0,000	-0,107
-323,343	-25,674	-0,131	-0,056
-322,329	-200,000	0,015	0,058
-321,314	-126,091	0,148	0,016
-320,299	-46,830	0,031	-0,011
-319,285	-15,144	0,066	0,030
-318,270	-59,952	-0,141	0,044
-317,256	-84,205	0,073	-0,017
-316,241	-200,000	0,030	-0,097
-315,226	-89,131	-0,054	-0,012
-314,212	800,000	0,010	0,025
-313,197	40,662	0,087	-0,057
-312,183	101,953	-0,123	0,104
-311,168	77,527	-0,027	0,021
-310,153	800,000	-0,024	-0,057
-309,139	-91,070	0,081	0,017
-308,124	-114,469	0,023	-0,003
-307,110	39,748	0,073	-0,048
-306,095	-73,550	0,140	0,037
-305,080	-163,625	0,124	-0,004
-304,066	658,860	0,046	0,085
-303,051	-35,818	-0,156	-0,061
-302,037	-200,000	0,030	0,144
-301,022	-135,269	0,129	0,011
-300,008	-79,319	0,065	-0,016
-298,993	753,254	0,035	-0,069
-297,978	-34,357	0,084	0,033
-296,964	8,108	-0,067	0,036
-295,949	-43,227	-0,113	-0,041
-294,935	270,454	-0,049	0,063
-293,920	179,701	0,108	-0,115
-292,905	-23,120	0,042	-0,018
-291,891	30,185	-0,009	0,005
-290,876	-200,000	-0,024	0,123
-289,862	99,302	0,076	0,064
-288,847	-78,367	0,036	0,009
-287,832	-55,102	-0,083	-0,027
-286,818	268,137	0,068	0,086
-285,803	-22,692	0,087	0,038
-284,789	-80,632	0,089	-0,021
-283,774	800,000	0,009	0,020
-282,759	-140,672	0,119	0,009
-281,745	-80,910	0,018	-0,004
-280,730	-200,000	-0,058	0,208
-279,716	102,269	0,074	0,063
-278,701	288,599	0,079	0,103
-277,686	-200,000	0,011	0,209
-276,672	-110,319	0,127	0,019
-275,657	-200,000	0,005	-0,103
-274,643	48,082	-0,210	-0,142
-273,628	-123,264	0,100	-0,011
-272,613	177,604	-0,060	-0,063
-271,599	-200,000	-0,007	0,042
-270,584	149,119	0,070	0,069
-269,570	-58,291	0,139	0,044
-268,555	-200,000	-0,003	-0,091
-267,540	-123,115	-0,151	0,017
-266,526	-200,000	0,004	-0,053
-265,511	-17,317	0,060	0,027
-264,497	-200,000	0,003	-0,020
-263,482	-200,000	0,019	0,118
-262,467	-200,000	-0,001	0,040
-261,453	800,000	-0,015	0,041
-260,438	-200,000	0,023	-0,082
-259,424	-200,000	0,007	-0,049
-258,409	113,804	-0,065	-0,057
-257,395	86,189	0,053	-0,043
-256,380	-64,751	-0,022	0,006
-255,365	54,352	0,118	0,082
-254,351	-59,304	-0,049	-0,015
-253,336	-127,165	-0,096	0,010
-252,322	307,840	0,032	-0,043
-251,307	136,889	-0,091	0,086
-250,292	269,299	-0,054	-0,068
-249,278	-200,000	0,031	0,210
-248,263	182,986	0,072	0,077
-247,249	-93,484	-0,107	-0,021
-246,234	101,276	0,047	0,040
-245,219	-137,717	0,107	0,009
-244,205	191,055	0,106	-0,116
-243,190	800,000	0,041	-0,098
-242,176	246,199	-0,056	-0,069
-241,161	-143,354	0,042	0,003
-240,146	-138,583	0,107	-0,008
-239,132	-34,100	0,194	0,077
-238,117	370,718	0,032	0,047
-237,103	800,000	-0,077	-0,219
-236,088	-112,790	0,052	0,007
-235,073	800,000	0,028	-0,070
-234,059	-76,966	-0,030	0,007
-233,044	-22,095	-0,034	0,015
-232,030	165,409	-0,073	-0,075
-231,015	800,000	0,038	-0,097
-230,000	252,814	0,069	-0,085
-228,986	800,000	-0,021	0,046
-227,971	315,655	-0,062	0,084
-226,957	-110,392	0,072	0,011
-225,942	800,000	0,012	-0,027
-224,927	135,910	-0,081	-0,076
-223,913	37,298	0,058	0,037
-222,898	-200,000	-0,008	-0,058
-221,884	233,125	0,056	-0,067
-220,869	-200,000	0,008	-0,085
-219,855	-200,000	0,006	-0,033
-218,840	-200,000	-0,018	0,064
-217,825	-200,000	-0,008	-0,060
-216,811	-200,000	-0,020	0,072
-215,796	674,350	-0,028	-0,053
-214,782	-200,000	-0,003	-0,071
-213,767	126,670	-0,103	0,094
-212,752	377,282	-0,052	-0,077
-211,738	800,000	-0,016	0,038
-210,723	-31,135	-0,096	0,039
-209,709	353,369	-0,035	0,051
-208,694	481,564	0,076	-0,126
-207,679	-200,000	0,020	-0,110
-206,665	-97,484	-0,163	0,030
-205,650	-200,000	0,006	0,064
-204,636	-190,657	0,119	0,001
-203,621	-200,000	0,011	0,043
-202,606	-200,000	0,012	-0,038
-201,592	800,000	-0,020	-0,061
-200,577	-200,000	0,015	-0,150
-199,563	27,670	0,033	-0,020
-198,548	-200,000	-0,007	-0,107
-197,533	-200,000	-0,010	-0,092
-196,519	39,445	-0,058	0,037
-195,504	-47,589	0,057	-0,020
-194,490	-111,228	0,022	-0,003
-193,475	27,485	0,010	-0,006
-192,460	-200,000	-0,006	0,061
-191,446	110,499	0,058	-0,050
-190,431	-43,856	-0,035	0,013
-189,417	110,547	0,108	-0,093
-188,402	-88,238	-0,038	-0,008
-187,387	114,290	-0,035	-0,031
-186,373	-3,287	-0,110	-0,055
-185,358	625,919	0,085	0,155
-184,344	800,000	0,021	-0,061
-183,329	-200,000	-0,013	0,063
-182,315	303,640	0,073	-0,098
-181,300	-51,307	-0,034	0,011
-180,285	179,987	-0,061	-0,065
-179,271	-200,000	0,011	-0,178
-178,256	11,906	0,075	-0,041
-177,242	-169,797	0,057	0,001
-176,227	-200,000	-0,005	0,120
-175,212	448,915	0,039	0,063
-174,198	186,351	-0,057	-0,061
-173,183	130,025	-0,083	-0,076
-172,169	3,429	-0,128	-0,067
-171,154	800,000	0,020	0,044
-170,139	-6,555	0,021	-0,010
-169,125	21,273	-0,015	0,008
-168,110	383,451	0,073	-0,109
-167,096	-99,993	-0,108	-0,019
-166,081	106,695	-0,102	0,087
-165,066	36,225	0,063	0,040
-164,052	-24,655	0,096	0,041
-163,037	190,433	0,054	0,058
-162,023	800,000	-0,040	0,116
-161,008	517,488	0,069	0,117
-159,993	268,820	0,038	0,049
-158,979	-200,000	-0,009	-0,056
-157,964	800,000	-0,012	-0,035
-156,950	-25,927	-0,036	-0,015
-155,935	-25,613	0,101	0,043
-154,920	-200,000	0,041	0,206
-153,906	111,754	0,066	0,057
-152,891	-78,370	-0,087	-0,021
-151,877	-200,000	-0,007	-0,099
-150,862	-67,536	-0,101	-0,028
-149,847	107,219	0,077	-0,066
-148,833	-200,000	0,086	-0,000
-147,818	112,779	0,040	-0,035
-146,804	-200,000	0,036	-0,163
-145,789	-151,927	0,105	0,005
-144,775	589,222	0,062	0,110
-143,760	783,530	0,039	-0,077
-142,745	-200,000	0,012	-0,078
-141,731	-200,000	0,017	-0,114
-140,716	-200,000	0,019	-0,171
-139,702	272,810	-0,036	-0,046
-138,687	542,242	-0,010	-0,017
-137,672	-108,702	0,252	0,038
-136,658	114,064	0,027	0,024
-135,643	24,669	-0,046	0,027
-134,629	-200,000	0,008	0,148
-133,614	-72,567	0,087	0,023
-132,599	-112,553	0,019	-0,003
-131,585	-200,000	-0,012	0,095
-130,570	2,255	-0,099	0,052
-129,556	-10,548	0,071	0,034
-128,541	266,542	-0,071	0,090
-127,526	-200,000	0,030	-0,100
-126,512	800,000	0,040	0,096
-125,497	10,843	0,069	0,038
-124,483	358,278	-0,115	0,166
-123,468	-6,105	0,130	0,064
-122,453	66,346	-0,051	0,037
-121,439	800,000	-0,035	-0,084
-120,424	642,571	-0,077	-0,142
-119,410	76,646	-0,062	0,047
-118,395	-200,000	-0,010	0,072
-117,380	167,923	0,132	0,135
-116,366	-200,000	0,009	0,062
-115,351	239,742	-0,061	-0,073
-114,337	-31,507	-0,111	0,045
-113,322	-200,000	-0,014	0,085
-112,307	110,469	0,120	0,103
-111,293	-161,576	0,074	-0,003
-110,278	-200,000	-0,018	0,114
-109,264	-39,537	0,081	0,030
-108,249	-129,367	0,099	-0,010
-107,234	-112,421	0,059	0,008
-106,220	-200,000	-0,013	0,101
-105,205	-200,000	-0,000	0,100
-104,191	59,528	-0,110	0,078
-103,176	-136,460	-0,083	0,007
-102,162	580,745	0,075	0,132
-101,147	-130,835	0,052	-0,005
-100,132	-200,000	-0,003	0,067
-99,118	172,192	-0,074	0,076
-98,103	69,095	0,032	0,023
-97,089	800,000	0,021	-0,046
-96,074	-61,119	0,095	-0,029
-95,059	223,524	0,049	0,057
-94,045	230,488	-0,071	-0,084
-93,030	-200,000	-0,004	-0,020
-92,016	-200,000	0,022	0,122
-91,001	-57,486	-0,099	0,031
-89,986	156,678	-0,031	0,031
-88,972	-200,000	-0,006	-0,042
-87,957	-101,365	0,051	-0,009
-86,943	-162,996	-0,156	0,005
-85,928	200,066	-0,071	-0,079
-84,913	14,748	-0,094	-0,053
-83,899	800,000	0,057	-0,122
-82,884	173,322	0,138	-0,143
-81,870	189,103	0,014	0,015
-80,855	225,753	-0,062	-0,072
-79,840	-87,778	-0,053	0,011
-78,826	-200,000	-0,010	0,054
-77,811	194,044	-0,117	-0,128
-76,797	228,222	0,085	0,099
-75,782	-200,000	-0,008	0,092
-74,767	-200,000	0,007	0,193
-73,753	519,905	0,049	0,082
-72,738	-200,000	0,036	-0,157
-71,724	-18,493	-0,149	-0,066
-70,709	-94,443	-0,062	-0,012
-69,694	174,819	0,034	0,036
-68,680	315,866	0,027	0,037
-67,665	800,000	0,058	0,115
-66,651	-86,051	-0,121	-0,027
-65,636	37,301	-0,207	0,131
-64,622	591,616	0,035	0,063
-63,607	528,095	-0,059	-0,100
-62,592	-200,000	0,003	0,040
-61,578	-200,000	0,009	0,097
-60,563	-200,000	0,055	0,173
-59,549	800,000	0,045	0,127
-58,534	44,038	-1,985	-1,304
-57,519	-200,000	-0,042	-0,745
-56,505	-200,000	-1,292	-5,106
-55,490	56,888	0,832	0,581
-54,476	800,000	5,407	11,919
-53,461	-200,000	17,896	290,349
-52,446	800,000	727,030	2229,612
-51,432	536,010	1639,834	2803,606
-50,417	109,502	1629,237	1400,390
-49,403	73,075	1283,339	961,567
-48,388	31,493	1026,122	631,470
-47,373	19,897	988,470	570,086
-46,359	18,225	976,334	557,587
-45,344	15,528	972,257	546,419
-44,330	15,741	970,991	546,382
-43,315	15,262	969,024	543,690
-42,300	15,204	967,916	542,859
-41,286	15,179	967,026	542,257
-40,271	15,205	965,973	541,730
-39,257	15,232	965,043	541,273
-38,242	15,216	964,346	540,809
-37,227	15,249	963,444	540,390
-36,213	15,229	962,650	539,857
-35,198	15,197	961,836	539,277
-34,184	15,264	960,731	538,853
-33,169	15,182	960,011	538,160
-32,154	15,250	959,114	537,855
-31,140	15,310	958,172	537,499
-30,125	15,242	957,476	536,870
-29,111	15,261	956,749	536,501
-28,096	15,309	955,965	536,195
-27,082	15,220	955,395	535,568
-26,067	15,261	954,587	535,227
-25,052	15,254	953,923	534,809
-24,038	15,251	953,073	534,303
-23,023	15,159	952,645	533,746
-22,009	15,260	951,819	533,585
-20,994	15,251	951,337	533,265
-19,979	15,223	950,575	532,728
-18,965	15,254	949,775	532,357
-17,950	15,203	949,338	531,930
-16,936	15,153	948,765	531,428
-15,921	15,192	948,154	531,187
-14,906	15,116	947,217	530,399
-13,892	15,120	946,630	530,064
-12,877	15,132	946,123	529,796
-11,863	15,056	945,622	529,253
-10,848	15,127	944,979	529,097
-9,833	15,220	944,533	529,124
-8,819	15,201	943,902	528,688
-7,804	15,101	943,411	528,074
-6,790	15,151	942,646	527,782
-5,775	15,210	942,123	527,657
-4,760	15,165	941,382	527,079
-3,746	15,179	940,734	526,738
-2,731	14,984	940,170	525,787
-1,717	14,998	939,459	525,412
-0,702	15,025	938,766	525,089
0,313	14,777	938,149	524,751
1,327	18,230	935,964	534,352
2,342	27,336	789,997	475,009
3,356	23,877	444,935	262,381
4,371	-5,796	295,760	144,720
5,386	-9,341	277,357	132,340
6,400	-10,778	271,704	128,295
7,415	-11,097	269,344	126,875
8,429	-10,944	268,060	126,400
9,444	-11,097	267,064	125,778
10,459	-11,045	266,435	125,519
11,473	-11,479	265,938	124,878
12,488	-11,405	265,384	124,674
13,502	-11,506	264,926	124,357
14,517	-11,314	264,307	124,228
15,531	-11,237	263,898	124,094
16,546	-11,201	263,500	123,928
17,561	-11,307	263,361	123,757
18,575	-11,335	262,903	123,505
19,590	-11,199	262,440	123,399
20,604	-11,094	262,247	123,391
21,619	-11,393	261,858	122,930
22,634	-11,138	261,470	122,965
23,648	-11,308	261,315	122,728
24,663	-11,377	261,077	122,545
25,677	-11,326	260,768	122,434
26,692	-11,305	260,484	122,309
27,707	-11,281	260,311	122,238
28,721	-11,312	259,945	122,027
29,736	-11,208	259,653	121,971
30,750	-11,373	259,482	121,734
31,765	-11,350	259,075	121,553
32,780	-11,368	259,012	121,496
33,794	-11,372	258,774	121,370
34,809	-11,621	258,636	121,075
35,823	-11,397	258,331	121,119
36,838	-11,398	257,738	120,829
37,853	-11,384	257,735	120,829
38,867	-11,489	257,493	120,613
39,882	-11,323	257,281	120,649
40,896	-11,336	257,027	120,507
41,911	-11,472	256,922	120,328
42,926	-11,444	256,550	120,168
43,940	-11,488	256,317	120,009
44,955	-11,506	255,990	119,830
45,969	-11,727	256,026	119,643
46,984	-11,741	255,638	119,439
47,999	-12,126	255,499	119,027
49,013	-12,191	255,203	118,822
50,028	-12,273	254,971	118,632
51,042	-12,105	254,612	118,600
52,057	-12,330	254,387	118,290
53,071	-12,241	254,281	118,307
54,086	-12,110	254,094	118,323
55,101	-12,036	253,883	118,278
56,115	-11,623	253,628	118,506
57,130	-11,391	253,641	118,703
58,144	-11,182	253,495	118,804
59,159	-11,152	253,269	118,714
60,174	-11,140	253,016	118,595
61,188	-11,343	252,895	118,353
62,203	-11,257	252,605	118,280
63,217	-11,221	252,368	118,189
64,232	-11,375	252,347	118,037
65,247	-11,196	251,949	117,993
66,261	-11,043	251,725	118,010
67,276	-11,698	251,546	117,353
68,290	-11,802	251,226	117,105
69,305	-11,928	251,037	116,899
70,320	-11,701	250,685	116,918
71,334	-11,590	250,764	117,040
72,349	-11,049	250,424	117,331
73,363	-11,113	250,396	117,253
74,378	-11,199	250,151	117,055
75,393	-11,303	249,930	116,853
76,407	-11,203	249,633	116,788
77,422	-11,282	249,538	116,666
78,436	-11,164	249,218	116,607
79,451	-11,325	249,051	116,381
80,466	-11,412	248,813	116,186
81,480	-11,714	248,555	115,800
82,495	-11,642	248,305	115,734
83,509	-11,724	248,340	115,670
84,524	-11,360	247,946	115,784
85,539	-11,814	247,902	115,370
86,553	-11,715	247,617	115,311
87,568	-11,544	247,322	115,307
88,582	-11,640	247,266	115,190
89,597	-11,592	246,871	115,036
90,611	-11,476	246,844	115,110
91,626	-11,469	246,725	115,051
92,641	-11,473	246,579	114,969
93,655	-11,442	246,332	114,869
94,670	-11,501	246,039	114,673
95,684	-11,476	246,026	114,677
96,699	-11,687	245,789	114,381
97,714	-11,603	245,622	114,363
98,728	-11,605	245,359	114,229
99,743	-11,634	244,943	114,001
100,757	-11,733	244,927	113,900
101,772	-11,638	244,742	113,883
102,787	-11,623	244,493	113,770
103,801	-11,613	244,372	113,711
104,816	-11,313	244,232	113,885
105,830	-11,517	244,128	113,658
106,845	-11,273	243,980	113,781
107,860	-11,388	243,656	113,524
108,874	-11,381	243,410	113,405
109,889	-11,411	243,166	113,257
110,903	-11,688	242,995	112,938
111,918	-11,905	243,047	112,774
112,933	-11,419	242,656	112,982
113,947	-11,657	242,657	112,777
114,962	-11,299	242,351	112,919
115,976	-11,384	242,208	112,773
116,991	-11,445	242,071	112,648
118,006	-11,337	241,807	112,604
119,020	-11,235	241,604	112,583
120,035	-11,465	241,786	112,470
121,049	-11,415	241,509	112,371
122,064	-11,501	241,308	112,197
123,079	-11,654	241,116	111,973
124,093	-11,636	240,928	111,891
125,108	-11,596	240,518	111,723
126,122	-11,893	240,317	111,378
127,137	-11,974	240,204	111,249
128,151	-11,771	240,021	111,320
129,166	-11,773	239,842	111,225
130,181	-11,759	239,653	111,139
131,195	-11,709	239,416	111,060
132,210	-11,747	239,343	110,985
133,224	-11,423	239,184	111,164
134,239	-11,504	239,060	111,031
135,254	-11,387	238,710	110,952
136,268	-11,731	238,590	110,609
137,283	-11,680	238,269	110,492
138,297	-11,756	238,052	110,320
139,312	-11,784	237,929	110,231
140,327	-11,499	237,825	110,402
141,341	-11,101	237,948	110,770
142,356	-11,109	237,694	110,635
143,370	-10,907	237,400	110,651
144,385	-10,846	237,395	110,688
145,400	-10,925	237,247	110,545
146,414	-10,894	236,922	110,409
147,429	-11,112	236,847	110,190
148,443	-11,106	236,733	110,131
149,458	-11,122	236,461	109,982
150,473	-10,984	236,223	109,972
151,487	-11,165	236,053	109,738
152,502	-11,232	235,983	109,643
153,516	-11,035	235,900	109,752
154,531	-11,282	235,640	109,424
155,546	-11,120	235,477	109,468
156,560	-11,258	235,336	109,283
157,575	-11,336	235,037	109,072
158,589	-11,400	234,996	108,992
159,604	-10,988	234,840	109,237
160,619	-10,734	234,640	109,336
161,633	-11,133	234,514	108,951
162,648	-10,934	234,394	109,043
163,662	-11,007	234,152	108,863
164,677	-11,095	234,031	108,727
165,692	-11,193	233,841	108,552
166,706	-11,021	233,751	108,637
167,721	-10,959	233,613	108,612
168,735	-10,865	233,434	108,593
169,750	-10,994	233,351	108,443
170,764	-11,187	233,218	108,219
171,779	-11,086	232,987	108,182
172,794	-11,017	232,946	108,208
173,808	-11,042	232,494	107,969
174,823	-11,752	232,320	107,322
175,837	-11,742	232,110	107,223
176,852	-11,488	232,050	107,385
177,867	-11,135	231,923	107,592
178,881	-11,090	231,884	107,599
179,896	-11,021	231,638	107,530
180,910	-10,997	231,536	107,491
181,925	-10,779	231,173	107,483
182,940	-10,884	231,295	107,449
183,954	-10,774	231,127	107,447
184,969	-10,818	230,926	107,309
185,983	-10,851	230,802	107,217
186,998	-11,006	230,695	107,036
188,013	-10,829	230,393	107,025
189,027	-10,869	230,303	106,942
190,042	-11,034	230,206	106,760
191,056	-10,863	230,064	106,816
192,071	-10,689	229,768	106,804
193,086	-10,851	229,693	106,635
194,100	-10,820	229,497	106,559
195,115	-11,209	229,023	106,029
196,129	-11,480	229,324	105,949
197,144	-5,642	231,235	111,364
198,159	0,272	232,753	116,702
199,173	2,897	233,467	119,099
200,188	3,115	233,385	119,217
201,202	3,288	233,262	119,278
202,217	3,621	233,168	119,479
203,232	3,859	233,068	119,602
204,246	3,995	232,982	119,653
205,261	3,768	232,638	119,289
206,275	3,956	232,804	119,510
207,290	4,028	232,672	119,487
208,304	3,963	232,500	119,337
209,319	3,642	232,237	118,943
210,334	3,769	231,999	118,909
211,348	3,556	231,881	118,673
212,363	3,402	231,634	118,417
213,377	3,253	231,233	118,087
214,392	3,132	230,988	117,858
215,407	3,239	231,037	117,955
216,421	3,407	230,904	118,006
217,436	3,125	230,740	117,694
218,450	3,156	230,362	117,515
219,465	2,924	230,280	117,284
220,480	3,028	230,302	117,365
221,494	2,897	230,059	117,130
222,509	3,269	229,952	117,351
223,523	3,277	229,834	117,286
224,538	3,278	229,666	117,191
225,553	3,034	229,482	116,900
226,567	3,197	229,393	116,969
227,582	3,449	229,475	117,193
228,596	3,581	229,205	117,145
229,611	3,344	229,064	116,881
230,626	3,055	228,687	116,459
231,640	3,079	228,661	116,453
232,655	3,275	228,574	116,548
233,669	3,711	228,513	116,838
234,684	3,926	228,245	116,854
235,699	3,603	228,255	116,603
236,713	3,496	227,797	116,277
237,728	3,372	227,673	116,110
238,742	3,055	227,543	115,793
239,757	3,163	227,438	115,811
240,772	3,082	227,190	115,614
241,786	3,049	227,061	115,513
242,801	3,401	227,142	115,809
243,815	3,552	226,998	115,840
244,830	3,653	226,864	115,838
245,844	3,201	226,895	115,502
246,859	2,969	226,669	115,201
247,874	3,572	226,272	115,443
248,888	3,474	226,222	115,334
249,903	3,505	226,031	115,250
250,917	3,249	225,851	114,955
251,932	3,333	225,594	114,877
252,947	3,017	225,675	114,671
253,961	3,099	225,380	114,572
254,976	3,303	225,230	114,638
255,990	3,527	225,089	114,724
257,005	3,525	225,041	114,688
258,020	3,597	224,954	114,687
259,034	3,683	224,791	114,658
260,049	3,380	224,733	114,392
261,063	3,375	224,461	114,239
262,078	3,595	224,419	114,372
263,093	3,558	224,203	114,224
264,107	3,423	224,067	114,044
265,122	3,428	223,899	113,952
266,136	3,574	223,930	114,067
267,151	3,612	223,751	113,993
268,166	3,225	223,300	113,467
269,180	2,776	223,246	113,096
270,195	2,966	223,193	113,200
271,209	3,125	223,019	113,219
272,224	3,032	222,817	113,038
273,239	3,298	222,680	113,154
274,253	3,155	222,554	112,975
275,268	2,755	222,426	112,605
276,282	3,041	222,054	112,617
277,297	2,846	222,098	112,486
278,312	2,977	221,972	112,508
279,326	3,181	221,847	112,585
280,341	3,153	221,756	112,509
281,355	3,303	221,495	112,476
282,370	3,338	221,330	112,408
283,384	2,883	221,320	112,059
284,399	3,008	220,964	111,960
285,414	2,984	220,962	111,931
286,428	3,108	220,912	111,987
287,443	3,489	220,687	112,142
288,457	3,192	220,763	111,953
289,472	3,066	220,322	111,628
290,487	2,602	220,194	111,214
291,501	2,712	220,018	111,195
292,516	2,800	219,856	111,168
293,530	2,874	219,807	111,187
294,545	2,807	219,600	111,024
295,560	2,911	219,511	111,044
296,574	3,194	219,473	111,221
297,589	3,244	219,209	111,114
298,603	3,290	219,181	111,123
299,618	3,375	218,952	111,058
300,633	3,278	218,881	110,942
301,647	3,494	218,798	111,047
302,662	3,402	218,691	110,916
303,676	3,672	218,530	111,020
304,691	3,414	218,375	110,744
305,706	3,405	218,266	110,673
306,720	3,436	218,096	110,600
307,735	3,316	217,844	110,375
308,749	2,979	217,659	110,029
309,764	3,263	217,808	110,299
310,779	3,428	217,632	110,319
311,793	3,168	217,473	110,041
312,808	3,463	217,247	110,129
313,822	3,395	216,895	109,892
314,837	3,137	216,850	109,675
315,852	3,043	216,729	109,536
316,866	3,171	216,612	109,559
317,881	3,337	216,552	109,638
318,895	3,392	216,400	109,591
319,910	3,203	216,227	109,357
320,925	2,799	216,000	108,945
321,939	2,711	215,772	108,758
322,954	2,806	215,707	108,782
323,968	3,355	215,767	109,194
324,983	3,332	215,612	109,090
325,997	3,194	215,432	108,891
327,012	3,021	215,210	108,646
328,027	3,413	215,152	108,886
329,041	3,816	215,195	109,184
330,056	3,902	214,862	109,067
331,070	3,292	214,729	108,557
332,085	2,911	214,519	108,171
333,100	3,055	214,446	108,226
334,114	3,608	214,131	108,449
335,129	3,271	214,232	108,252
336,143	3,219	213,976	108,077
337,158	3,030	213,962	107,926
338,173	3,220	213,784	107,961
339,187	3,192	213,570	107,823
340,202	3,025	213,496	107,659
341,216	2,709	213,333	107,345
342,231	3,166	213,078	107,528
343,246	2,871	213,088	107,316
344,260	2,924	212,932	107,265
345,275	3,018	213,001	107,356
346,289	3,457	212,635	107,470
347,304	3,318	212,523	107,306
348,319	3,324	212,456	107,268
349,333	3,192	212,298	107,085
350,348	3,257	212,313	107,129
351,362	3,555	212,076	107,208
352,377	3,351	211,971	107,003
353,392	3,101	211,814	106,740
354,406	3,200	211,814	106,799
355,421	196,912	1339,052	1421,225
356,435	157,370	1476,354	1421,205
