DTS Sentinel unit serial number:	SN410029Multiplexer serial number:	ORYXHardware model number:	OX2-SRSoftware version number:	ORYX F/W v4,00 Oryx Data Collector v3.7.2.0data status	okinstallation	B6 Nyhavnadifferential loss correction	single-endedforward channel	channel 2reverse channel	N/Adate	2023/12/08time	16:00:08forward acquisition time	300,00reverse acquisition time	0,00gamma	499,1914k internal	0,3160k external	0,3160temperature offset calibration	1,0000default loss term (dB/km)	0,3820temperature slope calibration	1,0000multiplexer offset coefficient	1,0000multiplexer slope coefficient	1,0000fibre end	0,00T internal ref (°C)	15,10T ext. ref 1 (°C)	-1,50T ext. ref 2 (°C)	-1,51length (m)	temperature (°C)	Stokes	anti-Stokes-744,400	89,057	0,060	-0,049
-743,385	25,524	-0,318	-0,194
-742,371	-38,762	0,188	0,073
-741,356	-71,067	-0,321	0,088
-740,342	156,785	0,111	-0,113
-739,327	-194,212	-0,318	-0,002
-738,312	-179,534	0,113	-0,002
-737,298	-90,114	-0,344	-0,073
-736,283	552,818	0,036	0,064
-735,269	-29,835	-0,313	0,131
-734,254	-200,000	0,016	0,097
-733,239	-76,803	-0,545	-0,139
-732,225	-134,773	0,046	0,004
-731,210	-200,000	0,018	0,105
-730,196	51,997	-0,021	-0,015
-729,181	391,066	0,051	-0,078
-728,167	10,480	-0,153	0,086
-727,152	267,345	0,005	-0,007
-726,137	-43,267	-0,197	-0,073
-725,123	-200,000	0,018	-0,176
-724,108	331,544	-0,059	0,084
-723,094	4,861	-0,189	-0,102
-722,079	-59,427	-0,191	-0,060
-721,064	71,064	-0,131	-0,100
-720,050	264,133	-0,037	0,048
-719,035	800,000	-0,014	-0,041
-718,021	-16,552	-0,056	0,026
-717,006	104,495	-0,076	0,066
-715,991	336,367	-0,059	-0,084
-714,977	-30,916	-0,056	-0,023
-713,962	-200,000	-0,001	-0,068
-712,948	-10,953	-0,132	0,064
-711,933	-105,103	0,076	0,013
-710,918	-200,000	0,007	0,116
-709,904	-200,000	-0,018	0,119
-708,889	-118,407	-0,107	0,014
-707,875	-200,000	-0,011	0,045
-706,860	-200,000	-0,001	0,029
-705,845	-64,152	0,228	0,068
-704,831	-200,000	0,007	-0,078
-703,816	-200,000	0,001	-0,002
-702,802	124,202	-0,078	-0,072
-701,787	-200,000	0,032	-0,121
-700,772	-200,000	0,016	-0,080
-699,758	800,000	-0,014	-0,039
-698,743	257,182	0,042	-0,054
-697,729	163,511	-0,079	0,082
-696,714	14,929	-0,070	0,040
-695,699	-200,000	-0,018	-0,100
-694,685	-118,633	-0,008	0,001
-693,670	90,894	-0,050	0,041
-692,656	800,000	-0,052	-0,161
-691,641	-200,000	0,150	-0,000
-690,627	23,413	-0,061	0,037
-689,612	-128,830	0,099	-0,010
-688,597	-46,297	0,088	0,032
-687,583	25,701	-0,185	-0,113
-686,568	0,324	-0,187	0,098
-685,554	-200,000	0,004	0,053
-684,539	428,498	0,063	-0,101
-683,524	104,203	0,052	-0,045
-682,510	172,669	-0,022	-0,023
-681,495	-104,338	-0,084	0,014
-680,481	526,071	-0,060	-0,103
-679,466	-200,000	0,005	-0,104
-678,451	-200,000	-0,007	-0,040
-677,437	-200,000	0,024	-0,126
-676,422	538,253	-0,042	-0,074
-675,408	377,671	0,033	-0,050
-674,393	223,343	-0,098	-0,116
-673,378	473,092	-0,032	-0,054
-672,364	21,381	-0,122	-0,073
-671,349	-31,051	-0,044	0,018
-670,335	-200,000	-0,002	0,032
-669,320	270,134	0,022	-0,028
-668,305	-200,000	-0,044	0,154
-667,291	800,000	-0,031	0,081
-666,276	-32,388	-0,192	-0,078
-665,262	800,000	0,066	-0,167
-664,247	-47,132	-0,050	0,018
-663,232	15,599	-0,163	0,094
-662,218	498,881	-0,058	-0,098
-661,203	254,208	0,047	0,059
-660,189	148,104	0,043	-0,043
-659,174	513,855	-0,057	0,098
-658,159	10,085	-0,017	0,010
-657,145	-48,678	0,062	0,022
-656,130	-34,627	0,054	-0,021
-655,116	38,561	0,102	0,067
-654,101	-58,810	-0,106	-0,033
-653,086	800,000	-0,036	-0,078
-652,072	256,038	0,046	-0,058
-651,057	800,000	-0,026	-0,063
-650,043	-200,000	-0,002	-0,021
-649,028	-200,000	0,005	-0,018
-648,014	49,064	0,128	-0,088
-646,999	-66,534	0,051	-0,015
-645,984	548,201	0,081	0,143
-644,970	-129,950	-0,011	-0,001
-643,955	-200,000	-0,015	-0,064
-642,941	-200,000	-0,016	-0,086
-641,926	-49,543	0,111	0,038
-640,911	-200,000	-0,014	0,191
-639,897	-200,000	0,004	0,074
-638,882	435,789	-0,052	0,084
-637,868	30,158	0,143	0,089
-636,853	101,236	-0,107	-0,092
-635,838	173,139	-0,182	-0,193
-634,824	-200,000	0,011	-0,060
-633,809	-200,000	0,043	-0,147
-632,795	-106,294	-0,083	-0,014
-631,780	-26,512	-0,100	-0,043
-630,765	20,769	0,101	-0,060
-629,751	699,806	0,039	-0,076
-628,736	48,379	-0,116	-0,079
-627,722	-2,361	0,089	-0,046
-626,707	800,000	0,022	-0,053
-625,692	-123,766	-0,112	-0,013
-624,678	-200,000	-0,007	0,027
-623,663	-135,807	0,087	-0,007
-622,649	-200,000	-0,001	0,016
-621,634	-119,840	0,067	-0,008
-620,619	-124,953	0,096	0,011
-619,605	-60,692	-0,062	0,019
-618,590	52,241	0,051	0,036
-617,576	75,871	0,112	0,086
-616,561	175,357	0,050	0,053
-615,546	-200,000	-0,004	-0,103
-614,532	51,362	-0,087	-0,061
-613,517	-126,089	-0,131	0,014
-612,503	-62,678	-0,095	0,029
-611,488	116,516	-0,106	-0,095
-610,474	800,000	0,009	-0,028
-609,459	530,535	0,021	-0,037
-608,444	341,710	-0,101	-0,146
-607,430	192,402	-0,040	-0,044
-606,415	119,934	0,083	-0,075
-605,401	123,498	0,073	0,067
-604,386	-97,586	-0,066	0,012
-603,371	800,000	-0,075	0,156
-602,357	650,744	-0,045	-0,085
-601,342	260,850	0,049	-0,062
-600,328	-200,000	-0,030	0,154
-599,313	51,305	-0,049	-0,034
-598,298	73,627	0,063	-0,048
-597,284	-132,601	-0,151	0,014
-596,269	414,764	0,025	0,039
-595,255	230,152	0,054	-0,065
-594,240	59,546	-0,197	-0,142
-593,225	-36,872	-0,016	-0,006
-592,211	-200,000	-0,000	-0,083
-591,196	127,610	0,069	-0,064
-590,182	231,436	0,034	-0,041
-589,167	46,763	-0,096	0,065
-588,152	-129,612	-0,125	-0,012
-587,138	-200,000	-0,008	0,088
-586,123	800,000	-0,023	-0,053
-585,109	709,933	0,036	-0,070
-584,094	33,118	-0,054	-0,034
-583,079	800,000	0,024	-0,050
-582,065	33,105	0,065	-0,041
-581,050	-67,185	0,069	-0,020
-580,036	-200,000	-0,018	0,062
-579,021	-200,000	0,000	-0,108
-578,006	-200,000	0,015	-0,077
-576,992	60,403	0,125	-0,091
-575,977	76,552	-0,059	0,046
-574,963	-200,000	0,021	0,081
-573,948	93,585	0,024	-0,020
-572,934	322,990	-0,087	-0,122
-571,919	6,754	0,059	0,032
-570,904	-200,000	-0,056	-0,255
-569,890	-119,134	-0,127	-0,016
-568,875	800,000	-0,007	-0,018
-567,861	140,072	0,052	0,050
-566,846	-174,465	0,069	-0,001
-565,831	39,927	-0,067	-0,044
-564,817	800,000	-0,057	0,119
-563,802	-200,000	0,038	-0,196
-562,788	-200,000	0,005	0,094
-561,773	-141,096	-0,086	0,006
-560,758	192,033	-0,069	0,076
-559,744	800,000	-0,033	0,090
-558,729	-39,407	-0,057	-0,022
-557,715	476,785	0,026	0,043
-556,700	800,000	-0,024	0,060
-555,685	204,025	-0,001	0,001
-554,671	-4,984	0,109	0,055
-553,656	72,306	0,139	-0,106
-552,642	106,691	0,073	-0,063
-551,627	74,725	-0,024	-0,018
-550,612	269,256	0,065	-0,084
-549,598	42,526	-0,057	-0,038
-548,583	-200,000	0,021	-0,088
-547,569	-200,000	0,020	-0,104
-546,554	-96,244	-0,129	-0,025
-545,539	-200,000	0,008	-0,062
-544,525	800,000	-0,020	0,052
-543,510	25,812	0,129	0,078
-542,496	800,000	0,045	-0,091
-541,481	-2,632	-0,138	0,070
-540,466	-200,000	-0,018	-0,071
-539,452	-33,419	0,169	-0,068
-538,437	-33,288	0,101	0,041
-537,423	-147,337	0,075	0,005
-536,408	-200,000	-0,013	-0,073
-535,393	-23,041	-0,084	-0,037
-534,379	-159,867	-0,212	-0,008
-533,364	421,590	-0,035	0,056
-532,350	89,074	0,085	0,070
-531,335	-115,427	0,122	-0,017
-530,321	-200,000	-0,012	-0,046
-529,306	-33,610	-0,118	-0,047
-528,291	-94,984	0,117	-0,023
-527,277	-86,982	-0,186	0,041
-526,262	-88,192	0,162	0,035
-525,248	41,326	0,116	-0,077
-524,233	800,000	-0,050	0,152
-523,218	-43,906	-0,118	-0,043
-522,204	737,985	-0,043	-0,085
-521,189	278,075	-0,031	-0,041
-520,175	74,873	-0,137	-0,105
-519,160	-12,309	-0,117	-0,056
-518,145	279,138	-0,091	-0,119
-517,131	-53,932	-0,116	0,038
-516,116	-111,623	0,085	0,013
-515,102	87,588	-0,095	0,077
-514,087	-200,000	-0,008	-0,065
-513,072	-200,000	-0,036	0,158
-512,058	800,000	0,016	0,035
-511,043	576,059	0,028	0,051
-510,029	430,751	-0,066	0,105
-509,014	-34,337	-0,077	0,031
-507,999	101,347	-0,121	0,103
-506,985	-146,916	0,106	0,007
-505,970	800,000	-0,042	-0,100
-504,956	-200,000	0,018	-0,072
-503,941	74,841	0,100	0,077
-502,926	-200,000	0,001	0,108
-501,912	-200,000	-0,005	-0,065
-500,897	-200,000	0,012	-0,098
-499,883	321,535	-0,091	-0,126
-498,868	-28,705	-0,045	-0,019
-497,853	284,505	-0,030	-0,039
-496,839	731,327	0,027	0,053
-495,824	-200,000	-0,027	-0,091
-494,810	-200,000	0,018	-0,127
-493,795	-200,000	0,027	0,090
-492,781	800,000	0,041	-0,088
-491,766	297,858	-0,108	0,145
-490,751	-134,417	0,085	0,008
-489,737	800,000	-0,069	-0,144
-488,722	-173,436	0,083	0,002
-487,708	158,345	0,022	-0,022
-486,693	338,752	-0,065	-0,092
-485,678	186,457	0,039	-0,043
-484,664	782,046	0,032	-0,064
-483,649	800,000	-0,044	-0,131
-482,635	-24,664	-0,088	-0,038
-481,620	308,066	-0,043	-0,059
-480,605	-200,000	0,020	0,067
-479,591	548,189	0,030	0,053
-478,576	-140,805	-0,085	0,006
-477,562	-64,845	0,140	-0,041
-476,547	-200,000	0,006	0,106
-475,532	-200,000	0,032	-0,124
-474,518	122,351	0,102	-0,093
-473,503	8,015	0,063	-0,034
-472,489	268,444	0,076	-0,098
-471,474	-112,894	0,159	0,023
-470,459	239,233	-0,099	-0,121
-469,445	-57,009	0,095	-0,030
-468,430	38,206	-0,044	-0,028
-467,416	-84,589	0,073	0,017
-466,401	10,881	0,070	-0,039
-465,386	-139,095	-0,131	-0,010
-464,372	-200,000	-0,016	0,108
-463,357	483,999	0,039	-0,065
-462,343	-41,906	-0,107	-0,040
-461,328	-200,000	-0,009	-0,082
-460,313	-121,782	-0,115	0,014
-459,299	-100,750	0,116	0,021
-458,284	94,494	0,094	0,078
-457,270	-133,046	0,039	0,004
-456,255	800,000	0,035	-0,073
-455,241	-74,465	-0,096	-0,025
-454,226	-200,000	0,007	-0,081
-453,211	-200,000	0,029	0,114
-452,197	683,244	0,037	0,070
-451,182	-103,158	-0,088	0,015
-450,168	54,738	0,083	0,058
-449,153	-10,571	0,075	0,036
-448,138	122,672	0,065	0,060
-447,124	800,000	-0,039	0,094
-446,109	-85,757	0,071	-0,016
-445,095	529,419	-0,088	-0,152
-444,080	-98,422	0,156	0,029
-443,065	-146,476	-0,111	-0,007
-442,051	78,694	-0,051	0,039
-441,036	-200,000	-0,012	-0,084
-440,022	51,017	-0,030	0,021
-439,007	-200,000	0,002	-0,038
-437,992	-84,886	-0,172	0,039
-436,978	-74,771	0,181	-0,047
-435,963	8,854	0,108	-0,059
-434,949	-200,000	0,025	0,110
-433,934	-200,000	0,007	-0,054
-432,919	435,887	-0,065	-0,103
-431,905	-8,548	0,077	0,038
-430,890	-200,000	0,039	0,197
-429,876	-200,000	0,039	0,169
-428,861	-152,449	0,063	-0,003
-427,846	91,265	-0,033	0,027
-426,832	-158,756	-0,169	-0,007
-425,817	356,040	0,007	-0,010
-424,803	187,078	0,053	-0,058
-423,788	61,692	-0,040	0,029
-422,773	-200,000	0,048	0,172
-421,759	-200,000	0,004	0,084
-420,744	800,000	-0,022	-0,066
-419,730	148,391	-0,097	-0,095
-418,715	-200,000	0,006	-0,139
-417,701	106,516	-0,089	0,077
-416,686	-89,819	-0,135	0,028
-415,671	133,203	0,151	-0,142
-414,657	-200,000	-0,003	0,061
-413,642	200,219	0,036	-0,040
-412,628	800,000	0,048	-0,115
-411,613	536,844	-0,059	-0,103
-410,598	17,414	0,075	0,043
-409,584	15,612	-0,070	0,040
-408,569	-85,827	-0,069	0,016
-407,555	800,000	0,019	0,044
-406,540	-200,000	0,022	0,088
-405,525	156,919	-0,014	-0,014
-404,511	38,766	-0,125	-0,081
-403,496	-94,821	0,088	-0,017
-402,482	687,337	-0,065	0,125
-401,467	-61,652	0,126	-0,038
-400,452	-133,038	0,097	0,009
-399,438	348,558	-0,086	0,124
-398,423	526,596	-0,087	0,150
-397,409	-200,000	0,010	-0,249
-396,394	265,412	0,018	-0,023
-395,379	800,000	0,010	-0,021
-394,365	800,000	0,028	0,078
-393,350	800,000	0,103	0,223
-392,336	179,035	0,080	0,085
-391,321	-47,655	-0,101	0,035
-390,306	76,292	0,061	-0,047
-389,292	80,266	-0,146	-0,114
-388,277	94,440	0,012	0,010
-387,263	800,000	-0,026	-0,066
-386,248	-51,479	0,146	0,049
-385,233	255,486	0,078	-0,097
-384,219	303,275	-0,009	0,012
-383,204	-88,878	-0,148	0,032
-382,190	-74,623	0,137	-0,035
-381,175	159,894	-0,023	-0,023
-380,160	800,000	0,046	-0,139
-379,146	-45,764	0,092	0,033
-378,131	-200,000	-0,004	0,106
-377,117	800,000	-0,035	0,072
-376,102	800,000	0,017	0,053
-375,088	-123,575	0,069	-0,008
-374,073	16,045	-0,103	0,059
-373,058	-200,000	0,033	0,145
-372,044	61,522	0,072	0,052
-371,029	-200,000	0,031	0,110
-370,015	197,333	-0,017	-0,018
-369,000	800,000	0,029	-0,071
-367,985	-67,146	-0,133	-0,038
-366,971	-200,000	-0,000	-0,009
-365,956	-200,000	0,001	-0,087
-364,942	-200,000	0,001	0,082
-363,927	-200,000	0,034	0,114
-362,912	-137,759	-0,049	0,004
-361,898	-200,000	0,031	-0,164
-360,883	800,000	-0,028	-0,079
-359,869	-200,000	-0,034	-0,139
-358,854	147,021	0,074	-0,072
-357,839	-200,000	-0,005	0,062
-356,825	190,232	0,078	0,086
-355,810	-14,657	-0,102	0,047
-354,796	234,793	-0,056	0,067
-353,781	32,794	-0,128	-0,080
-352,766	-200,000	-0,005	-0,057
-351,752	-200,000	0,010	-0,057
-350,737	-200,000	0,027	0,122
-349,723	-122,313	0,133	0,016
-348,708	-200,000	0,013	0,054
-347,693	-90,490	-0,048	-0,010
-346,679	-27,832	0,071	-0,030
-345,664	-200,000	-0,010	-0,082
-344,650	-200,000	0,004	-0,048
-343,635	374,718	-0,023	-0,035
-342,620	800,000	-0,055	-0,121
-341,606	-200,000	0,009	-0,134
-340,591	3,656	-0,142	0,075
-339,577	-200,000	-0,014	-0,102
-338,562	-200,000	0,000	-0,112
-337,548	-200,000	-0,019	0,177
-336,533	-147,209	0,113	0,007
-335,518	28,349	0,012	0,007
-334,504	188,219	0,042	-0,046
-333,489	-185,586	-0,143	-0,002
-332,475	800,000	-0,072	-0,153
-331,460	21,350	-0,069	-0,041
-330,445	160,748	0,059	-0,060
-329,431	-200,000	-0,013	0,157
-328,416	232,251	-0,060	0,072
-327,402	-200,000	0,023	-0,156
-326,387	-200,000	0,028	-0,124
-325,372	-53,314	-0,160	0,053
-324,358	-200,000	0,016	0,090
-323,343	496,300	0,061	0,101
-322,329	-102,160	0,122	0,021
-321,314	-100,214	0,091	-0,016
-320,299	800,000	0,025	0,066
-319,285	-82,905	-0,055	-0,013
-318,270	24,565	-0,034	0,020
-317,256	-200,000	-0,003	-0,055
-316,241	-123,419	0,062	0,007
-315,226	58,469	0,071	0,051
-314,212	22,060	0,203	0,119
-313,197	2,842	-0,112	0,059
-312,183	347,252	0,042	0,060
-311,168	373,791	-0,030	-0,044
-310,153	-200,000	-0,027	-0,103
-309,139	552,215	-0,016	-0,029
-308,124	36,714	0,019	-0,012
-307,110	-39,120	0,061	-0,023
-306,095	74,967	0,055	0,042
-305,080	-200,000	-0,003	0,161
-304,066	257,537	-0,012	-0,015
-303,051	127,748	0,034	0,031
-302,037	61,181	0,031	0,022
-301,022	-200,000	0,015	0,084
-300,008	-200,000	0,017	0,130
-298,993	51,475	-0,069	0,047
-297,978	33,719	0,158	0,100
-296,964	-200,000	-0,035	-0,234
-295,949	-83,923	0,066	-0,015
-294,935	-27,458	0,056	-0,024
-293,920	-70,912	0,106	-0,029
-292,905	66,631	0,023	-0,017
-291,891	800,000	0,039	0,080
-290,876	-99,459	0,105	-0,019
-289,862	1,989	-0,128	-0,067
-288,847	800,000	0,032	0,071
-287,832	-200,000	0,000	-0,018
-286,818	22,415	0,044	0,026
-285,803	339,789	-0,050	0,071
-284,789	-134,784	0,114	0,010
-283,774	240,683	-0,100	0,121
-282,759	128,215	-0,062	0,058
-281,745	-88,400	0,052	-0,011
-280,730	-200,000	0,028	0,093
-279,716	-200,000	0,003	-0,138
-278,701	-71,984	0,052	-0,014
-277,686	-48,638	-0,080	0,028
-276,672	-200,000	0,048	0,175
-275,657	800,000	0,071	0,173
-274,643	-200,000	0,026	0,242
-273,628	-173,097	0,003	0,000
-272,613	-200,000	0,014	0,110
-271,599	-59,837	0,131	0,040
-270,584	800,000	-0,016	0,043
-269,570	800,000	0,063	0,184
-268,555	232,497	-0,131	0,156
-267,540	303,354	0,066	-0,089
-266,526	338,961	0,025	0,035
-265,511	-200,000	-0,013	0,054
-264,497	785,852	0,082	0,164
-263,482	744,758	-0,039	-0,075
-262,467	800,000	0,041	-0,085
-261,453	-69,153	0,071	0,019
-260,438	40,608	-0,045	-0,029
-259,424	649,973	-0,060	-0,112
-258,409	10,019	-0,066	0,036
-257,395	249,051	0,088	-0,108
-256,380	-200,000	0,014	0,143
-255,365	546,867	-0,040	-0,070
-254,351	-200,000	0,008	-0,079
-253,336	-66,461	-0,057	-0,016
-252,322	335,900	-0,037	0,051
-251,307	40,254	0,045	-0,029
-250,292	-181,040	0,044	0,001
-249,278	-200,000	0,007	0,163
-248,263	-53,457	-0,024	0,008
-247,249	-28,638	-0,096	-0,040
-246,234	-119,121	-0,072	-0,009
-245,219	-112,565	-0,056	-0,008
-244,205	190,330	-0,045	0,049
-243,190	424,661	0,058	0,090
-242,176	-98,988	0,079	-0,014
-241,161	343,307	-0,040	-0,057
-240,146	-3,186	0,020	-0,010
-239,132	-200,000	0,010	0,156
-238,117	-200,000	-0,026	0,082
-237,103	-35,000	0,041	-0,016
-236,088	-200,000	-0,042	-0,144
-235,073	62,273	-0,013	-0,009
-234,059	-200,000	-0,018	-0,113
-233,044	-200,000	0,001	-0,072
-232,030	710,049	0,042	0,081
-231,015	-15,864	-0,098	-0,045
-230,000	221,227	-0,023	-0,027
-228,986	-92,420	-0,058	-0,012
-227,971	800,000	0,060	0,127
-226,957	800,000	0,021	0,047
-225,942	181,027	-0,011	0,012
-224,927	-200,000	-0,009	-0,063
-223,913	-105,159	-0,103	-0,017
-222,898	249,037	-0,038	0,047
-221,884	286,601	-0,015	-0,019
-220,869	-90,891	0,019	-0,004
-219,855	108,116	0,070	0,061
-218,840	-6,993	0,030	-0,014
-217,825	58,173	0,119	0,084
-216,811	-58,895	0,066	-0,021
-215,796	-200,000	-0,012	-0,113
-214,782	552,152	0,025	0,043
-213,767	145,460	0,081	0,079
-212,752	-105,212	0,061	0,010
-211,738	528,821	0,063	0,107
-210,723	56,724	0,091	0,064
-209,709	-53,236	-0,052	0,017
-208,694	-136,834	-0,129	0,011
-207,679	-115,351	-0,134	0,018
-206,665	157,362	0,097	0,097
-205,650	-200,000	-0,026	-0,210
-204,636	239,884	-0,050	0,060
-203,621	-107,344	-0,105	-0,017
-202,606	39,941	0,027	-0,018
-201,592	392,281	0,044	-0,067
-200,577	-106,649	-0,032	0,005
-199,563	-134,595	-0,058	0,005
-198,548	-134,852	0,087	-0,008
-197,533	247,708	-0,051	0,063
-196,519	29,047	0,016	0,010
-195,504	-118,222	0,129	0,016
-194,490	-200,000	-0,013	-0,046
-193,475	42,606	-0,035	-0,023
-192,460	-56,790	-0,207	0,066
-191,446	19,324	-0,029	-0,017
-190,431	800,000	0,053	0,121
-189,417	3,676	0,136	0,072
-188,402	545,276	-0,032	-0,056
-187,387	-59,533	-0,200	-0,061
-186,373	800,000	-0,055	-0,118
-185,358	800,000	0,051	-0,121
-184,344	-46,152	0,112	0,040
-183,329	460,342	0,058	0,093
-182,315	100,601	-0,045	-0,038
-181,300	-73,451	0,081	-0,021
-180,285	-147,177	0,072	-0,004
-179,271	-96,623	-0,026	0,005
-178,256	291,558	0,032	-0,042
-177,242	519,067	-0,060	0,102
-176,227	207,081	0,030	-0,033
-175,212	337,703	0,076	0,107
-174,198	301,025	0,120	0,161
-173,183	45,846	0,070	-0,047
-172,169	-76,880	-0,128	0,032
-171,154	139,380	-0,012	0,011
-170,139	493,831	0,048	-0,080
-169,125	158,019	0,085	-0,085
-168,110	8,503	-0,090	0,048
-167,096	562,216	0,047	0,083
-166,081	-143,109	-0,136	0,009
-165,066	800,000	-0,013	0,032
-164,052	800,000	-0,041	0,118
-163,037	-172,464	-0,072	0,002
-162,023	800,000	-0,033	0,074
-161,008	379,811	-0,076	0,113
-159,993	-159,621	-0,170	0,007
-158,979	-139,203	-0,126	-0,010
-157,964	-24,834	-0,073	0,031
-156,950	757,755	-0,053	0,103
-155,935	29,512	0,176	0,108
-154,920	-81,632	0,073	0,017
-153,906	33,260	0,079	0,049
-152,891	-36,575	-0,050	-0,019
-151,877	366,518	0,025	0,036
-150,862	395,804	-0,062	-0,093
-149,847	435,363	-0,072	-0,113
-148,833	-200,000	0,000	0,083
-147,818	29,912	-0,052	0,032
-146,804	800,000	0,024	-0,061
-145,789	-30,446	0,122	-0,050
-144,775	-200,000	-0,010	-0,084
-143,760	18,467	0,077	0,044
-142,745	800,000	0,030	0,064
-141,731	-77,995	-0,061	0,015
-140,716	82,900	0,111	0,087
-139,702	0,315	-0,060	0,031
-138,687	96,570	0,100	0,082
-137,672	769,046	-0,088	0,172
-136,658	-200,000	-0,019	-0,079
-135,643	-200,000	0,020	-0,110
-134,629	-200,000	-0,018	0,090
-133,614	-44,859	0,043	-0,015
-132,599	-4,218	-0,071	0,035
-131,585	223,088	0,024	0,028
-130,570	-47,138	0,090	-0,031
-129,556	153,201	-0,124	0,122
-128,541	-0,404	-0,092	-0,047
-127,526	176,080	-0,061	-0,064
-126,512	544,806	0,039	-0,066
-125,497	-9,801	0,107	-0,051
-124,483	-33,854	-0,067	0,027
-123,468	-200,000	0,019	-0,069
-122,453	-11,940	0,082	-0,039
-121,439	-200,000	0,030	-0,126
-120,424	-200,000	-0,013	-0,163
-119,410	-108,279	0,085	-0,013
-118,395	-200,000	-0,012	0,102
-117,380	174,860	0,086	0,089
-116,366	131,124	-0,023	-0,021
-115,351	590,153	-0,057	-0,101
-114,337	233,390	0,045	0,053
-113,322	-200,000	0,002	-0,051
-112,307	149,155	-0,061	-0,060
-111,293	224,099	0,024	0,028
-110,278	-200,000	-0,000	0,046
-109,264	-200,000	-0,024	-0,142
-108,249	261,864	0,053	-0,067
-107,234	-11,689	-0,170	-0,080
-106,220	13,972	-0,049	-0,027
-105,205	149,996	0,069	0,067
-104,191	150,671	-0,081	-0,079
-103,176	299,038	0,072	0,095
-102,162	255,389	-0,118	0,146
-101,147	-200,000	-0,012	0,045
-100,132	-200,000	-0,033	-0,109
-99,118	-87,990	0,057	0,012
-98,103	133,609	0,042	-0,039
-97,089	102,780	0,028	-0,024
-96,074	-88,029	0,094	0,020
-95,059	-59,787	0,092	-0,028
-94,045	-17,604	0,069	-0,031
-93,030	215,457	-0,019	0,022
-92,016	13,897	-0,062	0,034
-91,001	-35,611	0,037	-0,014
-89,986	18,881	-0,067	-0,039
-88,972	-200,000	0,004	-0,014
-87,957	59,147	0,075	-0,053
-86,943	-48,318	0,043	-0,015
-85,928	40,066	0,071	-0,046
-84,913	-200,000	0,001	0,013
-83,899	-124,772	0,122	-0,013
-82,884	220,041	0,058	-0,067
-81,870	395,399	0,081	0,122
-80,855	83,170	0,073	-0,057
-79,840	572,161	-0,087	-0,153
-78,826	74,236	0,059	-0,044
-77,811	141,113	0,072	-0,068
-76,797	-52,785	0,148	0,049
-75,782	213,222	0,023	-0,026
-74,767	-200,000	-0,020	-0,069
-73,753	374,675	-0,088	-0,130
-72,738	723,429	0,038	-0,073
-71,724	-200,000	0,021	0,091
-70,709	31,552	-0,059	-0,037
-69,694	34,427	0,081	0,051
-68,680	773,025	0,090	0,176
-67,665	185,845	-0,018	0,019
-66,651	173,745	0,065	-0,068
-65,636	16,737	0,100	-0,057
-64,622	800,000	0,062	-0,126
-63,607	800,000	-0,027	-0,062
-62,592	489,869	-0,026	-0,042
-61,578	-116,131	0,069	-0,009
-60,563	-34,514	-0,077	0,030
-59,549	1,270	-0,131	0,067
-58,534	30,914	-1,878	-1,152
-57,519	-200,000	-0,107	-0,714
-56,505	-200,000	-1,288	-5,035
-55,490	141,168	0,891	0,846
-54,476	800,000	5,123	11,507
-53,461	-200,000	17,880	289,850
-52,446	800,000	727,983	2224,735
-51,432	533,342	1640,532	2797,326
-50,417	108,873	1629,504	1396,737
-49,403	72,626	1283,146	959,026
-48,388	31,207	1026,008	630,032
-47,373	19,898	988,108	569,523
-46,359	18,194	975,992	556,939
-45,344	15,444	972,027	545,673
-44,330	15,633	970,447	545,381
-43,315	15,165	968,581	542,785
-42,300	15,141	967,676	542,177
-41,286	15,127	966,790	541,614
-40,271	15,103	965,615	540,857
-39,257	15,108	964,746	540,364
-38,242	15,159	963,918	540,045
-37,227	15,094	963,099	539,355
-36,213	15,113	962,274	538,933
-35,198	15,155	961,404	538,560
-34,184	15,139	960,660	538,071
-33,169	15,070	959,688	537,283
-32,154	15,171	958,740	537,055
-31,140	15,125	957,923	536,427
-30,125	15,137	957,385	536,145
-29,111	15,143	956,298	535,533
-28,096	15,132	955,731	535,159
-27,082	15,128	955,000	534,714
-26,067	15,126	954,340	534,319
-25,052	15,157	953,616	533,990
-24,038	15,138	952,781	533,442
-23,023	15,162	952,360	533,261
-22,009	15,165	951,576	532,811
-20,994	15,198	950,679	532,395
-19,979	15,075	950,431	531,839
-18,965	15,112	949,653	531,501
-17,950	15,190	948,972	531,349
-16,936	15,101	948,419	530,735
-15,921	15,076	947,854	530,318
-14,906	15,031	947,067	529,712
-13,892	15,068	946,432	529,454
-12,877	14,940	945,908	528,734
-11,863	14,976	945,165	528,410
-10,848	15,013	944,677	528,234
-9,833	15,106	944,116	528,195
-8,819	15,081	943,648	527,833
-7,804	15,036	942,934	527,270
-6,790	15,052	942,570	527,097
-5,775	15,079	941,794	526,728
-4,760	15,056	941,051	526,217
-3,746	15,081	940,416	525,920
-2,731	14,928	939,844	525,096
-1,717	14,910	939,077	524,592
-0,702	14,893	938,549	524,221
0,313	14,686	937,735	523,907
1,327	18,222	935,708	533,845
2,342	27,506	789,203	474,678
3,356	23,925	444,221	261,866
4,371	-5,722	295,322	144,490
5,386	-9,569	276,972	131,858
6,400	-11,111	271,408	127,765
7,415	-11,119	269,195	126,705
8,429	-11,090	267,625	125,981
9,444	-11,100	266,892	125,616
10,459	-11,257	266,265	125,166
11,473	-11,241	265,394	124,760
12,488	-11,149	265,086	124,688
13,502	-11,472	264,449	124,085
14,517	-11,405	264,063	123,953
15,531	-11,481	263,698	123,702
16,546	-11,251	263,167	123,649
17,561	-11,363	262,881	123,404
18,575	-11,011	262,522	123,540
19,590	-11,330	262,304	123,140
20,604	-11,217	261,899	123,040
21,619	-11,269	261,487	122,789
22,634	-11,264	261,158	122,628
23,648	-11,293	260,843	122,443
24,663	-11,447	260,670	122,214
25,677	-11,316	260,514	122,247
26,692	-11,450	260,259	121,997
27,707	-11,246	259,972	122,033
28,721	-11,403	259,738	121,773
29,736	-11,473	259,286	121,488
30,750	-11,337	258,929	121,430
31,765	-11,545	258,895	121,220
32,780	-11,498	258,807	121,209
33,794	-11,422	258,368	121,060
34,809	-11,324	258,130	121,024
35,823	-11,521	257,783	120,677
36,838	-11,337	257,564	120,726
37,853	-11,436	257,369	120,536
38,867	-11,436	257,166	120,430
39,882	-11,478	256,797	120,210
40,896	-11,501	256,589	120,081
41,911	-11,544	256,491	119,988
42,926	-11,525	256,089	119,806
43,940	-11,607	255,809	119,593
44,955	-11,721	255,770	119,464
45,969	-11,815	255,621	119,302
46,984	-11,731	255,155	119,147
47,999	-12,258	254,951	118,582
49,013	-12,231	254,622	118,443
50,028	-12,241	254,362	118,302
51,042	-12,387	254,177	118,079
52,057	-12,293	253,965	118,052
53,071	-12,482	253,756	117,781
54,086	-12,123	253,575	117,997
55,101	-11,978	253,346	118,004
56,115	-11,736	253,370	118,214
57,130	-11,514	253,281	118,353
58,144	-11,405	253,108	118,356
59,159	-11,162	252,821	118,420
60,174	-11,102	252,765	118,436
61,188	-11,478	252,404	117,932
62,203	-11,410	252,271	117,918
63,217	-11,374	252,082	117,850
64,232	-11,383	251,811	117,706
65,247	-11,440	251,593	117,544
66,261	-11,439	251,354	117,423
67,276	-11,411	251,113	117,324
68,290	-11,637	250,751	116,952
69,305	-12,042	250,510	116,484
70,320	-12,074	250,472	116,428
71,334	-11,532	250,308	116,803
72,349	-11,175	250,198	117,045
73,363	-11,317	249,850	116,751
74,378	-11,243	249,622	116,697
75,393	-11,361	249,504	116,531
76,407	-11,284	249,168	116,429
77,422	-11,372	249,125	116,324
78,436	-11,300	248,856	116,249
79,451	-11,460	248,627	115,997
80,466	-11,511	248,383	115,829
81,480	-11,577	248,059	115,612
82,495	-11,599	247,903	115,510
83,509	-11,761	247,845	115,336
84,524	-11,749	247,536	115,193
85,539	-11,829	247,309	115,009
86,553	-11,876	247,133	114,878
87,568	-11,781	247,030	114,899
88,582	-11,688	246,739	114,832
89,597	-11,804	246,680	114,697
90,611	-11,509	246,456	114,830
91,626	-11,451	246,244	114,769
92,641	-11,531	246,235	114,688
93,655	-11,442	245,837	114,567
94,670	-11,800	245,588	114,142
95,684	-11,698	245,586	114,215
96,699	-11,475	245,220	114,221
97,714	-11,550	245,161	114,121
98,728	-11,584	244,868	113,946
99,743	-11,794	244,538	113,608
100,757	-11,845	244,402	113,492
101,772	-11,765	244,314	113,508
102,787	-11,636	244,037	113,475
103,801	-11,710	244,043	113,407
104,816	-11,451	243,834	113,515
105,830	-11,429	243,732	113,475
106,845	-11,408	243,528	113,387
107,860	-11,458	243,304	113,231
108,874	-11,314	243,004	113,200
109,889	-11,709	242,765	112,753
110,903	-11,696	242,575	112,666
111,918	-11,735	242,335	112,512
112,933	-11,523	242,293	112,657
113,947	-11,516	242,230	112,624
114,962	-11,442	241,841	112,494
115,976	-11,672	241,860	112,304
116,991	-11,424	241,564	112,359
118,006	-11,427	241,482	112,309
119,020	-11,394	241,349	112,264
120,035	-11,154	241,153	112,359
121,049	-11,552	241,270	112,078
122,064	-11,427	240,888	111,992
123,079	-11,499	240,564	111,773
124,093	-11,592	240,318	111,574
125,108	-11,631	240,034	111,399
126,122	-11,846	239,884	111,146
127,137	-11,851	239,815	111,099
128,151	-11,959	239,523	110,867
129,166	-11,814	239,421	110,927
130,181	-11,573	239,215	111,017
131,195	-12,121	239,072	110,497
132,210	-11,612	238,920	110,829
133,224	-11,509	238,706	110,803
134,239	-11,467	238,608	110,781
135,254	-11,585	238,518	110,634
136,268	-11,657	238,287	110,459
137,283	-11,971	237,977	110,053
138,297	-12,130	237,744	109,807
139,312	-11,885	237,535	109,898
140,327	-11,655	237,438	110,028
141,341	-11,177	237,428	110,398
142,356	-11,224	237,328	110,304
143,370	-11,311	237,140	110,136
144,385	-10,960	236,986	110,336
145,400	-11,063	236,840	110,176
146,414	-11,090	236,609	110,037
147,429	-11,178	236,379	109,850
148,443	-11,214	236,281	109,766
149,458	-11,089	236,063	109,755
150,473	-11,037	235,803	109,665
151,487	-11,193	235,645	109,458
152,502	-11,237	235,670	109,425
153,516	-11,019	235,387	109,457
154,531	-11,250	235,271	109,210
155,546	-11,266	235,040	109,080
156,560	-11,200	234,837	109,029
157,575	-11,504	234,599	108,667
158,589	-11,479	234,490	108,627
159,604	-11,174	234,340	108,789
160,619	-11,004	234,284	108,888
161,633	-11,001	234,229	108,855
162,648	-11,137	233,922	108,595
163,662	-11,323	233,812	108,388
164,677	-11,322	233,618	108,289
165,692	-11,089	233,469	108,394
166,706	-11,012	233,240	108,338
167,721	-11,046	233,319	108,339
168,735	-10,982	232,991	108,227
169,750	-10,998	232,882	108,154
170,764	-11,178	232,798	107,964
171,779	-11,173	232,706	107,916
172,794	-10,956	232,365	107,918
173,808	-11,395	232,170	107,474
174,823	-11,792	231,802	106,984
175,837	-11,917	231,666	106,814
176,852	-11,536	231,638	107,089
177,867	-11,285	231,616	107,265
178,881	-11,025	231,456	107,384
179,896	-11,022	231,278	107,295
180,910	-11,140	231,000	107,064
181,925	-11,156	231,042	107,061
182,940	-11,161	230,901	106,983
183,954	-11,098	230,727	106,942
184,969	-11,018	230,569	106,922
185,983	-11,048	230,301	106,764
186,998	-10,734	230,199	106,951
188,013	-10,721	230,057	106,885
189,027	-10,890	229,996	106,716
190,042	-10,823	229,683	106,613
191,056	-10,862	229,541	106,508
192,071	-11,060	229,446	106,302
193,086	-10,951	229,232	106,277
194,100	-10,875	229,069	106,250
195,115	-11,094	228,711	105,907
196,129	-11,252	228,880	105,853
197,144	-5,765	230,535	110,862
198,159	-0,279	232,075	115,861
199,173	2,800	232,955	118,688
200,188	3,333	233,087	119,159
201,202	3,268	232,748	118,925
202,217	3,436	232,780	119,061
203,232	3,499	232,725	119,071
204,246	3,860	232,567	119,260
205,261	3,939	232,409	119,230
206,275	3,956	232,274	119,163
207,290	4,103	232,046	119,149
208,304	3,905	232,038	118,981
209,319	3,832	231,770	118,777
210,334	3,850	231,487	118,635
211,348	3,792	231,256	118,461
212,363	3,256	230,978	117,895
213,377	2,768	230,925	117,482
214,392	3,004	230,800	117,590
215,407	3,055	230,693	117,564
216,421	3,359	230,441	117,658
217,436	3,134	230,354	117,431
218,450	2,882	230,089	117,092
219,465	2,953	230,017	117,099
220,480	2,984	229,834	117,019
221,494	2,933	229,712	116,908
222,509	3,213	229,652	117,081
223,523	3,275	229,448	117,014
224,538	3,123	229,148	116,735
225,553	3,223	229,008	116,729
226,567	3,031	228,984	116,560
227,582	3,374	228,912	116,775
228,596	3,636	228,809	116,911
229,611	3,221	228,629	116,493
230,626	2,796	228,381	116,033
231,640	2,973	228,179	116,054
232,655	3,339	228,178	116,321
233,669	3,744	228,027	116,541
234,684	3,938	227,855	116,590
235,699	3,610	227,698	116,251
236,713	3,367	227,507	115,959
237,728	3,328	227,323	115,826
238,742	3,270	227,069	115,642
239,757	3,084	227,023	115,468
240,772	3,208	226,801	115,438
241,786	2,908	226,749	115,175
242,801	3,251	226,637	115,367
243,815	3,512	226,686	115,578
244,830	3,633	226,394	115,510
245,844	3,193	226,056	114,996
246,859	3,386	225,940	115,072
247,874	3,359	226,072	115,109
248,888	3,496	225,834	115,080
249,903	3,336	225,525	114,793
250,917	3,167	225,456	114,621
251,932	3,303	225,236	114,600
252,947	3,255	225,115	114,493
253,961	2,983	224,899	114,169
254,976	2,934	224,687	114,014
255,990	3,188	224,756	114,229
257,005	3,317	224,759	114,317
258,020	3,272	224,565	114,175
259,034	3,336	224,439	114,148
260,049	3,435	224,215	114,098
261,063	3,495	223,945	113,995
262,078	3,318	223,994	113,878
263,093	3,578	223,749	113,936
264,107	3,507	223,524	113,759
265,122	3,262	223,582	113,597
266,136	3,515	223,468	113,716
267,151	3,581	223,293	113,666
268,166	3,301	222,905	113,251
269,180	2,920	222,803	112,907
270,195	2,952	222,523	112,779
271,209	3,058	222,444	112,807
272,224	2,994	222,388	112,721
273,239	3,322	222,316	112,917
274,253	3,126	222,074	112,640
275,268	2,983	221,848	112,410
276,282	2,948	221,607	112,252
277,297	2,802	221,585	112,123
278,312	3,075	221,471	112,256
279,326	3,172	221,329	112,245
280,341	3,271	221,234	112,260
281,355	3,213	221,144	112,161
282,370	3,289	221,020	112,144
283,384	2,995	220,686	111,750
284,399	2,545	220,770	111,453
285,414	2,814	220,477	111,492
286,428	3,193	220,448	111,744
287,443	3,476	220,301	111,866
288,457	3,636	220,118	111,880
289,472	3,105	219,935	111,390
290,487	2,623	219,902	111,012
291,501	2,573	219,661	110,844
292,516	2,767	219,409	110,849
293,530	2,957	219,309	110,926
294,545	3,196	219,164	111,016
295,560	3,096	219,127	110,915
296,574	3,274	218,888	110,913
297,589	3,212	218,894	110,862
298,603	3,109	218,690	110,673
299,618	3,294	218,617	110,760
300,633	3,260	218,399	110,616
301,647	3,592	218,378	110,835
302,662	3,376	218,189	110,574
303,676	3,394	218,092	110,527
304,691	3,523	217,849	110,487
305,706	3,833	217,674	110,612
306,720	3,469	217,777	110,392
307,735	3,194	217,375	109,981
308,749	3,004	217,248	109,770
309,764	3,119	217,321	109,880
310,779	3,549	217,029	110,031
311,793	3,298	217,054	109,854
312,808	3,209	216,805	109,654
313,822	3,431	216,526	109,662
314,837	3,122	216,519	109,428
315,852	2,780	216,287	109,056
316,866	3,149	216,247	109,290
317,881	3,430	216,102	109,407
318,895	3,230	215,978	109,193
319,910	2,918	215,806	108,873
320,925	2,894	215,532	108,708
321,939	2,660	215,395	108,463
322,954	2,863	215,205	108,502
323,968	3,290	215,333	108,860
324,983	3,527	215,146	108,925
325,997	3,593	215,038	108,907
327,012	3,197	214,797	108,494
328,027	3,262	214,751	108,507
329,041	3,694	214,624	108,739
330,056	3,248	214,662	108,433
331,070	2,893	214,252	107,965
332,085	2,798	213,959	107,741
333,100	2,997	213,893	107,839
334,114	3,340	213,863	108,056
335,129	3,348	213,693	107,966
336,143	3,099	213,772	107,820
337,158	3,321	213,534	107,847
338,173	3,209	213,274	107,628
339,187	3,128	213,227	107,538
340,202	2,718	213,133	107,192
341,216	2,881	212,890	107,176
342,231	2,895	212,810	107,135
343,246	2,986	212,659	107,114
344,260	3,234	212,438	107,166
345,275	3,162	212,380	107,077
346,289	3,142	212,294	107,010
347,304	3,265	212,226	107,053
348,319	3,224	212,027	106,914
349,333	2,845	212,012	106,631
350,348	3,302	211,684	106,776
351,362	3,119	211,779	106,687
352,377	3,250	211,644	106,700
353,392	3,392	211,314	106,624
354,406	3,274	211,165	106,457
355,421	196,090	1339,574	1418,248
356,435	156,653	1477,027	1418,217
