DTS Sentinel unit serial number:	SN410029Multiplexer serial number:	ORYXHardware model number:	OX2-SRSoftware version number:	ORYX F/W v4,00 Oryx Data Collector v3.7.2.0data status	okinstallation	B6 Nyhavnadifferential loss correction	single-endedforward channel	channel 2reverse channel	N/Adate	2023/12/10time	00:05:08forward acquisition time	300,00reverse acquisition time	0,00gamma	499,1914k internal	0,3126k external	0,3126temperature offset calibration	1,0000default loss term (dB/km)	0,3820temperature slope calibration	1,0000multiplexer offset coefficient	1,0000multiplexer slope coefficient	1,0000fibre end	0,00T internal ref (°C)	21,77T ext. ref 1 (°C)	5,66T ext. ref 2 (°C)	5,65length (m)	temperature (°C)	Stokes	anti-Stokes-744,400	1,873	0,093	0,050
-743,385	-149,960	-0,354	0,020
-742,371	62,794	-0,040	-0,030
-741,356	-18,288	-0,200	0,093
-740,342	273,178	0,061	0,081
-739,327	-114,674	-0,288	0,041
-738,312	-118,461	0,051	-0,007
-737,298	-51,677	-0,205	0,071
-736,283	115,008	0,079	-0,072
-735,269	66,106	-0,185	0,139
-734,254	193,394	0,066	-0,074
-733,239	-58,749	-0,508	-0,163
-732,225	-50,281	0,106	0,037
-731,210	-98,671	0,031	-0,006
-730,196	147,525	0,022	0,022
-729,181	-200,000	-0,018	-0,097
-728,167	-44,038	-0,047	0,017
-727,152	-200,000	-0,014	0,082
-726,137	-200,000	-0,028	-0,157
-725,123	102,908	-0,080	-0,070
-724,108	123,274	0,094	-0,087
-723,094	800,000	-0,101	-0,218
-722,079	-200,000	0,008	-0,099
-721,064	655,413	-0,015	-0,029
-720,050	-50,866	0,069	0,024
-719,035	4,261	-0,133	-0,072
-718,021	107,479	-0,088	0,078
-717,006	800,000	-0,026	0,073
-715,991	-200,000	-0,023	-0,264
-714,977	-200,000	-0,042	-0,197
-713,962	116,409	0,041	-0,037
-712,948	107,283	-0,101	-0,089
-711,933	-58,787	0,052	-0,017
-710,918	-67,213	-0,195	-0,057
-709,904	800,000	-0,054	-0,162
-708,889	-70,852	-0,106	0,030
-707,875	800,000	-0,040	-0,114
-706,860	230,050	0,061	-0,074
-705,845	54,969	0,079	-0,056
-704,831	171,329	0,079	0,085
-703,816	28,590	-0,099	-0,062
-702,802	-64,825	-0,043	0,013
-701,787	800,000	-0,039	-0,086
-700,772	191,967	-0,134	0,151
-699,758	-140,459	-0,033	0,002
-698,743	93,082	0,147	-0,123
-697,729	-200,000	0,002	-0,009
-696,714	651,676	0,038	0,073
-695,699	36,598	0,018	-0,012
-694,685	800,000	-0,029	0,095
-693,670	-33,133	0,082	0,034
-692,656	66,986	-0,085	-0,065
-691,641	21,051	0,046	0,028
-690,627	800,000	0,019	-0,048
-689,612	800,000	0,077	0,161
-688,597	-81,060	-0,069	0,017
-687,583	800,000	-0,041	-0,113
-686,568	-51,225	0,079	-0,027
-685,554	147,190	-0,104	-0,104
-684,539	584,162	-0,070	-0,128
-683,524	-105,939	-0,124	0,021
-682,510	-200,000	-0,034	-0,133
-681,495	-128,412	-0,156	-0,016
-680,481	-200,000	0,003	-0,150
-679,466	48,716	-0,167	-0,116
-678,451	-42,971	-0,031	-0,012
-677,437	-200,000	0,044	-0,172
-676,422	287,815	0,051	0,069
-675,408	76,852	0,074	-0,059
-674,393	593,245	0,031	0,057
-673,378	-200,000	-0,061	-0,239
-672,364	-200,000	-0,001	-0,067
-671,349	-52,118	-0,040	-0,014
-670,335	-200,000	-0,019	0,091
-669,320	-200,000	0,004	0,023
-668,305	-37,242	0,108	0,043
-667,291	-59,890	-0,062	-0,020
-666,276	343,233	-0,122	-0,178
-665,262	-200,000	-0,006	-0,272
-664,247	169,373	-0,110	-0,117
-663,232	-200,000	-0,010	0,040
-662,218	210,694	0,062	0,073
-661,203	1,595	-0,020	0,011
-660,189	800,000	-0,032	-0,093
-659,174	800,000	0,036	-0,113
-658,159	-200,000	-0,009	0,040
-657,145	7,754	0,034	-0,019
-656,130	-9,265	0,052	-0,026
-655,116	-200,000	-0,023	-0,106
-654,101	800,000	-0,033	-0,102
-653,086	545,674	-0,043	-0,077
-652,072	800,000	0,024	-0,063
-651,057	-41,780	-0,044	0,017
-650,043	146,907	-0,054	0,054
-649,028	-51,662	-0,089	0,031
-648,014	-125,448	0,160	-0,018
-646,999	-200,000	0,016	0,057
-645,984	800,000	-0,045	-0,145
-644,970	-200,000	-0,001	-0,093
-643,955	-200,000	-0,031	-0,144
-642,941	-102,718	-0,039	0,007
-641,926	800,000	-0,019	0,055
-640,911	-200,000	0,018	-0,061
-639,897	800,000	-0,029	-0,080
-638,882	299,078	-0,025	0,034
-637,868	-8,261	-0,111	0,055
-636,853	-61,003	-0,075	-0,023
-635,838	-200,000	0,004	-0,128
-634,824	800,000	-0,013	0,042
-633,809	-133,163	0,072	-0,007
-632,795	109,479	0,113	0,101
-631,780	-200,000	0,018	0,132
-630,765	731,790	-0,043	-0,087
-629,751	-200,000	-0,007	-0,181
-628,736	800,000	-0,047	-0,098
-627,722	-86,704	-0,103	-0,023
-626,707	-37,741	0,093	-0,037
-625,692	-59,159	0,210	0,067
-624,678	800,000	0,032	0,089
-623,663	-42,460	-0,070	-0,026
-622,649	800,000	0,035	-0,112
-621,634	397,465	-0,105	-0,163
-620,619	-96,409	0,038	0,007
-619,605	643,080	0,085	0,161
-618,590	-200,000	0,015	-0,052
-617,576	-172,328	0,077	0,002
-616,561	-200,000	0,001	-0,090
-615,546	660,816	-0,078	0,150
-614,532	800,000	0,034	-0,093
-613,517	-36,967	-0,059	-0,023
-612,503	800,000	0,020	0,044
-611,488	-200,000	-0,009	0,104
-610,474	-2,473	-0,076	-0,039
-609,459	202,435	-0,098	-0,113
-608,444	-200,000	-0,051	0,000
-607,430	800,000	0,021	-0,069
-606,415	155,430	-0,055	0,056
-605,401	800,000	-0,036	-0,115
-604,386	800,000	0,039	0,111
-603,371	-200,000	-0,021	0,077
-602,357	83,943	0,088	-0,071
-601,342	-14,887	0,058	-0,027
-600,328	-200,000	-0,020	-0,073
-599,313	343,948	-0,035	0,050
-598,298	359,397	-0,035	-0,053
-597,284	800,000	-0,026	0,064
-596,269	-50,907	-0,116	-0,040
-595,255	66,114	0,062	-0,046
-594,240	18,523	-0,018	0,010
-593,225	148,826	-0,007	0,007
-592,211	577,596	-0,029	0,052
-591,196	-200,000	0,016	0,128
-590,182	-1,251	-0,052	0,027
-589,167	800,000	-0,029	0,065
-588,152	-200,000	-0,004	0,074
-587,138	-200,000	0,006	0,176
-586,123	88,932	0,076	-0,063
-585,109	-12,332	-0,097	-0,047
-584,094	-31,128	0,034	-0,014
-583,079	326,328	-0,095	0,135
-582,065	30,213	0,085	-0,053
-581,050	800,000	0,051	0,144
-580,036	107,727	0,104	0,091
-579,021	-119,546	-0,093	-0,012
-578,006	800,000	-0,041	-0,134
-576,992	-45,957	0,028	0,010
-575,977	-148,758	-0,040	0,002
-574,963	114,583	-0,142	0,128
-573,948	113,835	-0,033	-0,029
-572,934	-130,416	-0,053	0,005
-571,919	800,000	0,036	0,108
-570,904	-200,000	0,017	-0,159
-569,890	-139,654	-0,051	-0,004
-568,875	-62,212	0,048	0,015
-567,861	800,000	0,026	0,065
-566,846	-200,000	-0,002	-0,027
-565,831	-76,824	0,109	-0,028
-564,817	-200,000	0,010	-0,047
-563,802	32,024	-0,064	0,040
-562,788	440,662	0,029	0,047
-561,773	370,429	-0,109	-0,164
-560,758	-75,482	0,162	0,042
-559,744	241,018	0,043	0,053
-558,729	84,995	0,081	0,065
-557,715	-200,000	-0,009	0,106
-556,700	319,169	-0,057	0,080
-555,685	-96,014	-0,083	0,016
-554,671	-200,000	-0,001	0,056
-553,656	-184,927	0,057	0,001
-552,642	426,417	0,122	0,195
-551,627	-200,000	0,000	0,029
-550,612	-27,923	-0,094	-0,040
-549,598	-28,868	-0,042	0,018
-548,583	-3,755	-0,125	-0,064
-547,569	-132,377	0,030	0,003
-546,554	-69,534	0,085	-0,024
-545,539	265,076	0,028	0,036
-544,525	277,826	0,012	0,016
-543,510	89,135	-0,033	0,027
-542,496	-200,000	0,013	-0,073
-541,481	-200,000	-0,006	-0,085
-540,466	800,000	-0,059	-0,165
-539,452	272,989	0,034	0,045
-538,437	800,000	0,026	0,067
-537,423	97,659	-0,069	0,059
-536,408	-200,000	0,007	-0,042
-535,393	-106,644	-0,075	0,012
-534,379	370,746	-0,103	-0,155
-533,364	-95,527	-0,044	-0,009
-532,350	-200,000	-0,009	0,247
-531,335	12,884	0,063	-0,036
-530,321	-10,783	-0,029	0,014
-529,306	-141,444	-0,126	0,009
-528,291	528,059	0,022	0,038
-527,277	-91,339	0,106	0,022
-526,262	-70,954	-0,057	0,016
-525,248	-157,042	0,051	-0,002
-524,233	98,546	-0,093	0,079
-523,218	-141,798	-0,044	0,003
-522,204	240,484	-0,016	0,020
-521,189	234,277	-0,078	-0,095
-520,175	247,696	-0,014	0,017
-519,160	-200,000	-0,026	-0,102
-518,145	473,728	-0,044	-0,073
-517,131	43,365	0,151	0,102
-516,116	-200,000	0,005	-0,025
-515,102	9,729	0,040	-0,022
-514,087	-200,000	0,008	-0,056
-513,072	-200,000	-0,033	-0,124
-512,058	-200,000	0,017	-0,106
-511,043	19,300	0,138	-0,082
-510,029	-147,828	0,113	-0,007
-509,014	-148,962	0,107	0,006
-507,999	31,225	-0,014	-0,009
-506,985	-55,029	-0,056	-0,018
-505,970	800,000	-0,027	0,065
-504,956	800,000	0,031	-0,100
-503,941	16,142	-0,081	-0,047
-502,926	-200,000	-0,012	-0,042
-501,912	-106,670	-0,073	0,012
-500,897	-120,096	-0,053	-0,007
-499,883	3,579	0,062	-0,033
-498,868	48,809	-0,026	0,018
-497,853	393,845	-0,097	-0,149
-496,839	444,515	-0,037	-0,059
-495,824	-124,308	-0,130	0,015
-494,810	122,679	-0,039	0,036
-493,795	-200,000	-0,002	0,027
-492,781	39,341	-0,142	-0,094
-491,766	-2,806	-0,105	0,054
-490,751	800,000	-0,044	-0,122
-489,737	-200,000	-0,007	0,059
-488,722	290,563	0,071	0,095
-487,708	-125,691	0,111	-0,012
-486,693	-93,673	0,060	-0,012
-485,678	73,933	0,070	-0,054
-484,664	-200,000	-0,030	0,173
-483,649	800,000	0,035	0,098
-482,635	-181,662	0,101	-0,001
-481,620	366,105	0,027	-0,040
-480,605	-200,000	0,017	-0,067
-479,591	-200,000	-0,008	-0,102
-478,576	-200,000	-0,006	-0,052
-477,562	80,088	-0,077	-0,061
-476,547	-200,000	0,001	-0,018
-475,532	64,169	-0,091	-0,067
-474,518	-200,000	-0,006	-0,075
-473,503	129,751	0,088	-0,083
-472,489	90,118	-0,038	-0,031
-471,474	12,834	-0,086	0,049
-470,459	339,372	0,055	0,079
-469,445	-200,000	0,002	0,045
-468,430	800,000	-0,028	-0,082
-467,416	-200,000	-0,022	0,151
-466,401	130,844	-0,149	0,141
-465,386	12,731	0,048	-0,027
-464,372	-28,090	-0,059	-0,025
-463,357	-200,000	0,006	0,090
-462,343	47,836	-0,054	0,037
-461,328	-200,000	0,035	0,122
-460,313	-103,930	0,166	-0,028
-459,299	78,157	0,096	0,075
-458,284	800,000	-0,009	-0,026
-457,270	-178,476	-0,165	-0,003
-456,255	438,164	-0,048	-0,078
-455,241	800,000	0,083	-0,179
-454,226	365,692	-0,095	-0,141
-453,211	8,855	0,108	-0,060
-452,197	6,152	0,119	-0,065
-451,182	800,000	0,039	-0,085
-450,168	-200,000	-0,023	0,124
-449,153	-49,502	-0,035	0,012
-448,138	25,505	-0,089	0,055
-447,124	-200,000	-0,014	0,124
-446,109	-148,894	-0,068	0,004
-445,095	52,693	-0,072	-0,051
-444,080	148,754	0,055	0,055
-443,065	-200,000	-0,004	-0,056
-442,051	71,942	0,058	-0,044
-441,036	117,062	-0,143	-0,129
-440,022	-16,620	-0,161	-0,075
-439,007	190,061	-0,093	-0,103
-437,992	800,000	-0,040	-0,101
-436,978	71,096	-0,015	-0,012
-435,963	-200,000	0,028	0,112
-434,949	569,741	-0,046	-0,082
-433,934	-152,503	-0,098	0,005
-432,919	176,249	0,054	-0,058
-431,905	-33,114	0,078	0,032
-430,890	45,940	0,057	0,039
-429,876	196,840	-0,084	0,094
-428,861	44,884	-0,088	0,060
-427,846	713,722	-0,078	0,153
-426,832	-200,000	0,022	0,208
-425,817	800,000	0,063	-0,149
-424,803	773,265	0,045	-0,090
-423,788	48,346	0,067	0,046
-422,773	-200,000	-0,004	0,066
-421,759	155,783	0,044	-0,044
-420,744	93,775	0,077	-0,064
-419,730	-200,000	-0,008	0,030
-418,715	800,000	-0,007	-0,018
-417,701	56,989	0,035	-0,025
-416,686	-9,536	0,045	-0,022
-415,671	-200,000	0,024	-0,098
-414,657	-200,000	-0,025	0,189
-413,642	-200,000	0,035	-0,135
-412,628	48,068	-0,031	0,021
-411,613	-200,000	0,013	-0,055
-410,598	512,694	0,031	0,053
-409,584	-69,834	0,129	-0,036
-408,569	-169,191	0,176	0,005
-407,555	50,371	0,024	0,017
-406,540	-7,903	-0,059	0,029
-405,525	-200,000	0,009	0,167
-404,511	-114,727	-0,097	-0,013
-403,496	-200,000	-0,004	0,098
-402,482	-200,000	0,002	0,019
-401,467	-87,316	0,099	0,022
-400,452	-63,900	0,044	0,013
-399,438	703,502	0,023	0,045
-398,423	195,584	0,025	-0,027
-397,409	800,000	0,018	-0,050
-396,394	63,573	-0,050	-0,037
-395,379	-183,399	0,121	-0,002
-394,365	-200,000	-0,017	0,093
-393,350	72,836	-0,128	-0,098
-392,336	-89,298	0,047	-0,010
-391,321	-200,000	0,037	0,163
-390,306	304,847	-0,059	-0,081
-389,292	83,286	-0,097	-0,077
-388,277	241,298	0,074	-0,090
-387,263	-159,371	-0,062	0,002
-386,248	-68,346	0,127	0,036
-385,233	239,391	0,117	0,143
-384,219	-200,000	-0,020	0,147
-383,204	-200,000	-0,025	-0,094
-382,190	-81,567	-0,126	-0,030
-381,175	495,328	0,062	-0,105
-380,160	-69,104	0,125	-0,035
-379,146	-85,106	0,074	-0,017
-378,131	800,000	-0,035	-0,108
-377,117	629,675	-0,048	-0,090
-376,102	-48,550	-0,055	0,019
-375,088	60,679	-0,101	-0,073
-374,073	-50,825	-0,140	-0,048
-373,058	800,000	-0,028	0,078
-372,044	-85,336	0,113	0,026
-371,029	800,000	0,009	-0,028
-370,015	-200,000	-0,004	-0,086
-369,000	-200,000	-0,009	-0,100
-367,985	-22,174	0,063	0,028
-366,971	800,000	0,045	0,095
-365,956	-200,000	0,024	-0,100
-364,942	59,066	0,047	-0,034
-363,927	392,743	0,064	0,097
-362,912	35,295	0,061	0,039
-361,898	-200,000	-0,000	0,050
-360,883	35,861	0,107	0,069
-359,869	800,000	0,046	-0,100
-358,854	207,509	0,061	-0,070
-357,839	800,000	-0,027	0,065
-356,825	65,762	-0,067	0,050
-355,810	163,021	-0,077	0,079
-354,796	-200,000	-0,009	0,180
-353,781	584,395	-0,054	-0,098
-352,766	-122,617	-0,156	-0,018
-351,752	-108,560	-0,127	0,020
-350,737	-200,000	-0,011	0,046
-349,723	36,643	0,088	-0,057
-348,708	64,642	-0,177	0,131
-347,693	800,000	-0,018	-0,038
-346,679	-200,000	-0,000	-0,118
-345,664	-200,000	0,004	0,096
-344,650	-67,092	-0,087	0,025
-343,635	-50,310	-0,061	0,021
-342,620	142,549	-0,015	0,015
-341,606	637,262	0,009	0,017
-340,591	-59,521	-0,118	0,037
-339,577	-200,000	-0,002	-0,059
-338,562	-17,632	0,031	-0,014
-337,548	132,469	-0,157	-0,149
-336,533	-200,000	-0,055	0,181
-335,518	800,000	0,031	0,082
-334,504	-200,000	0,020	-0,069
-333,489	55,205	-0,031	0,022
-332,475	23,803	-0,138	-0,083
-331,460	800,000	0,026	-0,066
-330,445	136,992	0,045	-0,043
-329,431	193,105	0,030	-0,033
-328,416	130,236	0,045	-0,042
-327,402	800,000	-0,045	0,107
-326,387	-200,000	-0,016	0,122
-325,372	-139,319	0,073	-0,006
-324,358	539,464	-0,074	-0,130
-323,343	53,876	-0,073	0,052
-322,329	-151,762	0,010	-0,001
-321,314	27,575	0,134	0,082
-320,299	-200,000	-0,008	0,028
-319,285	682,714	0,031	-0,060
-318,270	-200,000	0,007	0,041
-317,256	240,462	-0,124	-0,151
-316,241	139,388	-0,068	0,066
-315,226	-154,480	0,169	-0,008
-314,212	237,980	-0,061	-0,074
-313,197	800,000	-0,039	-0,086
-312,183	-78,326	0,099	-0,025
-311,168	-56,322	0,058	0,019
-310,153	489,194	-0,059	-0,099
-309,139	-71,603	0,036	-0,010
-308,124	-72,455	0,061	-0,017
-307,110	-148,527	-0,173	-0,010
-306,095	-200,000	-0,016	0,129
-305,080	-100,292	-0,094	0,017
-304,066	-200,000	-0,058	0,193
-303,051	49,962	-0,131	-0,090
-302,037	-148,138	-0,118	-0,007
-301,022	101,945	0,024	0,021
-300,008	-200,000	0,013	-0,049
-298,993	355,462	0,035	-0,051
-297,978	-169,524	-0,107	-0,003
-296,964	-200,000	0,003	-0,025
-295,949	-35,072	-0,058	-0,023
-294,935	62,938	0,076	-0,055
-293,920	-109,846	0,144	0,022
-292,905	-14,539	-0,096	-0,045
-291,891	55,433	0,057	-0,040
-290,876	-200,000	-0,005	0,017
-289,862	-23,641	0,136	0,059
-288,847	494,901	-0,047	-0,079
-287,832	-14,554	-0,132	-0,062
-286,818	35,828	-0,114	-0,073
-285,803	51,246	-0,073	0,051
-284,789	101,244	0,029	0,025
-283,774	-28,355	0,163	0,068
-282,759	133,353	0,135	0,128
-281,745	217,341	-0,088	-0,103
-280,730	-193,705	-0,098	0,001
-279,716	800,000	-0,029	-0,064
-278,701	-200,000	0,001	0,142
-277,686	130,795	0,081	0,076
-276,672	-125,711	0,126	0,014
-275,657	-165,280	0,051	0,002
-274,643	-166,571	-0,121	0,004
-273,628	-200,000	0,001	-0,080
-272,613	-156,304	0,052	-0,002
-271,599	800,000	0,052	0,114
-270,584	-25,249	0,132	-0,057
-269,570	126,458	0,048	0,045
-268,555	588,176	-0,011	-0,020
-267,540	-15,686	-0,149	-0,069
-266,526	7,357	0,123	-0,067
-265,511	-14,698	-0,145	0,068
-264,497	-200,000	-0,001	0,043
-263,482	-200,000	-0,000	0,006
-262,467	-200,000	0,041	0,178
-261,453	227,718	-0,064	0,076
-260,438	-200,000	0,009	-0,035
-259,424	-200,000	0,001	0,018
-258,409	84,121	-0,039	-0,031
-257,395	296,998	0,049	-0,066
-256,380	52,676	0,044	-0,031
-255,365	182,026	0,044	0,048
-254,351	238,539	0,032	-0,039
-253,336	800,000	0,067	0,188
-252,322	-20,820	-0,043	0,019
-251,307	387,320	0,096	-0,145
-250,292	44,941	0,109	-0,073
-249,278	-200,000	0,001	0,103
-248,263	-200,000	-0,020	-0,070
-247,249	-200,000	0,007	-0,054
-246,234	219,221	0,027	0,031
-245,219	-116,527	-0,075	0,010
-244,205	296,508	-0,104	-0,139
-243,190	261,245	-0,045	0,057
-242,176	-95,961	0,107	0,021
-241,161	257,914	0,058	-0,073
-240,146	-116,338	-0,042	0,006
-239,132	1,859	-0,157	0,083
-238,117	800,000	0,028	-0,065
-237,103	-142,011	-0,124	-0,009
-236,088	242,340	-0,044	0,054
-235,073	151,785	0,083	0,082
-234,059	68,815	0,077	0,057
-233,044	27,621	-0,127	0,078
-232,030	-200,000	-0,017	0,113
-231,015	-84,152	0,047	-0,011
-230,000	-200,000	-0,019	-0,091
-228,986	359,757	-0,072	-0,106
-227,971	-112,730	0,101	-0,015
-226,957	-45,185	0,005	0,002
-225,942	375,964	0,054	0,081
-224,927	711,617	0,027	0,052
-223,913	44,084	0,099	0,066
-222,898	57,660	-0,042	0,030
-221,884	359,459	-0,036	0,052
-220,869	-200,000	-0,014	0,094
-219,855	194,734	0,028	0,031
-218,840	65,925	0,066	-0,049
-217,825	84,331	0,029	0,023
-216,811	-200,000	-0,029	-0,135
-215,796	-4,403	0,069	0,035
-214,782	-43,804	0,045	0,016
-213,767	97,433	-0,005	-0,004
-212,752	-66,630	0,173	-0,050
-211,738	-200,000	-0,015	0,069
-210,723	256,504	0,070	0,088
-209,709	25,681	-0,027	0,016
-208,694	28,280	-0,076	-0,046
-207,679	-80,514	-0,053	0,013
-206,665	-200,000	0,002	0,140
-205,650	800,000	0,050	-0,132
-204,636	800,000	-0,038	-0,089
-203,621	800,000	0,017	0,047
-202,606	-200,000	0,037	-0,134
-201,592	65,766	-0,014	0,010
-200,577	-200,000	-0,029	-0,142
-199,563	-200,000	-0,023	-0,128
-198,548	200,215	0,029	0,033
-197,533	738,315	-0,044	0,086
-196,519	184,386	0,088	0,095
-195,504	-200,000	-0,013	0,054
-194,490	800,000	0,055	-0,118
-193,475	56,352	0,050	0,035
-192,460	30,758	0,121	-0,076
-191,446	-200,000	-0,011	0,040
-190,431	-117,541	0,086	0,011
-189,417	-200,000	0,039	0,148
-188,402	-73,298	-0,117	0,031
-187,387	798,447	-0,038	-0,077
-186,373	347,395	-0,054	-0,078
-185,358	-18,206	0,116	-0,053
-184,344	175,118	0,116	0,123
-183,329	402,690	0,071	-0,109
-182,315	-180,571	-0,111	0,002
-181,300	-128,487	-0,046	-0,005
-180,285	71,915	0,054	-0,041
-179,271	181,668	0,041	-0,044
-178,256	27,938	0,056	0,034
-177,242	-200,000	0,012	-0,111
-176,227	531,648	0,041	-0,072
-175,212	800,000	-0,027	0,056
-174,198	-82,020	-0,117	-0,028
-173,183	21,485	-0,067	-0,040
-172,169	-63,099	0,085	0,025
-171,154	130,644	0,070	-0,066
-170,139	90,746	-0,064	0,052
-169,125	-120,843	0,122	0,015
-168,110	-109,243	0,176	0,027
-167,096	207,936	0,047	-0,054
-166,081	290,347	-0,053	0,070
-165,066	-200,000	0,028	-0,115
-164,052	800,000	0,054	0,145
-163,037	-200,000	0,000	0,151
-162,023	19,745	0,140	0,082
-161,008	-200,000	0,007	0,129
-159,993	132,601	0,072	-0,067
-158,979	106,663	-0,062	0,054
-157,964	-174,290	0,121	0,002
-156,950	-49,645	0,114	0,039
-155,935	23,721	0,116	0,069
-154,920	-140,032	0,055	-0,004
-153,906	-200,000	0,000	0,086
-152,891	-200,000	0,024	0,087
-151,877	105,953	0,096	0,082
-150,862	-88,060	-0,112	-0,024
-149,847	176,087	0,039	-0,041
-148,833	-200,000	-0,025	-0,163
-147,818	-83,761	-0,042	-0,010
-146,804	-68,655	0,093	-0,026
-145,789	182,113	-0,051	0,055
-144,775	-200,000	0,008	0,121
-143,760	168,993	-0,066	-0,068
-142,745	800,000	0,009	-0,019
-141,731	-200,000	-0,004	0,037
-140,716	-23,444	0,115	-0,050
-139,702	35,439	0,024	0,015
-138,687	-43,320	-0,057	-0,021
-137,672	435,215	-0,040	-0,063
-136,658	746,216	-0,064	-0,126
-135,643	800,000	-0,026	-0,064
-134,629	467,389	-0,063	-0,103
-133,614	162,445	-0,070	-0,072
-132,599	81,080	-0,065	0,051
-131,585	523,896	-0,059	0,101
-130,570	-40,182	-0,106	0,040
-129,556	14,020	0,084	0,047
-128,541	800,000	-0,054	-0,141
-127,526	146,482	0,062	0,061
-126,512	11,231	-0,110	0,061
-125,497	-200,000	0,015	0,065
-124,483	3,313	0,026	0,014
-123,468	-111,517	0,094	-0,014
-122,453	-200,000	-0,036	-0,128
-121,439	800,000	0,014	-0,033
-120,424	-200,000	-0,013	-0,151
-119,410	287,060	0,039	-0,051
-118,395	-200,000	0,014	0,056
-117,380	276,786	0,137	0,177
-116,366	-200,000	0,002	0,108
-115,351	-200,000	-0,017	-0,141
-114,337	627,758	-0,074	-0,136
-113,322	277,221	0,072	-0,093
-112,307	800,000	-0,057	0,126
-111,293	-38,909	0,098	0,037
-110,278	17,600	0,046	0,027
-109,264	555,932	0,056	-0,098
-108,249	-200,000	0,001	-0,024
-107,234	-42,785	-0,017	-0,006
-106,220	69,476	0,044	0,033
-105,205	-200,000	0,021	0,083
-104,191	-95,431	-0,064	0,012
-103,176	-45,559	-0,075	0,027
-102,162	-18,138	0,097	0,044
-101,147	-200,000	0,019	-0,083
-100,132	-18,262	-0,029	0,013
-99,118	-32,988	0,122	-0,049
-98,103	800,000	-0,014	-0,028
-97,089	39,526	0,008	0,005
-96,074	800,000	-0,029	0,060
-95,059	-91,833	0,074	0,015
-94,045	-200,000	0,013	0,058
-93,030	427,930	-0,039	-0,062
-92,016	237,005	-0,079	-0,095
-91,001	-200,000	0,024	0,126
-89,986	269,266	0,078	0,099
-88,972	-6,474	0,049	-0,024
-87,957	113,251	0,089	0,078
-86,943	-110,893	-0,048	0,007
-85,928	-200,000	0,002	-0,054
-84,913	-200,000	0,017	-0,119
-83,899	-200,000	0,013	-0,077
-82,884	207,934	0,120	0,136
-81,870	5,059	-0,228	0,121
-80,855	-101,964	-0,131	0,023
-79,840	-200,000	0,024	0,116
-78,826	800,000	0,023	-0,056
-77,811	37,145	0,015	0,010
-76,797	-200,000	0,007	0,068
-75,782	800,000	0,042	-0,101
-74,767	146,084	0,038	-0,037
-73,753	-3,891	-0,120	0,060
-72,738	-200,000	-0,004	0,130
-71,724	-200,000	-0,002	-0,043
-70,709	800,000	-0,009	-0,019
-69,694	800,000	0,064	-0,138
-68,680	-200,000	-0,041	-0,133
-67,665	-165,933	0,051	-0,002
-66,651	-66,560	0,094	0,027
-65,636	294,292	0,058	-0,076
-64,622	221,831	0,037	0,043
-63,607	87,126	-0,089	-0,071
-62,592	84,967	-0,111	-0,088
-61,578	-8,214	-0,057	0,028
-60,563	-148,878	0,154	-0,009
-59,549	-200,000	-0,004	0,090
-58,534	-120,582	-1,326	-0,161
-57,519	560,029	-0,822	-1,444
-56,505	-200,000	-0,912	-4,578
-55,490	-112,362	0,447	-0,064
-54,476	800,000	4,955	11,746
-53,461	-200,000	14,134	253,701
-52,446	-200,000	694,962	2236,213
-51,432	570,673	1624,924	2877,803
-50,417	117,172	1632,493	1453,965
-49,403	72,633	1286,111	971,453
-48,388	37,417	1023,111	656,075
-47,373	23,779	981,564	584,616
-46,359	23,019	970,928	575,769
-45,344	21,967	966,649	569,777
-44,330	21,932	965,291	568,840
-43,315	21,865	963,555	567,574
-42,300	21,837	962,656	566,931
-41,286	21,837	961,662	566,325
-40,271	21,745	960,940	565,578
-39,257	21,794	959,631	564,943
-38,242	21,809	958,774	564,464
-37,227	21,739	957,928	563,718
-36,213	21,792	956,948	563,291
-35,198	21,757	956,282	562,762
-34,184	21,829	955,565	562,551
-33,169	21,774	954,851	561,932
-32,154	21,829	953,820	561,480
-31,140	21,874	952,850	561,031
-30,125	21,836	952,238	560,525
-29,111	21,791	951,542	559,950
-28,096	21,820	950,538	559,428
-27,082	21,813	949,989	559,062
-26,067	21,793	949,042	558,418
-25,052	21,818	948,363	558,075
-24,038	21,850	947,821	557,837
-23,023	21,780	947,197	557,226
-22,009	21,800	946,496	556,855
-20,994	21,766	945,920	556,385
-19,979	21,877	945,070	556,216
-18,965	21,787	944,674	555,676
-17,950	21,845	944,019	555,451
-16,936	21,791	943,183	554,768
-15,921	21,700	942,736	554,191
-14,906	21,680	942,038	553,697
-13,892	21,700	941,309	553,308
-12,877	21,705	940,764	552,981
-11,863	21,714	940,104	552,602
-10,848	21,654	939,524	552,049
-9,833	21,778	939,097	552,167
-8,819	21,803	938,531	551,891
-7,804	21,715	937,727	551,119
-6,790	21,641	937,308	550,617
-5,775	21,752	936,525	550,486
-4,760	21,697	936,012	549,989
-3,746	21,681	935,231	549,458
-2,731	21,518	934,653	548,581
-1,717	21,473	933,926	547,993
-0,702	21,515	933,222	547,689
0,313	21,294	932,717	547,525
1,327	24,275	930,774	555,696
2,342	33,723	794,395	499,383
3,356	31,590	450,312	279,850
4,371	0,895	293,409	151,763
5,386	-3,450	274,309	137,767
6,400	-4,659	268,674	133,806
7,415	-5,110	266,411	132,253
8,429	-4,873	265,091	131,803
9,444	-4,850	264,144	131,340
10,459	-4,765	263,558	131,115
11,473	-4,961	262,982	130,638
12,488	-4,953	262,524	130,407
13,502	-4,883	261,818	130,108
14,517	-4,909	261,549	129,939
15,531	-4,852	261,012	129,712
16,546	-5,010	260,784	129,445
17,561	-4,980	260,357	129,249
18,575	-4,884	260,012	129,152
19,590	-4,950	259,831	128,991
20,604	-5,019	259,455	128,732
21,619	-5,164	259,077	128,403
22,634	-5,145	258,915	128,328
23,648	-4,956	258,457	128,258
24,663	-4,983	258,117	128,054
25,677	-5,097	258,018	127,892
26,692	-5,061	257,849	127,829
27,707	-5,190	257,521	127,540
28,721	-5,078	257,277	127,507
29,736	-5,144	256,847	127,225
30,750	-5,280	256,685	127,013
31,765	-5,269	256,521	126,930
32,780	-5,199	256,190	126,817
33,794	-5,099	255,940	126,770
34,809	-5,021	255,766	126,741
35,823	-5,139	255,529	126,509
36,838	-5,233	255,323	126,313
37,853	-5,117	255,120	126,303
38,867	-5,222	254,899	126,090
39,882	-5,046	254,754	126,162
40,896	-5,081	254,292	125,890
41,911	-5,238	254,180	125,686
42,926	-5,248	253,999	125,577
43,940	-5,233	253,621	125,392
44,955	-5,179	253,398	125,318
45,969	-5,372	253,254	125,067
46,984	-5,511	253,129	124,874
47,999	-5,522	252,721	124,651
49,013	-5,613	252,399	124,402
50,028	-5,694	252,147	124,197
51,042	-5,977	251,979	123,859
52,057	-5,846	251,807	123,876
53,071	-5,684	251,607	123,907
54,086	-5,734	251,453	123,776
55,101	-5,572	251,245	123,803
56,115	-5,537	251,179	123,789
57,130	-5,195	251,061	124,015
58,144	-5,091	250,928	124,028
59,159	-4,925	250,532	123,965
60,174	-4,806	250,303	123,942
61,188	-4,808	250,042	123,800
62,203	-4,979	249,977	123,610
63,217	-5,155	249,678	123,300
64,232	-5,055	249,515	123,294
65,247	-5,135	249,354	123,136
66,261	-5,077	249,161	123,079
67,276	-5,251	248,732	122,707
68,290	-5,575	248,593	122,351
69,305	-5,589	248,444	122,255
70,320	-5,390	248,178	122,283
71,334	-5,115	248,039	122,438
72,349	-4,910	247,936	122,550
73,363	-4,833	247,751	122,513
74,378	-4,962	247,458	122,247
75,393	-4,969	247,290	122,148
76,407	-5,100	247,048	121,907
77,422	-4,927	246,946	121,992
78,436	-4,951	246,678	121,829
79,451	-5,080	246,463	121,602
80,466	-5,199	246,211	121,367
81,480	-5,386	245,937	121,063
82,495	-5,330	245,882	121,073
83,509	-5,319	245,693	120,978
84,524	-5,248	245,510	120,937
85,539	-5,556	245,386	120,606
86,553	-5,289	245,040	120,650
87,568	-5,477	244,806	120,366
88,582	-5,284	244,866	120,546
89,597	-5,255	244,449	120,355
90,611	-5,282	244,420	120,307
91,626	-5,047	244,191	120,380
92,641	-4,946	244,029	120,374
93,655	-5,228	243,842	120,036
94,670	-5,341	243,672	119,847
95,684	-5,261	243,648	119,891
96,699	-5,253	243,339	119,735
97,714	-5,090	243,014	119,700
98,728	-5,387	242,906	119,389
99,743	-5,675	242,747	119,061
100,757	-5,337	242,389	119,156
101,772	-5,271	242,305	119,158
102,787	-5,291	242,230	119,094
103,801	-5,242	241,986	119,004
104,816	-5,312	241,964	118,925
105,830	-4,920	241,647	119,082
106,845	-4,962	241,469	118,949
107,860	-5,185	241,336	118,689
108,874	-5,192	241,077	118,545
109,889	-5,151	240,979	118,521
110,903	-5,093	240,741	118,441
111,918	-5,198	240,597	118,273
112,933	-5,248	240,622	118,234
113,947	-5,040	240,107	118,141
114,962	-5,102	240,105	118,078
115,976	-5,067	239,946	118,018
116,991	-5,140	239,751	117,851
118,006	-5,291	239,503	117,595
119,020	-5,049	239,431	117,748
120,035	-4,959	239,268	117,731
121,049	-5,135	239,182	117,534
122,064	-4,837	238,878	117,617
123,079	-5,096	238,698	117,307
124,093	-5,125	238,469	117,161
125,108	-5,388	238,202	116,805
126,122	-5,387	238,091	116,741
127,137	-5,455	237,944	116,604
128,151	-5,493	237,607	116,397
129,166	-5,347	237,559	116,481
130,181	-5,475	237,378	116,279
131,195	-5,429	237,146	116,191
132,210	-5,309	237,171	116,291
133,224	-5,270	236,955	116,206
134,239	-5,190	236,879	116,223
135,254	-4,974	236,646	116,273
136,268	-5,171	236,428	115,997
137,283	-5,414	236,111	115,635
138,297	-5,456	235,901	115,488
139,312	-5,400	235,823	115,485
140,327	-5,024	235,671	115,701
141,341	-4,865	235,732	115,849
142,356	-4,992	235,505	115,625
143,370	-4,740	235,393	115,762
144,385	-4,790	235,115	115,575
145,400	-4,752	234,915	115,497
146,414	-4,792	234,832	115,414
147,429	-5,036	234,613	115,101
148,443	-4,893	234,620	115,209
149,458	-4,824	234,337	115,114
150,473	-4,849	234,105	114,971
151,487	-4,755	234,008	114,987
152,502	-4,791	233,819	114,856
153,516	-4,736	233,600	114,781
154,531	-4,828	233,438	114,618
155,546	-4,715	233,323	114,641
156,560	-4,876	233,189	114,437
157,575	-5,156	233,046	114,135
158,589	-4,996	232,789	114,126
159,604	-4,899	232,750	114,173
160,619	-4,780	232,524	114,146
161,633	-4,770	232,320	114,044
162,648	-4,930	232,203	113,849
163,662	-4,701	231,970	113,906
164,677	-4,854	231,883	113,733
165,692	-4,650	231,887	113,885
166,706	-4,666	231,709	113,776
167,721	-4,619	231,404	113,652
168,735	-4,673	231,239	113,519
169,750	-4,824	231,225	113,383
170,764	-5,037	231,068	113,129
171,779	-4,729	230,821	113,239
172,794	-4,731	230,693	113,164
173,808	-4,881	230,477	112,931
174,823	-5,244	230,250	112,526
175,837	-5,216	230,061	112,445
176,852	-5,241	229,962	112,367
177,867	-4,942	230,000	112,610
178,881	-4,825	229,722	112,554
179,896	-4,665	229,520	112,570
180,910	-4,778	229,490	112,458
181,925	-4,893	229,299	112,264
182,940	-4,715	229,337	112,412
183,954	-4,652	229,062	112,316
184,969	-4,576	228,978	112,323
185,983	-4,587	228,795	112,216
186,998	-4,639	228,578	112,059
188,013	-4,731	228,406	111,893
189,027	-4,608	228,251	111,902
190,042	-4,573	228,097	111,844
191,056	-4,560	227,940	111,766
192,071	-4,633	227,746	111,605
193,086	-4,557	227,780	111,671
194,100	-4,697	227,548	111,439
195,115	-4,902	227,194	111,098
196,129	-5,424	227,098	110,638
197,144	-2,192	227,725	113,429
198,159	1,634	228,916	116,975
199,173	3,661	229,466	118,816
200,188	3,850	229,428	118,932
201,202	4,161	229,124	119,003
202,217	4,106	229,231	119,006
203,232	4,498	229,093	119,226
204,246	4,608	228,985	119,245
205,261	4,541	228,713	119,040
206,275	4,858	228,701	119,268
207,290	4,559	228,549	118,948
208,304	4,710	228,338	118,943
209,319	4,491	228,208	118,697
210,334	4,532	228,081	118,652
211,348	4,360	227,621	118,270
212,363	4,048	227,463	117,938
213,377	3,699	227,260	117,555
214,392	3,616	227,189	117,445
215,407	3,834	227,027	117,517
216,421	3,924	226,923	117,521
217,436	3,908	226,662	117,364
218,450	3,760	226,305	117,056
219,465	3,511	226,342	116,874
220,480	3,731	226,166	116,940
221,494	3,538	226,111	116,755
222,509	3,660	225,916	116,737
223,523	3,666	225,893	116,719
224,538	3,653	225,638	116,567
225,553	3,607	225,604	116,504
226,567	4,083	225,440	116,770
227,582	4,142	225,499	116,835
228,596	4,467	225,021	116,823
229,611	3,906	225,135	116,446
230,626	3,750	224,749	116,119
231,640	3,736	224,486	115,962
232,655	4,111	224,504	116,244
233,669	4,465	224,483	116,490
234,684	4,369	224,538	116,436
235,699	4,465	224,150	116,297
236,713	4,049	223,914	115,850
237,728	3,935	223,829	115,710
238,742	3,770	223,631	115,474
239,757	3,605	223,475	115,259
240,772	3,841	223,391	115,382
241,786	3,678	223,146	115,124
242,801	3,885	223,280	115,338
243,815	4,095	223,105	115,394
244,830	4,114	222,929	115,307
245,844	3,879	222,593	114,947
246,859	3,830	222,547	114,877
247,874	4,109	222,407	115,003
248,888	4,138	222,287	114,952
249,903	3,953	222,205	114,761
250,917	3,842	221,940	114,532
251,932	3,733	221,781	114,358
252,947	3,849	221,438	114,258
253,961	3,482	221,451	113,981
254,976	3,667	221,253	114,006
255,990	3,687	221,296	114,033
257,005	4,048	221,109	114,195
258,020	4,043	220,887	114,066
259,034	4,289	220,824	114,205
260,049	4,181	220,679	114,040
261,063	4,112	220,451	113,862
262,078	4,245	220,428	113,938
263,093	4,109	220,350	113,786
264,107	4,162	220,150	113,713
265,122	4,057	220,019	113,558
266,136	4,191	219,942	113,606
267,151	4,376	219,859	113,689
268,166	3,845	219,488	113,097
269,180	3,647	219,247	112,817
270,195	3,460	219,210	112,650
271,209	3,731	219,027	112,745
272,224	3,902	218,935	112,813
273,239	3,802	218,879	112,701
274,253	3,686	218,663	112,495
275,268	3,725	218,359	112,357
276,282	3,547	218,244	112,158
277,297	3,559	218,254	112,162
278,312	3,564	218,135	112,094
279,326	3,701	217,865	112,046
280,341	3,846	217,787	112,101
281,355	3,883	217,775	112,111
282,370	3,881	217,480	111,948
283,384	3,585	217,330	111,646
284,399	3,626	217,090	111,542
285,414	3,518	216,955	111,384
286,428	3,747	216,940	111,533
287,443	3,694	216,855	111,441
288,457	3,790	216,700	111,421
289,472	3,899	216,430	111,351
290,487	3,487	216,260	110,956
291,501	3,376	216,144	110,806
292,516	3,419	216,004	110,756
293,530	3,627	215,816	110,799
294,545	3,565	215,682	110,676
295,560	3,522	215,663	110,626
296,574	3,864	215,541	110,799
297,589	3,827	215,467	110,725
298,603	3,868	215,251	110,634
299,618	3,701	215,093	110,422
300,633	3,769	214,977	110,402
301,647	4,006	214,876	110,511
302,662	3,909	214,980	110,485
303,676	4,151	214,599	110,452
304,691	4,092	214,588	110,394
305,706	4,188	214,451	110,383
306,720	4,036	214,215	110,143
307,735	4,026	213,998	110,014
308,749	3,498	213,931	109,592
309,764	3,801	213,826	109,746
310,779	4,036	213,742	109,860
311,793	3,885	213,607	109,673
312,808	3,863	213,315	109,498
313,822	3,879	213,270	109,476
314,837	3,686	213,084	109,234
315,852	3,725	212,921	109,168
316,866	3,635	212,770	109,017
317,881	3,984	212,828	109,285
318,895	3,878	212,700	109,135
319,910	3,615	212,535	108,854
320,925	3,778	212,117	108,745
321,939	3,330	212,020	108,369
322,954	3,375	212,037	108,400
323,968	3,904	211,858	108,672
324,983	3,949	211,880	108,706
325,997	4,116	211,592	108,666
327,012	3,786	211,548	108,401
328,027	4,167	211,338	108,553
329,041	4,100	211,423	108,539
330,056	4,399	211,249	108,651
331,070	3,739	210,960	108,028
332,085	3,702	210,754	107,887
333,100	3,660	210,568	107,753
334,114	3,768	210,498	107,783
335,129	3,595	210,369	107,586
336,143	3,591	210,089	107,431
337,158	3,580	210,103	107,420
338,173	3,770	209,910	107,445
339,187	3,630	209,596	107,177
340,202	3,565	209,598	107,123
341,216	3,425	209,530	106,981
342,231	3,563	209,254	106,927
343,246	3,541	209,304	106,928
344,260	3,494	209,303	106,884
345,275	3,654	208,987	106,825
346,289	3,849	208,982	106,949
347,304	3,833	208,811	106,841
348,319	3,795	208,755	106,776
349,333	3,870	208,471	106,673
350,348	4,158	208,153	106,701
351,362	3,875	208,433	106,639
352,377	3,936	208,283	106,594
353,392	3,725	208,054	106,322
354,406	4,056	207,781	106,401
355,421	193,834	1346,007	1432,775
356,435	154,635	1484,770	1432,883
