DTS Sentinel unit serial number:	SN410029Multiplexer serial number:	ORYXHardware model number:	OX2-SRSoftware version number:	ORYX F/W v4,00 Oryx Data Collector v3.7.2.0data status	okinstallation	B6 Nyhavnadifferential loss correction	single-endedforward channel	channel 2reverse channel	N/Adate	2023/12/10time	16:35:08forward acquisition time	300,00reverse acquisition time	0,00gamma	499,1914k internal	0,3122k external	0,3122temperature offset calibration	1,0000default loss term (dB/km)	0,3820temperature slope calibration	1,0000multiplexer offset coefficient	1,0000multiplexer slope coefficient	1,0000fibre end	0,00T internal ref (°C)	22,38T ext. ref 1 (°C)	6,13T ext. ref 2 (°C)	6,15length (m)	temperature (°C)	Stokes	anti-Stokes-744,400	153,777	0,171	-0,175
-743,385	-64,030	-0,150	0,045
-742,371	-200,000	-0,027	-0,126
-741,356	-32,014	-0,266	0,110
-740,342	-4,907	0,066	0,034
-739,327	64,985	-0,246	0,185
-738,312	180,879	-0,050	0,054
-737,298	-63,638	-0,193	0,059
-736,283	-109,176	0,126	0,020
-735,269	18,489	-0,238	0,141
-734,254	800,000	-0,019	-0,044
-733,239	-105,122	-0,454	-0,077
-732,225	78,873	0,034	0,027
-731,210	800,000	-0,017	-0,042
-730,196	-172,498	-0,063	0,001
-729,181	-39,900	-0,040	-0,016
-728,167	293,995	-0,102	-0,139
-727,152	-14,674	0,019	0,009
-726,137	12,626	0,085	-0,049
-725,123	-56,385	-0,166	-0,055
-724,108	-9,689	-0,123	0,061
-723,094	-32,814	-0,275	-0,113
-722,079	-22,988	-0,007	-0,003
-721,064	-88,661	0,006	0,001
-720,050	-97,638	0,091	-0,017
-719,035	212,196	-0,095	0,112
-718,021	-200,000	-0,021	0,085
-717,006	-40,400	-0,067	-0,026
-715,991	-98,064	-0,091	-0,017
-714,977	-200,000	-0,006	-0,075
-713,962	-200,000	-0,036	-0,122
-712,948	-95,434	0,053	-0,011
-711,933	695,699	0,072	-0,141
-710,918	-200,000	0,005	0,034
-709,904	300,740	-0,069	-0,095
-708,889	800,000	-0,021	-0,058
-707,875	-156,767	-0,068	0,003
-706,860	-36,845	-0,047	-0,019
-705,845	-1,941	0,063	0,033
-704,831	-200,000	-0,010	0,061
-703,816	-127,104	0,070	0,008
-702,802	800,000	0,006	0,016
-701,787	207,626	-0,072	-0,084
-700,772	132,387	-0,156	0,149
-699,758	-145,984	-0,031	-0,002
-698,743	87,531	0,018	-0,015
-697,729	512,429	-0,028	-0,050
-696,714	-200,000	0,021	-0,075
-695,699	-143,070	0,034	0,002
-694,685	124,491	-0,124	-0,116
-693,670	-83,056	-0,151	-0,036
-692,656	800,000	-0,026	-0,060
-691,641	734,791	-0,041	0,082
-690,627	-120,196	-0,045	0,006
-689,612	-69,484	0,032	-0,009
-688,597	119,369	0,033	-0,030
-687,583	800,000	-0,030	-0,084
-686,568	-200,000	0,002	-0,041
-685,554	-40,655	-0,145	0,055
-684,539	156,669	0,129	0,133
-683,524	800,000	0,032	-0,075
-682,510	-61,874	-0,026	0,008
-681,495	-200,000	-0,013	-0,172
-680,481	-4,068	-0,035	0,018
-679,466	800,000	-0,045	-0,121
-678,451	480,517	0,079	-0,133
-677,437	-141,237	-0,177	0,013
-676,422	-36,446	0,141	0,056
-675,408	-83,197	0,072	0,017
-674,393	-142,815	-0,026	0,002
-673,378	-200,000	-0,004	0,065
-672,364	2,664	-0,021	0,012
-671,349	-200,000	-0,020	-0,083
-670,335	332,291	0,024	0,034
-669,320	139,097	0,064	0,063
-668,305	-134,184	-0,069	-0,006
-667,291	-40,949	0,043	-0,016
-666,276	489,978	0,035	0,059
-665,262	-166,932	0,031	0,001
-664,247	165,466	0,027	0,028
-663,232	338,165	0,083	-0,120
-662,218	-12,764	-0,031	0,015
-661,203	165,942	-0,078	-0,082
-660,189	105,711	0,075	-0,066
-659,174	47,338	-0,048	-0,033
-658,159	-19,833	-0,108	0,049
-657,145	-110,743	-0,037	0,006
-656,130	-34,452	0,075	0,030
-655,116	182,521	0,044	0,049
-654,101	-68,357	-0,023	0,006
-653,086	800,000	0,046	-0,103
-652,072	0,819	-0,088	-0,046
-651,057	-74,308	-0,093	-0,025
-650,043	-200,000	-0,033	-0,196
-649,028	-200,000	-0,018	0,067
-648,014	151,306	0,062	0,063
-646,999	-124,198	-0,188	0,022
-645,984	-200,000	0,007	-0,088
-644,970	66,438	0,039	-0,030
-643,955	327,563	-0,111	-0,158
-642,941	71,574	-0,018	-0,014
-641,926	363,005	-0,063	-0,094
-640,911	-76,036	0,039	-0,010
-639,897	-37,239	0,061	0,024
-638,882	167,464	-0,027	-0,029
-637,868	340,973	-0,066	-0,095
-636,853	800,000	-0,065	-0,137
-635,838	-200,000	-0,047	-0,172
-634,824	800,000	-0,021	-0,048
-633,809	-103,549	-0,106	-0,018
-632,795	212,801	0,034	0,040
-631,780	11,933	0,153	0,087
-630,765	-200,000	-0,028	0,101
-629,751	-200,000	0,004	0,169
-628,736	741,810	0,057	-0,114
-627,722	726,374	0,039	-0,078
-626,707	437,830	-0,040	-0,065
-625,692	32,395	0,077	-0,049
-624,678	-200,000	-0,016	-0,181
-623,663	800,000	0,028	-0,077
-622,649	163,655	0,079	-0,082
-621,634	-120,370	-0,183	-0,023
-620,619	32,697	0,110	0,070
-619,605	-197,386	0,051	-0,000
-618,590	-119,363	0,021	-0,003
-617,576	254,610	0,034	-0,043
-616,561	800,000	-0,057	-0,128
-615,546	12,018	-0,092	-0,052
-614,532	86,643	-0,102	-0,083
-613,517	79,767	-0,117	-0,093
-612,503	800,000	0,047	0,110
-611,488	-200,000	0,007	0,101
-610,474	-116,141	-0,046	0,006
-609,459	-200,000	-0,070	0,000
-608,444	-200,000	0,010	-0,046
-607,430	94,454	0,060	-0,050
-606,415	-200,000	0,000	-0,017
-605,401	230,778	0,097	0,118
-604,386	165,730	0,050	0,052
-603,371	-200,000	-0,033	0,122
-602,357	-200,000	-0,053	0,198
-601,342	-200,000	0,001	0,123
-600,328	-58,476	-0,075	0,024
-599,313	800,000	-0,051	-0,161
-598,298	693,686	-0,040	-0,078
-597,284	-200,000	-0,031	-0,126
-596,269	98,437	-0,032	0,028
-595,255	-82,995	-0,084	0,020
-594,240	509,310	-0,053	-0,092
-593,225	800,000	-0,018	-0,059
-592,211	800,000	-0,036	-0,091
-591,196	-200,000	0,004	-0,155
-590,182	-4,102	-0,086	0,044
-589,167	31,811	0,126	-0,080
-588,152	800,000	0,030	0,069
-587,138	-156,205	-0,036	-0,002
-586,123	800,000	0,031	-0,089
-585,109	270,580	-0,063	-0,083
-584,094	-12,686	0,117	0,056
-583,079	296,495	0,021	0,028
-582,065	800,000	0,021	0,068
-581,050	94,721	0,069	0,058
-580,036	97,060	0,039	0,034
-579,021	98,767	-0,087	0,074
-578,006	17,024	0,049	-0,029
-576,992	-200,000	-0,011	-0,054
-575,977	800,000	-0,029	-0,076
-574,963	86,545	0,054	0,044
-573,948	-82,483	-0,151	0,036
-572,934	336,149	-0,104	0,150
-571,919	22,821	0,043	0,026
-570,904	-124,915	-0,053	-0,006
-569,890	-43,307	-0,038	-0,014
-568,875	-200,000	-0,002	-0,062
-567,861	-23,595	0,083	0,037
-566,846	-200,000	-0,007	0,076
-565,831	-200,000	-0,026	0,000
-564,817	800,000	-0,026	-0,061
-563,802	487,207	0,051	-0,087
-562,788	-17,522	0,197	-0,091
-561,773	-190,012	-0,100	-0,001
-560,758	800,000	0,033	0,106
-559,744	-92,970	0,131	-0,027
-558,729	246,387	-0,133	0,166
-557,715	45,779	-0,035	0,024
-556,700	69,258	-0,032	-0,025
-555,685	23,279	-0,059	-0,036
-554,671	-77,432	0,126	-0,032
-553,656	-14,532	0,043	0,020
-552,642	-12,698	-0,063	-0,030
-551,627	-170,708	-0,072	0,002
-550,612	71,346	0,049	0,038
-549,598	-186,199	0,025	-0,000
-548,583	68,941	0,085	0,064
-547,569	225,111	-0,076	0,092
-546,554	-56,100	-0,079	-0,026
-545,539	-116,959	0,088	-0,012
-544,525	800,000	-0,018	-0,057
-543,510	800,000	-0,016	0,048
-542,496	-200,000	-0,018	0,106
-541,481	-124,082	0,130	0,015
-540,466	391,303	-0,071	0,110
-539,452	-200,000	-0,018	0,177
-538,437	161,802	-0,060	-0,062
-537,423	-129,693	0,115	-0,012
-536,408	138,412	-0,096	-0,093
-535,393	685,084	-0,063	-0,122
-534,379	-87,460	-0,110	-0,025
-533,364	-200,000	0,003	0,041
-532,350	800,000	0,031	-0,065
-531,335	24,853	-0,083	-0,051
-530,321	800,000	-0,013	-0,027
-529,306	152,537	-0,053	0,054
-528,291	35,062	-0,172	-0,111
-527,277	-102,635	-0,101	-0,018
-526,262	-10,531	0,115	-0,056
-525,248	-200,000	0,013	-0,075
-524,233	-200,000	-0,036	-0,131
-523,218	-114,720	0,146	-0,020
-522,204	-36,383	-0,108	-0,043
-521,189	527,179	-0,009	0,016
-520,175	72,702	-0,074	-0,057
-519,160	377,426	0,039	-0,060
-518,145	-200,000	0,002	0,024
-517,131	-200,000	0,002	0,090
-516,116	-200,000	-0,009	-0,034
-515,102	88,215	-0,094	-0,077
-514,087	-170,073	-0,054	0,001
-513,072	-200,000	-0,025	-0,144
-512,058	161,167	0,055	-0,056
-511,043	-84,762	0,145	-0,034
-510,029	800,000	0,057	0,125
-509,014	-33,617	0,058	-0,024
-507,999	800,000	0,066	0,165
-506,985	-200,000	0,003	0,116
-505,970	-95,891	0,048	0,009
-504,956	52,977	-0,103	-0,073
-503,941	800,000	-0,051	-0,145
-502,926	-155,990	0,078	-0,004
-501,912	275,238	0,054	0,071
-500,897	83,160	-0,112	0,090
-499,883	-200,000	-0,032	0,114
-498,868	-200,000	-0,014	-0,066
-497,853	-157,059	0,051	0,002
-496,839	233,014	0,035	-0,043
-495,824	-87,148	0,099	-0,022
-494,810	-200,000	0,028	0,150
-493,795	-170,524	0,072	0,002
-492,781	-181,757	0,027	-0,000
-491,766	426,476	-0,079	-0,127
-490,751	524,970	-0,030	-0,053
-489,737	111,810	0,083	-0,074
-488,722	143,253	0,045	0,044
-487,708	-170,155	-0,088	0,002
-486,693	204,667	0,054	0,062
-485,678	-200,000	0,008	-0,110
-484,664	26,057	-0,066	-0,040
-483,649	313,643	-0,010	-0,014
-482,635	-38,901	0,043	-0,017
-481,620	-192,478	0,163	-0,001
-480,605	502,721	-0,026	-0,044
-479,591	402,036	-0,029	0,045
-478,576	278,554	-0,071	0,094
-477,562	367,547	0,057	0,085
-476,547	-200,000	-0,018	-0,095
-475,532	800,000	-0,027	-0,082
-474,518	312,970	0,037	-0,052
-473,503	270,979	0,034	0,044
-472,489	800,000	0,033	0,100
-471,474	-113,936	0,037	0,005
-470,459	-117,703	-0,056	-0,007
-469,445	135,260	0,090	-0,087
-468,430	-22,466	-0,181	-0,080
-467,416	-200,000	-0,015	-0,093
-466,401	-200,000	0,006	-0,046
-465,386	44,478	0,041	-0,028
-464,372	-121,875	-0,107	-0,013
-463,357	-92,657	0,160	0,033
-462,343	-200,000	0,003	-0,115
-461,328	800,000	-0,040	0,106
-460,313	-200,000	-0,017	-0,086
-459,299	-200,000	0,008	0,045
-458,284	-55,140	0,094	-0,031
-457,270	62,110	-0,085	0,063
-456,255	528,261	0,022	0,039
-455,241	343,834	0,029	-0,042
-454,226	-62,186	-0,076	-0,023
-453,211	-122,468	0,196	-0,023
-452,197	9,583	0,026	-0,014
-451,182	-126,842	0,102	-0,011
-450,168	-200,000	-0,010	0,076
-449,153	800,000	0,024	-0,069
-448,138	-5,964	-0,057	-0,028
-447,124	-34,766	-0,040	0,016
-446,109	-1,305	-0,039	-0,020
-445,095	-31,449	0,013	0,005
-444,080	-200,000	0,022	0,083
-443,065	73,680	0,063	0,049
-442,051	526,533	0,016	0,028
-441,036	800,000	0,025	-0,051
-440,022	-200,000	-0,016	-0,105
-439,007	-84,939	0,089	0,021
-437,992	-135,840	0,030	0,003
-436,978	-19,781	0,026	0,012
-435,963	800,000	0,109	0,246
-434,949	-175,374	-0,153	0,003
-433,934	-200,000	-0,012	-0,060
-432,919	-101,770	0,114	0,020
-431,905	-107,709	-0,047	-0,007
-430,890	-129,776	0,047	-0,005
-429,876	577,977	-0,064	0,116
-428,861	522,233	0,070	0,121
-427,846	145,826	0,055	-0,054
-426,832	-144,194	0,024	-0,002
-425,817	-200,000	0,009	-0,127
-424,803	235,414	-0,009	-0,012
-423,788	-200,000	0,001	0,086
-422,773	-200,000	-0,032	0,138
-421,759	38,413	0,125	-0,082
-420,744	-100,299	-0,007	-0,001
-419,730	-200,000	0,012	-0,080
-418,715	-167,306	-0,066	0,002
-417,701	23,411	-0,086	-0,052
-416,686	-200,000	-0,013	0,084
-415,671	800,000	0,061	0,137
-414,657	-67,425	-0,059	0,017
-413,642	652,914	0,039	-0,074
-412,628	-151,858	-0,033	-0,002
-411,613	800,000	-0,032	-0,074
-410,598	486,464	0,047	-0,079
-409,584	-200,000	0,005	0,122
-408,569	-22,932	0,049	-0,022
-407,555	217,693	0,053	0,062
-406,540	-16,746	0,070	-0,032
-405,525	46,391	-0,126	0,086
-404,511	-55,779	0,041	0,013
-403,496	-63,079	0,033	-0,010
-402,482	84,943	0,056	-0,045
-401,467	117,821	0,092	-0,084
-400,452	128,705	0,016	0,015
-399,438	-200,000	0,022	0,108
-398,423	64,007	-0,045	-0,033
-397,409	695,455	0,012	0,023
-396,394	-136,506	0,093	-0,008
-395,379	-200,000	-0,029	-0,139
-394,365	-80,956	-0,074	0,018
-393,350	125,699	0,044	-0,041
-392,336	343,747	-0,010	0,014
-391,321	-200,000	-0,006	0,027
-390,306	-33,989	-0,077	0,031
-389,292	431,574	-0,022	0,035
-388,277	800,000	0,022	-0,048
-387,263	-133,142	0,163	-0,015
-386,248	-100,686	-0,045	0,008
-385,233	44,027	-0,080	-0,054
-384,219	38,040	-0,091	-0,060
-383,204	68,067	0,090	0,067
-382,190	673,486	-0,060	-0,115
-381,175	82,762	-0,120	-0,096
-380,160	-81,299	0,108	0,026
-379,146	-50,233	-0,076	0,026
-378,131	440,893	0,058	0,093
-377,117	-16,223	-0,104	0,048
-376,102	-68,855	0,020	0,006
-375,088	37,255	0,040	-0,026
-374,073	-24,212	-0,026	-0,011
-373,058	-63,303	-0,042	0,012
-372,044	-46,403	0,132	-0,048
-371,029	-103,439	-0,074	0,013
-370,015	94,195	-0,075	-0,062
-369,000	312,098	0,019	-0,026
-367,985	-59,940	0,085	0,027
-366,971	-150,587	0,069	-0,004
-365,956	800,000	-0,057	0,147
-364,942	223,815	-0,060	0,071
-363,927	180,787	-0,012	-0,013
-362,912	-120,474	0,146	0,018
-361,898	800,000	-0,081	-0,169
-360,883	411,726	0,044	0,068
-359,869	379,112	-0,078	-0,118
-358,854	504,930	-0,050	0,085
-357,839	-63,154	0,183	0,055
-356,825	-43,912	0,051	0,019
-355,810	335,300	0,029	-0,041
-354,796	-200,000	0,002	-0,096
-353,781	-200,000	0,011	-0,093
-352,766	579,913	0,013	-0,023
-351,752	-74,776	0,081	0,021
-350,737	-150,840	-0,119	0,007
-349,723	472,667	0,031	0,051
-348,708	457,170	0,053	0,087
-347,693	136,741	0,066	0,064
-346,679	-157,909	0,019	-0,001
-345,664	4,356	0,097	-0,052
-344,650	-200,000	0,005	-0,018
-343,635	-200,000	-0,018	0,152
-342,620	42,347	0,150	0,100
-341,606	68,110	0,063	-0,047
-340,591	800,000	-0,027	-0,084
-339,577	76,833	-0,057	-0,044
-338,562	30,477	-0,131	0,082
-337,548	-52,143	0,087	0,029
-336,533	198,099	0,100	0,112
-335,518	587,371	0,063	0,115
-334,504	730,136	0,078	0,153
-333,489	478,001	-0,016	0,026
-332,475	-200,000	0,009	0,061
-331,460	87,825	0,064	0,052
-330,445	317,152	-0,085	-0,119
-329,431	-55,964	-0,110	-0,036
-328,416	-58,873	-0,027	0,009
-327,402	-103,631	-0,023	-0,004
-326,387	-148,151	-0,073	-0,004
-325,372	-146,943	-0,125	0,008
-324,358	7,698	-0,028	0,015
-323,343	-73,039	-0,084	-0,022
-322,329	800,000	-0,039	-0,123
-321,314	-83,728	-0,088	0,021
-320,299	-134,958	0,117	-0,010
-319,285	-146,026	-0,115	0,007
-318,270	106,915	-0,025	0,022
-317,256	47,665	-0,030	0,021
-316,241	800,000	0,069	-0,156
-315,226	-101,231	0,055	0,010
-314,212	732,223	0,021	-0,042
-313,197	-99,962	0,017	-0,003
-312,183	94,102	0,121	0,101
-311,168	-200,000	-0,010	0,042
-310,153	-64,062	-0,055	0,016
-309,139	59,441	-0,120	-0,086
-308,124	249,501	0,043	-0,053
-307,110	800,000	0,023	0,062
-306,095	-87,789	0,009	-0,002
-305,080	-23,531	-0,042	-0,019
-304,066	-200,000	-0,003	0,146
-303,051	-105,590	-0,129	0,021
-302,037	255,346	0,033	0,042
-301,022	-200,000	-0,013	-0,086
-300,008	-200,000	0,007	0,061
-298,993	-200,000	0,032	0,173
-297,978	-5,934	0,064	0,032
-296,964	-158,863	0,047	0,002
-295,949	185,844	-0,102	-0,111
-294,935	290,600	-0,022	-0,030
-293,920	18,934	-0,063	-0,037
-292,905	224,094	0,063	-0,075
-291,891	-172,625	-0,069	-0,002
-290,876	-200,000	-0,031	0,175
-289,862	157,631	0,106	-0,108
-288,847	-200,000	-0,015	-0,100
-287,832	-200,000	-0,009	0,040
-286,818	-178,620	0,085	0,001
-285,803	-113,245	0,074	-0,011
-284,789	511,945	0,037	-0,064
-283,774	-125,374	-0,035	0,004
-282,759	-179,936	-0,036	-0,001
-281,745	800,000	0,091	-0,252
-280,730	-200,000	0,037	-0,231
-279,716	457,527	-0,033	-0,054
-278,701	46,605	0,065	0,044
-277,686	800,000	-0,039	0,099
-276,672	-79,431	0,091	0,022
-275,657	-200,000	0,003	-0,065
-274,643	289,351	0,092	0,123
-273,628	207,168	-0,051	-0,058
-272,613	-53,105	-0,095	0,032
-271,599	313,913	0,024	-0,033
-270,584	538,282	0,078	0,136
-269,570	-200,000	0,007	0,030
-268,555	93,339	0,086	0,071
-267,540	-200,000	-0,020	0,074
-266,526	-30,751	-0,050	-0,020
-265,511	-116,858	0,077	0,010
-264,497	285,030	0,079	-0,105
-263,482	218,857	-0,042	0,049
-262,467	-59,049	-0,063	0,020
-261,453	-200,000	0,055	-0,197
-260,438	-200,000	0,001	-0,063
-259,424	408,109	-0,066	0,102
-258,409	5,954	0,045	0,025
-257,395	114,894	0,069	-0,062
-256,380	-200,000	0,000	0,061
-255,365	311,272	0,078	0,108
-254,351	-16,098	-0,130	-0,060
-253,336	-112,060	-0,124	0,018
-252,322	432,390	0,024	0,038
-251,307	-24,774	-0,048	-0,021
-250,292	-200,000	-0,006	0,022
-249,278	581,417	0,050	0,090
-248,263	-182,655	0,101	-0,001
-247,249	462,913	0,061	0,100
-246,234	147,974	0,018	0,018
-245,219	13,370	-0,160	0,090
-244,205	-200,000	0,004	-0,021
-243,190	-127,516	-0,086	0,009
-242,176	-200,000	0,010	0,191
-241,161	-65,791	0,244	0,071
-240,146	-200,000	-0,033	0,115
-239,132	131,030	0,060	-0,057
-238,117	3,807	0,068	0,036
-237,103	36,582	-0,094	0,061
-236,088	-59,105	0,061	-0,019
-235,073	-200,000	0,018	0,077
-234,059	800,000	0,027	0,075
-233,044	-200,000	0,003	0,086
-232,030	-155,770	0,037	0,002
-231,015	97,201	-0,061	-0,051
-230,000	-12,491	-0,135	-0,064
-228,986	-69,387	0,131	0,036
-227,971	278,992	-0,032	0,042
-226,957	800,000	0,010	-0,033
-225,942	800,000	0,011	0,030
-224,927	-83,403	-0,051	-0,012
-223,913	800,000	-0,016	0,040
-222,898	-200,000	-0,025	0,124
-221,884	-200,000	-0,001	-0,051
-220,869	-106,683	0,041	0,007
-219,855	138,931	0,011	0,011
-218,840	-46,491	0,037	-0,013
-217,825	800,000	0,009	-0,018
-216,811	344,370	-0,080	-0,115
-215,796	-200,000	0,011	-0,041
-214,782	216,218	0,068	-0,079
-213,767	34,355	0,035	-0,022
-212,752	474,080	0,056	-0,092
-211,738	-200,000	0,021	0,070
-210,723	466,183	-0,040	-0,066
-209,709	-96,875	-0,110	-0,021
-208,694	320,905	-0,038	-0,053
-207,679	23,560	-0,076	-0,045
-206,665	216,552	0,014	-0,017
-205,650	257,881	0,068	0,086
-204,636	-95,597	0,106	-0,020
-203,621	-116,710	0,062	-0,008
-202,606	18,866	-0,035	-0,020
-201,592	254,246	-0,097	0,122
-200,577	-123,540	-0,030	-0,003
-199,563	-200,000	-0,001	0,072
-198,548	-69,974	0,008	-0,002
-197,533	-22,964	0,085	0,037
-196,519	-56,094	-0,024	0,008
-195,504	254,823	-0,103	0,129
-194,490	-200,000	0,003	0,064
-193,475	173,889	-0,097	-0,102
-192,460	-196,024	0,099	0,000
-191,446	-58,974	-0,067	-0,021
-190,431	284,631	-0,031	0,041
-189,417	369,466	0,047	-0,069
-188,402	167,370	-0,076	0,079
-187,387	256,064	-0,032	0,040
-186,373	800,000	-0,041	0,112
-185,358	82,790	-0,009	-0,007
-184,344	-99,836	0,121	0,022
-183,329	-200,000	0,002	-0,151
-182,315	-146,728	0,112	0,007
-181,300	3,628	-0,079	-0,042
-180,285	-70,543	-0,095	0,026
-179,271	-200,000	0,012	0,119
-178,256	800,000	-0,035	0,075
-177,242	-114,664	-0,178	0,025
-176,227	113,847	0,049	0,043
-175,212	178,314	0,021	0,022
-174,198	-95,741	-0,077	0,015
-173,183	167,012	-0,072	0,075
-172,169	42,965	-0,101	-0,067
-171,154	-86,940	0,051	-0,011
-170,139	-200,000	-0,002	-0,006
-169,125	214,776	0,069	0,079
-168,110	-200,000	0,003	-0,047
-167,096	554,503	-0,084	0,149
-166,081	450,531	0,008	-0,012
-165,066	-60,695	-0,170	0,052
-164,052	-132,915	0,049	-0,004
-163,037	-38,793	0,087	-0,033
-162,023	588,073	-0,076	0,136
-161,008	-171,345	0,113	0,003
-159,993	-60,645	-0,034	0,010
-158,979	800,000	-0,050	-0,111
-157,964	800,000	-0,048	-0,108
-156,950	-200,000	-0,031	-0,123
-155,935	-146,143	0,104	0,007
-154,920	-17,171	-0,056	-0,025
-153,906	-200,000	0,000	0,029
-152,891	-200,000	0,002	0,099
-151,877	-14,839	-0,109	0,051
-150,862	-105,569	-0,100	-0,016
-149,847	423,726	-0,044	0,069
-148,833	-200,000	-0,002	0,035
-147,818	-36,189	0,047	-0,018
-146,804	155,955	-0,093	-0,094
-145,789	129,232	0,088	0,082
-144,775	-134,388	-0,086	-0,008
-143,760	800,000	0,035	0,082
-142,745	-82,820	0,140	-0,033
-141,731	113,472	-0,047	-0,042
-140,716	-200,000	0,006	0,057
-139,702	-200,000	-0,010	0,038
-138,687	800,000	-0,059	0,156
-137,672	597,805	-0,042	-0,075
-136,658	162,864	-0,034	-0,034
-135,643	153,096	0,102	-0,101
-134,629	89,127	-0,016	-0,013
-133,614	708,186	0,028	0,055
-132,599	-200,000	-0,025	0,096
-131,585	-112,103	0,097	-0,014
-130,570	202,235	-0,050	-0,057
-129,556	-200,000	-0,018	-0,071
-128,541	800,000	-0,045	-0,103
-127,526	-200,000	-0,006	-0,081
-126,512	800,000	0,024	-0,049
-125,497	-81,252	0,031	0,007
-124,483	412,472	0,048	0,074
-123,468	800,000	-0,081	0,173
-122,453	165,378	-0,071	-0,073
-121,439	800,000	-0,038	-0,083
-120,424	128,304	0,081	-0,075
-119,410	-73,209	0,125	0,033
-118,395	-200,000	0,032	0,218
-117,380	84,562	0,029	0,023
-116,366	-200,000	0,013	-0,060
-115,351	-47,939	-0,159	-0,056
-114,337	344,900	-0,058	-0,083
-113,322	304,698	0,046	0,062
-112,307	-0,747	0,212	0,109
-111,293	-200,000	0,021	0,095
-110,278	-141,912	0,016	0,001
-109,264	-33,129	-0,102	0,041
-108,249	-71,355	-0,162	0,044
-107,234	447,723	0,015	0,025
-106,220	-42,729	-0,109	-0,040
-105,205	160,082	-0,068	-0,069
-104,191	39,719	0,031	0,020
-103,176	-200,000	0,016	0,204
-102,162	-93,247	0,034	0,007
-101,147	-21,466	-0,087	-0,038
-100,132	-95,971	-0,184	-0,035
-99,118	-84,164	-0,028	0,006
-98,103	-200,000	0,006	0,131
-97,089	247,927	0,115	0,142
-96,074	30,939	-0,031	-0,019
-95,059	335,645	-0,076	0,108
-94,045	125,402	-0,121	0,111
-93,030	-55,764	0,098	-0,032
-92,016	14,707	0,084	-0,048
-91,001	373,531	0,022	-0,033
-89,986	-42,686	0,117	0,043
-88,972	235,769	0,120	0,144
-87,957	-62,600	-0,125	-0,037
-86,943	1,725	-0,063	0,033
-85,928	25,978	-0,067	0,041
-84,913	-137,118	-0,201	-0,016
-83,899	499,429	-0,053	-0,090
-82,884	-200,000	0,007	0,090
-81,870	-200,000	0,033	0,127
-80,855	-200,000	0,038	0,147
-79,840	-74,955	-0,107	-0,028
-78,826	-103,211	-0,066	-0,011
-77,811	92,223	-0,059	0,049
-76,797	-200,000	0,012	-0,152
-75,782	-200,000	0,005	-0,029
-74,767	155,509	-0,026	0,026
-73,753	-1,394	-0,113	0,058
-72,738	-200,000	0,001	0,029
-71,724	5,008	-0,114	-0,061
-70,709	-95,628	-0,066	0,013
-69,694	330,901	0,054	-0,076
-68,680	-33,810	-0,057	-0,023
-67,665	71,702	-0,129	-0,097
-66,651	-200,000	0,003	0,054
-65,636	674,923	-0,019	-0,036
-64,622	789,657	-0,072	0,144
-63,607	531,377	0,036	-0,062
-62,592	350,279	0,099	-0,142
-61,578	-200,000	0,014	0,062
-60,563	-17,945	0,155	0,070
-59,549	108,093	-0,212	0,183
-58,534	-169,597	-1,256	0,032
-57,519	580,869	-0,818	-1,461
-56,505	-200,000	-0,898	-4,236
-55,490	94,691	0,506	-0,417
-54,476	800,000	4,916	11,939
-53,461	-200,000	13,622	252,970
-52,446	-200,000	689,558	2260,306
-51,432	592,151	1622,300	2919,429
-50,417	119,476	1635,080	1469,140
-49,403	73,353	1289,010	977,832
-48,388	38,104	1024,204	659,966
-47,373	24,401	981,703	587,518
-46,359	23,575	971,503	578,680
-45,344	22,639	967,287	573,089
-44,330	22,578	965,755	571,959
-43,315	22,400	964,447	570,581
-42,300	22,412	963,357	569,952
-41,286	22,347	962,601	569,269
-40,271	22,423	961,551	568,873
-39,257	22,382	960,503	568,098
-38,242	22,353	959,622	567,460
-37,227	22,346	958,894	566,986
-36,213	22,329	957,797	566,259
-35,198	22,390	956,977	565,949
-34,184	22,354	956,314	565,417
-33,169	22,324	955,372	564,741
-32,154	22,424	954,491	564,521
-31,140	22,439	953,584	564,012
-30,125	22,401	952,987	563,512
-29,111	22,413	952,232	563,082
-28,096	22,453	951,365	562,676
-27,082	22,400	950,764	562,128
-26,067	22,399	949,990	561,645
-25,052	22,368	949,289	561,107
-24,038	22,441	948,549	560,883
-23,023	22,411	947,916	560,390
-22,009	22,445	947,347	560,141
-20,994	22,483	946,642	559,821
-19,979	22,494	945,998	559,455
-18,965	22,460	945,339	558,933
-17,950	22,445	944,779	558,532
-16,936	22,403	943,931	557,875
-15,921	22,341	943,570	557,444
-14,906	22,389	942,393	556,878
-13,892	22,381	942,009	556,602
-12,877	22,370	941,329	556,144
-11,863	22,272	940,703	555,442
-10,848	22,239	940,336	555,097
-9,833	22,357	939,866	555,174
-8,819	22,384	939,267	554,883
-7,804	22,323	938,533	554,236
-6,790	22,239	938,088	553,685
-5,775	22,377	937,175	553,560
-4,760	22,315	936,740	553,084
-3,746	22,330	936,061	552,709
-2,731	22,141	935,489	551,752
-1,717	22,103	934,777	551,191
-0,702	22,150	933,982	550,847
0,313	21,986	933,273	550,743
1,327	24,991	931,324	558,995
2,342	34,721	795,966	503,667
3,356	32,724	451,527	282,682
4,371	1,799	293,546	152,943
5,386	-2,595	274,328	138,765
6,400	-4,238	268,523	134,294
7,415	-4,696	266,342	132,770
8,429	-4,438	265,000	132,326
9,444	-4,539	264,145	131,795
10,459	-4,299	263,395	131,627
11,473	-4,527	262,817	131,119
12,488	-4,577	262,373	130,841
13,502	-4,629	261,660	130,427
14,517	-4,663	261,466	130,288
15,531	-4,735	261,097	130,028
16,546	-4,628	260,770	129,949
17,561	-4,548	260,300	129,775
18,575	-4,560	259,910	129,558
19,590	-4,652	259,563	129,292
20,604	-4,732	259,520	129,187
21,619	-4,706	259,056	128,968
22,634	-4,713	258,653	128,749
23,648	-4,671	258,238	128,568
24,663	-4,634	258,217	128,580
25,677	-4,740	257,879	128,306
26,692	-4,715	257,608	128,182
27,707	-4,647	257,453	128,154
28,721	-4,775	257,101	127,853
29,736	-4,686	256,767	127,755
30,750	-4,579	256,501	127,706
31,765	-4,761	256,439	127,503
32,780	-4,775	256,176	127,348
33,794	-4,793	255,939	127,203
34,809	-4,812	255,769	127,091
35,823	-4,737	255,585	127,054
36,838	-4,773	255,259	126,849
37,853	-4,858	254,925	126,597
38,867	-4,906	254,873	126,518
39,882	-4,844	254,563	126,407
40,896	-4,833	254,441	126,345
41,911	-4,744	254,079	126,231
42,926	-4,578	253,609	126,132
43,940	-5,019	253,544	125,703
44,955	-5,043	253,361	125,581
45,969	-5,033	253,244	125,520
46,984	-5,226	252,813	125,127
47,999	-5,297	252,598	124,948
49,013	-5,466	252,232	124,608
50,028	-5,306	251,956	124,600
51,042	-5,635	251,630	124,143
52,057	-5,777	251,643	124,016
53,071	-5,608	251,413	124,037
54,086	-5,530	251,338	124,056
55,101	-5,384	251,060	124,034
56,115	-5,106	250,917	124,192
57,130	-4,873	251,024	124,436
58,144	-4,535	250,780	124,595
59,159	-4,459	250,573	124,546
60,174	-4,290	250,265	124,528
61,188	-4,587	250,273	124,264
62,203	-4,553	250,055	124,175
63,217	-4,718	249,905	123,947
64,232	-4,592	249,462	123,824
65,247	-4,623	249,235	123,675
66,261	-4,728	249,153	123,533
67,276	-4,944	248,882	123,203
68,290	-5,317	248,604	122,736
69,305	-5,154	248,344	122,735
70,320	-5,145	248,132	122,627
71,334	-4,818	247,925	122,793
72,349	-4,486	247,901	123,052
73,363	-4,685	247,809	122,826
74,378	-4,599	247,574	122,772
75,393	-4,741	247,370	122,539
76,407	-4,552	247,024	122,517
77,422	-4,693	246,875	122,313
78,436	-4,818	246,708	122,113
79,451	-4,604	246,485	122,173
80,466	-4,772	246,285	121,922
81,480	-5,035	246,042	121,569
82,495	-5,090	245,976	121,478
83,509	-4,897	245,677	121,483
84,524	-5,090	245,541	121,242
85,539	-5,184	245,285	121,025
86,553	-5,159	245,021	120,905
87,568	-5,078	244,921	120,913
88,582	-5,023	244,865	120,921
89,597	-4,949	244,559	120,822
90,611	-4,773	244,440	120,899
91,626	-4,878	244,131	120,648
92,641	-4,639	244,046	120,795
93,655	-4,826	243,863	120,537
94,670	-4,796	243,611	120,427
95,684	-4,834	243,339	120,250
96,699	-4,846	243,298	120,209
97,714	-4,881	242,995	120,019
98,728	-5,002	242,935	119,879
99,743	-5,166	242,803	119,666
100,757	-5,112	242,396	119,500
101,772	-5,026	242,376	119,551
102,787	-4,969	242,117	119,460
103,801	-4,854	241,951	119,462
104,816	-4,914	241,957	119,404
105,830	-4,797	241,811	119,419
106,845	-4,746	241,591	119,342
107,860	-4,721	241,359	119,238
108,874	-4,768	241,024	119,022
109,889	-4,796	240,931	118,943
110,903	-4,982	240,864	118,746
111,918	-4,963	240,533	118,587
112,933	-4,822	240,430	118,642
113,947	-4,726	240,156	118,576
114,962	-4,661	240,154	118,617
115,976	-4,724	239,879	118,419
116,991	-4,881	239,842	118,261
118,006	-4,820	239,612	118,187
119,020	-4,792	239,414	118,102
120,035	-4,776	239,396	118,096
121,049	-4,693	239,193	118,053
122,064	-4,870	239,034	117,820
123,079	-4,587	238,786	117,917
124,093	-4,846	238,553	117,581
125,108	-5,284	238,374	117,125
126,122	-5,243	238,125	117,026
127,137	-5,367	238,015	116,860
128,151	-5,237	237,798	116,850
129,166	-5,128	237,791	116,924
130,181	-4,963	237,467	116,889
131,195	-5,083	237,287	116,692
132,210	-4,899	237,187	116,781
133,224	-4,932	237,070	116,687
134,239	-4,815	236,820	116,647
135,254	-4,658	236,633	116,672
136,268	-4,834	236,389	116,399
137,283	-4,955	236,080	116,139
138,297	-5,281	236,025	115,839
139,312	-5,098	235,743	115,838
140,327	-4,754	235,742	116,104
141,341	-4,571	235,812	116,275
142,356	-4,376	235,633	116,333
143,370	-4,310	235,368	116,245
144,385	-4,229	235,184	116,209
145,400	-4,210	235,056	116,150
146,414	-4,714	235,050	115,733
147,429	-4,605	234,916	115,744
148,443	-4,349	234,432	115,700
149,458	-4,468	234,355	115,557
150,473	-4,547	234,331	115,471
151,487	-4,765	234,077	115,161
152,502	-4,410	233,859	115,327
153,516	-4,396	233,770	115,284
154,531	-4,449	233,600	115,148
155,546	-4,632	233,445	114,916
156,560	-4,562	233,292	114,886
157,575	-4,896	232,984	114,459
158,589	-4,730	232,797	114,488
159,604	-4,429	232,708	114,673
160,619	-4,447	232,686	114,638
161,633	-4,338	232,474	114,609
162,648	-4,436	232,279	114,425
163,662	-4,508	232,104	114,271
164,677	-4,502	232,077	114,253
165,692	-4,552	231,950	114,141
166,706	-4,296	231,721	114,220
167,721	-4,501	231,647	114,011
168,735	-4,505	231,472	113,913
169,750	-4,535	231,377	113,832
170,764	-4,450	231,127	113,766
171,779	-4,372	231,050	113,779
172,794	-4,451	230,854	113,610
173,808	-4,499	230,632	113,453
174,823	-4,991	230,360	112,924
175,837	-5,224	230,238	112,671
176,852	-4,840	230,034	112,861
177,867	-4,416	230,010	113,172
178,881	-4,439	229,896	113,088
179,896	-4,192	229,667	113,157
180,910	-4,255	229,596	113,064
181,925	-4,284	229,287	112,879
182,940	-4,300	229,120	112,774
183,954	-4,150	229,084	112,863
184,969	-4,227	228,959	112,732
185,983	-4,421	228,913	112,548
186,998	-4,230	228,644	112,554
188,013	-4,201	228,527	112,508
189,027	-4,252	228,291	112,343
190,042	-4,224	228,145	112,283
191,056	-4,096	227,890	112,247
192,071	-4,112	227,915	112,236
193,086	-4,018	227,733	112,210
194,100	-4,207	227,507	111,942
195,115	-4,406	227,219	111,636
196,129	-5,089	226,932	110,959
197,144	-2,254	227,878	113,605
198,159	1,676	229,012	117,208
199,173	4,024	229,535	119,286
200,188	4,654	229,351	119,668
201,202	4,420	229,402	119,503
202,217	4,603	229,251	119,555
203,232	4,723	229,063	119,539
204,246	4,483	229,127	119,376
205,261	4,708	228,978	119,462
206,275	5,031	228,786	119,600
207,290	5,012	228,656	119,507
208,304	4,870	228,469	119,289
209,319	4,940	228,128	119,154
210,334	4,860	228,172	119,105
211,348	4,421	227,920	118,626
212,363	4,279	227,758	118,422
213,377	4,049	227,321	118,007
214,392	3,972	227,292	117,923
215,407	4,139	227,197	117,991
216,421	4,224	226,880	117,881
217,436	4,083	226,701	117,670
218,450	3,857	226,605	117,436
219,465	4,075	226,281	117,424
220,480	3,761	226,374	117,223
221,494	3,868	226,235	117,222
222,509	3,913	225,996	117,122
223,523	3,898	225,990	117,097
224,538	3,837	225,638	116,858
225,553	3,924	225,660	116,925
226,567	4,115	225,419	116,935
227,582	4,510	225,424	117,227
228,596	4,361	225,348	117,064
229,611	4,091	225,068	116,703
230,626	3,960	224,856	116,484
231,640	3,981	224,768	116,444
232,655	3,983	224,749	116,425
233,669	4,510	224,681	116,777
234,684	4,784	224,486	116,873
235,699	4,288	224,506	116,499
236,713	4,027	224,137	116,099
237,728	4,179	223,856	116,058
238,742	4,099	223,695	115,904
239,757	4,062	223,566	115,799
240,772	4,214	223,366	115,799
241,786	3,986	223,317	115,592
242,801	4,148	223,225	115,656
243,815	4,326	223,143	115,737
244,830	4,389	222,935	115,666
245,844	4,404	222,721	115,556
246,859	4,167	222,544	115,276
247,874	4,404	222,510	115,426
248,888	4,366	222,368	115,313
249,903	4,208	222,140	115,067
250,917	4,237	222,001	115,006
251,932	3,785	221,986	114,651
252,947	3,953	221,665	114,600
253,961	3,976	221,445	114,493
254,976	3,879	221,492	114,435
255,990	4,410	221,319	114,730
257,005	4,319	221,351	114,669
258,020	4,337	221,162	114,574
259,034	4,613	220,907	114,637
260,049	4,283	220,956	114,407
261,063	4,114	220,732	114,156
262,078	4,579	220,592	114,417
263,093	4,463	220,498	114,272
264,107	4,504	220,206	114,141
265,122	4,251	220,193	113,937
266,136	4,621	219,889	114,043
267,151	4,577	219,762	113,935
268,166	4,113	219,654	113,526
269,180	4,010	219,407	113,313
270,195	4,137	219,196	113,288
271,209	4,036	219,143	113,176
272,224	4,189	219,016	113,212
273,239	4,053	218,844	113,013
274,253	3,935	218,739	112,862
275,268	3,880	218,646	112,764
276,282	3,929	218,373	112,649
277,297	3,544	218,239	112,288
278,312	3,912	218,133	112,492
279,326	4,087	217,935	112,508
280,341	3,979	217,847	112,374
281,355	4,032	217,937	112,449
282,370	3,978	217,748	112,302
283,384	3,970	217,436	112,126
284,399	3,888	217,299	111,985
285,414	3,869	217,093	111,855
286,428	4,026	217,082	111,953
287,443	4,331	216,901	112,072
288,457	4,176	216,748	111,870
289,472	4,232	216,560	111,804
290,487	3,731	216,291	111,292
291,501	3,747	216,251	111,273
292,516	3,914	216,088	111,301
293,530	3,808	216,082	111,210
294,545	4,012	215,890	111,250
295,560	4,075	215,625	111,149
296,574	4,064	215,596	111,115
297,589	3,966	215,526	110,999
298,603	4,090	215,436	111,032
299,618	3,939	215,331	110,859
300,633	4,126	215,161	110,896
301,647	4,438	215,090	111,074
302,662	4,399	214,881	110,929
303,676	4,129	214,856	110,712
304,691	4,370	214,638	110,762
305,706	4,472	214,497	110,753
306,720	4,183	214,351	110,461
307,735	4,156	214,265	110,387
308,749	3,747	214,066	109,982
309,764	4,212	213,914	110,227
310,779	4,120	213,821	110,103
311,793	4,587	213,536	110,280
312,808	4,333	213,669	110,158
313,822	4,134	213,405	109,870
314,837	3,975	213,215	109,649
315,852	3,805	212,999	109,407
316,866	4,142	213,061	109,669
317,881	4,307	212,890	109,688
318,895	4,425	212,628	109,628
319,910	4,055	212,537	109,308
320,925	3,643	212,388	108,930
321,939	3,521	212,203	108,738
322,954	3,800	211,864	108,752
323,968	4,072	211,989	109,000
324,983	4,219	211,918	109,057
325,997	4,311	211,769	109,036
327,012	4,118	211,588	108,797
328,027	4,139	211,398	108,704
329,041	4,314	211,359	108,797
330,056	4,471	211,238	108,837
331,070	4,320	210,959	108,576
332,085	4,042	210,842	108,311
333,100	4,033	210,666	108,205
334,114	4,228	210,531	108,262
335,129	4,183	210,430	108,169
336,143	3,901	210,337	107,915
337,158	3,837	210,126	107,752
338,173	4,226	209,986	107,942
339,187	3,806	209,870	107,579
340,202	3,706	209,807	107,467
341,216	3,647	209,642	107,332
342,231	3,830	209,563	107,410
343,246	4,035	209,406	107,463
344,260	4,026	209,237	107,360
345,275	4,063	209,094	107,304
346,289	4,319	209,081	107,465
347,304	4,178	208,908	107,269
348,319	3,970	208,761	107,038
349,333	4,253	208,664	107,176
350,348	4,012	208,494	106,912
351,362	4,373	208,362	107,086
352,377	4,326	208,359	107,041
353,392	4,176	208,112	106,802
354,406	4,303	208,075	106,861
355,421	194,702	1345,488	1436,924
356,435	155,373	1484,166	1437,040
