DTS Sentinel unit serial number:	SN410029Multiplexer serial number:	ORYXHardware model number:	OX2-SRSoftware version number:	ORYX F/W v4,00 Oryx Data Collector v3.7.2.0data status	okinstallation	B6 Nyhavnadifferential loss correction	single-endedforward channel	channel 2reverse channel	N/Adate	2023/12/11time	00:15:08forward acquisition time	300,00reverse acquisition time	0,00gamma	499,1914k internal	0,3122k external	0,3122temperature offset calibration	1,0000default loss term (dB/km)	0,3820temperature slope calibration	1,0000multiplexer offset coefficient	1,0000multiplexer slope coefficient	1,0000fibre end	0,00T internal ref (°C)	22,37T ext. ref 1 (°C)	5,88T ext. ref 2 (°C)	5,91length (m)	temperature (°C)	Stokes	anti-Stokes-744,400	800,000	0,047	-0,105
-743,385	35,190	-0,238	0,155
-742,371	-28,544	-0,119	0,051
-741,356	-115,168	-0,121	0,017
-740,342	-152,515	0,107	0,006
-739,327	-111,756	-0,243	0,036
-738,312	-175,614	0,104	-0,002
-737,298	-64,941	-0,216	0,065
-736,283	800,000	0,071	-0,154
-735,269	-65,119	-0,144	0,043
-734,254	425,293	-0,020	-0,031
-733,239	-146,404	-0,442	-0,028
-732,225	800,000	0,019	-0,055
-731,210	-200,000	0,019	-0,154
-730,196	-181,273	-0,105	0,002
-729,181	-121,231	-0,220	0,027
-728,167	-47,291	-0,026	0,009
-727,152	13,365	0,015	0,008
-726,137	-42,712	-0,074	-0,028
-725,123	800,000	-0,066	0,147
-724,108	800,000	-0,045	-0,121
-723,094	1,852	-0,137	-0,074
-722,079	-200,000	-0,008	-0,149
-721,064	290,866	0,042	0,057
-720,050	382,475	-0,043	0,066
-719,035	404,377	-0,061	0,097
-718,021	-105,314	-0,067	0,011
-717,006	800,000	-0,040	-0,093
-715,991	-40,773	0,067	-0,026
-714,977	-24,178	-0,110	-0,049
-713,962	291,831	-0,110	-0,150
-712,948	-49,660	0,057	0,020
-711,933	-200,000	0,014	0,059
-710,918	-181,561	-0,033	-0,000
-709,904	259,053	-0,059	-0,076
-708,889	379,875	-0,075	-0,115
-707,875	217,562	-0,048	-0,057
-706,860	212,120	-0,038	0,044
-705,845	-44,618	0,065	0,024
-704,831	-177,412	-0,026	-0,000
-703,816	-200,000	-0,013	-0,075
-702,802	-18,500	-0,133	-0,062
-701,787	179,695	0,034	-0,037
-700,772	-77,491	-0,031	-0,008
-699,758	125,711	-0,054	0,051
-698,743	226,367	0,016	-0,020
-697,729	-97,732	0,082	0,016
-696,714	-151,909	0,027	-0,001
-695,699	800,000	0,041	-0,086
-694,685	-20,302	-0,038	-0,017
-693,670	61,994	0,051	0,037
-692,656	800,000	-0,019	0,052
-691,641	-200,000	-0,001	0,016
-690,627	385,895	0,038	-0,059
-689,612	-200,000	0,005	0,110
-688,597	-200,000	-0,015	-0,056
-687,583	-75,489	-0,152	-0,040
-686,568	-115,823	-0,143	0,020
-685,554	-200,000	-0,025	-0,090
-684,539	-10,165	-0,055	0,027
-683,524	-98,464	0,139	0,026
-682,510	-28,454	-0,095	0,040
-681,495	680,779	0,055	0,108
-680,481	187,969	-0,052	-0,058
-679,466	800,000	-0,064	-0,135
-678,451	-100,218	-0,177	0,032
-677,437	-88,873	-0,075	0,016
-676,422	233,510	-0,014	-0,018
-675,408	-115,792	0,116	0,016
-674,393	-200,000	0,005	-0,052
-673,378	13,628	0,116	0,067
-672,364	77,068	0,041	-0,032
-671,349	133,969	-0,078	-0,076
-670,335	-103,154	-0,085	0,015
-669,320	-9,258	0,090	-0,045
-668,305	665,635	-0,003	-0,006
-667,291	623,444	0,063	-0,119
-666,276	-200,000	-0,009	-0,030
-665,262	-62,606	-0,230	-0,071
-664,247	800,000	0,022	-0,055
-663,232	-200,000	-0,000	0,047
-662,218	-30,760	0,053	0,022
-661,203	27,054	0,086	0,053
-660,189	614,999	-0,061	0,114
-659,174	526,368	-0,042	0,074
-658,159	3,588	-0,100	0,054
-657,145	800,000	-0,055	-0,156
-656,130	-200,000	0,016	-0,055
-655,116	-200,000	0,003	-0,183
-654,101	-154,115	0,092	-0,005
-653,086	45,755	-0,022	0,015
-652,072	139,458	-0,039	-0,039
-651,057	-49,761	0,117	-0,041
-650,043	533,830	-0,055	-0,097
-649,028	401,634	0,046	0,073
-648,014	-200,000	-0,009	0,051
-646,999	-200,000	0,022	0,124
-645,984	-200,000	-0,012	-0,052
-644,970	46,152	0,033	-0,023
-643,955	-0,617	-0,089	-0,047
-642,941	78,764	0,010	-0,008
-641,926	-90,763	-0,067	-0,014
-640,911	76,761	0,067	0,053
-639,897	-51,637	-0,081	-0,028
-638,882	153,503	0,097	-0,098
-637,868	90,722	0,019	0,016
-636,853	-200,000	-0,010	-0,091
-635,838	-200,000	-0,017	-0,109
-634,824	-130,198	0,042	-0,004
-633,809	-74,792	0,127	0,034
-632,795	132,956	-0,026	0,025
-631,780	146,591	0,057	0,057
-630,765	782,644	0,029	-0,059
-629,751	-66,981	0,072	-0,021
-628,736	-117,329	0,041	0,005
-627,722	37,020	-0,086	0,056
-626,707	-156,532	0,055	-0,002
-625,692	545,095	0,035	0,062
-624,678	-200,000	0,016	0,107
-623,663	207,187	-0,063	-0,073
-622,649	-0,344	-0,108	-0,057
-621,634	134,371	-0,040	-0,039
-620,619	800,000	-0,056	0,167
-619,605	-52,569	-0,037	0,012
-618,590	-200,000	0,008	0,073
-617,576	-200,000	0,004	-0,038
-616,561	217,502	-0,097	-0,115
-615,546	431,381	-0,067	0,108
-614,532	800,000	-0,042	-0,102
-613,517	196,644	0,061	0,069
-612,503	-119,515	-0,088	-0,011
-611,488	-31,399	0,086	0,036
-610,474	650,105	0,012	-0,023
-609,459	-23,014	-0,004	-0,002
-608,444	-110,504	-0,108	0,016
-607,430	-200,000	-0,006	0,029
-606,415	-112,679	-0,145	0,021
-605,401	99,689	0,076	0,065
-604,386	83,112	-0,021	-0,017
-603,371	-200,000	-0,025	0,099
-602,357	-110,389	-0,070	-0,011
-601,342	188,282	0,028	-0,031
-600,328	800,000	-0,046	0,100
-599,313	-33,445	-0,066	-0,027
-598,298	745,043	-0,122	-0,245
-597,284	-66,867	0,143	0,042
-596,269	104,446	-0,039	-0,034
-595,255	800,000	-0,021	0,052
-594,240	46,298	-0,025	0,017
-593,225	95,529	-0,146	0,123
-592,211	72,901	-0,071	-0,055
-591,196	-200,000	-0,001	-0,005
-590,182	252,072	0,040	0,051
-589,167	-22,485	-0,095	0,043
-588,152	170,283	0,050	-0,054
-587,138	439,894	0,032	0,053
-586,123	225,643	-0,046	-0,055
-585,109	-101,966	0,075	-0,013
-584,094	-114,727	-0,041	-0,006
-583,079	133,399	-0,044	-0,042
-582,065	800,000	0,025	-0,074
-581,050	-135,780	0,085	0,007
-580,036	-200,000	0,022	0,132
-579,021	800,000	0,039	-0,092
-578,006	233,697	0,096	-0,118
-576,992	450,243	-0,068	-0,111
-575,977	-9,052	0,049	0,024
-574,963	-30,754	0,060	0,025
-573,948	235,826	0,066	-0,081
-572,934	-200,000	-0,001	0,004
-571,919	118,588	-0,043	0,039
-570,904	2,891	-0,159	0,085
-569,890	-31,213	-0,057	-0,024
-568,875	-52,015	-0,114	0,039
-567,861	11,950	0,126	-0,071
-566,846	17,583	-0,062	0,036
-565,831	25,030	0,029	-0,018
-564,817	-100,211	-0,048	-0,009
-563,802	228,495	-0,118	-0,143
-562,788	-200,000	0,003	-0,065
-561,773	-131,070	-0,175	-0,017
-560,758	-66,559	0,192	0,056
-559,744	96,116	-0,181	0,153
-558,729	-200,000	-0,010	-0,074
-557,715	-200,000	0,008	-0,042
-556,700	-31,375	-0,034	-0,014
-555,685	-200,000	-0,006	0,039
-554,671	453,385	0,035	0,057
-553,656	800,000	0,038	0,086
-552,642	-200,000	0,002	0,015
-551,627	-200,000	0,004	0,036
-550,612	-118,358	-0,101	0,013
-549,598	192,818	-0,033	0,037
-548,583	-118,701	-0,088	0,011
-547,569	225,048	0,018	-0,022
-546,554	-200,000	0,026	0,156
-545,539	-23,026	0,066	0,029
-544,525	-21,583	-0,128	0,058
-543,510	483,484	-0,022	-0,037
-542,496	800,000	-0,028	-0,064
-541,481	-200,000	-0,026	-0,122
-540,466	249,784	-0,096	-0,120
-539,452	-1,296	-0,108	0,056
-538,437	79,039	0,045	0,036
-537,423	103,041	-0,065	-0,056
-536,408	-53,769	-0,111	-0,037
-535,393	-73,226	-0,219	0,059
-534,379	-65,443	-0,084	-0,025
-533,364	-66,778	-0,060	0,017
-532,350	-200,000	0,026	-0,126
-531,335	88,942	-0,092	-0,076
-530,321	800,000	-0,064	0,157
-529,306	729,390	-0,024	0,048
-528,291	-35,641	-0,078	0,031
-527,277	-200,000	0,006	-0,034
-526,262	-200,000	-0,004	0,108
-525,248	726,042	0,054	0,106
-524,233	-200,000	-0,003	0,158
-523,218	1,527	0,067	0,036
-522,204	-149,807	-0,062	0,004
-521,189	85,869	-0,086	0,070
-520,175	800,000	-0,012	0,038
-519,160	185,166	-0,038	-0,041
-518,145	-200,000	-0,007	-0,029
-517,131	-200,000	0,015	0,136
-516,116	-200,000	0,022	0,098
-515,102	390,806	-0,038	-0,058
-514,087	112,693	-0,070	0,063
-513,072	-41,450	-0,065	-0,025
-512,058	-174,249	0,096	0,002
-511,043	-99,802	0,021	0,004
-510,029	32,973	0,057	-0,037
-509,014	-6,764	0,055	-0,028
-507,999	-70,381	-0,065	-0,018
-506,985	-91,901	0,030	0,006
-505,970	-200,000	-0,006	-0,066
-504,956	12,868	-0,075	-0,043
-503,941	62,967	0,047	-0,035
-502,926	180,932	0,075	-0,081
-501,912	76,369	0,042	-0,033
-500,897	-144,466	-0,094	0,006
-499,883	-154,884	-0,096	0,005
-498,868	173,986	-0,104	-0,111
-497,853	147,242	-0,091	0,091
-496,839	-200,000	0,012	-0,126
-495,824	800,000	-0,029	0,095
-494,810	-77,765	0,118	0,030
-493,795	-200,000	0,031	-0,138
-492,781	350,402	-0,032	0,047
-491,766	253,421	-0,033	0,042
-490,751	-4,714	0,055	-0,028
-489,737	60,316	-0,039	-0,028
-488,722	306,205	-0,062	0,086
-487,708	169,564	0,048	0,051
-486,693	20,101	-0,058	-0,035
-485,678	-109,292	-0,081	-0,013
-484,664	-23,115	0,056	0,025
-483,649	53,350	0,056	0,039
-482,635	118,474	-0,034	-0,031
-481,620	-59,603	0,102	0,032
-480,605	60,620	-0,025	0,018
-479,591	-200,000	-0,020	0,095
-478,576	30,583	-0,038	-0,024
-477,562	-110,892	0,070	0,011
-476,547	565,998	-0,049	-0,088
-475,532	-126,317	-0,105	0,011
-474,518	770,703	0,047	0,094
-473,503	10,861	0,017	-0,009
-472,489	231,666	0,056	-0,068
-471,474	-200,000	0,004	-0,060
-470,459	-93,577	0,098	0,020
-469,445	-200,000	0,025	-0,169
-468,430	321,167	0,070	0,098
-467,416	163,521	0,121	0,126
-466,401	-4,405	0,135	0,069
-465,386	164,770	0,026	0,027
-464,372	-56,016	0,045	-0,015
-463,357	800,000	-0,035	-0,105
-462,343	340,361	-0,011	-0,015
-461,328	-200,000	-0,005	0,041
-460,313	-60,564	-0,016	0,005
-459,299	67,690	0,104	-0,078
-458,284	800,000	-0,023	0,050
-457,270	184,728	0,066	0,073
-456,255	800,000	0,027	0,057
-455,241	-22,892	-0,060	-0,027
-454,226	800,000	0,003	0,008
-453,211	-200,000	0,008	-0,121
-452,197	-17,126	0,155	0,072
-451,182	-96,125	0,132	0,026
-450,168	-107,572	-0,013	0,002
-449,153	289,359	-0,087	0,116
-448,138	-71,420	-0,108	-0,030
-447,124	-200,000	0,009	-0,046
-446,109	252,338	0,020	0,026
-445,095	-70,115	-0,011	0,003
-444,080	-25,202	0,118	0,051
-443,065	-86,062	-0,103	0,023
-442,051	-37,707	-0,069	0,027
-441,036	-78,650	0,044	0,011
-440,022	266,978	-0,042	-0,055
-439,007	-37,435	0,144	-0,056
-437,992	-106,702	0,077	0,013
-436,978	-91,921	-0,107	0,022
-435,963	70,100	-0,016	0,012
-434,949	107,791	-0,136	-0,120
-433,934	-200,000	-0,004	-0,053
-432,919	42,060	0,019	0,013
-431,905	360,101	0,025	0,037
-430,890	29,200	0,110	0,069
-429,876	20,807	0,085	0,051
-428,861	-200,000	0,006	0,033
-427,846	-4,254	-0,110	-0,056
-426,832	30,455	-0,112	0,070
-425,817	1,408	0,153	-0,081
-424,803	530,276	0,022	0,039
-423,788	-200,000	0,027	0,091
-422,773	125,436	0,049	0,046
-421,759	231,804	0,065	0,078
-420,744	232,285	0,059	-0,071
-419,730	462,937	0,084	-0,139
-418,715	319,728	-0,038	-0,053
-417,701	281,397	0,036	-0,047
-416,686	536,787	0,072	-0,127
-415,671	-138,642	0,171	-0,014
-414,657	207,206	-0,046	-0,053
-413,642	-121,708	0,028	0,003
-412,628	800,000	0,047	0,130
-411,613	-99,584	-0,104	-0,019
-410,598	-109,676	0,110	-0,017
-409,584	41,392	0,025	-0,017
-408,569	-200,000	-0,008	0,115
-407,555	94,198	0,051	0,043
-406,540	-89,133	-0,049	-0,011
-405,525	-200,000	0,001	0,005
-404,511	376,282	-0,034	-0,051
-403,496	800,000	-0,016	-0,036
-402,482	42,325	0,025	-0,017
-401,467	213,148	-0,083	0,097
-400,452	225,255	0,054	0,065
-399,438	78,554	0,076	0,059
-398,423	-135,839	-0,141	0,012
-397,409	-29,594	-0,099	-0,041
-396,394	98,461	0,055	-0,046
-395,379	-110,685	0,062	0,009
-394,365	-116,376	0,056	0,008
-393,350	-200,000	0,011	0,085
-392,336	205,453	0,069	0,079
-391,321	98,569	0,029	-0,024
-390,306	115,998	0,037	-0,034
-389,292	-200,000	-0,010	-0,044
-388,277	-120,796	0,038	-0,005
-387,263	31,482	0,050	-0,032
-386,248	147,884	0,055	0,055
-385,233	126,953	0,066	0,061
-384,219	16,324	-0,067	-0,039
-383,204	130,676	-0,113	0,107
-382,190	-71,154	-0,087	0,024
-381,175	-200,000	-0,002	-0,019
-380,160	170,114	0,038	-0,040
-379,146	-200,000	-0,034	0,159
-378,131	172,483	0,046	0,048
-377,117	7,867	-0,067	0,037
-376,102	98,732	0,072	0,061
-375,088	800,000	0,046	0,108
-374,073	-20,755	0,049	0,022
-373,058	800,000	0,030	0,081
-372,044	36,515	0,020	0,013
-371,029	-191,124	0,162	-0,001
-370,015	190,745	0,043	0,047
-369,000	253,011	0,042	-0,053
-367,985	99,817	-0,034	0,029
-366,971	361,748	-0,064	0,095
-365,956	-200,000	-0,019	0,134
-364,942	-200,000	-0,013	0,108
-363,927	-87,247	0,034	0,008
-362,912	800,000	0,017	-0,041
-361,898	108,576	-0,077	0,068
-360,883	177,026	-0,030	-0,032
-359,869	-200,000	-0,013	-0,060
-358,854	-200,000	0,000	-0,079
-357,839	32,179	0,118	0,074
-356,825	-200,000	0,012	0,052
-355,810	-31,016	0,071	0,029
-354,796	221,442	-0,073	-0,086
-353,781	-200,000	0,029	-0,126
-352,766	-146,112	-0,088	-0,006
-351,752	-118,968	-0,052	0,007
-350,737	-99,205	0,164	0,030
-349,723	-84,921	-0,040	0,009
-348,708	24,584	0,146	0,088
-347,693	-200,000	-0,063	-0,206
-346,679	800,000	0,034	-0,075
-345,664	151,710	0,065	-0,065
-344,650	165,196	0,045	0,046
-343,635	234,308	0,028	0,035
-342,620	-200,000	0,012	0,134
-341,606	-151,834	0,103	-0,005
-340,591	-200,000	0,028	0,115
-339,577	-200,000	-0,008	0,044
-338,562	47,913	0,073	0,050
-337,548	800,000	-0,016	0,050
-336,533	-100,904	-0,086	0,015
-335,518	-113,491	0,174	-0,025
-334,504	197,501	-0,021	0,023
-333,489	169,671	-0,083	-0,087
-332,475	136,548	-0,128	-0,122
-331,460	82,885	0,040	-0,032
-330,445	-200,000	-0,021	-0,113
-329,431	-52,910	0,090	0,030
-328,416	800,000	0,009	-0,021
-327,402	447,973	-0,048	0,078
-326,387	163,420	0,049	0,051
-325,372	93,390	-0,037	0,031
-324,358	-26,541	-0,072	0,031
-323,343	-200,000	-0,005	0,043
-322,329	-200,000	0,016	0,096
-321,314	-169,186	0,100	0,003
-320,299	54,581	-0,067	-0,048
-319,285	-115,019	0,178	0,025
-318,270	100,869	-0,058	-0,050
-317,256	-148,871	0,069	-0,004
-316,241	-131,093	-0,139	0,013
-315,226	64,193	-0,043	-0,031
-314,212	800,000	0,034	0,076
-313,197	-200,000	-0,001	-0,038
-312,183	-22,286	-0,098	-0,044
-311,168	-64,958	-0,061	-0,018
-310,153	645,178	-0,103	-0,193
-309,139	800,000	-0,079	0,177
-308,124	-200,000	0,016	0,061
-307,110	-23,450	-0,031	-0,014
-306,095	-200,000	0,038	0,131
-305,080	-37,660	0,060	-0,023
-304,066	-111,614	-0,039	0,006
-303,051	800,000	-0,055	-0,133
-302,037	-200,000	0,014	-0,047
-301,022	800,000	0,043	0,124
-300,008	-155,700	0,133	-0,006
-298,993	8,587	0,124	-0,068
-297,978	203,077	0,009	-0,010
-296,964	649,662	0,014	-0,026
-295,949	229,301	-0,052	-0,062
-294,935	258,164	0,043	-0,055
-293,920	-13,771	0,024	-0,011
-292,905	494,519	0,059	0,099
-291,891	-200,000	-0,009	-0,033
-290,876	536,064	-0,008	0,013
-289,862	-70,679	-0,068	0,019
-288,847	761,389	-0,061	-0,123
-287,832	-200,000	-0,026	-0,110
-286,818	52,757	0,087	-0,061
-285,803	-79,893	0,095	-0,023
-284,789	-113,411	-0,114	0,016
-283,774	-26,696	0,090	-0,038
-282,759	94,937	0,033	-0,028
-281,745	-200,000	-0,006	-0,199
-280,730	52,354	0,118	-0,083
-279,716	-169,903	0,181	-0,005
-278,701	-94,871	-0,020	0,004
-277,686	-200,000	0,002	-0,020
-276,672	78,142	0,039	-0,030
-275,657	-23,690	0,043	-0,019
-274,643	-31,607	-0,118	0,048
-273,628	-70,155	0,072	-0,020
-272,613	-200,000	-0,004	-0,130
-271,599	-200,000	0,016	-0,106
-270,584	-38,052	0,087	-0,034
-269,570	-200,000	0,002	0,028
-268,555	13,680	-0,135	0,076
-267,540	-6,721	0,034	0,017
-266,526	56,322	0,110	-0,078
-265,511	193,313	-0,048	-0,053
-264,497	416,628	0,043	-0,068
-263,482	-56,918	0,104	-0,033
-262,467	-200,000	0,039	-0,137
-261,453	291,667	-0,044	0,058
-260,438	397,583	-0,065	-0,100
-259,424	-140,639	-0,104	-0,008
-258,409	-77,539	0,074	0,019
-257,395	112,323	-0,038	0,034
-256,380	103,029	0,096	-0,082
-255,365	402,154	0,028	0,044
-254,351	181,894	-0,113	-0,122
-253,336	-200,000	0,003	-0,067
-252,322	18,913	-0,056	0,032
-251,307	396,680	0,032	-0,049
-250,292	179,868	-0,005	0,005
-249,278	-17,930	0,114	-0,052
-248,263	800,000	-0,014	0,031
-247,249	-200,000	0,007	-0,027
-246,234	-200,000	-0,065	0,000
-245,219	58,502	0,028	0,020
-244,205	-11,222	-0,058	-0,028
-243,190	-11,087	0,039	-0,019
-242,176	401,866	-0,010	0,015
-241,161	27,603	0,049	-0,030
-240,146	-200,000	0,005	0,051
-239,132	74,698	-0,096	0,073
-238,117	538,204	-0,077	-0,134
-237,103	197,108	0,079	0,089
-236,088	-200,000	-0,031	-0,131
-235,073	106,595	0,100	0,087
-234,059	-200,000	-0,008	0,052
-233,044	260,705	0,089	0,113
-232,030	800,000	-0,065	-0,199
-231,015	252,035	0,006	0,007
-230,000	-120,994	-0,114	0,014
-228,986	0,586	-0,094	-0,049
-227,971	147,305	-0,141	0,139
-226,957	-37,169	-0,076	0,030
-225,942	144,960	-0,037	0,036
-224,927	-200,000	0,002	-0,019
-223,913	-20,612	-0,131	0,059
-222,898	-79,290	-0,012	0,003
-221,884	-200,000	-0,012	-0,045
-220,869	50,097	0,126	0,086
-219,855	169,252	0,081	-0,084
-218,840	-39,758	-0,088	-0,034
-217,825	486,983	0,052	-0,088
-216,811	-111,862	-0,073	0,011
-215,796	-200,000	-0,015	-0,069
-214,782	800,000	0,039	-0,093
-213,767	-167,272	0,051	0,001
-212,752	69,006	0,076	0,057
-211,738	-200,000	0,013	0,162
-210,723	-162,675	0,129	0,005
-209,709	-130,701	-0,076	-0,007
-208,694	29,259	-0,042	-0,026
-207,679	-200,000	-0,014	-0,066
-206,665	-122,144	-0,042	0,005
-205,650	-5,480	0,085	-0,042
-204,636	75,513	-0,138	-0,107
-203,621	-138,548	-0,060	0,005
-202,606	25,653	0,051	0,031
-201,592	-200,000	0,003	-0,120
-200,577	-200,000	0,043	-0,271
-199,563	164,981	0,065	0,067
-198,548	-200,000	0,009	-0,047
-197,533	800,000	-0,035	0,110
-196,519	-34,879	-0,077	-0,031
-195,504	-200,000	-0,001	-0,010
-194,490	111,991	-0,104	0,091
-193,475	197,268	0,035	0,039
-192,460	9,988	-0,086	0,048
-191,446	-123,802	0,116	0,013
-190,431	-169,072	-0,101	0,003
-189,417	46,460	0,094	-0,064
-188,402	-64,429	-0,095	0,028
-187,387	800,000	-0,043	-0,095
-186,373	-69,584	-0,054	-0,015
-185,358	-47,925	-0,125	-0,044
-184,344	-73,771	0,086	0,023
-183,329	-120,486	0,151	-0,019
-182,315	-13,371	0,084	0,040
-181,300	-96,466	0,052	-0,010
-180,285	107,267	0,036	0,031
-179,271	-62,950	0,076	0,023
-178,256	800,000	0,065	-0,154
-177,242	219,869	-0,050	0,059
-176,227	-200,000	-0,011	-0,079
-175,212	800,000	0,046	0,140
-174,198	426,129	0,070	0,111
-173,183	-44,028	-0,113	-0,041
-172,169	-135,143	-0,082	0,007
-171,154	110,198	0,087	0,076
-170,139	130,477	0,037	0,034
-169,125	-64,737	-0,070	0,020
-168,110	67,397	0,040	0,029
-167,096	-200,000	-0,002	-0,031
-166,081	-73,393	-0,109	-0,029
-165,066	-200,000	0,002	-0,188
-164,052	264,430	0,057	0,072
-163,037	800,000	-0,036	0,086
-162,023	-26,988	0,086	0,037
-161,008	-90,389	0,133	-0,028
-159,993	-200,000	-0,001	0,094
-158,979	-3,730	-0,131	0,066
-157,964	290,087	0,057	0,076
-156,950	-200,000	0,039	-0,133
-155,935	20,791	-0,075	-0,044
-154,920	-54,605	-0,086	0,028
-153,906	686,671	0,051	-0,098
-152,891	13,614	0,085	0,048
-151,877	-200,000	0,001	-0,079
-150,862	221,182	-0,050	-0,059
-149,847	29,797	0,034	0,021
-148,833	-200,000	-0,005	0,141
-147,818	0,496	-0,095	-0,049
-146,804	-157,965	0,124	0,005
-145,789	-144,961	-0,069	0,005
-144,775	-74,120	-0,062	0,016
-143,760	-116,315	-0,135	-0,018
-142,745	-200,000	-0,016	0,123
-141,731	83,451	-0,125	0,099
-140,716	134,577	0,069	0,065
-139,702	800,000	0,055	0,117
-138,687	234,497	-0,037	0,044
-137,672	-200,000	-0,011	-0,063
-136,658	322,428	-0,086	0,119
-135,643	800,000	0,019	-0,045
-134,629	16,751	-0,008	-0,004
-133,614	800,000	0,020	0,056
-132,599	-59,649	-0,092	0,029
-131,585	800,000	-0,025	0,072
-130,570	-200,000	0,005	-0,165
-129,556	18,690	0,068	-0,039
-128,541	-200,000	0,034	-0,117
-127,526	287,035	0,043	-0,057
-126,512	154,527	-0,055	-0,055
-125,497	-200,000	0,004	-0,077
-124,483	-200,000	-0,025	-0,131
-123,468	132,334	-0,033	0,031
-122,453	-200,000	-0,028	0,089
-121,439	7,188	-0,084	0,045
-120,424	212,470	0,084	0,096
-119,410	-200,000	-0,020	0,154
-118,395	-200,000	-0,020	0,076
-117,380	-76,524	0,043	-0,011
-116,366	800,000	-0,111	-0,233
-115,351	800,000	0,012	0,026
-114,337	-79,349	-0,168	0,041
-113,322	508,749	-0,032	-0,055
-112,307	800,000	-0,031	-0,085
-111,293	398,356	0,040	0,061
-110,278	-51,369	0,163	0,055
-109,264	-49,665	-0,027	0,009
-108,249	36,175	0,116	0,074
-107,234	50,676	-0,015	-0,010
-106,220	155,378	0,039	-0,039
-105,205	-130,023	0,069	-0,007
-104,191	8,217	0,017	-0,009
-103,176	-129,071	-0,067	-0,007
-102,162	217,249	0,012	0,014
-101,147	800,000	0,008	-0,023
-100,132	90,620	0,069	0,056
-99,118	-200,000	-0,021	0,112
-98,103	-51,579	0,048	-0,016
-97,089	-200,000	-0,008	0,029
-96,074	57,167	0,049	0,035
-95,059	800,000	0,013	0,042
-94,045	-200,000	-0,012	-0,103
-93,030	-68,173	-0,049	0,014
-92,016	-105,457	-0,115	-0,019
-91,001	30,645	0,042	-0,026
-89,986	-94,146	0,032	-0,006
-88,972	-87,336	0,155	0,034
-87,957	122,148	0,077	0,070
-86,943	-200,000	-0,013	-0,058
-85,928	97,437	-0,208	-0,174
-84,913	154,756	0,043	0,043
-83,899	10,787	0,097	-0,053
-82,884	28,944	-0,092	-0,056
-81,870	-159,891	0,038	0,001
-80,855	800,000	0,097	0,204
-79,840	-200,000	-0,018	0,098
-78,826	-200,000	-0,008	-0,031
-77,811	79,333	-0,087	-0,067
-76,797	-200,000	0,011	0,065
-75,782	178,747	-0,059	-0,062
-74,767	-40,472	0,081	0,030
-73,753	-119,669	0,139	-0,017
-72,738	73,316	0,092	-0,070
-71,724	800,000	0,083	-0,191
-70,709	-91,156	0,042	0,009
-69,694	800,000	-0,017	0,042
-68,680	800,000	-0,055	0,130
-67,665	58,841	0,035	0,025
-66,651	-200,000	-0,005	0,089
-65,636	39,470	-0,057	0,037
-64,622	-61,003	-0,129	0,039
-63,607	-191,438	0,097	-0,001
-62,592	519,304	-0,068	-0,117
-61,578	34,532	0,109	0,069
-60,563	-200,000	0,006	0,171
-59,549	147,818	0,099	0,097
-58,534	-156,080	-1,236	-0,056
-57,519	639,041	-0,750	-1,390
-56,505	-200,000	-0,818	-4,512
-55,490	52,063	0,526	-0,363
-54,476	800,000	4,896	11,938
-53,461	-200,000	13,585	253,365
-52,446	-200,000	689,804	2259,690
-51,432	591,556	1622,243	2918,291
-50,417	119,313	1634,659	1468,050
-49,403	73,278	1288,728	977,353
-48,388	38,111	1024,078	659,936
-47,373	24,297	981,916	587,324
-46,359	23,588	971,395	578,684
-45,344	22,584	967,198	572,881
-44,330	22,553	965,797	571,927
-43,315	22,382	964,454	570,550
-42,300	22,416	963,157	569,869
-41,286	22,420	962,321	569,366
-40,271	22,335	961,433	568,540
-39,257	22,356	960,324	567,932
-38,242	22,374	959,645	567,567
-37,227	22,414	958,629	567,072
-36,213	22,378	957,607	566,328
-35,198	22,390	956,792	565,862
-34,184	22,368	956,285	565,472
-33,169	22,408	955,320	565,006
-32,154	22,417	954,530	564,547
-31,140	22,415	953,531	563,927
-30,125	22,397	952,993	563,528
-29,111	22,417	951,882	562,913
-28,096	22,465	951,188	562,634
-27,082	22,450	950,371	562,081
-26,067	22,376	949,873	561,527
-25,052	22,427	949,046	561,179
-24,038	22,423	948,467	560,800
-23,023	22,426	947,799	560,392
-22,009	22,487	947,266	560,251
-20,994	22,426	946,581	559,628
-19,979	22,460	945,910	559,318
-18,965	22,384	945,389	558,745
-17,950	22,455	944,617	558,495
-16,936	22,394	943,945	557,879
-15,921	22,320	943,218	557,191
-14,906	22,289	942,729	556,780
-13,892	22,278	942,105	556,355
-12,877	22,309	941,332	555,975
-11,863	22,282	940,711	555,501
-10,848	22,293	940,178	555,199
-9,833	22,344	939,630	555,015
-8,819	22,341	939,062	554,648
-7,804	22,339	938,407	554,233
-6,790	22,294	937,682	553,642
-5,775	22,323	937,232	553,444
-4,760	22,294	936,784	553,067
-3,746	22,268	936,029	552,517
-2,731	22,188	935,304	551,816
-1,717	22,166	934,634	551,327
-0,702	22,140	933,787	550,726
0,313	21,967	933,239	550,688
1,327	25,130	931,255	559,413
2,342	34,785	795,909	503,823
3,356	32,876	451,441	282,868
4,371	1,633	293,707	152,865
5,386	-2,981	274,726	138,606
6,400	-4,393	268,769	134,279
7,415	-4,953	266,403	132,569
8,429	-4,838	265,250	132,090
9,444	-4,695	264,389	131,779
10,459	-4,630	263,819	131,543
11,473	-4,616	263,082	131,176
12,488	-4,832	262,666	130,762
13,502	-4,760	262,038	130,502
14,517	-4,751	261,667	130,314
15,531	-4,486	261,232	130,325
16,546	-4,637	260,927	130,025
17,561	-4,701	260,722	129,853
18,575	-4,687	260,412	129,701
19,590	-4,862	260,026	129,339
20,604	-4,609	259,806	129,445
21,619	-4,697	259,393	129,149
22,634	-4,736	259,121	128,967
23,648	-4,856	258,863	128,720
24,663	-4,772	258,466	128,587
25,677	-4,718	258,241	128,511
26,692	-4,636	258,063	128,484
27,707	-4,943	257,735	128,036
28,721	-4,861	257,452	127,958
29,736	-4,770	257,084	127,844
30,750	-4,815	257,018	127,759
31,765	-4,871	256,668	127,524
32,780	-4,915	256,582	127,432
33,794	-4,663	256,243	127,474
34,809	-4,884	255,987	127,141
35,823	-4,784	255,759	127,104
36,838	-4,747	255,535	127,014
37,853	-4,721	255,339	126,929
38,867	-4,811	254,963	126,651
39,882	-4,897	254,866	126,516
40,896	-4,830	254,592	126,427
41,911	-4,825	254,422	126,336
42,926	-5,105	254,378	126,058
43,940	-5,022	253,983	125,924
44,955	-5,027	253,688	125,762
45,969	-5,098	253,484	125,587
46,984	-5,150	253,308	125,443
47,999	-5,450	252,921	124,979
49,013	-5,566	252,752	124,784
50,028	-5,501	252,477	124,694
51,042	-5,797	252,226	124,302
52,057	-5,617	252,062	124,365
53,071	-5,651	251,809	124,200
54,086	-5,506	251,589	124,206
55,101	-5,616	251,603	124,107
56,115	-5,356	251,539	124,289
57,130	-4,863	251,238	124,555
58,144	-4,721	251,127	124,612
59,159	-4,631	250,875	124,553
60,174	-4,661	250,672	124,416
61,188	-4,654	250,407	124,279
62,203	-4,749	250,261	124,114
63,217	-4,677	250,117	124,093
64,232	-4,754	249,879	123,898
65,247	-4,639	249,660	123,877
66,261	-4,779	249,417	123,626
67,276	-4,865	249,167	123,416
68,290	-5,178	248,946	123,029
69,305	-5,277	248,757	122,840
70,320	-5,198	248,655	122,846
71,334	-5,116	248,512	122,834
72,349	-4,544	248,260	123,186
73,363	-4,594	248,120	123,063
74,378	-4,627	247,913	122,921
75,393	-4,709	247,528	122,650
76,407	-4,603	247,529	122,730
77,422	-4,674	247,255	122,523
78,436	-4,614	247,095	122,484
79,451	-4,678	246,925	122,334
80,466	-4,778	246,706	122,130
81,480	-4,866	246,292	121,840
82,495	-4,963	246,166	121,685
83,509	-5,021	246,208	121,645
84,524	-5,012	245,835	121,458
85,539	-5,146	245,550	121,193
86,553	-5,146	245,479	121,147
87,568	-5,150	245,200	120,996
88,582	-5,266	245,208	120,891
89,597	-5,173	245,021	120,866
90,611	-4,827	244,826	121,050
91,626	-4,865	244,610	120,900
92,641	-4,578	244,369	121,010
93,655	-5,091	244,378	120,575
94,670	-4,942	243,997	120,501
95,684	-4,964	243,853	120,400
96,699	-4,853	243,575	120,345
97,714	-5,039	243,464	120,124
98,728	-5,085	243,230	119,959
99,743	-5,031	242,856	119,809
100,757	-5,311	242,858	119,567
101,772	-5,053	242,707	119,697
102,787	-4,904	242,424	119,670
103,801	-5,126	242,322	119,425
104,816	-4,850	242,295	119,630
105,830	-4,665	242,004	119,628
106,845	-4,843	242,092	119,514
107,860	-4,677	241,698	119,446
108,874	-4,748	241,445	119,252
109,889	-4,765	241,141	119,077
110,903	-4,923	241,017	118,875
111,918	-4,976	240,926	118,775
112,933	-4,940	240,711	118,689
113,947	-5,160	240,721	118,502
114,962	-4,828	240,460	118,636
115,976	-4,814	240,346	118,581
116,991	-4,594	240,110	118,634
118,006	-4,943	239,987	118,276
119,020	-4,783	239,791	118,301
120,035	-4,729	239,729	118,304
121,049	-4,634	239,471	118,244
122,064	-4,960	239,400	117,931
123,079	-4,834	239,128	117,890
124,093	-4,916	238,880	117,690
125,108	-5,161	238,774	117,427
126,122	-5,361	238,579	117,158
127,137	-5,317	238,202	116,998
128,151	-5,342	238,257	116,994
129,166	-5,062	237,889	117,031
130,181	-5,248	237,833	116,841
131,195	-5,141	237,673	116,839
132,210	-5,280	237,481	116,621
133,224	-5,075	237,193	116,636
134,239	-4,830	237,109	116,783
135,254	-4,828	237,009	116,725
136,268	-4,937	236,646	116,447
137,283	-5,282	236,494	116,084
138,297	-5,237	236,172	115,951
139,312	-5,415	236,101	115,763
140,327	-4,907	236,137	116,180
141,341	-4,570	236,080	116,413
142,356	-4,600	235,987	116,333
143,370	-4,596	235,821	116,243
144,385	-4,387	235,624	116,304
145,400	-4,474	235,443	116,134
146,414	-4,708	235,398	115,914
147,429	-4,588	235,024	115,815
148,443	-4,698	234,875	115,644
149,458	-4,504	234,748	115,726
150,473	-4,528	234,550	115,599
151,487	-4,648	234,325	115,382
152,502	-4,490	234,215	115,443
153,516	-4,314	234,044	115,490
154,531	-4,350	233,886	115,372
155,546	-4,804	233,691	114,904
156,560	-4,734	233,611	114,911
157,575	-4,892	233,386	114,664
158,589	-4,720	233,166	114,682
159,604	-4,520	233,052	114,775
160,619	-4,373	232,847	114,780
161,633	-4,414	232,806	114,718
162,648	-4,485	232,801	114,648
163,662	-4,563	232,541	114,448
164,677	-4,786	232,340	114,162
165,692	-4,681	232,198	114,166
166,706	-4,327	231,926	114,302
167,721	-4,335	231,844	114,244
168,735	-4,295	231,644	114,167
169,750	-4,544	231,681	113,979
170,764	-4,604	231,332	113,750
171,779	-4,553	231,166	113,698
172,794	-4,434	231,129	113,764
173,808	-4,420	230,833	113,619
174,823	-5,113	230,593	112,947
175,837	-5,187	230,435	112,801
176,852	-4,860	230,341	113,002
177,867	-4,622	230,323	113,169
178,881	-4,549	230,143	113,128
179,896	-4,450	230,014	113,132
180,910	-4,538	229,844	112,969
181,925	-4,327	229,639	113,022
182,940	-4,534	229,538	112,801
183,954	-4,503	229,475	112,784
184,969	-4,329	229,291	112,820
185,983	-4,264	229,130	112,781
186,998	-4,503	228,959	112,501
188,013	-4,097	228,915	112,785
189,027	-4,243	228,670	112,541
190,042	-4,372	228,582	112,388
191,056	-4,544	228,478	112,193
192,071	-4,482	228,197	112,093
193,086	-4,483	228,063	112,016
194,100	-4,311	227,759	111,990
195,115	-4,875	227,635	111,483
196,129	-5,322	227,421	111,023
197,144	-1,579	228,481	114,433
198,159	2,554	229,717	118,255
199,173	4,267	229,915	119,677
200,188	4,415	229,798	119,721
201,202	4,468	229,737	119,720
202,217	4,604	229,616	119,751
203,232	4,762	229,521	119,813
204,246	4,783	229,343	119,726
205,261	4,952	229,324	119,836
206,275	5,008	229,274	119,843
207,290	5,129	228,963	119,763
208,304	5,140	228,773	119,662
209,319	5,032	228,633	119,494
210,334	4,864	228,399	119,232
211,348	4,611	228,192	118,918
212,363	4,451	227,890	118,627
213,377	4,147	227,745	118,308
214,392	4,318	227,547	118,326
215,407	4,346	227,519	118,322
216,421	4,258	227,417	118,191
217,436	4,146	227,159	117,961
218,450	3,857	226,998	117,645
219,465	3,693	226,879	117,448
220,480	4,000	226,630	117,543
221,494	4,074	226,491	117,517
222,509	4,068	226,388	117,449
223,523	3,839	226,307	117,221
224,538	4,027	226,071	117,232
225,553	4,319	225,939	117,375
226,567	4,272	225,831	117,273
227,582	4,264	225,817	117,249
228,596	4,447	225,808	117,373
229,611	4,314	225,371	117,034
230,626	3,956	225,201	116,664
231,640	4,029	225,032	116,621
232,655	4,224	224,957	116,720
233,669	4,448	224,910	116,855
234,684	4,966	224,836	117,198
235,699	4,619	224,650	116,828
236,713	4,263	224,427	116,432
237,728	4,042	224,360	116,221
238,742	4,253	223,982	116,174
239,757	4,285	223,891	116,140
240,772	4,012	223,924	115,941
241,786	4,041	223,661	115,817
242,801	4,259	223,578	115,928
243,815	4,468	223,479	116,022
244,830	4,505	223,333	115,964
245,844	4,143	223,079	115,551
246,859	4,178	222,985	115,518
247,874	4,580	222,730	115,677
248,888	4,440	222,667	115,528
249,903	4,162	222,573	115,262
250,917	4,285	222,424	115,266
251,932	4,203	222,199	115,077
252,947	3,939	222,104	114,821
253,961	3,990	221,900	114,744
254,976	4,196	221,727	114,798
255,990	4,162	221,745	114,771
257,005	4,330	221,465	114,741
258,020	4,302	221,474	114,714
259,034	4,521	221,359	114,808
260,049	4,501	221,103	114,649
261,063	4,327	220,998	114,456
262,078	4,303	220,895	114,374
263,093	4,655	220,779	114,565
264,107	4,509	220,569	114,338
265,122	4,765	220,360	114,408
266,136	4,595	220,331	114,258
267,151	4,665	220,223	114,244
268,166	4,158	219,928	113,706
269,180	3,873	219,773	113,406
270,195	3,999	219,551	113,374
271,209	4,154	219,382	113,390
272,224	4,179	219,321	113,367
273,239	4,281	219,275	113,408
274,253	4,178	219,079	113,221
275,268	4,048	218,824	112,984
276,282	3,916	218,656	112,790
277,297	4,032	218,452	112,760
278,312	3,901	218,492	112,674
279,326	3,921	218,378	112,620
280,341	3,933	218,233	112,545
281,355	4,396	218,038	112,772
282,370	4,234	218,004	112,626
283,384	4,068	217,755	112,366
284,399	3,955	217,573	112,180
285,414	3,833	217,492	112,039
286,428	4,013	217,412	112,119
287,443	4,159	217,308	112,162
288,457	4,183	217,212	112,120
289,472	3,988	216,958	111,837
290,487	3,728	216,705	111,508
291,501	3,758	216,534	111,431
292,516	4,029	216,409	111,554
293,530	4,008	216,335	111,490
294,545	3,948	216,306	111,422
295,560	3,855	216,203	111,292
296,574	4,060	216,054	111,353
297,589	3,874	215,872	111,115
298,603	4,127	215,789	111,245
299,618	4,284	215,629	111,266
300,633	4,308	215,449	111,181
301,647	4,259	215,438	111,130
302,662	4,460	215,218	111,152
303,676	4,433	215,238	111,132
304,691	4,375	215,020	110,968
305,706	4,331	214,923	110,876
306,720	4,289	214,675	110,708
307,735	4,200	214,587	110,589
308,749	4,193	214,353	110,454
309,764	4,302	214,224	110,455
310,779	4,299	214,206	110,434
311,793	4,381	214,126	110,442
312,808	4,244	213,852	110,192
313,822	4,087	213,730	110,008
314,837	4,145	213,544	109,944
315,852	3,913	213,411	109,701
316,866	4,261	213,122	109,789
317,881	4,470	213,093	109,914
318,895	4,367	213,040	109,803
319,910	4,224	212,846	109,592
320,925	4,010	212,626	109,316
321,939	3,522	212,437	108,863
322,954	3,659	212,401	108,933
323,968	4,309	212,339	109,352
324,983	4,221	212,272	109,245
325,997	4,360	212,122	109,257
327,012	4,161	211,920	109,002
328,027	3,994	211,923	108,876
329,041	4,694	211,802	109,299
330,056	4,506	211,776	109,143
331,070	4,287	211,368	108,769
332,085	3,955	211,175	108,425
333,100	4,137	210,941	108,423
334,114	3,926	210,994	108,293
335,129	3,880	210,770	108,136
336,143	3,608	210,604	107,850
337,158	3,746	210,522	107,895
338,173	4,130	210,389	108,087
339,187	3,855	210,252	107,814
340,202	3,605	210,104	107,553
341,216	3,831	209,889	107,592
342,231	3,890	209,899	107,628
343,246	4,029	209,670	107,599
344,260	3,740	209,598	107,351
345,275	3,859	209,508	107,378
346,289	4,240	209,479	107,619
347,304	4,400	209,270	107,614
348,319	4,120	209,050	107,296
349,333	3,981	209,010	107,169
350,348	4,010	208,890	107,119
351,362	4,329	208,791	107,280
352,377	4,176	208,599	107,065
353,392	4,148	208,542	107,007
354,406	4,087	208,369	106,866
355,421	194,531	1346,307	1437,296
356,435	155,234	1485,057	1437,420
