DTS Sentinel unit serial number:	SN410029Multiplexer serial number:	ORYXHardware model number:	OX2-SRSoftware version number:	ORYX F/W v4,00 Oryx Data Collector v3.7.2.0data status	okinstallation	B6 Nyhavnadifferential loss correction	single-endedforward channel	channel 2reverse channel	N/Adate	2023/12/10time	06:05:08forward acquisition time	300,00reverse acquisition time	0,00gamma	499,1914k internal	0,3124k external	0,3124temperature offset calibration	1,0000default loss term (dB/km)	0,3820temperature slope calibration	1,0000multiplexer offset coefficient	1,0000multiplexer slope coefficient	1,0000fibre end	0,00T internal ref (°C)	22,55T ext. ref 1 (°C)	6,48T ext. ref 2 (°C)	6,46length (m)	temperature (°C)	Stokes	anti-Stokes-744,400	-115,706	-0,106	-0,015
-743,385	28,545	-0,173	0,109
-742,371	-200,000	-0,021	-0,163
-741,356	-89,395	-0,179	0,039
-740,342	152,751	0,080	0,081
-739,327	-121,492	-0,114	-0,014
-738,312	-25,227	0,155	-0,068
-737,298	110,045	-0,237	0,212
-736,283	-200,000	-0,026	-0,133
-735,269	-58,899	-0,210	0,067
-734,254	185,244	0,058	0,064
-733,239	-88,414	-0,360	-0,079
-732,225	-40,386	0,129	0,050
-731,210	-200,000	-0,026	0,098
-730,196	-200,000	-0,032	-0,141
-729,181	318,058	-0,022	-0,031
-728,167	38,990	0,068	0,045
-727,152	178,885	-0,146	-0,159
-726,137	-181,149	-0,084	-0,001
-725,123	800,000	-0,022	-0,047
-724,108	288,204	0,033	0,044
-723,094	-200,000	0,014	0,056
-722,079	-146,347	-0,195	0,012
-721,064	27,520	-0,044	0,028
-720,050	-200,000	0,006	0,023
-719,035	-200,000	0,010	-0,121
-718,021	800,000	0,036	-0,098
-717,006	-200,000	-0,015	-0,107
-715,991	-75,567	-0,173	-0,045
-714,977	426,993	0,057	-0,092
-713,962	162,221	-0,027	-0,028
-712,948	-54,790	0,055	-0,018
-711,933	-130,453	0,078	0,008
-710,918	346,628	0,090	-0,133
-709,904	-200,000	0,025	-0,086
-708,889	-131,968	-0,064	0,006
-707,875	-86,071	-0,117	-0,027
-706,860	520,135	-0,031	0,054
-705,845	800,000	0,018	0,037
-704,831	-0,210	-0,164	0,086
-703,816	23,637	-0,076	-0,047
-702,802	190,741	0,047	-0,053
-701,787	-96,342	-0,083	0,016
-700,772	-53,157	-0,112	-0,038
-699,758	17,312	-0,133	-0,079
-698,743	-200,000	-0,017	0,135
-697,729	800,000	0,101	0,249
-696,714	-7,087	0,108	-0,054
-695,699	125,091	0,038	0,036
-694,685	-94,822	-0,185	-0,037
-693,670	-50,637	0,066	0,023
-692,656	800,000	-0,045	-0,147
-691,641	68,829	0,021	-0,016
-690,627	-164,954	0,103	0,003
-689,612	-41,620	0,111	-0,042
-688,597	38,905	0,067	-0,045
-687,583	106,468	-0,068	0,060
-686,568	40,248	-0,095	-0,064
-685,554	-98,206	0,049	-0,009
-684,539	800,000	0,023	0,066
-683,524	-200,000	0,033	-0,118
-682,510	-24,977	-0,080	0,035
-681,495	112,947	-0,150	0,135
-680,481	-66,971	-0,166	-0,048
-679,466	10,226	0,069	-0,039
-678,451	-127,982	0,079	-0,008
-677,437	412,664	0,045	0,071
-676,422	-200,000	0,013	-0,123
-675,408	-153,064	-0,089	-0,005
-674,393	-113,437	-0,183	-0,026
-673,378	118,050	-0,174	-0,159
-672,364	146,065	-0,096	-0,096
-671,349	800,000	0,017	-0,055
-670,335	31,714	0,036	-0,023
-669,320	129,261	0,058	-0,055
-668,305	-200,000	0,011	0,043
-667,291	100,471	-0,087	-0,075
-666,276	263,621	0,051	-0,066
-665,262	-200,000	0,003	0,029
-664,247	121,822	-0,049	-0,045
-663,232	-148,438	-0,061	0,004
-662,218	43,685	0,070	0,048
-661,203	-200,000	-0,026	0,102
-660,189	-114,100	0,150	-0,021
-659,174	284,346	-0,078	-0,104
-658,159	478,026	-0,055	0,093
-657,145	-33,949	-0,058	-0,024
-656,130	-4,028	-0,110	0,056
-655,116	15,368	-0,104	-0,061
-654,101	-30,269	0,113	0,048
-653,086	-1,351	0,129	0,067
-652,072	714,754	0,053	0,104
-651,057	461,407	-0,057	-0,095
-650,043	800,000	0,018	-0,044
-649,028	800,000	-0,009	0,028
-648,014	327,446	-0,024	0,035
-646,999	-200,000	0,011	0,085
-645,984	7,456	-0,061	0,034
-644,970	467,438	0,034	0,057
-643,955	800,000	-0,025	-0,079
-642,941	-200,000	-0,041	-0,167
-641,926	126,344	-0,100	-0,094
-640,911	238,076	-0,044	-0,055
-639,897	800,000	-0,004	-0,009
-638,882	-200,000	-0,008	0,033
-637,868	-37,534	-0,065	-0,025
-636,853	-132,466	0,131	-0,012
-635,838	61,100	-0,090	0,066
-634,824	351,217	-0,109	-0,160
-633,809	352,325	0,014	0,021
-632,795	46,787	-0,082	-0,056
-631,780	605,584	0,069	-0,128
-630,765	127,827	-0,026	0,024
-629,751	178,036	-0,106	-0,115
-628,736	200,692	-0,034	0,039
-627,722	-67,500	0,141	0,041
-626,707	188,722	0,035	-0,039
-625,692	-43,016	0,204	-0,076
-624,678	800,000	-0,013	0,038
-623,663	115,976	-0,037	-0,033
-622,649	-200,000	0,024	-0,098
-621,634	152,498	0,025	0,026
-620,619	330,939	-0,037	0,054
-619,605	52,960	-0,100	0,071
-618,590	800,000	-0,043	0,092
-617,576	-120,341	0,066	-0,008
-616,561	-200,000	0,005	-0,061
-615,546	-105,091	-0,168	0,028
-614,532	143,256	-0,068	-0,068
-613,517	-200,000	-0,004	-0,051
-612,503	800,000	-0,013	0,038
-611,488	-14,254	0,047	0,022
-610,474	-80,025	-0,046	-0,011
-609,459	10,437	-0,121	-0,068
-608,444	-117,804	-0,081	-0,011
-607,430	656,543	-0,009	-0,018
-606,415	490,315	0,094	0,160
-605,401	-200,000	-0,013	0,089
-604,386	-75,810	0,121	-0,031
-603,371	-194,463	0,188	0,001
-602,357	-200,000	-0,096	0,000
-601,342	-99,834	-0,020	-0,004
-600,328	-200,000	-0,008	-0,029
-599,313	398,717	0,036	-0,056
-598,298	123,883	-0,029	0,027
-597,284	-72,673	0,078	0,021
-596,269	800,000	-0,025	0,079
-595,255	800,000	0,051	0,106
-594,240	-200,000	0,031	-0,158
-593,225	-200,000	0,025	-0,102
-592,211	250,747	-0,097	0,123
-591,196	-147,443	0,095	-0,006
-590,182	-87,562	-0,030	-0,007
-589,167	800,000	0,037	-0,086
-588,152	272,998	-0,055	0,073
-587,138	58,386	0,031	-0,023
-586,123	799,472	-0,042	-0,086
-585,109	-147,981	-0,105	0,006
-584,094	129,850	-0,037	-0,035
-583,079	800,000	-0,047	-0,119
-582,065	-98,139	0,010	-0,002
-581,050	-100,924	0,117	-0,021
-580,036	184,681	-0,049	0,053
-579,021	729,428	-0,046	-0,091
-578,006	312,266	0,084	-0,116
-576,992	146,309	0,055	0,055
-575,977	-9,986	0,086	-0,042
-574,963	19,600	-0,072	0,043
-573,948	-115,553	0,040	0,005
-572,934	-127,636	-0,066	0,007
-571,919	-200,000	-0,026	-0,150
-570,904	-138,530	-0,082	-0,007
-569,890	-64,354	-0,119	-0,036
-568,875	-200,000	-0,011	-0,063
-567,861	78,648	0,062	-0,049
-566,846	-26,341	0,107	0,046
-565,831	665,197	-0,055	0,105
-564,817	547,682	0,050	-0,089
-563,802	800,000	-0,045	-0,115
-562,788	-200,000	-0,001	-0,006
-561,773	21,236	0,195	-0,117
-560,758	-200,000	0,001	-0,008
-559,744	18,466	0,209	0,123
-558,729	165,367	0,035	-0,037
-557,715	-200,000	-0,014	0,063
-556,700	-164,986	0,033	0,001
-555,685	-200,000	0,005	-0,161
-554,671	41,770	0,018	0,012
-553,656	-108,009	0,278	-0,044
-552,642	-200,000	0,016	0,126
-551,627	84,554	-0,109	0,089
-550,612	230,609	0,039	-0,047
-549,598	-8,906	0,019	0,009
-548,583	228,802	0,052	-0,063
-547,569	-11,305	0,041	0,020
-546,554	357,835	-0,013	-0,019
-545,539	794,838	-0,033	0,068
-544,525	800,000	-0,045	0,096
-543,510	-200,000	-0,021	0,091
-542,496	-146,334	-0,137	-0,009
-541,481	-200,000	-0,011	-0,103
-540,466	46,489	0,072	-0,049
-539,452	-59,789	0,119	-0,037
-538,437	151,082	0,020	0,020
-537,423	-200,000	-0,001	0,011
-536,408	120,848	-0,090	0,083
-535,393	-200,000	0,008	0,087
-534,379	404,664	-0,094	-0,147
-533,364	800,000	-0,036	-0,079
-532,350	-200,000	0,007	0,118
-531,335	133,722	-0,033	-0,031
-530,321	200,581	-0,082	-0,093
-529,306	800,000	-0,026	-0,060
-528,291	800,000	-0,048	-0,121
-527,277	-62,308	-0,104	0,032
-526,262	-36,272	0,067	-0,027
-525,248	39,012	0,069	0,046
-524,233	370,121	-0,085	-0,128
-523,218	-200,000	-0,028	0,102
-522,204	800,000	0,013	-0,042
-521,189	40,933	-0,102	-0,068
-520,175	-200,000	-0,013	-0,128
-519,160	-200,000	-0,006	-0,080
-518,145	800,000	0,067	0,151
-517,131	-114,004	0,152	-0,022
-516,116	143,855	0,130	0,128
-515,102	257,112	-0,053	0,067
-514,087	-21,313	0,041	0,019
-513,072	800,000	0,064	-0,142
-512,058	-200,000	-0,017	0,070
-511,043	-144,696	0,043	0,003
-510,029	-200,000	-0,016	-0,058
-509,014	800,000	-0,048	0,135
-507,999	-58,000	-0,123	0,039
-506,985	-200,000	0,013	-0,103
-505,970	800,000	-0,031	-0,089
-504,956	-69,840	-0,059	0,016
-503,941	-55,863	0,069	0,023
-502,926	109,850	0,069	0,061
-501,912	-200,000	0,001	0,063
-500,897	-44,040	0,016	0,006
-499,883	385,592	-0,053	0,082
-498,868	-58,087	-0,149	-0,048
-497,853	-200,000	-0,024	-0,144
-496,839	-140,646	-0,042	-0,003
-495,824	683,086	0,085	0,165
-494,810	-200,000	0,002	0,092
-493,795	141,672	-0,095	0,093
-492,781	-200,000	-0,014	0,073
-491,766	193,622	-0,086	-0,096
-490,751	800,000	-0,024	-0,060
-489,737	30,749	0,020	-0,013
-488,722	-200,000	0,015	0,100
-487,708	-200,000	0,000	-0,044
-486,693	-200,000	-0,023	0,079
-485,678	-200,000	0,030	0,207
-484,664	-84,432	0,079	0,018
-483,649	-84,547	0,034	0,008
-482,635	-89,235	-0,160	0,035
-481,620	96,223	0,062	-0,053
-480,605	347,814	0,061	0,089
-479,591	800,000	0,029	-0,075
-478,576	-107,880	0,201	0,032
-477,562	161,869	-0,150	-0,155
-476,547	-200,000	0,003	-0,191
-475,532	-200,000	0,010	0,044
-474,518	355,364	0,033	0,049
-473,503	90,958	-0,019	0,016
-472,489	128,368	-0,080	-0,075
-471,474	-200,000	0,023	0,094
-470,459	15,864	0,018	0,010
-469,445	800,000	-0,027	-0,058
-468,430	287,239	-0,074	0,099
-467,416	250,154	-0,067	0,084
-466,401	169,166	-0,050	0,052
-465,386	800,000	-0,063	0,134
-464,372	-66,022	0,075	-0,022
-463,357	462,302	0,032	-0,053
-462,343	-62,066	-0,189	-0,058
-461,328	116,490	-0,108	-0,098
-460,313	-200,000	0,010	-0,039
-459,299	-105,748	0,092	-0,015
-458,284	55,290	-0,048	-0,034
-457,270	-141,943	-0,060	-0,004
-456,255	673,155	-0,038	-0,073
-455,241	79,154	0,032	0,025
-454,226	0,977	0,030	-0,016
-453,211	800,000	-0,027	0,061
-452,197	-127,583	0,059	0,006
-451,182	6,687	0,078	-0,043
-450,168	-200,000	0,002	0,070
-449,153	-200,000	0,026	0,098
-448,138	-200,000	0,016	-0,095
-447,124	-93,866	-0,112	0,022
-446,109	62,334	0,063	0,046
-445,095	800,000	-0,015	-0,035
-444,080	800,000	0,036	0,080
-443,065	-200,000	0,030	0,101
-442,051	120,810	-0,076	-0,069
-441,036	-2,842	-0,024	-0,012
-440,022	800,000	-0,020	0,051
-439,007	-163,010	-0,145	-0,005
-437,992	216,706	-0,040	0,047
-436,978	214,096	0,048	0,056
-435,963	-200,000	0,003	0,114
-434,949	0,104	-0,053	0,028
-433,934	-200,000	-0,011	-0,062
-432,919	800,000	-0,056	0,127
-431,905	289,179	-0,012	-0,016
-430,890	-200,000	-0,001	0,044
-429,876	-200,000	0,008	0,059
-428,861	-89,648	0,102	-0,022
-427,846	-97,532	-0,088	-0,017
-426,832	-200,000	-0,001	-0,013
-425,817	21,978	-0,076	0,046
-424,803	347,322	-0,023	-0,033
-423,788	-200,000	-0,010	-0,115
-422,773	94,793	0,130	-0,109
-421,759	-200,000	0,014	0,175
-420,744	628,895	-0,032	-0,060
-419,730	-200,000	-0,005	-0,049
-418,715	-53,544	-0,079	-0,026
-417,701	-17,275	-0,131	-0,061
-416,686	-169,866	0,096	0,002
-415,671	331,095	0,023	0,033
-414,657	800,000	0,041	0,104
-413,642	-48,871	0,131	0,046
-412,628	-200,000	-0,013	-0,111
-411,613	-200,000	-0,033	-0,184
-410,598	251,773	0,099	-0,124
-409,584	-200,000	-0,001	0,150
-408,569	3,466	-0,105	0,056
-407,555	-200,000	0,017	0,094
-406,540	5,192	0,098	0,053
-405,525	131,611	0,094	0,089
-404,511	-62,193	-0,047	0,014
-403,496	-151,908	-0,054	-0,003
-402,482	14,646	0,113	-0,065
-401,467	800,000	0,054	0,118
-400,452	-200,000	0,009	0,043
-399,438	-200,000	-0,022	0,108
-398,423	145,502	-0,031	-0,030
-397,409	200,267	0,078	-0,088
-396,394	-200,000	0,013	0,095
-395,379	17,601	-0,106	0,062
-394,365	58,786	-0,079	0,057
-393,350	-200,000	-0,021	0,092
-392,336	800,000	0,061	0,157
-391,321	420,263	0,020	-0,031
-390,306	-39,613	-0,065	0,025
-389,292	-200,000	-0,032	-0,146
-388,277	-124,055	-0,088	0,010
-387,263	666,001	-0,022	-0,043
-386,248	-9,921	0,053	-0,026
-385,233	-91,923	0,080	0,016
-384,219	1,141	-0,100	-0,053
-383,204	800,000	-0,020	0,043
-382,190	57,377	-0,063	-0,045
-381,175	218,378	0,081	-0,095
-380,160	45,688	0,120	0,081
-379,146	-200,000	0,019	-0,079
-378,131	57,510	0,073	-0,052
-377,117	173,911	0,053	-0,056
-376,102	-96,432	-0,123	-0,024
-375,088	150,386	-0,058	-0,058
-374,073	5,870	-0,060	-0,033
-373,058	-200,000	-0,011	-0,069
-372,044	-133,740	0,085	0,008
-371,029	-134,408	0,099	0,009
-370,015	54,248	0,032	0,022
-369,000	800,000	-0,045	0,130
-367,985	-13,313	-0,022	-0,010
-366,971	-200,000	-0,020	-0,109
-365,956	368,855	-0,057	0,085
-364,942	-114,704	-0,050	0,007
-363,927	-55,148	0,079	0,026
-362,912	345,280	-0,055	-0,079
-361,898	-93,317	-0,098	-0,020
-360,883	91,617	-0,071	-0,059
-359,869	27,955	0,177	-0,109
-358,854	800,000	0,023	0,058
-357,839	15,953	0,059	0,034
-356,825	189,029	-0,075	0,082
-355,810	-109,911	0,076	-0,012
-354,796	509,004	-0,032	-0,055
-353,781	-72,675	-0,169	-0,045
-352,766	66,571	0,062	0,046
-351,752	7,407	0,076	0,042
-350,737	-57,445	0,096	-0,031
-349,723	61,895	-0,043	-0,032
-348,708	-62,029	0,058	-0,018
-347,693	2,947	-0,081	0,043
-346,679	251,844	-0,007	-0,009
-345,664	332,631	0,033	-0,047
-344,650	800,000	-0,022	-0,046
-343,635	800,000	0,047	-0,140
-342,620	26,875	0,101	0,062
-341,606	245,969	-0,025	-0,031
-340,591	-108,411	0,143	0,022
-339,577	-141,758	0,036	0,003
-338,562	-200,000	0,002	-0,095
-337,548	98,978	0,135	0,114
-336,533	361,500	-0,009	0,014
-335,518	-200,000	0,015	-0,092
-334,504	800,000	-0,063	0,165
-333,489	-200,000	0,024	-0,175
-332,475	683,920	0,089	-0,171
-331,460	134,576	0,040	0,038
-330,445	39,657	-0,033	0,022
-329,431	-200,000	0,006	0,083
-328,416	-200,000	-0,054	0,198
-327,402	-200,000	-0,000	0,034
-326,387	-36,605	0,044	0,017
-325,372	-200,000	-0,002	-0,155
-324,358	201,960	0,072	-0,082
-323,343	-200,000	-0,033	0,107
-322,329	215,489	0,047	-0,054
-321,314	130,474	0,064	0,060
-320,299	-23,931	0,050	-0,022
-319,285	-165,101	0,105	0,003
-318,270	-128,190	-0,007	0,001
-317,256	-200,000	-0,014	0,065
-316,241	-26,971	-0,078	-0,033
-315,226	354,887	0,041	-0,060
-314,212	-200,000	0,010	0,047
-313,197	-200,000	0,056	0,208
-312,183	169,870	0,007	0,007
-311,168	-200,000	-0,012	0,039
-310,153	95,300	-0,014	-0,011
-309,139	800,000	-0,022	-0,046
-308,124	-200,000	-0,005	0,028
-307,110	316,703	-0,050	0,070
-306,095	763,629	0,054	0,108
-305,080	-51,523	-0,073	0,025
-304,066	-200,000	-0,047	-0,184
-303,051	52,054	-0,104	-0,073
-302,037	-69,519	-0,072	-0,020
-301,022	-200,000	0,011	-0,062
-300,008	-200,000	-0,009	0,156
-298,993	-200,000	0,009	0,134
-297,978	-200,000	-0,031	-0,102
-296,964	-200,000	-0,007	-0,080
-295,949	-124,232	0,089	-0,010
-294,935	189,856	0,046	-0,050
-293,920	274,220	-0,013	-0,017
-292,905	-126,092	0,169	0,018
-291,891	-120,627	0,080	0,010
-290,876	106,392	0,037	0,032
-289,862	800,000	-0,034	0,077
-288,847	385,638	-0,023	-0,035
-287,832	30,340	-0,075	-0,047
-286,818	800,000	0,053	-0,114
-285,803	144,745	0,046	0,045
-284,789	69,209	0,101	-0,076
-283,774	-200,000	0,023	0,104
-282,759	657,453	0,063	-0,120
-281,745	73,885	-0,080	-0,061
-280,730	-200,000	-0,004	0,063
-279,716	-200,000	-0,041	-0,158
-278,701	-41,991	0,222	0,083
-277,686	69,257	0,053	0,040
-276,672	-17,496	0,077	0,035
-275,657	-80,443	0,044	0,011
-274,643	-59,933	-0,088	-0,027
-273,628	221,368	0,060	-0,071
-272,613	100,127	-0,045	-0,038
-271,599	-200,000	0,022	0,099
-270,584	-130,209	0,108	0,011
-269,570	4,713	-0,073	0,039
-268,555	800,000	-0,051	0,109
-267,540	0,778	0,092	-0,048
-266,526	800,000	-0,050	-0,107
-265,511	234,421	0,026	0,031
-264,497	-122,968	-0,055	0,006
-263,482	-200,000	-0,011	0,039
-262,467	290,151	-0,030	-0,039
-261,453	4,396	-0,050	-0,027
-260,438	-81,101	-0,144	-0,034
-259,424	74,066	-0,024	0,019
-258,409	800,000	-0,017	-0,039
-257,395	36,032	-0,058	-0,037
-256,380	-74,540	0,123	0,032
-255,365	-200,000	0,004	0,104
-254,351	-200,000	0,011	0,105
-253,336	47,550	0,052	-0,036
-252,322	-28,459	0,051	-0,021
-251,307	149,968	0,047	-0,047
-250,292	-29,839	0,078	-0,032
-249,278	278,525	-0,065	0,085
-248,263	800,000	-0,049	0,119
-247,249	-200,000	0,017	0,247
-246,234	75,564	-0,084	-0,064
-245,219	738,228	-0,052	-0,102
-244,205	-144,551	-0,050	-0,003
-243,190	161,286	-0,021	0,022
-242,176	43,458	0,095	-0,063
-241,161	-53,818	0,045	0,015
-240,146	-53,608	-0,178	0,059
-239,132	-44,217	-0,078	0,029
-238,117	526,687	-0,053	0,092
-237,103	-76,840	-0,122	-0,031
-236,088	800,000	-0,022	-0,057
-235,073	13,369	0,055	-0,031
-234,059	56,131	-0,046	-0,033
-233,044	-76,716	-0,051	-0,013
-232,030	530,622	-0,044	0,077
-231,015	298,290	-0,047	0,063
-230,000	-200,000	-0,014	0,079
-228,986	530,042	0,008	0,013
-227,971	800,000	0,053	-0,140
-226,957	-200,000	0,006	0,076
-225,942	-200,000	0,005	-0,045
-224,927	688,463	0,033	-0,064
-223,913	198,043	-0,052	0,058
-222,898	482,887	-0,041	-0,068
-221,884	-170,808	0,110	-0,003
-220,869	210,309	0,071	-0,082
-219,855	91,921	0,129	-0,106
-218,840	-50,588	0,134	-0,046
-217,825	800,000	-0,055	0,129
-216,811	-62,212	0,151	-0,046
-215,796	-200,000	0,003	0,165
-214,782	-200,000	-0,001	-0,028
-213,767	300,227	-0,090	-0,121
-212,752	800,000	0,045	-0,130
-211,738	99,258	-0,042	0,036
-210,723	629,172	-0,029	-0,054
-209,709	111,762	-0,062	0,055
-208,694	75,230	0,024	-0,018
-207,679	-21,119	-0,151	0,067
-206,665	136,540	0,062	0,059
-205,650	398,102	-0,028	-0,043
-204,636	-200,000	-0,007	0,133
-203,621	-200,000	0,016	0,150
-202,606	167,250	0,066	-0,068
-201,592	-88,118	-0,142	-0,031
-200,577	165,642	-0,033	-0,034
-199,563	-84,855	-0,020	-0,005
-198,548	-49,267	0,104	-0,036
-197,533	-159,649	0,161	0,006
-196,519	-200,000	0,029	0,131
-195,504	800,000	0,036	0,110
-194,490	-99,031	-0,056	0,010
-193,475	556,858	-0,068	0,120
-192,460	156,376	0,059	0,060
-191,446	180,946	-0,029	0,032
-190,431	-200,000	-0,010	0,059
-189,417	-200,000	0,005	0,049
-188,402	125,630	-0,059	0,055
-187,387	-200,000	-0,006	-0,152
-186,373	-200,000	-0,008	-0,087
-185,358	382,698	0,049	0,073
-184,344	-146,063	0,064	0,004
-183,329	208,520	0,060	-0,069
-182,315	800,000	-0,036	-0,083
-181,300	244,322	0,035	-0,043
-180,285	255,655	-0,029	-0,036
-179,271	-120,029	0,100	-0,012
-178,256	-200,000	-0,003	0,145
-177,242	-102,692	0,066	0,011
-176,227	195,238	-0,015	0,017
-175,212	-41,061	0,039	-0,015
-174,198	784,620	0,070	-0,140
-173,183	-200,000	-0,014	-0,068
-172,169	-58,744	-0,164	-0,051
-171,154	203,351	-0,070	-0,079
-170,139	195,299	0,085	0,094
-169,125	38,443	-0,040	0,026
-168,110	-86,616	-0,044	0,010
-167,096	-171,411	0,077	-0,002
-166,081	7,694	-0,165	-0,090
-165,066	280,169	0,033	-0,044
-164,052	-200,000	0,001	-0,029
-163,037	-200,000	0,012	0,170
-162,023	-168,177	0,081	0,002
-161,008	800,000	-0,026	0,066
-159,993	800,000	-0,021	0,054
-158,979	234,574	-0,079	-0,095
-157,964	-142,498	-0,143	-0,010
-156,950	703,715	-0,033	-0,063
-155,935	-48,075	0,040	0,014
-154,920	-200,000	-0,015	0,118
-153,906	619,670	0,056	0,103
-152,891	-81,289	-0,040	-0,010
-151,877	-12,699	-0,072	-0,034
-150,862	-200,000	-0,025	-0,169
-149,847	-131,645	-0,104	-0,010
-148,833	-30,457	0,108	-0,045
-147,818	596,145	-0,077	0,140
-146,804	-34,993	0,021	0,008
-145,789	-83,578	0,097	-0,022
-144,775	23,723	0,052	-0,031
-143,760	-200,000	0,003	0,107
-142,745	79,282	-0,023	-0,018
-141,731	800,000	0,013	0,039
-140,716	602,712	0,022	0,039
-139,702	-62,718	0,120	-0,036
-138,687	170,964	-0,051	-0,053
-137,672	800,000	-0,011	0,034
-136,658	-146,172	-0,033	0,002
-135,643	-200,000	-0,001	-0,065
-134,629	247,859	-0,045	-0,055
-133,614	554,009	-0,105	0,184
-132,599	-21,234	0,143	0,063
-131,585	-200,000	0,009	-0,119
-130,570	-200,000	-0,010	-0,145
-129,556	800,000	-0,032	-0,077
-128,541	-28,017	-0,029	-0,012
-127,526	-33,503	-0,038	0,015
-126,512	37,123	-0,112	0,072
-125,497	-121,749	0,097	-0,012
-124,483	101,292	-0,021	0,018
-123,468	-200,000	-0,027	0,195
-122,453	-21,315	-0,041	0,018
-121,439	-102,723	-0,156	-0,027
-120,424	-200,000	0,038	-0,140
-119,410	-29,711	-0,040	0,016
-118,395	-200,000	-0,043	-0,138
-117,380	-103,076	-0,084	-0,014
-116,366	-200,000	0,001	-0,046
-115,351	-53,953	0,071	-0,023
-114,337	103,759	0,018	0,016
-113,322	-119,274	-0,044	0,005
-112,307	-200,000	-0,007	-0,036
-111,293	362,138	-0,017	0,024
-110,278	-88,930	-0,069	0,015
-109,264	-200,000	-0,032	-0,112
-108,249	-200,000	-0,000	0,004
-107,234	-200,000	-0,002	-0,024
-106,220	-200,000	0,001	-0,051
-105,205	110,015	-0,078	0,068
-104,191	272,934	0,017	-0,022
-103,176	-200,000	-0,014	0,047
-102,162	-200,000	0,007	0,097
-101,147	800,000	0,040	0,093
-100,132	-116,045	-0,023	0,003
-99,118	-26,566	-0,097	-0,041
-98,103	-200,000	-0,028	0,191
-97,089	26,142	0,128	-0,078
-96,074	167,119	0,081	0,083
-95,059	196,549	0,012	-0,014
-94,045	-200,000	-0,006	-0,031
-93,030	-200,000	-0,006	0,119
-92,016	-35,753	-0,087	0,034
-91,001	63,546	-0,072	-0,052
-89,986	-200,000	0,007	0,080
-88,972	148,232	-0,054	0,053
-87,957	82,551	0,081	-0,064
-86,943	-200,000	-0,004	0,026
-85,928	-119,272	0,044	-0,006
-84,913	-77,667	-0,177	-0,044
-83,899	541,572	0,089	0,155
-82,884	-124,185	0,052	-0,006
-81,870	800,000	-0,039	0,103
-80,855	-54,584	-0,068	-0,022
-79,840	-200,000	-0,006	-0,103
-78,826	39,908	-0,124	0,080
-77,811	800,000	0,011	-0,026
-76,797	-200,000	-0,005	0,067
-75,782	-121,965	0,079	-0,009
-74,767	54,910	0,118	0,082
-73,753	-200,000	-0,020	-0,094
-72,738	480,523	-0,029	0,048
-71,724	-16,425	0,078	0,036
-70,709	28,228	-0,026	0,016
-69,694	-200,000	0,006	-0,087
-68,680	141,373	0,050	0,048
-67,665	-57,296	-0,038	-0,012
-66,651	102,994	-0,009	-0,007
-65,636	16,976	0,058	0,033
-64,622	-98,133	0,029	-0,005
-63,607	-200,000	-0,005	-0,095
-62,592	17,098	-0,091	0,052
-61,578	800,000	-0,020	0,059
-60,563	438,177	0,031	0,049
-59,549	-200,000	0,006	0,142
-58,534	-90,887	-1,336	-0,277
-57,519	485,939	-0,895	-1,486
-56,505	-200,000	-0,897	-4,418
-55,490	12,907	0,577	-0,322
-54,476	800,000	5,080	11,907
-53,461	-200,000	13,293	253,947
-52,446	-200,000	689,560	2268,565
-51,432	594,637	1623,241	2924,668
-50,417	120,656	1636,301	1475,202
-49,403	73,529	1290,003	978,871
-48,388	38,349	1024,923	660,971
-47,373	24,462	982,468	587,918
-46,359	23,686	972,294	579,262
-45,344	22,775	967,905	573,646
-44,330	22,722	966,482	572,607
-43,315	22,669	964,945	571,500
-42,300	22,509	964,209	570,521
-41,286	22,595	963,304	570,242
-40,271	22,595	962,193	569,562
-39,257	22,597	961,182	568,949
-38,242	22,514	960,399	568,191
-37,227	22,593	959,362	567,813
-36,213	22,557	958,499	567,163
-35,198	22,513	957,743	566,551
-34,184	22,580	957,073	566,349
-33,169	22,541	956,191	565,679
-32,154	22,635	955,090	565,308
-31,140	22,615	954,382	564,801
-30,125	22,614	953,598	564,311
-29,111	22,587	952,783	563,719
-28,096	22,581	952,115	563,285
-27,082	22,578	951,573	562,930
-26,067	22,587	950,594	562,360
-25,052	22,528	950,037	561,818
-24,038	22,634	949,216	561,649
-23,023	22,584	948,769	561,203
-22,009	22,592	948,043	560,776
-20,994	22,645	947,368	560,522
-19,979	22,610	946,795	560,051
-18,965	22,613	946,006	559,570
-17,950	22,643	945,574	559,388
-16,936	22,552	944,799	558,618
-15,921	22,520	944,150	558,111
-14,906	22,481	943,433	557,540
-13,892	22,503	942,866	557,252
-12,877	22,483	942,235	556,794
-11,863	22,496	941,431	556,338
-10,848	22,489	941,081	556,088
-9,833	22,565	940,597	556,021
-8,819	22,512	940,000	555,478
-7,804	22,442	939,263	554,799
-6,790	22,476	938,691	554,548
-5,775	22,501	938,154	554,288
-4,760	22,443	937,561	553,731
-3,746	22,440	936,867	553,289
-2,731	22,369	936,121	552,602
-1,717	22,222	935,624	551,822
-0,702	22,331	934,605	551,542
0,313	22,110	934,096	551,379
1,327	25,175	932,137	559,813
2,342	34,721	796,720	503,923
3,356	32,876	451,839	282,981
4,371	1,914	293,568	153,003
5,386	-2,746	274,554	138,675
6,400	-4,148	268,796	134,455
7,415	-4,428	266,492	133,033
8,429	-4,348	265,063	132,381
9,444	-4,166	264,532	132,270
10,459	-4,242	263,629	131,738
11,473	-4,357	263,115	131,365
12,488	-4,164	262,465	131,203
13,502	-4,483	262,056	130,699
14,517	-4,162	261,456	130,677
15,531	-4,379	261,209	130,347
16,546	-4,438	260,835	130,096
17,561	-4,348	260,514	130,004
18,575	-4,210	260,218	129,970
19,590	-4,511	259,880	129,519
20,604	-4,245	259,594	129,604
21,619	-4,349	259,234	129,319
22,634	-4,475	258,864	129,010
23,648	-4,434	258,444	128,826
24,663	-4,358	258,251	128,786
25,677	-4,403	258,119	128,668
26,692	-4,415	257,859	128,517
27,707	-4,503	257,620	128,308
28,721	-4,555	257,407	128,145
29,736	-4,505	256,935	127,942
30,750	-4,361	256,692	127,937
31,765	-4,361	256,420	127,791
32,780	-4,459	256,234	127,599
33,794	-4,385	256,140	127,607
34,809	-4,354	255,839	127,473
35,823	-4,499	255,635	127,232
36,838	-4,547	255,342	127,033
37,853	-4,697	255,106	126,772
38,867	-4,540	254,973	126,833
39,882	-4,371	254,679	126,824
40,896	-4,442	254,464	126,643
41,911	-4,391	254,196	126,543
42,926	-4,473	253,937	126,331
43,940	-4,602	253,806	126,142
44,955	-4,664	253,445	125,897
45,969	-4,636	253,306	125,841
46,984	-4,680	253,011	125,645
47,999	-4,920	252,855	125,348
49,013	-5,007	252,612	125,140
50,028	-5,226	252,304	124,787
51,042	-5,312	252,042	124,571
52,057	-5,385	251,849	124,402
53,071	-5,193	251,536	124,402
54,086	-5,256	251,411	124,275
55,101	-5,171	251,396	124,330
56,115	-4,839	251,092	124,455
57,130	-4,422	251,045	124,780
58,144	-4,450	250,971	124,708
59,159	-4,264	250,691	124,718
60,174	-4,235	250,440	124,607
61,188	-4,401	250,248	124,357
62,203	-4,259	250,116	124,403
63,217	-4,204	249,792	124,277
64,232	-4,263	249,647	124,144
65,247	-4,438	249,515	123,917
66,261	-4,298	249,083	123,811
67,276	-4,507	248,863	123,513
68,290	-4,644	248,604	123,256
69,305	-4,829	248,436	123,004
70,320	-4,778	248,213	122,926
71,334	-4,777	248,248	122,933
72,349	-4,258	248,152	123,317
73,363	-4,409	247,875	123,040
74,378	-4,253	247,626	123,038
75,393	-4,431	247,473	122,799
76,407	-4,451	247,258	122,665
77,422	-4,190	246,984	122,739
78,436	-4,434	246,968	122,514
79,451	-4,292	246,558	122,419
80,466	-4,357	246,265	122,208
81,480	-4,778	246,200	121,810
82,495	-4,766	245,882	121,652
83,509	-4,773	245,874	121,631
84,524	-4,760	245,645	121,517
85,539	-4,725	245,388	121,409
86,553	-4,672	245,166	121,333
87,568	-4,642	244,909	121,220
88,582	-4,681	244,762	121,103
89,597	-4,794	244,691	120,963
90,611	-4,558	244,519	121,065
91,626	-4,472	244,386	121,060
92,641	-4,341	244,112	121,023
93,655	-4,443	243,815	120,780
94,670	-4,402	243,679	120,736
95,684	-4,508	243,641	120,618
96,699	-4,446	243,264	120,473
97,714	-4,479	243,167	120,387
98,728	-4,653	242,898	120,098
99,743	-4,776	242,752	119,913
100,757	-4,861	242,496	119,705
101,772	-4,640	242,373	119,817
102,787	-4,630	242,190	119,724
103,801	-4,701	242,090	119,605
104,816	-4,507	241,986	119,703
105,830	-4,482	241,811	119,627
106,845	-4,369	241,592	119,601
107,860	-4,379	241,561	119,567
108,874	-4,523	241,245	119,281
109,889	-4,513	240,946	119,131
110,903	-4,685	240,936	118,973
111,918	-4,737	240,698	118,803
112,933	-4,584	240,533	118,837
113,947	-4,500	240,374	118,817
114,962	-4,514	240,258	118,737
115,976	-4,323	240,024	118,767
116,991	-4,500	239,838	118,520
118,006	-4,473	239,725	118,476
119,020	-4,337	239,571	118,500
120,035	-4,478	239,468	118,323
121,049	-4,096	239,170	118,477
122,064	-4,229	238,915	118,232
123,079	-4,467	238,896	118,018
124,093	-4,547	238,560	117,777
125,108	-4,569	238,401	117,669
126,122	-4,631	238,066	117,444
127,137	-4,754	237,947	117,274
128,151	-4,797	237,859	117,186
129,166	-4,688	237,650	117,161
130,181	-4,941	237,574	116,907
131,195	-5,005	237,271	116,696
132,210	-4,675	237,291	116,962
133,224	-4,515	237,132	117,003
134,239	-4,525	236,823	116,832
135,254	-4,444	236,738	116,845
136,268	-4,621	236,442	116,546
137,283	-4,685	236,104	116,318
138,297	-5,078	236,129	116,003
139,312	-4,792	235,866	116,094
140,327	-4,507	235,767	116,264
141,341	-4,265	235,778	116,453
142,356	-4,257	235,561	116,342
143,370	-4,221	235,385	116,273
144,385	-3,993	235,327	116,417
145,400	-4,124	235,231	116,255
146,414	-4,150	234,898	116,059
147,429	-4,181	234,788	115,969
148,443	-4,292	234,608	115,782
149,458	-4,183	234,452	115,781
150,473	-3,979	234,263	115,840
151,487	-4,217	234,071	115,545
152,502	-4,312	233,983	115,416
153,516	-4,336	233,804	115,298
154,531	-4,237	233,660	115,295
155,546	-4,131	233,301	115,192
156,560	-4,003	233,240	115,253
157,575	-4,165	233,010	115,002
158,589	-4,298	232,843	114,803
159,604	-4,343	232,811	114,741
160,619	-3,931	232,543	114,925
161,633	-4,178	232,535	114,715
162,648	-4,092	232,284	114,650
163,662	-4,137	232,076	114,501
164,677	-4,184	231,998	114,415
165,692	-4,228	231,887	114,315
166,706	-3,942	231,655	114,416
167,721	-4,121	231,642	114,259
168,735	-4,150	231,418	114,115
169,750	-4,108	231,189	114,025
170,764	-4,116	231,097	113,963
171,779	-4,101	230,978	113,906
172,794	-4,003	230,781	113,876
173,808	-4,151	230,586	113,653
174,823	-4,688	230,371	113,117
175,837	-4,642	230,007	112,964
176,852	-4,384	230,024	113,164
177,867	-4,057	229,927	113,362
178,881	-4,044	229,796	113,297
179,896	-4,177	229,767	113,169
180,910	-3,833	229,516	113,303
181,925	-4,038	229,455	113,103
182,940	-4,010	229,201	112,990
183,954	-3,918	229,034	112,969
184,969	-3,949	228,903	112,870
185,983	-3,862	228,737	112,846
186,998	-3,823	228,601	112,799
188,013	-3,857	228,536	112,731
189,027	-4,043	228,250	112,435
190,042	-4,055	228,193	112,388
191,056	-3,951	228,113	112,419
192,071	-3,870	227,772	112,304
193,086	-3,941	227,675	112,191
194,100	-3,908	227,585	112,162
195,115	-4,073	227,205	111,838
196,129	-4,653	227,017	111,288
197,144	-2,226	227,719	113,497
198,159	1,371	228,783	116,803
199,173	3,766	229,457	118,993
200,188	4,281	229,332	119,317
201,202	4,288	229,236	119,262
202,217	4,451	229,061	119,286
203,232	4,329	229,099	119,201
204,246	4,460	228,826	119,149
205,261	4,530	228,720	119,138
206,275	4,760	228,715	119,301
207,290	4,790	228,492	119,198
208,304	4,854	228,446	119,212
209,319	4,867	228,103	119,033
210,334	4,608	227,929	118,733
211,348	4,417	227,694	118,453
212,363	4,019	227,313	117,939
213,377	3,971	227,259	117,864
214,392	3,817	227,024	117,613
215,407	3,944	226,899	117,635
216,421	4,026	226,887	117,681
217,436	4,005	226,667	117,541
218,450	3,555	226,454	117,076
219,465	3,571	226,236	116,965
220,480	3,763	226,194	117,079
221,494	3,632	226,076	116,909
222,509	4,026	225,993	117,155
223,523	3,820	225,751	116,862
224,538	3,814	225,723	116,833
225,553	3,879	225,425	116,717
226,567	4,000	225,406	116,789
227,582	4,281	225,335	116,955
228,596	4,279	225,202	116,874
229,611	3,971	224,969	116,510
230,626	3,733	224,719	116,189
231,640	3,735	224,467	116,051
232,655	3,794	224,588	116,147
233,669	4,478	224,463	116,589
234,684	4,651	224,341	116,646
235,699	4,390	224,069	116,297
236,713	4,206	223,847	116,033
237,728	3,813	223,711	115,657
238,742	3,962	223,522	115,661
239,757	4,023	223,240	115,550
240,772	3,850	223,189	115,383
241,786	3,854	223,137	115,350
242,801	4,100	222,980	115,442
243,815	4,372	222,923	115,606
244,830	4,295	222,727	115,437
245,844	3,936	222,583	115,083
246,859	3,885	222,469	114,976
247,874	4,440	222,181	115,231
248,888	4,250	222,224	115,101
249,903	4,023	221,975	114,793
250,917	3,840	221,931	114,624
251,932	3,946	221,679	114,562
252,947	3,884	221,509	114,417
253,961	3,754	221,265	114,185
254,976	3,738	221,269	114,165
255,990	3,881	221,184	114,217
257,005	4,250	220,888	114,328
258,020	4,328	220,832	114,346
259,034	4,286	220,902	114,341
260,049	4,211	220,536	114,086
261,063	4,110	220,437	113,950
262,078	4,022	220,381	113,846
263,093	4,232	220,359	113,980
264,107	4,256	220,014	113,809
265,122	4,295	219,881	113,758
266,136	4,630	219,787	113,947
267,151	4,457	219,526	113,674
268,166	4,053	219,335	113,267
269,180	3,899	219,141	113,044
270,195	4,041	218,947	113,038
271,209	3,853	218,965	112,899
272,224	3,924	218,750	112,830
273,239	4,009	218,662	112,837
274,253	3,947	218,500	112,698
275,268	3,866	218,207	112,478
276,282	3,723	218,062	112,289
277,297	3,697	217,963	112,209
278,312	3,889	217,889	112,301
279,326	3,898	217,795	112,249
280,341	3,931	217,722	112,225
281,355	3,998	217,680	112,242
282,370	4,103	217,356	112,142
283,384	3,771	217,248	111,834
284,399	3,793	216,963	111,694
285,414	3,572	217,005	111,544
286,428	3,816	216,982	111,700
287,443	4,141	216,660	111,761
288,457	4,227	216,646	111,806
289,472	3,931	216,435	111,472
290,487	3,368	216,101	110,883
291,501	3,260	215,917	110,700
292,516	3,682	215,898	110,986
293,530	3,709	215,811	110,951
294,545	3,411	215,683	110,660
295,560	3,755	215,592	110,851
296,574	3,881	215,483	110,876
297,589	3,795	215,220	110,669
298,603	3,903	215,247	110,751
299,618	3,770	215,123	110,582
300,633	4,058	214,891	110,660
301,647	4,191	214,841	110,719
302,662	4,401	214,740	110,808
303,676	3,994	214,576	110,422
304,691	4,019	214,360	110,319
305,706	4,259	214,274	110,437
306,720	4,210	214,167	110,337
307,735	3,895	213,915	109,972
308,749	3,944	213,772	109,923
309,764	4,022	213,713	109,939
310,779	4,058	213,759	109,978
311,793	4,215	213,507	109,951
312,808	4,053	213,317	109,728
313,822	4,126	213,170	109,695
314,837	4,022	212,970	109,508
315,852	3,847	212,725	109,248
316,866	3,966	212,684	109,301
317,881	4,446	212,645	109,612
318,895	4,168	212,462	109,311
319,910	4,010	212,297	109,105
320,925	3,771	212,032	108,789
321,939	3,503	211,882	108,513
322,954	3,680	211,860	108,617
323,968	3,956	211,791	108,767
324,983	4,122	211,777	108,868
325,997	4,216	211,565	108,816
327,012	3,801	211,540	108,500
328,027	3,947	211,296	108,468
329,041	4,201	211,251	108,615
330,056	4,523	211,046	108,726
331,070	3,999	210,829	108,236
332,085	3,632	210,584	107,843
333,100	3,782	210,526	107,909
334,114	4,150	210,493	108,141
335,129	4,068	210,307	107,978
336,143	3,856	210,195	107,762
337,158	3,811	210,076	107,660
338,173	3,855	209,852	107,566
339,187	4,089	209,590	107,586
340,202	3,615	209,616	107,259
341,216	3,554	209,348	107,070
342,231	3,839	209,240	107,204
343,246	3,750	209,169	107,096
344,260	3,527	209,082	106,886
345,275	4,015	208,966	107,157
346,289	4,088	208,827	107,127
347,304	3,995	208,598	106,935
348,319	3,975	208,511	106,867
349,333	3,983	208,466	106,840
350,348	3,847	208,258	106,630
351,362	3,933	208,177	106,638
352,377	4,116	208,085	106,708
353,392	3,970	207,943	106,525
354,406	4,083	207,825	106,533
355,421	194,654	1347,687	1438,479
356,435	155,315	1486,677	1438,608
