DTS Sentinel unit serial number:	SN410029Multiplexer serial number:	ORYXHardware model number:	OX2-SRSoftware version number:	ORYX F/W v4,00 Oryx Data Collector v3.7.2.0data status	okinstallation	B6 Nyhavnadifferential loss correction	single-endedforward channel	channel 2reverse channel	N/Adate	2023/12/09time	01:35:08forward acquisition time	300,00reverse acquisition time	0,00gamma	499,1914k internal	0,3156k external	0,3156temperature offset calibration	1,0000default loss term (dB/km)	0,3820temperature slope calibration	1,0000multiplexer offset coefficient	1,0000multiplexer slope coefficient	1,0000fibre end	0,00T internal ref (°C)	15,81T ext. ref 1 (°C)	-0,53T ext. ref 2 (°C)	-0,54length (m)	temperature (°C)	Stokes	anti-Stokes-744,400	105,909	0,068	0,059
-743,385	-37,719	-0,316	-0,124
-742,371	4,449	0,017	0,009
-741,356	-86,640	-0,293	0,066
-740,342	-26,815	0,155	-0,067
-739,327	-197,429	-0,353	-0,002
-738,312	800,000	-0,041	-0,102
-737,298	-50,707	-0,236	0,082
-736,283	-138,517	0,062	0,005
-735,269	-106,948	-0,339	0,055
-734,254	-123,747	0,129	0,015
-733,239	-95,370	-0,562	-0,110
-732,225	62,860	0,156	0,115
-731,210	-101,565	-0,124	0,022
-730,196	-200,000	0,004	0,047
-729,181	-60,874	0,068	-0,021
-728,167	-102,184	-0,049	0,009
-727,152	-200,000	-0,026	-0,157
-726,137	-155,275	-0,055	0,003
-725,123	537,718	-0,020	-0,034
-724,108	398,771	-0,061	-0,095
-723,094	-52,498	-0,129	-0,044
-722,079	-78,936	0,048	-0,012
-721,064	-200,000	-0,004	-0,063
-720,050	-200,000	-0,015	-0,152
-719,035	-200,000	0,034	-0,123
-718,021	46,400	-0,080	0,055
-717,006	-37,106	-0,071	-0,028
-715,991	800,000	0,028	-0,073
-714,977	596,265	-0,118	-0,217
-713,962	277,699	-0,098	0,128
-712,948	29,562	0,100	-0,063
-711,933	302,207	-0,084	0,115
-710,918	800,000	-0,042	-0,114
-709,904	-43,962	-0,193	-0,071
-708,889	48,460	0,037	0,025
-707,875	-200,000	-0,019	-0,155
-706,860	-172,592	-0,035	0,001
-705,845	372,643	-0,036	-0,055
-704,831	-2,885	-0,176	-0,090
-703,816	359,657	-0,036	-0,054
-702,802	423,605	-0,012	-0,019
-701,787	319,108	-0,031	-0,043
-700,772	62,877	0,084	-0,062
-699,758	-200,000	0,023	-0,114
-698,743	133,120	-0,142	0,135
-697,729	72,351	-0,081	0,062
-696,714	-22,452	0,083	-0,037
-695,699	-2,081	-0,138	-0,071
-694,685	-200,000	0,001	-0,071
-693,670	800,000	0,020	0,058
-692,656	604,435	0,011	0,020
-691,641	800,000	0,012	-0,026
-690,627	315,255	-0,142	-0,198
-689,612	-200,000	-0,012	-0,040
-688,597	26,715	-0,051	0,031
-687,583	-39,800	-0,106	-0,040
-686,568	-200,000	0,007	-0,145
-685,554	-200,000	-0,004	-0,015
-684,539	-200,000	-0,008	-0,037
-683,524	-200,000	-0,003	0,093
-682,510	-107,481	-0,130	0,021
-681,495	-200,000	-0,001	-0,021
-680,481	-56,565	-0,094	0,030
-679,466	12,941	-0,117	-0,066
-678,451	-160,729	0,114	0,004
-677,437	197,500	0,081	0,091
-676,422	-20,334	-0,075	0,034
-675,408	-129,889	-0,091	0,009
-674,393	-102,651	0,037	-0,006
-673,378	-200,000	-0,024	-0,144
-672,364	-93,121	-0,124	0,025
-671,349	40,350	-0,174	-0,115
-670,335	-21,246	0,082	-0,037
-669,320	-87,359	0,120	-0,026
-668,305	33,606	-0,081	-0,052
-667,291	-82,975	0,059	0,014
-666,276	87,869	-0,026	0,021
-665,262	-200,000	-0,009	-0,080
-664,247	-200,000	-0,007	-0,070
-663,232	-200,000	0,025	-0,132
-662,218	363,213	0,016	-0,023
-661,203	800,000	0,014	-0,036
-660,189	-12,209	0,034	0,016
-659,174	639,034	-0,051	-0,097
-658,159	-173,073	0,095	0,002
-657,145	-192,890	-0,081	-0,001
-656,130	-200,000	0,003	-0,064
-655,116	-51,925	-0,075	0,025
-654,101	800,000	0,030	-0,076
-653,086	-122,995	-0,052	-0,006
-652,072	726,550	-0,043	0,084
-651,057	-200,000	-0,035	-0,125
-650,043	-52,737	-0,049	0,017
-649,028	-26,564	-0,126	-0,054
-648,014	263,567	0,068	0,088
-646,999	245,708	0,023	0,029
-645,984	56,008	0,132	-0,094
-644,970	800,000	-0,046	-0,098
-643,955	-96,623	-0,088	0,017
-642,941	-146,995	-0,059	0,004
-641,926	-200,000	0,029	-0,131
-640,911	15,316	-0,016	0,009
-639,897	-200,000	-0,019	0,146
-638,882	-200,000	-0,013	0,068
-637,868	-200,000	0,015	-0,066
-636,853	30,051	0,092	0,057
-635,838	99,160	-0,027	-0,023
-634,824	-200,000	0,010	-0,119
-633,809	-8,584	0,051	0,025
-632,795	-58,654	0,116	-0,037
-631,780	86,358	-0,115	0,093
-630,765	-116,299	-0,116	0,016
-629,751	800,000	-0,053	-0,118
-628,736	-200,000	0,002	-0,140
-627,722	-20,047	0,088	-0,040
-626,707	296,019	-0,058	0,078
-625,692	-41,212	0,104	0,039
-624,678	-51,471	-0,059	-0,020
-623,663	-200,000	-0,037	-0,145
-622,649	-200,000	-0,020	-0,113
-621,634	127,564	-0,038	-0,035
-620,619	-200,000	-0,006	-0,028
-619,605	-200,000	-0,005	-0,061
-618,590	-63,384	0,127	0,038
-617,576	800,000	-0,056	0,115
-616,561	18,402	-0,016	0,009
-615,546	200,965	0,108	-0,122
-614,532	128,067	0,017	-0,016
-613,517	290,409	0,059	0,078
-612,503	357,110	0,019	-0,028
-611,488	-129,542	0,154	-0,015
-610,474	-26,941	-0,028	0,012
-609,459	800,000	-0,019	0,052
-608,444	-97,700	0,063	0,012
-607,430	13,249	-0,058	0,033
-606,415	188,675	-0,125	-0,138
-605,401	171,358	-0,073	-0,077
-604,386	-200,000	0,020	0,116
-603,371	143,767	-0,068	0,067
-602,357	137,387	0,074	-0,071
-601,342	800,000	0,021	-0,065
-600,328	753,585	0,004	-0,009
-599,313	273,506	-0,052	-0,068
-598,298	-200,000	-0,001	-0,068
-597,284	456,883	0,048	0,078
-596,269	-200,000	0,006	-0,084
-595,255	-200,000	0,018	0,075
-594,240	-58,768	-0,108	0,034
-593,225	-99,677	0,075	0,014
-592,211	-37,138	0,128	-0,050
-591,196	50,589	-0,092	0,064
-590,182	-42,389	-0,068	0,025
-589,167	-129,243	0,104	0,011
-588,152	9,417	0,100	-0,055
-587,138	800,000	0,040	-0,091
-586,123	-200,000	0,008	-0,203
-585,109	-136,800	0,132	0,011
-584,094	-88,038	0,041	-0,009
-583,079	372,961	-0,003	-0,005
-582,065	264,472	-0,075	-0,097
-581,050	62,734	0,074	0,054
-580,036	800,000	-0,023	0,068
-579,021	-39,595	-0,090	-0,035
-578,006	800,000	-0,019	-0,054
-576,992	362,482	0,049	-0,072
-575,977	-107,980	0,047	0,007
-574,963	58,284	0,108	0,077
-573,948	800,000	0,003	0,006
-572,934	228,495	-0,055	0,065
-571,919	-200,000	0,004	-0,015
-570,904	34,056	-0,130	0,083
-569,890	-13,467	0,045	-0,021
-568,875	-200,000	0,004	0,036
-567,861	-53,933	0,037	0,012
-566,846	-200,000	-0,009	0,092
-565,831	-200,000	-0,003	-0,012
-564,817	186,269	0,021	0,023
-563,802	-145,306	0,007	0,000
-562,788	157,881	-0,078	-0,080
-561,773	283,632	-0,057	-0,075
-560,758	173,512	-0,038	-0,040
-559,744	378,195	0,043	0,065
-558,729	-128,786	0,047	-0,005
-557,715	-66,071	-0,104	0,030
-556,700	-158,074	-0,147	0,006
-555,685	-191,164	0,091	0,001
-554,671	800,000	0,019	0,040
-553,656	-200,000	0,010	0,074
-552,642	-200,000	0,010	-0,039
-551,627	800,000	-0,065	0,173
-550,612	-200,000	-0,011	-0,069
-549,598	39,927	-0,105	0,069
-548,583	193,151	-0,069	-0,077
-547,569	-88,631	0,075	0,016
-546,554	-200,000	0,003	0,065
-545,539	-75,890	-0,120	-0,031
-544,525	-113,467	0,135	0,019
-543,510	389,348	-0,069	-0,104
-542,496	-200,000	0,002	-0,064
-541,481	-200,000	0,006	-0,041
-540,466	-43,071	-0,076	0,028
-539,452	66,347	0,053	0,040
-538,437	39,115	-0,111	-0,073
-537,423	187,290	0,040	0,043
-536,408	-3,965	-0,085	-0,043
-535,393	-200,000	-0,017	0,077
-534,379	-5,076	-0,030	-0,015
-533,364	-112,475	0,043	-0,006
-532,350	-56,698	0,112	0,036
-531,335	149,996	0,019	-0,019
-530,321	56,604	0,063	0,045
-529,306	-200,000	0,024	-0,098
-528,291	15,878	-0,095	0,055
-527,277	-97,621	-0,096	-0,018
-526,262	-200,000	0,017	0,057
-525,248	-200,000	-0,001	-0,150
-524,233	408,186	-0,050	0,078
-523,218	61,581	0,034	0,025
-522,204	-63,901	0,048	-0,014
-521,189	-96,899	-0,140	0,027
-520,175	567,497	0,040	-0,071
-519,160	-200,000	-0,004	-0,018
-518,145	209,269	0,070	0,081
-517,131	-200,000	-0,002	0,083
-516,116	-129,769	-0,032	0,003
-515,102	-200,000	-0,010	0,147
-514,087	148,784	-0,025	-0,025
-513,072	55,932	-0,085	-0,060
-512,058	-200,000	-0,010	-0,038
-511,043	-140,467	-0,212	0,016
-510,029	-143,271	0,098	0,007
-509,014	-200,000	-0,004	-0,031
-507,999	106,501	0,031	0,027
-506,985	-43,883	0,068	-0,025
-505,970	653,548	-0,060	-0,112
-504,956	800,000	-0,015	-0,042
-503,941	-39,998	0,042	-0,016
-502,926	-115,760	0,166	-0,022
-501,912	-200,000	0,001	0,043
-500,897	685,457	-0,060	-0,114
-499,883	-200,000	0,009	-0,095
-498,868	800,000	0,022	0,050
-497,853	-123,034	-0,129	0,015
-496,839	-200,000	-0,009	-0,068
-495,824	89,264	0,060	0,049
-494,810	-200,000	0,004	0,024
-493,795	-79,996	0,025	0,006
-492,781	-27,281	-0,048	-0,020
-491,766	-107,876	0,037	0,006
-490,751	-200,000	-0,004	-0,156
-489,737	69,568	0,057	0,043
-488,722	-200,000	0,021	0,141
-487,708	-97,966	-0,152	0,028
-486,693	-66,613	0,058	0,017
-485,678	182,194	-0,046	0,050
-484,664	82,500	-0,085	-0,067
-483,649	656,930	-0,066	-0,125
-482,635	800,000	0,032	-0,098
-481,620	-65,629	0,059	-0,017
-480,605	-102,232	0,099	-0,017
-479,591	57,557	-0,101	-0,072
-478,576	89,213	0,088	-0,072
-477,562	800,000	-0,016	0,033
-476,547	-200,000	-0,023	-0,153
-475,532	82,155	0,069	-0,055
-474,518	199,611	-0,066	-0,074
-473,503	-200,000	0,025	-0,097
-472,489	-92,315	0,056	-0,011
-471,474	-19,061	0,067	0,030
-470,459	-200,000	-0,005	-0,049
-469,445	714,985	0,066	0,129
-468,430	-101,467	0,076	0,013
-467,416	113,309	0,076	0,067
-466,401	92,421	0,056	0,046
-465,386	1,592	0,042	-0,022
-464,372	369,089	0,038	-0,057
-463,357	161,204	-0,049	-0,050
-462,343	-132,782	-0,038	0,003
-461,328	534,860	-0,044	-0,077
-460,313	-108,558	0,132	0,020
-459,299	121,857	0,080	0,073
-458,284	622,587	0,046	0,085
-457,270	8,147	-0,086	0,047
-456,255	329,590	0,054	0,077
-455,241	-20,977	0,011	0,005
-454,226	-0,811	0,038	-0,020
-453,211	340,601	0,041	-0,058
-452,197	-158,209	-0,031	0,001
-451,182	528,704	-0,106	0,184
-450,168	-200,000	-0,011	-0,096
-449,153	800,000	0,015	-0,031
-448,138	-200,000	-0,015	0,056
-447,124	332,098	-0,034	-0,048
-446,109	202,302	-0,026	0,029
-445,095	35,434	0,093	0,059
-444,080	199,394	0,060	-0,067
-443,065	800,000	-0,015	-0,037
-442,051	128,334	0,054	0,050
-441,036	-166,325	-0,024	-0,001
-440,022	-200,000	-0,032	0,170
-439,007	-2,893	0,110	-0,056
-437,992	333,031	0,018	0,025
-436,978	-14,561	0,131	0,061
-435,963	20,344	-0,128	-0,075
-434,949	773,998	-0,036	-0,072
-433,934	-110,479	0,134	0,020
-432,919	276,005	-0,025	0,032
-431,905	39,448	0,061	-0,040
-430,890	194,049	0,127	0,140
-429,876	62,200	0,073	-0,053
-428,861	-8,757	-0,091	-0,044
-427,846	-116,822	-0,084	0,011
-426,832	240,434	-0,063	0,077
-425,817	218,505	0,079	-0,092
-424,803	-200,000	-0,003	0,183
-423,788	-200,000	0,030	0,112
-422,773	-200,000	0,060	0,280
-421,759	-112,616	-0,102	0,015
-420,744	800,000	-0,043	-0,138
-419,730	242,530	0,059	0,072
-418,715	800,000	0,017	-0,039
-417,701	800,000	-0,024	-0,055
-416,686	800,000	-0,028	-0,060
-415,671	-200,000	-0,002	-0,008
-414,657	18,757	-0,059	-0,034
-413,642	-64,781	0,061	-0,018
-412,628	-41,920	-0,083	0,031
-411,613	800,000	0,003	-0,007
-410,598	89,167	0,036	0,029
-409,584	32,326	-0,090	-0,056
-408,569	277,073	0,072	0,094
-407,555	-100,259	0,052	0,009
-406,540	-1,812	-0,061	-0,031
-405,525	-59,949	0,064	-0,020
-404,511	-36,376	-0,150	0,059
-403,496	-200,000	-0,032	0,121
-402,482	-200,000	0,027	0,105
-401,467	626,034	-0,025	0,047
-400,452	800,000	-0,039	0,092
-399,438	3,413	0,035	0,018
-398,423	-129,430	-0,070	-0,007
-397,409	346,914	-0,049	0,070
-396,394	-200,000	0,000	-0,089
-395,379	-23,394	-0,045	-0,020
-394,365	52,978	0,076	0,053
-393,350	444,188	0,058	0,093
-392,336	-34,970	-0,019	0,007
-391,321	-200,000	-0,022	0,089
-390,306	-140,547	0,014	-0,001
-389,292	519,644	0,027	-0,047
-388,277	209,585	-0,080	-0,092
-387,263	91,660	0,112	-0,092
-386,248	-200,000	-0,000	0,038
-385,233	98,891	0,084	-0,070
-384,219	-116,767	0,018	0,002
-383,204	-200,000	-0,007	-0,110
-382,190	800,000	-0,023	-0,059
-381,175	-200,000	0,021	0,140
-380,160	-200,000	0,014	-0,173
-379,146	381,750	0,019	-0,028
-378,131	-200,000	-0,033	0,111
-377,117	32,801	-0,136	0,086
-376,102	-70,021	-0,127	-0,035
-375,088	709,977	-0,068	-0,132
-374,073	149,790	-0,044	-0,043
-373,058	-5,153	0,092	0,046
-372,044	86,658	0,142	0,114
-371,029	-23,722	0,023	0,010
-370,015	-64,618	-0,055	-0,016
-369,000	-1,076	0,158	0,081
-367,985	-148,384	-0,134	-0,008
-366,971	46,836	0,109	0,074
-365,956	415,400	0,071	-0,111
-364,942	-200,000	-0,010	0,068
-363,927	-107,337	-0,067	0,011
-362,912	379,787	0,041	-0,061
-361,898	-200,000	0,002	0,013
-360,883	538,055	0,082	-0,142
-359,869	352,558	-0,065	-0,094
-358,854	-200,000	-0,047	-0,204
-357,839	800,000	0,051	-0,127
-356,825	-1,630	-0,102	0,052
-355,810	-200,000	0,013	0,151
-354,796	68,696	-0,057	0,042
-353,781	-15,566	-0,053	0,024
-352,766	-200,000	0,003	-0,010
-351,752	266,904	0,041	0,052
-350,737	-200,000	0,032	0,154
-349,723	-200,000	0,008	-0,041
-348,708	800,000	-0,034	0,081
-347,693	-123,469	-0,056	0,006
-346,679	107,047	0,059	-0,051
-345,664	-200,000	0,009	0,106
-344,650	-95,681	0,043	-0,008
-343,635	445,175	0,025	0,041
-342,620	706,393	0,075	0,144
-341,606	128,042	0,162	0,150
-340,591	235,421	-0,037	0,044
-339,577	345,899	-0,119	-0,170
-338,562	-200,000	-0,025	-0,085
-337,548	308,599	-0,059	-0,080
-336,533	-200,000	0,001	0,090
-335,518	-200,000	0,013	0,086
-334,504	-17,337	0,031	-0,014
-333,489	-200,000	-0,032	-0,279
-332,475	-19,824	0,038	0,017
-331,460	800,000	-0,043	-0,122
-330,445	24,243	-0,104	0,062
-329,431	151,634	0,045	0,045
-328,416	800,000	-0,010	0,024
-327,402	-200,000	0,022	0,085
-326,387	-200,000	-0,022	-0,115
-325,372	-200,000	-0,015	-0,171
-324,358	736,344	-0,054	-0,106
-323,343	-30,531	-0,098	-0,040
-322,329	0,652	-0,039	-0,020
-321,314	88,468	0,187	0,151
-320,299	492,927	0,013	0,022
-319,285	76,718	-0,048	-0,037
-318,270	-200,000	0,023	-0,087
-317,256	102,759	0,011	-0,009
-316,241	422,721	0,090	-0,141
-315,226	411,932	0,036	0,056
-314,212	-25,138	-0,161	0,069
-313,197	-200,000	0,188	0,000
-312,183	-200,000	0,027	0,113
-311,168	50,569	0,022	-0,015
-310,153	453,072	0,070	-0,112
-309,139	-200,000	-0,014	-0,061
-308,124	410,703	-0,027	-0,042
-307,110	800,000	-0,022	0,059
-306,095	-200,000	0,000	-0,059
-305,080	-200,000	-0,017	-0,061
-304,066	800,000	0,038	-0,114
-303,051	-104,953	0,046	-0,008
-302,037	-136,716	0,146	0,012
-301,022	741,240	-0,030	0,059
-300,008	53,155	-0,009	0,006
-298,993	-200,000	-0,010	-0,047
-297,978	57,419	0,051	0,036
-296,964	-50,464	-0,090	0,031
-295,949	-134,766	-0,028	-0,002
-294,935	-56,153	0,037	-0,012
-293,920	70,947	0,011	-0,009
-292,905	196,392	0,154	0,170
-291,891	-54,440	0,072	0,023
-290,876	-170,926	-0,251	0,006
-289,862	145,672	-0,035	-0,034
-288,847	-200,000	-0,002	-0,097
-287,832	74,237	-0,164	-0,124
-286,818	-69,559	0,104	0,029
-285,803	-85,636	-0,176	0,039
-284,789	-80,975	0,079	-0,019
-283,774	206,881	0,039	-0,045
-282,759	10,961	-0,065	-0,036
-281,745	-28,834	0,062	0,026
-280,730	231,562	-0,083	-0,099
-279,716	16,719	0,169	0,097
-278,701	11,953	0,035	-0,019
-277,686	14,881	-0,037	-0,021
-276,672	-22,213	0,044	0,019
-275,657	-200,000	-0,048	0,159
-274,643	158,454	0,032	-0,033
-273,628	-54,222	0,083	0,027
-272,613	-200,000	0,014	-0,078
-271,599	-98,726	0,092	0,017
-270,584	-6,353	-0,065	0,032
-269,570	-157,519	0,102	0,004
-268,555	487,449	0,035	0,058
-267,540	-17,955	-0,168	-0,076
-266,526	23,398	0,019	0,011
-265,511	644,432	-0,036	-0,067
-264,497	237,744	-0,088	0,106
-263,482	-200,000	-0,007	0,071
-262,467	-130,527	-0,029	-0,003
-261,453	182,728	-0,110	0,117
-260,438	57,895	0,048	-0,034
-259,424	800,000	0,037	0,101
-258,409	-200,000	0,000	0,055
-257,395	335,390	0,035	0,049
-256,380	171,610	0,067	-0,069
-255,365	-42,716	-0,071	-0,026
-254,351	95,954	0,120	-0,099
-253,336	-200,000	-0,029	0,111
-252,322	-200,000	0,034	0,000
-251,307	136,179	-0,057	0,054
-250,292	800,000	0,012	-0,027
-249,278	-200,000	-0,017	0,072
-248,263	-111,795	-0,021	0,003
-247,249	-43,415	-0,080	0,029
-246,234	53,805	-0,027	-0,019
-245,219	445,424	0,062	-0,099
-244,205	413,164	-0,074	-0,115
-243,190	694,764	-0,033	0,063
-242,176	12,625	-0,058	0,032
-241,161	25,454	-0,059	-0,035
-240,146	136,844	0,137	0,129
-239,132	228,331	-0,046	-0,054
-238,117	472,896	-0,038	-0,062
-237,103	255,147	-0,043	0,053
-236,088	-200,000	0,017	-0,127
-235,073	-125,044	-0,075	-0,008
-234,059	-200,000	-0,018	-0,061
-233,044	306,923	-0,042	-0,057
-232,030	-137,485	0,048	-0,004
-231,015	255,378	0,082	-0,102
-230,000	800,000	-0,005	0,011
-228,986	-54,725	0,011	0,003
-227,971	297,148	0,018	-0,023
-226,957	84,647	-0,016	-0,012
-225,942	-200,000	0,015	0,106
-224,927	-200,000	0,012	0,078
-223,913	453,287	-0,006	-0,010
-222,898	78,073	0,078	-0,060
-221,884	800,000	-0,036	0,083
-220,869	89,589	0,021	-0,017
-219,855	-200,000	0,018	-0,109
-218,840	-200,000	0,006	0,058
-217,825	-200,000	0,019	0,083
-216,811	800,000	-0,036	0,074
-215,796	49,032	-0,099	0,067
-214,782	800,000	0,029	0,078
-213,767	-158,095	0,118	-0,005
-212,752	-200,000	0,022	0,118
-211,738	35,906	-0,013	-0,008
-210,723	-200,000	0,002	-0,021
-209,709	-104,975	0,048	0,008
-208,694	-148,610	-0,035	-0,002
-207,679	-120,890	0,086	0,010
-206,665	0,032	-0,043	0,022
-205,650	-31,273	0,050	0,020
-204,636	-200,000	0,031	0,128
-203,621	800,000	0,047	0,134
-202,606	55,055	-0,057	-0,040
-201,592	-200,000	0,026	-0,113
-200,577	-200,000	0,018	0,077
-199,563	342,392	-0,026	0,038
-198,548	-200,000	-0,011	0,074
-197,533	27,199	0,164	0,099
-196,519	87,210	-0,187	0,149
-195,504	499,535	0,044	0,074
-194,490	-200,000	0,010	0,140
-193,475	800,000	0,039	0,097
-192,460	800,000	0,070	-0,155
-191,446	243,965	-0,091	0,111
-190,431	-161,962	0,123	-0,004
-189,417	227,621	-0,008	-0,010
-188,402	19,089	0,010	0,006
-187,387	9,865	-0,087	-0,047
-186,373	800,000	0,013	0,029
-185,358	-1,524	-0,097	-0,049
-184,344	800,000	0,088	0,209
-183,329	-168,473	0,126	-0,003
-182,315	85,600	0,067	0,053
-181,300	48,393	-0,075	-0,050
-180,285	-78,223	-0,139	0,034
-179,271	12,042	0,044	-0,024
-178,256	800,000	-0,037	-0,084
-177,242	-61,208	-0,174	-0,053
-176,227	10,188	-0,040	0,022
-175,212	-200,000	-0,006	0,049
-174,198	99,264	-0,023	0,019
-173,183	593,342	-0,024	-0,042
-172,169	800,000	-0,031	-0,083
-171,154	42,846	0,065	-0,043
-170,139	515,281	0,025	0,043
-169,125	312,542	0,089	0,121
-168,110	-47,801	-0,070	-0,024
-167,096	800,000	0,021	0,047
-166,081	5,180	-0,066	0,035
-165,066	-5,994	-0,088	-0,043
-164,052	-200,000	-0,000	-0,044
-163,037	-62,313	-0,068	-0,020
-162,023	82,153	-0,109	-0,085
-161,008	-200,000	0,020	-0,120
-159,993	780,857	0,033	-0,065
-158,979	-153,722	-0,110	-0,005
-157,964	308,445	0,021	-0,028
-156,950	-174,426	-0,099	-0,002
-155,935	347,483	-0,051	0,072
-154,920	218,241	-0,083	-0,096
-153,906	800,000	0,036	0,115
-152,891	800,000	0,036	-0,104
-151,877	-68,635	-0,103	-0,028
-150,862	728,230	-0,030	-0,058
-149,847	37,250	0,039	0,025
-148,833	13,837	0,024	0,013
-147,818	-143,748	-0,033	-0,002
-146,804	157,530	-0,105	-0,105
-145,789	658,227	0,037	-0,069
-144,775	-1,809	0,023	-0,012
-143,760	-31,354	-0,061	-0,024
-142,745	800,000	-0,020	-0,053
-141,731	-149,818	0,098	0,005
-140,716	57,673	-0,093	0,065
-139,702	-2,922	0,081	0,041
-138,687	-200,000	0,012	-0,041
-137,672	552,775	-0,042	0,073
-136,658	121,751	0,089	0,080
-135,643	-200,000	0,017	-0,100
-134,629	-200,000	-0,018	-0,105
-133,614	238,589	-0,008	-0,010
-132,599	800,000	-0,072	0,227
-131,585	745,901	-0,041	0,080
-130,570	60,293	0,162	0,115
-129,556	242,830	0,042	0,051
-128,541	800,000	0,028	-0,075
-127,526	-75,801	0,076	0,019
-126,512	19,700	-0,079	0,045
-125,497	188,683	0,110	0,119
-124,483	33,545	-0,032	0,020
-123,468	318,159	0,062	0,085
-122,453	477,906	0,090	-0,147
-121,439	219,286	-0,041	-0,048
-120,424	368,547	-0,072	-0,105
-119,410	-200,000	0,011	-0,045
-118,395	54,875	0,095	0,066
-117,380	-35,587	0,021	-0,008
-116,366	-200,000	0,007	0,082
-115,351	131,866	0,021	-0,019
-114,337	229,288	-0,069	-0,082
-113,322	800,000	0,038	-0,078
-112,307	643,919	0,058	-0,107
-111,293	154,679	0,120	0,119
-110,278	248,411	-0,031	-0,038
-109,264	605,956	0,072	0,129
-108,249	23,473	-0,078	-0,046
-107,234	-108,793	-0,140	0,021
-106,220	157,893	-0,076	-0,076
-105,205	-149,128	0,132	0,007
-104,191	-200,000	-0,035	0,120
-103,176	188,448	-0,033	-0,036
-102,162	165,206	-0,027	0,027
-101,147	800,000	-0,018	-0,048
-100,132	39,566	-0,049	-0,032
-99,118	-53,035	-0,107	-0,035
-98,103	507,911	-0,028	0,047
-97,089	-20,273	0,099	-0,044
-96,074	-49,236	0,105	0,036
-95,059	244,528	0,025	0,030
-94,045	-148,388	0,051	0,003
-93,030	-79,128	-0,097	-0,024
-92,016	-200,000	-0,030	-0,101
-91,001	22,761	-0,022	-0,013
-89,986	151,511	0,131	0,129
-88,972	285,619	0,126	0,163
-87,957	-200,000	-0,028	0,106
-86,943	226,142	0,073	0,085
-85,928	-200,000	0,014	-0,076
-84,913	771,586	0,024	0,047
-83,899	-200,000	-0,004	0,057
-82,884	50,992	-0,031	0,021
-81,870	-93,972	0,085	0,017
-80,855	203,501	-0,109	0,121
-79,840	-200,000	-0,029	-0,122
-78,826	-105,177	-0,043	0,007
-77,811	36,169	-0,104	-0,066
-76,797	6,884	-0,100	0,053
-75,782	216,371	-0,034	0,039
-74,767	787,703	-0,070	0,138
-73,753	441,730	-0,027	0,043
-72,738	4,228	-0,076	0,040
-71,724	74,630	-0,094	-0,071
-70,709	-127,805	-0,063	-0,006
-69,694	-198,082	-0,090	0,000
-68,680	143,881	0,057	0,054
-67,665	97,424	0,104	0,086
-66,651	800,000	0,073	0,148
-65,636	22,881	-0,013	-0,008
-64,622	-76,902	-0,125	-0,031
-63,607	60,873	-0,062	0,044
-62,592	-200,000	0,003	0,034
-61,578	148,873	0,070	-0,068
-60,563	-14,822	-0,032	0,015
-59,549	249,160	0,039	0,048
-58,534	13,125	-1,968	-1,091
-57,519	800,000	-0,282	-0,836
-56,505	-200,000	-1,323	-4,930
-55,490	14,761	0,848	0,475
-54,476	800,000	5,432	12,241
-53,461	-200,000	17,540	284,429
-52,446	800,000	722,373	2219,727
-51,432	537,299	1635,629	2800,522
-50,417	111,215	1627,535	1407,767
-49,403	74,457	1284,764	968,639
-48,388	32,554	1028,553	636,883
-47,373	20,011	990,838	572,106
-46,359	18,533	979,055	560,423
-45,344	16,104	975,098	550,172
-44,330	16,311	973,630	550,001
-43,315	15,904	971,611	547,507
-42,300	15,797	970,842	546,704
-41,286	15,808	969,694	546,072
-40,271	15,866	968,611	545,629
-39,257	15,880	967,849	545,224
-38,242	15,843	967,041	544,625
-37,227	15,866	966,051	544,123
-36,213	15,874	965,318	543,712
-35,198	15,809	964,436	542,982
-34,184	15,899	963,488	542,721
-33,169	15,811	962,524	541,872
-32,154	15,844	961,688	541,486
-31,140	15,818	960,853	540,910
-30,125	15,858	960,069	540,578
-29,111	15,796	959,354	539,952
-28,096	15,841	958,843	539,787
-27,082	15,911	958,055	539,548
-26,067	15,851	957,328	538,926
-25,052	15,800	956,572	538,314
-24,038	15,846	955,720	537,961
-23,023	15,854	955,091	537,609
-22,009	15,844	954,487	537,219
-20,994	15,814	954,179	536,927
-19,979	15,869	953,353	536,616
-18,965	15,823	952,745	536,105
-17,950	15,859	951,929	535,742
-16,936	15,821	951,417	535,310
-15,921	15,788	950,679	534,767
-14,906	15,731	950,143	534,264
-13,892	15,668	949,651	533,762
-12,877	15,707	948,810	533,394
-11,863	15,695	948,267	533,031
-10,848	15,679	947,694	532,634
-9,833	15,874	946,987	532,839
-8,819	15,810	946,575	532,382
-7,804	15,749	945,840	531,752
-6,790	15,680	945,382	531,254
-5,775	15,742	944,745	531,074
-4,760	15,730	943,945	530,564
-3,746	15,722	943,638	530,344
-2,731	15,630	942,717	529,514
-1,717	15,571	942,237	529,038
-0,702	15,492	941,491	528,348
0,313	15,387	940,735	528,389
1,327	18,593	938,865	537,411
2,342	27,584	793,070	477,740
3,356	24,153	446,828	264,036
4,371	-5,086	296,660	145,950
5,386	-8,770	278,098	133,301
6,400	-9,949	272,450	129,483
7,415	-10,100	270,030	128,182
8,429	-10,521	268,810	127,204
9,444	-10,279	267,940	127,003
10,459	-10,324	267,195	126,597
11,473	-10,505	266,676	126,175
12,488	-10,418	265,966	125,907
13,502	-10,960	265,621	125,239
14,517	-10,808	265,135	125,137
15,531	-10,567	264,615	125,099
16,546	-10,516	264,390	125,028
17,561	-10,655	264,021	124,717
18,575	-10,466	263,669	124,709
19,590	-10,576	263,251	124,402
20,604	-10,628	263,161	124,302
21,619	-10,696	262,769	124,044
22,634	-10,683	262,406	123,873
23,648	-10,736	262,049	123,646
24,663	-10,692	261,858	123,584
25,677	-10,765	261,660	123,414
26,692	-10,630	261,239	123,325
27,707	-10,837	261,057	123,044
28,721	-10,771	260,763	122,953
29,736	-10,727	260,432	122,826
30,750	-10,727	260,116	122,665
31,765	-10,655	259,898	122,615
32,780	-10,795	259,713	122,393
33,794	-10,891	259,645	122,265
34,809	-10,908	259,234	122,046
35,823	-10,804	259,029	122,030
36,838	-10,856	258,757	121,845
37,853	-10,718	258,505	121,838
38,867	-10,898	258,234	121,540
39,882	-10,859	258,057	121,480
40,896	-10,735	257,748	121,433
41,911	-10,960	257,422	121,070
42,926	-10,697	257,380	121,272
43,940	-11,039	257,056	120,807
44,955	-10,861	256,848	120,855
45,969	-11,178	256,680	120,488
46,984	-11,173	256,329	120,316
47,999	-11,414	255,927	119,906
49,013	-11,446	255,831	119,822
50,028	-11,702	255,523	119,445
51,042	-11,627	255,227	119,361
52,057	-11,629	255,086	119,283
53,071	-11,632	254,838	119,153
54,086	-11,488	254,732	119,218
55,101	-11,599	254,792	119,139
56,115	-11,182	254,501	119,355
57,130	-10,847	254,379	119,578
58,144	-10,483	254,225	119,810
59,159	-10,547	254,051	119,662
60,174	-10,306	253,680	119,685
61,188	-10,545	253,525	119,395
62,203	-10,683	253,199	119,111
63,217	-10,626	253,129	119,118
64,232	-10,591	252,974	119,064
65,247	-10,517	252,686	118,981
66,261	-10,778	252,525	118,670
67,276	-10,860	252,059	118,370
68,290	-11,126	251,850	118,034
69,305	-11,411	251,655	117,687
70,320	-11,223	251,621	117,821
71,334	-11,020	251,280	117,825
72,349	-10,773	251,313	118,042
73,363	-10,608	251,176	118,108
74,378	-10,601	250,757	117,907
75,393	-10,589	250,450	117,761
76,407	-10,572	250,438	117,760
77,422	-10,698	250,065	117,467
78,436	-10,685	250,126	117,496
79,451	-10,629	249,614	117,293
80,466	-10,901	249,529	117,011
81,480	-11,002	249,267	116,792
82,495	-10,917	249,048	116,751
83,509	-10,938	248,956	116,680
84,524	-11,173	248,551	116,281
85,539	-11,255	248,366	116,115
86,553	-11,129	248,262	116,162
87,568	-11,130	248,096	116,073
88,582	-10,957	248,013	116,170
89,597	-10,992	247,706	115,986
90,611	-10,847	247,466	115,986
91,626	-10,718	247,387	116,047
92,641	-10,723	247,136	115,915
93,655	-10,817	247,017	115,770
94,670	-11,051	246,737	115,432
95,684	-11,088	246,484	115,272
96,699	-10,991	246,543	115,371
97,714	-10,907	246,111	115,228
98,728	-11,157	246,093	115,001
99,743	-11,164	245,682	114,793
100,757	-11,186	245,498	114,678
101,772	-11,209	245,418	114,612
102,787	-11,066	245,347	114,687
103,801	-10,986	245,075	114,616
104,816	-11,062	245,090	114,550
105,830	-11,040	244,853	114,447
106,845	-10,933	244,804	114,503
107,860	-10,760	244,510	114,499
108,874	-10,827	244,118	114,249
109,889	-10,891	244,022	114,141
110,903	-10,952	243,705	113,933
111,918	-10,966	243,655	113,887
112,933	-11,024	243,479	113,747
113,947	-10,797	243,232	113,809
114,962	-10,895	243,146	113,678
115,976	-10,694	242,983	113,757
116,991	-10,816	242,787	113,554
118,006	-11,092	242,569	113,216
119,020	-10,969	242,518	113,283
120,035	-10,824	242,334	113,305
121,049	-10,861	242,267	113,234
122,064	-10,573	242,002	113,337
123,079	-10,790	241,698	113,006
124,093	-10,762	241,432	112,895
125,108	-11,145	241,448	112,578
126,122	-11,140	240,961	112,345
127,137	-11,506	240,930	112,022
128,151	-11,246	240,655	112,096
129,166	-11,005	240,461	112,192
130,181	-11,202	240,323	111,958
131,195	-11,270	240,125	111,800
132,210	-11,031	239,947	111,902
133,224	-10,947	239,923	111,948
134,239	-10,690	239,599	111,996
135,254	-11,002	239,610	111,738
136,268	-10,860	239,178	111,641
137,283	-11,136	239,062	111,353
138,297	-11,168	238,702	111,150
139,312	-11,302	238,562	110,967
140,327	-11,032	238,715	111,247
141,341	-10,660	238,706	111,533
142,356	-10,755	238,640	111,415
143,370	-10,571	238,263	111,378
144,385	-10,266	238,176	111,573
145,400	-10,293	237,885	111,406
146,414	-10,408	237,855	111,289
147,429	-10,792	237,667	110,882
148,443	-10,466	237,336	110,980
149,458	-10,496	237,271	110,916
150,473	-10,271	236,943	110,932
151,487	-10,651	236,701	110,505
152,502	-10,622	236,720	110,527
153,516	-10,633	236,561	110,434
154,531	-10,343	236,426	110,593
155,546	-10,818	236,255	110,124
156,560	-10,605	235,950	110,142
157,575	-10,653	235,708	109,981
158,589	-10,786	235,672	109,848
159,604	-10,518	235,418	109,933
160,619	-10,294	235,470	110,126
161,633	-10,293	235,226	110,003
162,648	-10,358	234,989	109,831
163,662	-10,245	234,852	109,846
164,677	-10,487	234,709	109,578
165,692	-10,553	234,630	109,479
166,706	-10,329	234,439	109,557
167,721	-10,237	234,388	109,597
168,735	-10,268	234,319	109,530
169,750	-10,450	234,186	109,314
170,764	-10,451	233,902	109,171
171,779	-10,222	233,624	109,213
172,794	-10,198	233,553	109,188
173,808	-10,552	233,226	108,747
174,823	-10,983	232,913	108,252
175,837	-11,269	232,889	108,006
176,852	-10,726	232,744	108,356
177,867	-10,341	232,754	108,654
178,881	-10,339	232,564	108,557
179,896	-10,319	232,574	108,568
180,910	-10,255	232,298	108,479
181,925	-10,264	232,025	108,335
182,940	-10,347	231,968	108,234
183,954	-10,192	231,840	108,285
184,969	-10,271	231,722	108,160
185,983	-10,234	231,561	108,103
186,998	-10,322	231,434	107,966
188,013	-10,327	231,283	107,882
189,027	-10,167	231,070	107,897
190,042	-10,081	230,952	107,899
191,056	-10,227	230,857	107,732
192,071	-10,250	230,546	107,559
193,086	-10,259	230,512	107,527
194,100	-10,211	230,344	107,476
195,115	-10,186	229,885	107,272
196,129	-10,590	229,832	106,925
197,144	-5,490	231,606	111,715
198,159	0,012	233,358	116,859
199,173	3,487	233,985	119,883
200,188	3,421	234,019	119,838
201,202	3,503	233,721	119,739
202,217	3,751	233,686	119,903
203,232	4,126	233,594	120,139
204,246	4,014	233,605	120,046
205,261	4,072	233,367	119,957
206,275	4,223	233,308	120,034
207,290	4,310	233,159	120,014
208,304	4,510	232,895	120,024
209,319	4,169	232,956	119,779
210,334	3,950	232,752	119,493
211,348	3,961	232,380	119,300
212,363	3,627	232,166	118,921
213,377	3,560	231,985	118,766
214,392	3,367	231,780	118,501
215,407	3,436	231,644	118,475
216,421	3,446	231,576	118,437
217,436	3,477	231,241	118,279
218,450	3,322	231,044	118,048
219,465	3,203	230,879	117,861
220,480	3,145	230,861	117,797
221,494	3,399	230,555	117,826
222,509	3,120	230,522	117,584
223,523	3,157	230,515	117,598
224,538	3,473	230,093	117,615
225,553	3,508	230,018	117,593
226,567	3,258	230,002	117,382
227,582	3,526	229,901	117,526
228,596	3,735	229,792	117,620
229,611	3,356	229,591	117,216
230,626	3,222	229,388	117,000
231,640	3,344	229,124	116,948
232,655	3,563	229,072	117,078
233,669	4,038	229,064	117,426
234,684	3,979	228,937	117,306
235,699	3,747	228,702	116,998
236,713	3,632	228,529	116,812
237,728	3,357	228,374	116,513
238,742	3,427	228,202	116,467
239,757	3,084	227,957	116,072
240,772	3,104	227,864	116,029
241,786	3,303	227,740	116,107
242,801	3,420	227,777	116,204
243,815	3,723	227,705	116,387
244,830	3,738	227,394	116,228
245,844	3,413	227,227	115,887
246,859	3,598	227,161	115,983
247,874	3,541	227,052	115,874
248,888	3,718	226,791	115,864
249,903	3,491	226,640	115,606
250,917	3,381	226,382	115,381
251,932	3,583	226,150	115,404
252,947	3,437	226,046	115,231
253,961	3,267	225,931	115,035
254,976	3,342	225,830	115,029
255,990	3,761	225,735	115,285
257,005	3,449	225,766	115,056
258,020	3,689	225,477	115,079
259,034	3,723	225,382	115,045
260,049	3,695	225,208	114,925
261,063	3,624	225,018	114,765
262,078	3,734	224,937	114,795
263,093	3,944	224,838	114,892
264,107	3,609	224,554	114,487
265,122	3,687	224,440	114,476
266,136	3,822	224,451	114,573
267,151	3,972	224,147	114,519
268,166	3,547	223,967	114,101
269,180	3,017	223,787	113,605
270,195	3,297	223,656	113,736
271,209	3,426	223,406	113,694
272,224	3,452	223,330	113,665
273,239	3,628	223,179	113,708
274,253	3,341	223,119	113,455
275,268	3,220	222,804	113,195
276,282	3,169	222,690	113,090
277,297	3,018	222,559	112,901
278,312	3,183	222,616	113,042
279,326	3,259	222,502	113,030
280,341	3,358	222,362	113,021
281,355	3,433	222,234	113,002
282,370	3,282	221,864	112,693
283,384	2,987	221,726	112,395
284,399	2,977	221,549	112,289
285,414	3,283	221,434	112,445
286,428	3,277	221,462	112,444
287,443	3,645	221,236	112,590
288,457	3,492	221,194	112,446
289,472	3,331	220,866	112,151
290,487	2,808	220,748	111,699
291,501	2,934	220,517	111,664
292,516	3,085	220,334	111,672
293,530	3,143	220,216	111,645
294,545	3,128	220,248	111,640
295,560	3,321	220,043	111,666
296,574	3,177	220,015	111,537
297,589	3,443	219,834	111,630
298,603	3,365	219,613	111,451
299,618	3,284	219,580	111,365
300,633	3,440	219,571	111,464
301,647	3,828	219,308	111,602
302,662	3,585	219,193	111,358
303,676	3,549	218,998	111,222
304,691	3,518	218,982	111,182
305,706	3,467	218,838	111,062
306,720	3,737	218,710	111,183
307,735	3,367	218,549	110,823
308,749	3,291	218,220	110,591
309,764	3,427	218,127	110,632
310,779	3,706	218,063	110,792
311,793	3,404	217,904	110,483
312,808	3,648	217,758	110,576
313,822	3,391	217,514	110,256
314,837	3,459	217,403	110,239
315,852	3,281	217,101	109,948
316,866	3,180	217,238	109,936
317,881	3,643	217,012	110,144
318,895	3,516	216,966	110,019
319,910	3,543	216,605	109,846
320,925	2,843	216,566	109,315
321,939	2,911	216,318	109,229
322,954	2,910	216,349	109,234
323,968	3,913	216,241	109,887
324,983	3,667	216,191	109,676
325,997	3,595	215,972	109,504
327,012	3,488	215,877	109,369
328,027	3,489	215,652	109,246
329,041	3,635	215,718	109,374
330,056	3,941	215,585	109,514
331,070	3,579	215,191	109,047
332,085	3,283	215,081	108,771
333,100	3,168	214,969	108,623
334,114	3,529	214,827	108,798
335,129	3,572	214,798	108,804
336,143	3,498	214,437	108,559
337,158	3,511	214,417	108,549
338,173	3,317	214,339	108,362
339,187	3,008	214,236	108,082
340,202	3,248	213,880	108,062
341,216	3,175	213,890	108,006
342,231	3,168	213,665	107,878
343,246	3,276	213,485	107,853
344,260	3,396	213,409	107,890
345,275	3,392	213,328	107,837
346,289	3,484	213,379	107,918
347,304	3,396	213,234	107,773
348,319	3,334	213,055	107,629
349,333	3,448	212,824	107,583
350,348	3,548	212,660	107,560
351,362	3,527	212,689	107,551
352,377	3,584	212,480	107,475
353,392	3,368	212,325	107,237
354,406	3,622	212,190	107,336
355,421	196,652	1341,166	1423,323
356,435	157,149	1478,701	1423,307
