DTS Sentinel unit serial number:	SN410029Multiplexer serial number:	ORYXHardware model number:	OX2-SRSoftware version number:	ORYX F/W v4,00 Oryx Data Collector v3.7.2.0data status	okinstallation	B6 Nyhavnadifferential loss correction	single-endedforward channel	channel 2reverse channel	N/Adate	2023/12/10time	03:00:08forward acquisition time	300,00reverse acquisition time	0,00gamma	499,1914k internal	0,3125k external	0,3125temperature offset calibration	1,0000default loss term (dB/km)	0,3820temperature slope calibration	1,0000multiplexer offset coefficient	1,0000multiplexer slope coefficient	1,0000fibre end	0,00T internal ref (°C)	21,99T ext. ref 1 (°C)	5,80T ext. ref 2 (°C)	5,79length (m)	temperature (°C)	Stokes	anti-Stokes-744,400	344,259	0,007	-0,010
-743,385	28,997	-0,149	0,094
-742,371	497,370	0,085	-0,146
-741,356	48,221	-0,156	0,109
-740,342	-75,816	0,163	0,043
-739,327	245,509	-0,147	0,184
-738,312	225,386	0,021	0,026
-737,298	-130,126	-0,240	-0,024
-736,283	-200,000	-0,025	-0,186
-735,269	-28,503	-0,101	0,043
-734,254	277,548	0,044	0,059
-733,239	-67,100	-0,499	-0,145
-732,225	-122,835	0,119	-0,014
-731,210	354,360	-0,052	0,078
-730,196	710,048	0,033	-0,065
-729,181	800,000	-0,018	0,046
-728,167	-200,000	0,023	-0,122
-727,152	-200,000	-0,008	-0,162
-726,137	800,000	-0,034	0,077
-725,123	-200,000	-0,031	-0,112
-724,108	245,424	-0,117	-0,147
-723,094	288,561	0,024	-0,033
-722,079	631,881	0,020	-0,037
-721,064	106,806	0,085	0,075
-720,050	-200,000	-0,007	0,155
-719,035	-181,526	-0,048	-0,001
-718,021	-169,491	-0,176	0,005
-717,006	-75,725	-0,020	-0,005
-715,991	-200,000	0,016	-0,073
-714,977	-200,000	-0,005	-0,020
-713,962	15,251	-0,120	-0,070
-712,948	-200,000	0,011	0,057
-711,933	-200,000	-0,002	0,052
-710,918	728,201	-0,064	-0,128
-709,904	433,325	0,065	-0,106
-708,889	88,460	-0,078	0,064
-707,875	-127,588	-0,050	0,005
-706,860	114,562	-0,078	-0,071
-705,845	151,168	-0,045	-0,046
-704,831	-86,364	0,093	-0,021
-703,816	5,136	0,106	0,058
-702,802	-39,664	-0,065	-0,025
-701,787	-91,704	-0,174	-0,037
-700,772	743,640	0,073	-0,146
-699,758	448,958	-0,059	-0,096
-698,743	190,046	0,027	-0,030
-697,729	-200,000	0,009	-0,041
-696,714	-79,061	-0,039	-0,010
-695,699	463,688	0,056	-0,094
-694,685	-200,000	-0,011	-0,125
-693,670	-200,000	0,008	-0,065
-692,656	59,951	0,019	-0,014
-691,641	-91,236	-0,174	-0,037
-690,627	-13,465	0,150	0,072
-689,612	-3,102	-0,055	0,029
-688,597	-41,035	0,205	0,078
-687,583	49,870	-0,064	0,045
-686,568	-15,691	-0,163	-0,077
-685,554	-173,805	-0,124	-0,003
-684,539	-140,302	-0,079	-0,006
-683,524	67,060	0,102	0,077
-682,510	-42,954	-0,012	-0,004
-681,495	-200,000	-0,028	-0,156
-680,481	-49,686	-0,151	-0,053
-679,466	612,623	-0,042	-0,079
-678,451	-200,000	-0,006	0,117
-677,437	-95,154	-0,103	0,021
-676,422	-99,912	0,101	0,019
-675,408	-200,000	-0,007	0,112
-674,393	-200,000	0,005	-0,138
-673,378	33,330	-0,057	0,037
-672,364	-17,026	-0,108	0,050
-671,349	122,259	0,045	-0,042
-670,335	-200,000	-0,062	0,000
-669,320	16,875	0,058	0,034
-668,305	-88,173	0,112	0,025
-667,291	53,691	-0,027	-0,019
-666,276	800,000	-0,011	0,036
-665,262	-117,120	-0,131	-0,018
-664,247	-91,790	-0,070	0,015
-663,232	-200,000	-0,006	-0,057
-662,218	19,522	0,069	0,041
-661,203	275,873	-0,053	0,069
-660,189	141,903	-0,059	0,058
-659,174	394,761	-0,064	0,100
-658,159	-38,677	-0,076	0,030
-657,145	285,018	-0,044	0,059
-656,130	800,000	-0,069	0,200
-655,116	39,864	-0,066	-0,044
-654,101	-200,000	0,016	-0,091
-653,086	-102,210	-0,066	-0,012
-652,072	87,553	-0,085	0,070
-651,057	-30,907	-0,037	0,015
-650,043	-151,197	-0,151	0,008
-649,028	-103,943	-0,062	0,011
-648,014	656,770	0,023	0,044
-646,999	-200,000	-0,023	0,076
-645,984	22,894	0,078	0,047
-644,970	347,516	-0,052	-0,076
-643,955	-200,000	-0,003	-0,097
-642,941	104,745	-0,041	-0,036
-641,926	-87,903	-0,063	0,014
-640,911	-22,969	0,068	0,030
-639,897	746,763	-0,030	-0,060
-638,882	-200,000	-0,009	-0,029
-637,868	-200,000	-0,006	-0,059
-636,853	52,906	-0,147	-0,104
-635,838	-200,000	-0,017	0,064
-634,824	-49,318	0,118	-0,042
-633,809	-39,674	0,109	0,042
-632,795	635,893	-0,049	0,093
-631,780	800,000	-0,056	-0,164
-630,765	-95,474	0,196	-0,039
-629,751	-36,685	-0,160	0,063
-628,736	-95,063	-0,097	0,019
-627,722	800,000	-0,045	-0,115
-626,707	-200,000	0,003	-0,035
-625,692	410,182	0,020	-0,031
-624,678	-114,313	0,093	0,013
-623,663	149,544	-0,049	-0,049
-622,649	-10,600	-0,170	0,083
-621,634	497,856	-0,037	-0,063
-620,619	-200,000	-0,024	-0,087
-619,605	-200,000	0,013	-0,051
-618,590	569,036	-0,038	0,068
-617,576	-200,000	0,035	-0,222
-616,561	-200,000	-0,005	0,051
-615,546	261,163	0,079	-0,102
-614,532	-200,000	-0,008	-0,050
-613,517	573,929	0,059	-0,107
-612,503	181,227	-0,084	0,092
-611,488	44,130	-0,043	0,029
-610,474	-200,000	-0,055	0,198
-609,459	800,000	0,035	0,073
-608,444	132,627	-0,128	0,122
-607,430	-73,345	-0,029	-0,008
-606,415	800,000	0,054	-0,112
-605,401	-200,000	-0,003	-0,167
-604,386	-104,526	-0,101	0,017
-603,371	-200,000	0,002	-0,007
-602,357	239,650	0,114	0,141
-601,342	800,000	-0,058	0,165
-600,328	135,107	-0,040	-0,038
-599,313	248,354	-0,088	0,110
-598,298	88,284	-0,014	-0,011
-597,284	59,481	0,073	-0,053
-596,269	-157,378	0,026	-0,001
-595,255	-135,878	-0,066	-0,006
-594,240	-200,000	-0,007	0,046
-593,225	557,282	0,045	-0,081
-592,211	-56,143	-0,085	0,028
-591,196	-200,000	0,022	0,123
-590,182	-200,000	0,008	-0,029
-589,167	-200,000	-0,001	0,080
-588,152	-200,000	0,002	-0,154
-587,138	-34,588	-0,061	-0,025
-586,123	800,000	-0,032	-0,067
-585,109	50,305	-0,064	-0,045
-584,094	153,196	0,088	-0,089
-583,079	93,673	-0,058	-0,049
-582,065	688,027	0,067	-0,130
-581,050	-49,087	-0,114	-0,040
-580,036	-200,000	0,001	0,018
-579,021	-102,081	0,124	0,022
-578,006	800,000	-0,041	0,100
-576,992	227,121	-0,010	0,012
-575,977	-93,742	0,058	0,012
-574,963	-16,177	-0,049	0,023
-573,948	770,036	-0,013	-0,026
-572,934	800,000	0,038	-0,097
-571,919	800,000	0,012	0,038
-570,904	-85,252	-0,112	-0,026
-569,890	75,108	0,072	-0,056
-568,875	-71,069	0,135	0,037
-567,861	-129,493	0,134	-0,014
-566,846	-10,553	-0,039	0,019
-565,831	-200,000	-0,001	0,028
-564,817	3,491	-0,063	-0,034
-563,802	-23,352	-0,025	0,011
-562,788	114,234	-0,018	-0,016
-561,773	22,162	-0,088	0,053
-560,758	-200,000	0,022	0,119
-559,744	-161,143	0,028	-0,001
-558,729	-146,485	0,068	0,004
-557,715	-78,622	-0,106	-0,027
-556,700	60,943	0,048	-0,035
-555,685	-33,125	-0,024	0,010
-554,671	343,012	-0,021	0,031
-553,656	800,000	0,059	-0,158
-552,642	-200,000	0,012	-0,165
-551,627	579,187	0,088	-0,161
-550,612	-200,000	-0,014	-0,068
-549,598	34,253	-0,055	-0,036
-548,583	-200,000	-0,004	-0,126
-547,569	-99,510	-0,079	0,015
-546,554	234,430	0,037	0,045
-545,539	-36,538	-0,048	-0,019
-544,525	-200,000	-0,011	-0,093
-543,510	269,019	-0,061	0,080
-542,496	122,658	-0,091	0,084
-541,481	800,000	0,125	-0,295
-540,466	800,000	0,025	0,075
-539,452	113,766	0,099	-0,089
-538,437	-71,547	0,019	0,005
-537,423	-68,929	0,080	-0,023
-536,408	269,791	-0,026	-0,034
-535,393	-95,175	-0,150	-0,030
-534,379	800,000	0,005	0,012
-533,364	-200,000	-0,009	-0,159
-532,350	104,545	-0,058	0,050
-531,335	800,000	0,029	0,088
-530,321	800,000	0,043	-0,093
-529,306	8,073	-0,140	0,077
-528,291	-200,000	-0,017	-0,092
-527,277	-200,000	-0,045	-0,257
-526,262	-200,000	-0,010	-0,114
-525,248	27,233	0,160	0,099
-524,233	96,427	0,099	0,084
-523,218	-81,520	-0,092	-0,022
-522,204	411,152	0,044	-0,069
-521,189	612,825	-0,042	-0,078
-520,175	74,070	0,045	0,035
-519,160	-200,000	0,020	-0,080
-518,145	118,574	0,040	-0,036
-517,131	-200,000	0,049	0,164
-516,116	-81,166	-0,048	0,012
-515,102	252,028	-0,077	0,097
-514,087	66,429	0,028	-0,021
-513,072	56,119	-0,099	-0,071
-512,058	-111,312	-0,094	-0,014
-511,043	-67,523	0,181	0,052
-510,029	-120,814	0,200	-0,025
-509,014	-89,840	0,034	-0,007
-507,999	-200,000	0,011	0,122
-506,985	800,000	-0,034	0,089
-505,970	139,537	-0,123	-0,119
-504,956	289,184	0,021	0,028
-503,941	-200,000	0,051	0,189
-502,926	-200,000	-0,019	0,082
-501,912	-8,675	0,109	-0,054
-500,897	14,109	-0,072	0,041
-499,883	544,363	-0,052	-0,092
-498,868	-102,263	-0,101	0,018
-497,853	800,000	-0,030	0,084
-496,839	-200,000	0,011	0,076
-495,824	42,010	0,096	0,064
-494,810	800,000	-0,053	0,156
-493,795	33,913	-0,130	-0,083
-492,781	-82,476	0,056	-0,013
-491,766	133,904	0,047	-0,045
-490,751	2,115	-0,026	0,014
-489,737	-200,000	0,008	-0,091
-488,722	-183,414	0,055	0,001
-487,708	463,903	-0,024	0,039
-486,693	-200,000	-0,029	0,122
-485,678	75,736	0,079	0,061
-484,664	253,266	0,096	0,121
-483,649	192,866	0,071	-0,080
-482,635	79,415	-0,028	0,022
-481,620	73,404	0,077	0,060
-480,605	-200,000	0,008	0,086
-479,591	-128,310	-0,125	-0,013
-478,576	268,982	-0,048	-0,062
-477,562	154,091	-0,042	0,043
-476,547	-119,012	0,101	-0,013
-475,532	253,953	0,043	-0,054
-474,518	-118,415	0,057	0,007
-473,503	-200,000	0,020	0,102
-472,489	-200,000	-0,004	-0,072
-471,474	-92,887	0,168	0,034
-470,459	-103,773	-0,177	0,030
-469,445	-200,000	-0,003	-0,018
-468,430	441,856	-0,052	-0,085
-467,416	104,285	-0,017	-0,015
-466,401	-71,952	-0,062	0,017
-465,386	-160,746	0,108	-0,004
-464,372	-200,000	0,028	0,102
-463,357	-106,169	-0,176	-0,029
-462,343	-200,000	0,008	-0,026
-461,328	-89,555	0,078	0,017
-460,313	6,718	0,082	-0,045
-459,299	310,160	-0,047	0,065
-458,284	484,297	0,058	0,098
-457,270	190,516	-0,051	0,056
-456,255	87,680	-0,093	0,076
-455,241	-200,000	-0,021	0,094
-454,226	49,846	-0,145	-0,100
-453,211	800,000	-0,010	-0,026
-452,197	149,023	0,064	-0,063
-451,182	-200,000	0,013	0,087
-450,168	622,770	-0,064	-0,119
-449,153	-145,251	0,016	0,001
-448,138	-200,000	0,010	0,041
-447,124	323,338	0,033	-0,046
-446,109	800,000	-0,027	0,063
-445,095	199,167	0,032	0,036
-444,080	58,750	0,051	-0,037
-443,065	-200,000	-0,008	0,036
-442,051	-200,000	0,020	-0,076
-441,036	-93,861	-0,181	0,036
-440,022	-125,934	0,042	0,005
-439,007	-8,793	-0,023	-0,011
-437,992	-8,937	0,131	-0,065
-436,978	-29,650	0,125	0,052
-435,963	-58,292	-0,127	-0,041
-434,949	100,272	0,097	0,083
-433,934	236,460	-0,066	-0,080
-432,919	800,000	-0,021	-0,053
-431,905	89,977	-0,069	-0,057
-430,890	737,330	-0,024	-0,047
-429,876	-60,660	0,188	0,058
-428,861	-164,005	0,091	-0,003
-427,846	84,914	0,105	0,085
-426,832	-66,775	-0,044	-0,013
-425,817	510,210	-0,025	-0,043
-424,803	-23,866	0,067	0,029
-423,788	150,853	0,010	-0,010
-422,773	-82,405	-0,030	0,007
-421,759	800,000	0,028	0,073
-420,744	-200,000	0,007	-0,034
-419,730	-200,000	0,007	0,096
-418,715	75,823	-0,069	-0,053
-417,701	-200,000	-0,034	-0,144
-416,686	-87,180	0,033	0,007
-415,671	-200,000	0,012	0,074
-414,657	-200,000	0,043	0,158
-413,642	-71,776	0,203	-0,055
-412,628	-200,000	-0,011	0,066
-411,613	-24,263	-0,080	0,035
-410,598	-82,354	0,181	-0,043
-409,584	351,947	0,046	-0,067
-408,569	668,357	-0,032	-0,062
-407,555	-200,000	0,013	-0,124
-406,540	-200,000	0,007	-0,084
-405,525	70,504	0,011	-0,008
-404,511	695,818	-0,053	-0,102
-403,496	290,763	0,016	0,021
-402,482	-11,673	-0,039	0,019
-401,467	-200,000	-0,018	0,172
-400,452	377,513	-0,010	0,015
-399,438	-200,000	0,016	-0,086
-398,423	355,509	-0,043	-0,063
-397,409	60,827	-0,025	0,018
-396,394	-155,573	-0,064	0,003
-395,379	24,581	0,131	-0,079
-394,365	93,127	-0,059	0,049
-393,350	133,441	0,025	0,023
-392,336	800,000	0,051	0,128
-391,321	235,409	0,112	-0,136
-390,306	-200,000	0,002	0,040
-389,292	-90,514	-0,042	-0,009
-388,277	310,365	0,048	-0,066
-387,263	541,186	0,029	-0,050
-386,248	-200,000	0,018	-0,065
-385,233	-200,000	0,028	0,102
-384,219	-200,000	-0,085	0,000
-383,204	-9,221	0,066	-0,032
-382,190	-200,000	-0,026	0,095
-381,175	-88,757	0,115	-0,025
-380,160	800,000	0,011	0,029
-379,146	-156,781	0,100	0,004
-378,131	800,000	-0,036	-0,081
-377,117	-139,951	0,128	-0,010
-376,102	-120,783	0,146	-0,018
-375,088	655,479	0,019	-0,036
-374,073	-32,323	-0,091	-0,037
-373,058	-105,735	0,060	0,010
-372,044	-200,000	0,018	0,119
-371,029	6,217	0,152	-0,083
-370,015	11,463	-0,095	-0,053
-369,000	-200,000	-0,028	-0,132
-367,985	-64,529	-0,015	-0,004
-366,971	-200,000	-0,015	-0,139
-365,956	-114,692	0,049	-0,007
-364,942	88,819	0,062	0,051
-363,927	311,653	-0,042	-0,058
-362,912	-200,000	0,004	-0,150
-361,898	-200,000	0,011	-0,110
-360,883	145,731	0,101	-0,099
-359,869	381,391	-0,108	-0,164
-358,854	-9,672	0,143	0,070
-357,839	-196,527	0,061	0,000
-356,825	211,809	0,060	-0,069
-355,810	800,000	0,024	-0,058
-354,796	-200,000	-0,006	-0,038
-353,781	-151,168	0,076	-0,004
-352,766	-107,260	-0,111	-0,018
-351,752	800,000	0,024	-0,053
-350,737	101,200	0,050	0,042
-349,723	-27,270	0,115	0,049
-348,708	-200,000	-0,011	0,117
-347,693	-50,802	-0,033	-0,011
-346,679	-200,000	0,002	-0,010
-345,664	91,916	0,053	-0,044
-344,650	800,000	0,039	0,094
-343,635	-200,000	0,006	0,151
-342,620	800,000	0,024	0,069
-341,606	281,465	-0,080	0,105
-340,591	211,215	-0,077	0,089
-339,577	7,578	-0,083	0,046
-338,562	800,000	-0,031	-0,090
-337,548	52,892	-0,085	-0,059
-336,533	102,042	0,103	-0,088
-335,518	-200,000	0,015	-0,101
-334,504	-200,000	0,006	-0,081
-333,489	52,774	0,020	-0,014
-332,475	37,492	-0,026	-0,017
-331,460	800,000	0,059	-0,126
-330,445	-40,615	-0,040	0,015
-329,431	-200,000	0,009	0,060
-328,416	-200,000	-0,037	0,212
-327,402	-103,763	-0,083	-0,014
-326,387	-141,964	0,079	-0,006
-325,372	-136,863	-0,046	0,004
-324,358	798,059	0,052	-0,105
-323,343	-71,487	0,055	0,015
-322,329	-200,000	0,003	-0,048
-321,314	-200,000	0,015	0,138
-320,299	-97,289	0,069	-0,013
-319,285	68,571	-0,072	0,054
-318,270	-89,362	0,087	-0,019
-317,256	-41,753	-0,067	-0,025
-316,241	41,028	-0,111	-0,074
-315,226	-200,000	-0,005	0,143
-314,212	800,000	0,043	0,102
-313,197	438,551	0,071	0,114
-312,183	95,210	-0,107	0,089
-311,168	-200,000	-0,027	-0,194
-310,153	800,000	-0,067	-0,165
-309,139	246,374	-0,077	-0,095
-308,124	27,839	-0,082	0,050
-307,110	76,348	0,110	0,085
-306,095	-28,188	-0,043	-0,018
-305,080	-53,788	0,061	-0,020
-304,066	-25,030	-0,041	0,018
-303,051	800,000	0,034	0,079
-302,037	-21,944	0,060	0,026
-301,022	-200,000	0,009	0,051
-300,008	-200,000	-0,004	-0,211
-298,993	222,657	0,049	0,058
-297,978	305,613	-0,079	0,107
-296,964	-200,000	-0,017	-0,074
-295,949	-22,071	0,066	-0,029
-294,935	-200,000	0,000	-0,028
-293,920	72,770	0,078	0,060
-292,905	-200,000	-0,031	0,143
-291,891	742,053	-0,029	0,058
-290,876	-200,000	0,010	-0,065
-289,862	-200,000	0,007	0,043
-288,847	264,841	-0,042	-0,054
-287,832	226,747	0,069	0,082
-286,818	14,874	0,051	-0,029
-285,803	-81,192	-0,145	-0,035
-284,789	-7,563	0,059	0,029
-283,774	-200,000	0,020	0,099
-282,759	412,138	-0,020	-0,030
-281,745	239,367	-0,094	-0,115
-280,730	160,725	0,041	-0,042
-279,716	-16,906	0,034	-0,016
-278,701	-200,000	-0,017	0,071
-277,686	-172,690	0,109	-0,002
-276,672	-76,769	-0,026	-0,007
-275,657	800,000	-0,041	-0,110
-274,643	-5,095	-0,118	0,059
-273,628	-200,000	0,038	0,126
-272,613	52,867	-0,049	-0,034
-271,599	-200,000	-0,005	0,062
-270,584	-200,000	0,016	0,149
-269,570	68,110	-0,103	0,077
-268,555	800,000	0,016	0,044
-267,540	-66,160	-0,159	0,046
-266,526	-110,009	-0,070	0,011
-265,511	178,403	-0,153	0,163
-264,497	133,522	-0,051	0,048
-263,482	15,923	0,152	-0,087
-262,467	800,000	-0,036	-0,081
-261,453	-38,174	-0,141	-0,054
-260,438	92,479	0,062	0,051
-259,424	293,986	0,040	0,053
-258,409	206,458	-0,070	-0,079
-257,395	-200,000	-0,020	0,142
-256,380	350,319	0,014	0,020
-255,365	22,995	-0,124	0,074
-254,351	-200,000	-0,009	0,061
-253,336	-85,681	-0,099	-0,022
-252,322	64,664	-0,088	0,065
-251,307	800,000	-0,015	0,045
-250,292	800,000	-0,064	0,138
-249,278	-175,919	0,047	0,001
-248,263	-200,000	-0,001	0,128
-247,249	57,697	-0,055	-0,039
-246,234	-138,950	-0,097	-0,008
-245,219	800,000	0,063	0,139
-244,205	-200,000	0,028	-0,117
-243,190	162,745	0,024	0,024
-242,176	-200,000	-0,033	0,141
-241,161	-93,391	-0,131	-0,026
-240,146	328,895	0,053	0,075
-239,132	-200,000	0,005	0,118
-238,117	-200,000	-0,018	0,171
-237,103	513,299	0,035	-0,059
-236,088	800,000	0,062	-0,130
-235,073	-0,118	-0,051	-0,026
-234,059	36,771	-0,037	0,024
-233,044	314,829	0,065	0,090
-232,030	718,097	-0,038	0,075
-231,015	800,000	-0,011	0,031
-230,000	-121,720	-0,103	0,012
-228,986	-200,000	-0,000	-0,065
-227,971	155,719	0,013	0,013
-226,957	274,507	-0,084	0,109
-225,942	-10,553	0,036	-0,017
-224,927	221,459	0,069	-0,081
-223,913	-70,022	0,051	0,014
-222,898	800,000	-0,060	-0,161
-221,884	800,000	-0,041	-0,089
-220,869	800,000	-0,037	0,089
-219,855	7,154	-0,037	0,020
-218,840	-49,480	0,036	-0,012
-217,825	-30,211	0,047	-0,019
-216,811	-200,000	-0,009	0,039
-215,796	-161,977	0,062	0,002
-214,782	432,117	-0,095	-0,150
-213,767	800,000	0,027	0,067
-212,752	11,496	0,083	0,046
-211,738	-47,328	0,098	0,035
-210,723	-200,000	0,004	0,213
-209,709	299,061	0,031	-0,042
-208,694	103,381	-0,113	-0,096
-207,679	-200,000	-0,003	0,038
-206,665	-200,000	0,029	0,138
-205,650	236,299	-0,039	-0,048
-204,636	-76,192	0,031	-0,008
-203,621	667,210	-0,011	-0,021
-202,606	349,365	0,072	0,103
-201,592	-149,718	0,026	0,001
-200,577	170,458	0,053	-0,055
-199,563	52,874	-0,111	-0,077
-198,548	-43,618	0,108	-0,039
-197,533	-200,000	0,037	-0,159
-196,519	-200,000	-0,028	-0,130
-195,504	73,983	0,025	-0,019
-194,490	-55,407	-0,076	0,025
-193,475	-136,414	-0,014	0,001
-192,460	120,926	0,029	0,027
-191,446	753,398	-0,033	0,066
-190,431	-159,970	-0,045	0,002
-189,417	278,309	0,084	-0,109
-188,402	457,193	0,066	-0,107
-187,387	-36,427	-0,080	0,031
-186,373	175,961	-0,046	0,048
-185,358	94,828	0,116	-0,096
-184,344	123,724	-0,080	0,073
-183,329	183,336	0,063	-0,068
-182,315	-200,000	0,003	0,082
-181,300	682,498	0,066	0,126
-180,285	-200,000	-0,019	0,070
-179,271	742,333	-0,062	0,121
-178,256	800,000	0,016	-0,047
-177,242	-46,952	0,161	0,057
-176,227	-200,000	0,006	0,041
-175,212	-200,000	0,019	0,100
-174,198	656,945	0,042	-0,079
-173,183	-200,000	-0,005	-0,017
-172,169	177,256	0,030	-0,032
-171,154	800,000	-0,029	0,078
-170,139	-72,710	0,097	-0,026
-169,125	-200,000	0,028	0,095
-168,110	800,000	0,055	0,144
-167,096	113,152	0,103	0,091
-166,081	433,074	-0,060	0,095
-165,066	-200,000	0,003	0,054
-164,052	500,120	0,024	-0,041
-163,037	136,831	-0,085	0,081
-162,023	-105,867	-0,050	-0,008
-161,008	94,899	0,062	-0,051
-159,993	-200,000	0,013	-0,070
-158,979	-200,000	0,006	-0,029
-157,964	-53,908	-0,115	-0,038
-156,950	-200,000	0,009	-0,058
-155,935	-97,001	-0,089	0,017
-154,920	88,586	-0,081	-0,066
-153,906	-1,680	-0,011	0,006
-152,891	800,000	-0,025	-0,065
-151,877	-64,556	-0,103	-0,030
-150,862	-31,957	0,110	0,045
-149,847	-9,984	-0,103	-0,050
-148,833	-91,966	0,057	-0,012
-147,818	800,000	0,027	0,079
-146,804	800,000	-0,050	0,143
-145,789	800,000	-0,025	0,053
-144,775	800,000	-0,030	-0,072
-143,760	-86,721	0,053	0,012
-142,745	-200,000	-0,020	-0,109
-141,731	146,930	-0,075	-0,074
-140,716	-200,000	-0,012	0,050
-139,702	-200,000	-0,027	0,138
-138,687	800,000	0,012	0,036
-137,672	239,031	-0,042	0,051
-136,658	-200,000	-0,004	-0,091
-135,643	-31,996	-0,127	0,051
-134,629	-145,023	0,039	-0,003
-133,614	98,345	-0,017	-0,014
-132,599	166,961	-0,047	-0,048
-131,585	-200,000	0,002	0,139
-130,570	-14,389	-0,068	-0,032
-129,556	800,000	0,041	-0,117
-128,541	800,000	-0,061	-0,184
-127,526	59,747	-0,025	-0,018
-126,512	-0,385	0,031	-0,016
-125,497	-200,000	-0,009	0,135
-124,483	800,000	0,019	-0,061
-123,468	-8,761	-0,027	-0,013
-122,453	320,183	0,034	-0,046
-121,439	-13,138	0,103	-0,049
-120,424	175,274	0,164	-0,172
-119,410	-200,000	-0,009	0,033
-118,395	800,000	0,006	-0,018
-117,380	185,559	-0,047	-0,051
-116,366	800,000	0,052	-0,114
-115,351	506,008	0,027	0,045
-114,337	670,947	0,042	-0,080
-113,322	800,000	-0,056	-0,117
-112,307	-200,000	-0,023	-0,141
-111,293	453,752	-0,069	0,111
-110,278	-64,463	-0,088	-0,026
-109,264	75,481	-0,057	-0,044
-108,249	-200,000	-0,002	-0,046
-107,234	74,412	-0,146	-0,111
-106,220	800,000	-0,040	-0,117
-105,205	223,336	0,074	0,087
-104,191	254,152	-0,046	-0,057
-103,176	-122,924	0,043	0,005
-102,162	181,039	0,024	-0,026
-101,147	92,876	-0,027	-0,022
-100,132	-185,780	-0,038	0,000
-99,118	-21,445	-0,111	0,049
-98,103	-200,000	-0,007	-0,040
-97,089	26,286	0,019	0,011
-96,074	535,735	0,026	0,046
-95,059	-200,000	-0,019	0,144
-94,045	-20,111	-0,157	0,070
-93,030	-200,000	-0,006	0,126
-92,016	-200,000	0,001	-0,055
-91,001	293,995	0,005	0,006
-89,986	-200,000	0,017	-0,157
-88,972	138,788	-0,112	-0,107
-87,957	422,506	0,040	-0,063
-86,943	49,347	-0,093	0,064
-85,928	800,000	0,051	-0,115
-84,913	-114,585	-0,154	-0,021
-83,899	98,552	-0,082	-0,068
-82,884	-96,436	0,052	0,010
-81,870	-200,000	0,035	-0,123
-80,855	-200,000	0,026	-0,160
-79,840	-28,654	-0,126	-0,053
-78,826	652,011	-0,034	0,063
-77,811	-200,000	-0,012	-0,060
-76,797	187,480	-0,046	0,050
-75,782	-200,000	0,001	-0,066
-74,767	-200,000	0,047	-0,173
-73,753	307,782	-0,105	0,142
-72,738	-146,240	0,072	-0,005
-71,724	-200,000	0,013	-0,086
-70,709	109,127	0,055	0,048
-69,694	-200,000	0,018	-0,224
-68,680	-144,675	0,068	-0,005
-67,665	29,593	0,103	-0,064
-66,651	-150,681	-0,084	0,005
-65,636	-200,000	-0,007	-0,028
-64,622	-177,569	-0,073	-0,001
-63,607	800,000	-0,024	0,073
-62,592	217,471	0,016	-0,019
-61,578	-34,989	0,032	-0,013
-60,563	206,688	-0,044	0,050
-59,549	327,351	-0,035	0,048
-58,534	-109,542	-1,478	-0,224
-57,519	705,507	-0,689	-1,325
-56,505	-200,000	-1,003	-4,281
-55,490	-43,314	0,706	-0,258
-54,476	800,000	4,921	11,823
-53,461	-200,000	13,950	252,658
-52,446	-200,000	692,378	2240,616
-51,432	576,683	1623,216	2887,707
-50,417	117,793	1633,188	1457,989
-49,403	72,358	1287,188	971,447
-48,388	37,542	1023,418	656,899
-47,373	23,978	981,309	585,301
-46,359	23,265	970,828	576,691
-45,344	22,209	966,607	570,713
-44,330	22,221	965,091	569,837
-43,315	22,060	963,571	568,393
-42,300	22,014	962,567	567,628
-41,286	22,060	961,523	567,140
-40,271	22,032	960,784	566,591
-39,257	21,944	959,917	565,772
-38,242	22,035	958,661	565,302
-37,227	21,990	957,903	564,687
-36,213	21,963	957,144	564,130
-35,198	21,903	956,474	563,519
-34,184	22,004	955,842	563,452
-33,169	21,976	954,822	562,737
-32,154	22,073	953,838	562,447
-31,140	22,057	952,974	561,862
-30,125	22,016	952,027	561,151
-29,111	22,060	951,205	560,786
-28,096	22,040	950,630	560,359
-27,082	22,107	949,811	560,070
-26,067	21,987	949,336	559,383
-25,052	21,985	948,553	558,893
-24,038	22,067	947,695	558,627
-23,023	22,027	947,267	558,226
-22,009	22,059	946,610	557,919
-20,994	22,075	945,751	557,442
-19,979	22,071	945,241	557,105
-18,965	22,008	944,827	556,639
-17,950	22,068	943,875	556,247
-16,936	21,934	943,440	555,542
-15,921	21,936	942,453	554,943
-14,906	21,917	941,879	554,525
-13,892	21,920	941,245	554,138
-12,877	21,966	940,603	553,885
-11,863	21,890	939,926	553,223
-10,848	21,931	939,496	553,078
-9,833	21,996	939,096	553,026
-8,819	22,046	938,345	552,721
-7,804	21,916	937,863	552,003
-6,790	21,895	937,247	551,552
-5,775	21,984	936,439	551,336
-4,760	21,887	935,977	550,736
-3,746	21,922	935,363	550,464
-2,731	21,782	934,653	549,581
-1,717	21,736	934,064	549,070
-0,702	21,773	933,289	548,707
0,313	21,499	932,786	548,378
1,327	24,631	930,727	556,954
2,342	34,221	794,887	501,164
3,356	32,097	451,112	281,198
4,371	1,062	294,128	152,350
5,386	-3,303	275,078	138,335
6,400	-4,637	269,346	134,202
7,415	-4,998	266,966	132,672
8,429	-4,672	265,771	132,364
9,444	-4,698	264,889	131,890
10,459	-4,784	264,166	131,439
11,473	-4,732	263,722	131,254
12,488	-5,027	263,290	130,760
13,502	-5,150	262,735	130,361
14,517	-5,067	262,267	130,192
15,531	-5,151	261,901	129,923
16,546	-4,772	261,529	130,069
17,561	-4,883	261,129	129,758
18,575	-4,729	260,687	129,665
19,590	-5,018	260,420	129,261
20,604	-4,846	260,190	129,290
21,619	-5,064	259,859	128,919
22,634	-4,873	259,534	128,917
23,648	-4,808	259,232	128,814
24,663	-5,064	259,032	128,475
25,677	-4,905	258,676	128,428
26,692	-4,788	258,453	128,410
27,707	-4,868	258,100	128,153
28,721	-5,116	258,010	127,876
29,736	-4,973	257,681	127,828
30,750	-4,939	257,350	127,683
31,765	-5,131	257,176	127,415
32,780	-5,082	257,065	127,392
33,794	-4,992	256,722	127,290
34,809	-5,002	256,458	127,139
35,823	-5,213	256,286	126,856
36,838	-5,195	256,091	126,764
37,853	-4,978	255,754	126,777
38,867	-5,119	255,546	126,539
39,882	-4,999	255,350	126,536
40,896	-4,863	255,209	126,574
41,911	-5,088	254,868	126,197
42,926	-5,205	254,632	125,966
43,940	-5,158	254,398	125,880
44,955	-5,165	254,303	125,815
45,969	-5,197	254,024	125,639
46,984	-5,591	253,841	125,193
47,999	-5,326	253,520	125,255
49,013	-5,653	253,482	124,939
50,028	-5,739	252,923	124,579
51,042	-5,612	252,703	124,569
52,057	-5,667	252,375	124,349
53,071	-5,691	252,338	124,298
54,086	-5,604	252,126	124,258
55,101	-5,810	252,019	124,016
56,115	-5,560	251,948	124,187
57,130	-5,068	251,819	124,537
58,144	-4,869	251,631	124,605
59,159	-4,975	251,495	124,435
60,174	-4,788	251,236	124,457
61,188	-4,733	250,989	124,371
62,203	-4,901	250,657	124,051
63,217	-5,026	250,567	123,888
64,232	-4,782	250,368	123,988
65,247	-4,759	250,123	123,876
66,261	-4,956	249,868	123,570
67,276	-5,148	249,698	123,310
68,290	-5,083	249,338	123,176
69,305	-5,424	249,197	122,805
70,320	-5,174	248,832	122,827
71,334	-5,071	248,822	122,899
72,349	-4,944	248,732	122,952
73,363	-4,966	248,615	122,864
74,378	-4,792	248,157	122,775
75,393	-4,920	248,099	122,627
76,407	-4,988	247,918	122,469
77,422	-5,088	247,698	122,264
78,436	-4,645	247,375	122,469
79,451	-4,826	247,361	122,298
80,466	-5,193	247,104	121,849
81,480	-5,111	246,872	121,793
82,495	-4,940	246,602	121,794
83,509	-5,074	246,494	121,616
84,524	-5,165	246,315	121,440
85,539	-5,275	246,086	121,224
86,553	-5,373	245,932	121,055
87,568	-5,290	245,759	121,029
88,582	-5,023	245,420	121,075
89,597	-5,127	245,275	120,906
90,611	-5,032	245,150	120,913
91,626	-4,900	245,129	121,003
92,641	-4,915	244,957	120,895
93,655	-4,958	244,501	120,623
94,670	-5,096	244,365	120,430
95,684	-5,228	244,165	120,210
96,699	-5,194	244,151	120,220
97,714	-5,253	243,918	120,046
98,728	-5,174	243,585	119,937
99,743	-5,416	243,626	119,745
100,757	-5,325	243,272	119,636
101,772	-5,204	243,107	119,645
102,787	-5,153	242,972	119,610
103,801	-5,047	242,720	119,563
104,816	-5,078	242,611	119,473
105,830	-5,122	242,496	119,370
106,845	-5,037	242,363	119,363
107,860	-4,963	242,114	119,291
108,874	-5,180	241,812	118,953
109,889	-4,994	241,558	118,971
110,903	-5,241	241,543	118,749
111,918	-4,969	241,272	118,829
112,933	-5,070	241,240	118,720
113,947	-5,093	241,043	118,594
114,962	-4,876	240,733	118,608
115,976	-4,960	240,687	118,507
116,991	-4,982	240,434	118,354
118,006	-5,064	240,243	118,181
119,020	-5,005	240,213	118,204
120,035	-4,696	240,022	118,353
121,049	-4,985	239,917	118,054
122,064	-4,995	239,765	117,960
123,079	-4,956	239,599	117,900
124,093	-5,024	239,167	117,621
125,108	-5,025	238,922	117,490
126,122	-5,510	238,999	117,121
127,137	-5,377	238,664	117,055
128,151	-5,379	238,706	117,064
129,166	-5,324	238,431	116,963
130,181	-5,227	238,198	116,917
131,195	-5,283	237,950	116,739
132,210	-5,004	237,862	116,913
133,224	-4,866	237,707	116,939
134,239	-5,106	237,740	116,749
135,254	-4,886	237,416	116,757
136,268	-4,910	237,074	116,560
137,283	-5,215	236,899	116,217
138,297	-5,447	236,621	115,882
139,312	-5,287	236,644	116,013
140,327	-5,284	236,578	115,972
141,341	-4,630	236,451	116,427
142,356	-4,601	236,230	116,332
143,370	-4,608	236,142	116,272
144,385	-4,580	235,898	116,164
145,400	-4,745	235,824	115,985
146,414	-4,686	235,520	115,872
147,429	-4,715	235,435	115,797
148,443	-4,930	235,180	115,488
149,458	-4,867	235,351	115,613
150,473	-4,766	234,826	115,425
151,487	-4,876	234,732	115,281
152,502	-4,989	234,627	115,129
153,516	-4,725	234,375	115,206
154,531	-4,645	234,110	115,129
155,546	-4,674	233,970	115,026
156,560	-4,868	233,868	114,812
157,575	-5,044	233,706	114,582
158,589	-4,870	233,456	114,588
159,604	-4,732	233,408	114,663
160,619	-4,834	233,319	114,529
161,633	-4,533	232,954	114,578
162,648	-4,560	233,015	114,576
163,662	-4,762	232,935	114,366
164,677	-4,858	232,636	114,134
165,692	-4,895	232,629	114,091
166,706	-4,396	232,369	114,348
167,721	-4,619	232,204	114,080
168,735	-4,591	232,172	114,076
169,750	-4,570	231,972	113,984
170,764	-4,771	231,828	113,745
171,779	-4,629	231,602	113,735
172,794	-4,612	231,521	113,699
173,808	-5,081	231,316	113,219
174,823	-5,188	230,962	112,952
175,837	-5,219	230,678	112,779
176,852	-5,007	230,702	112,947
177,867	-4,685	230,491	113,085
178,881	-4,730	230,546	113,067
179,896	-4,495	230,417	113,178
180,910	-4,622	230,143	112,934
181,925	-4,641	229,995	112,836
182,940	-4,600	229,757	112,741
183,954	-4,457	229,669	112,799
184,969	-4,502	229,644	112,743
185,983	-4,376	229,361	112,691
186,998	-4,579	229,284	112,486
188,013	-4,533	229,165	112,453
189,027	-4,621	229,089	112,337
190,042	-4,370	228,767	112,364
191,056	-4,351	228,699	112,336
192,071	-4,670	228,601	112,030
193,086	-4,484	228,456	112,093
194,100	-4,361	228,140	112,023
195,115	-4,971	227,851	111,399
196,129	-5,285	227,608	111,028
197,144	-2,958	228,245	113,130
198,159	0,675	229,439	116,534
199,173	3,674	230,088	119,184
200,188	4,223	230,265	119,691
201,202	4,095	229,987	119,437
202,217	4,244	229,926	119,511
203,232	4,345	229,846	119,536
204,246	4,689	229,485	119,604
205,261	4,455	229,443	119,390
206,275	4,626	229,381	119,479
207,290	4,662	229,383	119,498
208,304	4,569	229,125	119,281
209,319	4,694	228,831	119,214
210,334	4,617	228,796	119,125
211,348	4,325	228,501	118,736
212,363	3,840	228,162	118,176
213,377	3,698	228,130	118,041
214,392	3,665	227,873	117,872
215,407	3,916	227,775	118,003
216,421	4,089	227,532	117,999
217,436	3,790	227,401	117,692
218,450	3,406	227,288	117,329
219,465	3,457	227,073	117,247
220,480	3,705	226,886	117,329
221,494	3,408	226,870	117,084
222,509	3,914	226,633	117,337
223,523	3,680	226,652	117,158
224,538	3,693	226,418	117,036
225,553	3,879	226,218	117,063
226,567	3,877	226,102	116,991
227,582	4,029	225,999	117,043
228,596	4,315	225,920	117,209
229,611	3,987	225,678	116,825
230,626	3,930	225,437	116,646
231,640	3,711	225,340	116,420
232,655	4,218	225,123	116,681
233,669	4,411	225,238	116,876
234,684	4,568	225,051	116,887
235,699	4,409	224,880	116,669
236,713	3,889	224,724	116,184
237,728	3,906	224,558	116,101
238,742	3,664	224,282	115,765
239,757	3,713	224,074	115,684
240,772	3,610	223,863	115,488
241,786	3,694	223,895	115,557
242,801	4,042	223,776	115,747
243,815	4,312	223,671	115,886
244,830	4,153	223,699	115,770
245,844	3,913	223,313	115,379
246,859	3,771	223,197	115,203
247,874	4,009	223,125	115,334
248,888	3,980	222,991	115,233
249,903	4,056	222,682	115,120
250,917	3,969	222,617	115,011
251,932	3,871	222,521	114,878
252,947	3,750	222,322	114,674
253,961	3,571	222,108	114,421
254,976	3,736	222,044	114,501
255,990	3,959	221,959	114,613
257,005	4,007	221,920	114,617
258,020	4,162	221,646	114,581
259,034	4,172	221,539	114,523
260,049	4,336	221,419	114,573
261,063	4,073	221,162	114,235
262,078	4,039	220,987	114,109
263,093	4,171	221,074	114,241
264,107	4,127	220,826	114,071
265,122	4,297	220,662	114,101
266,136	4,242	220,637	114,038
267,151	4,144	220,546	113,908
268,166	3,893	220,255	113,562
269,180	3,609	219,941	113,181
270,195	3,762	219,849	113,235
271,209	3,797	219,599	113,123
272,224	3,779	219,557	113,078
273,239	3,655	219,637	113,017
274,253	3,800	219,290	112,935
275,268	3,759	218,991	112,741
276,282	3,694	218,952	112,664
277,297	3,491	218,749	112,400
278,312	3,619	218,738	112,478
279,326	3,654	218,641	112,444
280,341	3,649	218,459	112,337
281,355	3,889	218,315	112,428
282,370	3,653	218,210	112,191
283,384	3,435	218,062	111,946
284,399	3,436	217,898	111,853
285,414	3,381	217,711	111,706
286,428	3,730	217,560	111,874
287,443	4,038	217,583	112,100
288,457	3,876	217,425	111,891
289,472	3,721	217,228	111,666
290,487	3,401	216,980	111,297
291,501	3,203	216,714	111,007
292,516	3,256	216,498	110,925
293,530	3,099	216,500	110,802
294,545	3,145	216,383	110,766
295,560	3,384	216,441	110,958
296,574	3,910	216,215	111,213
297,589	3,634	216,194	110,993
298,603	3,824	216,016	111,029
299,618	3,721	215,755	110,810
300,633	3,593	215,725	110,692
301,647	3,967	215,732	110,956
302,662	4,191	215,462	110,969
303,676	3,926	215,466	110,770
304,691	4,180	215,090	110,750
305,706	4,065	215,063	110,643
306,720	4,091	214,869	110,552
307,735	3,888	214,640	110,279
308,749	3,952	214,544	110,265
309,764	3,939	214,572	110,261
310,779	3,975	214,431	110,204
311,793	4,240	214,261	110,297
312,808	3,854	214,070	109,913
313,822	3,748	214,058	109,821
314,837	3,723	213,811	109,667
315,852	3,636	213,717	109,546
316,866	3,740	213,578	109,540
317,881	4,100	213,213	109,599
318,895	3,825	213,409	109,494
319,910	3,847	213,020	109,300
320,925	3,628	212,900	109,073
321,939	3,307	212,760	108,764
322,954	3,495	212,569	108,790
323,968	3,779	212,687	109,042
324,983	4,008	212,575	109,137
325,997	3,975	212,324	108,976
327,012	3,906	212,182	108,844
328,027	3,853	212,046	108,727
329,041	4,306	211,949	108,988
330,056	4,431	211,702	108,940
331,070	4,041	211,498	108,550
332,085	3,590	211,369	108,156
333,100	3,533	211,395	108,119
334,114	3,679	211,286	108,157
335,129	3,819	211,231	108,217
336,143	3,526	210,956	107,861
337,158	3,723	210,900	107,961
338,173	3,943	210,627	107,966
339,187	3,893	210,322	107,765
340,202	3,286	210,417	107,379
341,216	3,473	210,121	107,349
342,231	3,617	210,092	107,425
343,246	3,423	210,019	107,243
344,260	3,650	209,739	107,249
345,275	3,936	209,431	107,281
346,289	3,820	209,723	107,340
347,304	3,746	209,490	107,160
348,319	3,773	209,400	107,123
349,333	3,627	209,247	106,934
350,348	3,865	209,150	107,040
351,362	4,238	208,991	107,208
352,377	3,914	208,872	106,913
353,392	3,879	208,668	106,774
354,406	3,663	208,618	106,589
355,421	193,832	1344,806	1431,924
356,435	154,660	1483,333	1432,028
