DTS Sentinel unit serial number:	SN410029Multiplexer serial number:	ORYXHardware model number:	OX2-SRSoftware version number:	ORYX F/W v4,00 Oryx Data Collector v3.7.2.0data status	okinstallation	B6 Nyhavnadifferential loss correction	single-endedforward channel	channel 2reverse channel	N/Adate	2023/12/07time	10:55:08forward acquisition time	300,00reverse acquisition time	0,00gamma	499,1914k internal	0,3199k external	0,3199temperature offset calibration	1,0000default loss term (dB/km)	0,3820temperature slope calibration	1,0000multiplexer offset coefficient	1,0000multiplexer slope coefficient	1,0000fibre end	0,00T internal ref (°C)	7,53T ext. ref 1 (°C)	-6,62T ext. ref 2 (°C)	-6,66length (m)	temperature (°C)	Stokes	anti-Stokes-744,400	27,903	0,176	0,108
-743,385	-51,349	-0,386	-0,131
-742,371	5,534	0,315	0,169
-741,356	-49,921	-0,331	-0,114
-740,342	202,114	0,138	0,155
-739,327	-59,136	-0,403	-0,126
-738,312	181,837	0,059	0,063
-737,298	-4,727	-0,343	-0,171
-736,283	-81,293	0,102	0,024
-735,269	-140,109	-0,373	0,028
-734,254	130,196	0,154	0,144
-733,239	-63,848	-0,485	-0,143
-732,225	-77,661	0,409	0,102
-731,210	-13,762	0,151	-0,071
-730,196	-200,000	-0,190	-0,001
-729,181	-129,265	0,084	-0,008
-728,167	-11,754	0,094	0,045
-727,152	526,035	0,026	0,045
-726,137	-200,000	-0,005	-0,051
-725,123	800,000	-0,030	-0,073
-724,108	-110,531	-0,128	-0,019
-723,094	77,339	-0,126	-0,098
-722,079	-200,000	-0,008	-0,057
-721,064	-53,003	-0,119	0,040
-720,050	-16,246	0,100	0,046
-719,035	-200,000	0,023	-0,078
-718,021	-25,300	0,091	-0,039
-717,006	509,282	-0,063	-0,107
-715,991	-200,000	0,008	-0,058
-714,977	43,241	-0,092	-0,061
-713,962	553,402	-0,032	-0,056
-712,948	235,983	0,007	0,008
-711,933	-200,000	0,002	-0,024
-710,918	-200,000	0,039	-0,135
-709,904	-75,203	-0,114	-0,029
-708,889	-162,651	0,091	0,003
-707,875	-81,413	-0,016	-0,004
-706,860	176,809	-0,048	-0,051
-705,845	-180,680	0,097	-0,001
-704,831	312,471	0,050	0,069
-703,816	-200,000	0,010	-0,046
-702,802	-200,000	-0,012	0,088
-701,787	161,055	0,059	-0,060
-700,772	124,245	-0,034	0,031
-699,758	-90,139	-0,064	-0,013
-698,743	-200,000	-0,007	-0,052
-697,729	13,700	0,015	-0,009
-696,714	-60,588	0,039	0,012
-695,699	198,620	-0,042	-0,047
-694,685	429,841	-0,039	0,062
-693,670	258,178	-0,057	0,072
-692,656	-171,750	0,090	0,002
-691,641	347,069	0,054	-0,078
-690,627	14,551	0,051	0,029
-689,612	-17,103	-0,030	0,013
-688,597	25,286	0,083	-0,050
-687,583	-109,118	-0,132	0,020
-686,568	800,000	0,070	-0,157
-685,554	282,735	-0,027	0,035
-684,539	800,000	0,014	0,033
-683,524	-6,069	-0,187	0,092
-682,510	114,650	0,236	0,209
-681,495	-105,979	-0,071	0,012
-680,481	114,598	-0,088	-0,078
-679,466	-20,856	-0,052	0,023
-678,451	-200,000	-0,027	-0,118
-677,437	229,011	0,108	0,128
-676,422	-116,382	-0,081	-0,011
-675,408	-200,000	0,010	-0,049
-674,393	578,968	0,057	-0,102
-673,378	245,358	-0,025	-0,030
-672,364	-57,722	0,043	0,014
-671,349	57,382	-0,139	-0,099
-670,335	800,000	0,040	-0,124
-669,320	35,464	0,104	0,066
-668,305	-200,000	-0,020	-0,110
-667,291	397,276	-0,022	0,033
-666,276	-40,308	-0,103	-0,038
-665,262	636,076	-0,043	-0,079
-664,247	-12,550	-0,045	0,021
-663,232	143,074	-0,018	0,017
-662,218	-41,585	-0,117	0,043
-661,203	800,000	-0,019	-0,044
-660,189	-79,343	-0,102	-0,025
-659,174	-81,531	0,053	-0,012
-658,159	511,067	-0,078	-0,132
-657,145	800,000	0,034	0,071
-656,130	-28,566	-0,009	-0,004
-655,116	-200,000	-0,005	0,020
-654,101	-200,000	0,010	-0,069
-653,086	-200,000	-0,003	0,165
-652,072	-19,001	0,087	-0,039
-651,057	-200,000	0,001	0,013
-650,043	-21,016	-0,105	-0,046
-649,028	-61,099	0,165	-0,050
-648,014	83,393	-0,136	0,107
-646,999	-21,742	0,046	0,020
-645,984	16,892	0,061	0,035
-644,970	281,078	-0,126	-0,163
-643,955	-200,000	0,024	0,201
-642,941	-200,000	-0,012	-0,168
-641,926	97,952	-0,075	-0,062
-640,911	800,000	0,015	-0,042
-639,897	-200,000	0,002	0,068
-638,882	-200,000	0,039	0,167
-637,868	207,065	-0,112	0,126
-636,853	736,711	-0,028	-0,054
-635,838	-121,443	-0,106	-0,013
-634,824	528,216	-0,008	-0,013
-633,809	-200,000	0,007	-0,071
-632,795	42,831	-0,115	-0,076
-631,780	-49,547	-0,102	-0,035
-630,765	-108,191	0,053	0,008
-629,751	-66,226	-0,102	0,029
-628,736	165,794	-0,038	0,039
-627,722	60,026	-0,109	0,078
-626,707	10,186	0,057	-0,031
-625,692	-156,043	-0,078	-0,004
-624,678	-200,000	0,018	-0,202
-623,663	-148,506	-0,227	0,013
-622,649	-78,812	-0,039	0,009
-621,634	-62,498	0,025	0,008
-620,619	-133,002	0,027	-0,002
-619,605	69,343	-0,064	0,047
-618,590	800,000	0,003	-0,009
-617,576	-30,828	0,165	0,067
-616,561	32,804	-0,022	0,014
-615,546	616,182	-0,023	0,043
-614,532	577,035	0,006	0,010
-613,517	800,000	-0,054	0,135
-612,503	75,412	0,034	0,026
-611,488	159,257	0,112	0,113
-610,474	573,431	0,049	0,086
-609,459	125,059	-0,011	0,010
-608,444	-156,045	-0,111	-0,005
-607,430	-200,000	0,004	0,025
-606,415	-79,977	0,167	0,040
-605,401	-70,692	-0,147	0,040
-604,386	-25,968	0,071	-0,030
-603,371	45,439	0,029	-0,019
-602,357	460,453	-0,041	0,067
-601,342	79,816	0,012	-0,009
-600,328	238,077	-0,064	0,077
-599,313	31,685	0,059	-0,037
-598,298	-126,311	-0,089	-0,010
-597,284	800,000	0,017	0,039
-596,269	-58,860	0,012	0,004
-595,255	11,241	0,118	0,065
-594,240	-20,806	-0,054	0,024
-593,225	10,353	-0,092	-0,050
-592,211	-200,000	0,010	0,038
-591,196	-200,000	0,008	-0,118
-590,182	-200,000	-0,001	0,102
-589,167	-200,000	0,023	-0,092
-588,152	-20,830	0,036	-0,016
-587,138	-30,179	-0,007	0,003
-586,123	-13,719	0,154	0,072
-585,109	800,000	0,012	-0,028
-584,094	197,161	-0,052	-0,057
-583,079	-130,460	0,151	-0,015
-582,065	-41,765	0,019	-0,007
-581,050	249,378	0,047	-0,058
-580,036	-200,000	0,051	-0,165
-579,021	732,805	0,020	0,040
-578,006	86,246	-0,062	-0,049
-576,992	-200,000	-0,017	-0,116
-575,977	-109,005	-0,129	0,020
-574,963	-200,000	0,003	0,158
-573,948	316,127	-0,067	0,092
-572,934	-200,000	0,024	-0,078
-571,919	800,000	-0,059	-0,154
-570,904	-200,000	0,008	-0,086
-569,890	358,051	0,042	0,061
-568,875	-200,000	0,002	0,100
-567,861	-200,000	0,019	-0,085
-566,846	-200,000	-0,042	0,137
-565,831	800,000	-0,030	-0,077
-564,817	-129,945	-0,061	-0,006
-563,802	-200,000	-0,011	-0,183
-562,788	177,127	-0,061	-0,065
-561,773	649,311	0,031	-0,058
-560,758	800,000	0,023	-0,060
-559,744	-65,061	-0,023	0,007
-558,729	-200,000	-0,026	0,083
-557,715	-40,688	0,084	-0,031
-556,700	-200,000	-0,009	-0,112
-555,685	-51,209	-0,167	-0,056
-554,671	157,198	0,042	0,042
-553,656	-102,677	0,074	-0,013
-552,642	93,697	0,051	0,042
-551,627	800,000	-0,020	0,043
-550,612	800,000	0,055	-0,119
-549,598	-84,474	-0,118	0,027
-548,583	-200,000	-0,003	0,092
-547,569	-108,769	0,087	0,013
-546,554	-55,619	0,090	0,029
-545,539	-80,808	0,051	-0,012
-544,525	414,467	0,042	-0,065
-543,510	-145,748	-0,070	0,004
-542,496	14,906	-0,136	-0,076
-541,481	-200,000	-0,010	-0,239
-540,466	-200,000	-0,005	-0,093
-539,452	101,444	-0,009	0,008
-538,437	-200,000	-0,001	0,021
-537,423	-200,000	0,022	-0,077
-536,408	-173,251	0,088	0,002
-535,393	-200,000	-0,037	0,118
-534,379	800,000	-0,061	0,150
-533,364	-146,734	0,095	-0,006
-532,350	-72,730	-0,062	-0,016
-531,335	-150,980	-0,078	0,004
-530,321	-26,312	0,040	0,017
-529,306	-200,000	0,013	-0,066
-528,291	53,062	-0,026	-0,018
-527,277	-200,000	0,010	-0,085
-526,262	-29,487	-0,081	0,033
-525,248	132,607	0,104	0,097
-524,233	-27,350	-0,062	0,026
-523,218	-125,821	0,044	0,005
-522,204	800,000	-0,062	0,129
-521,189	800,000	-0,050	0,127
-520,175	-200,000	-0,023	-0,187
-519,160	-200,000	0,004	0,051
-518,145	800,000	-0,015	0,037
-517,131	539,488	0,032	-0,055
-516,116	121,770	-0,052	-0,046
-515,102	-200,000	-0,008	-0,094
-514,087	430,514	-0,012	0,019
-513,072	45,613	0,089	0,059
-512,058	62,421	0,070	-0,051
-511,043	51,350	0,100	-0,069
-510,029	-200,000	-0,005	0,020
-509,014	-140,548	0,139	0,010
-507,999	364,074	0,111	0,162
-506,985	83,671	-0,101	0,080
-505,970	-161,931	0,044	0,002
-504,956	532,008	0,016	-0,027
-503,941	800,000	0,045	0,102
-502,926	47,254	0,088	-0,059
-501,912	163,888	0,116	0,118
-500,897	800,000	-0,005	0,012
-499,883	800,000	-0,055	-0,150
-498,868	-29,055	0,085	0,035
-497,853	800,000	-0,058	-0,149
-496,839	-40,215	-0,028	-0,010
-495,824	236,977	0,018	-0,021
-494,810	-152,858	0,097	0,005
-493,795	55,318	0,024	0,017
-492,781	-137,282	0,133	-0,011
-491,766	-6,227	-0,075	-0,037
-490,751	204,616	-0,133	-0,148
-489,737	-172,770	0,120	0,003
-488,722	185,298	-0,051	0,054
-487,708	800,000	-0,014	0,041
-486,693	50,252	0,017	0,012
-485,678	800,000	0,024	0,065
-484,664	-200,000	-0,003	-0,037
-483,649	-156,800	0,150	0,007
-482,635	-200,000	-0,001	-0,028
-481,620	-85,694	-0,080	-0,018
-480,605	800,000	-0,050	-0,110
-479,591	-70,169	0,032	-0,009
-478,576	-150,371	-0,172	-0,009
-477,562	187,417	0,023	-0,024
-476,547	169,673	-0,088	-0,090
-475,532	-200,000	-0,025	0,084
-474,518	220,969	0,031	0,036
-473,503	72,815	0,083	0,062
-472,489	800,000	0,042	0,085
-471,474	-51,986	-0,061	-0,020
-470,459	-200,000	-0,015	-0,117
-469,445	-200,000	-0,029	-0,129
-468,430	3,733	-0,154	-0,081
-467,416	232,257	0,070	-0,083
-466,401	573,281	-0,049	0,087
-465,386	800,000	0,030	0,088
-464,372	800,000	0,029	-0,066
-463,357	152,111	-0,118	-0,116
-462,343	14,195	0,165	-0,093
-461,328	-200,000	0,022	0,109
-460,313	800,000	0,045	0,106
-459,299	-81,542	-0,037	-0,009
-458,284	242,829	-0,094	-0,113
-457,270	-51,872	0,081	0,027
-456,255	-22,650	-0,032	-0,014
-455,241	-200,000	-0,002	-0,049
-454,226	472,164	-0,078	-0,126
-453,211	103,656	0,078	-0,066
-452,197	29,184	-0,175	0,107
-451,182	271,368	0,023	-0,029
-450,168	275,201	-0,115	-0,147
-449,153	236,000	0,072	0,085
-448,138	800,000	0,030	-0,082
-447,124	-102,681	0,023	-0,004
-446,109	33,349	0,062	-0,039
-445,095	-79,348	-0,075	0,018
-444,080	-25,637	-0,028	0,012
-443,065	-200,000	-0,003	-0,030
-442,051	442,283	0,030	0,047
-441,036	800,000	0,071	-0,148
-440,022	-146,759	-0,116	0,007
-439,007	-200,000	-0,048	-0,214
-437,992	-200,000	-0,009	-0,098
-436,978	800,000	-0,049	-0,116
-435,963	72,871	0,114	0,086
-434,949	-200,000	-0,005	0,028
-433,934	800,000	0,041	-0,091
-432,919	-83,776	-0,056	-0,013
-431,905	135,614	0,076	-0,071
-430,890	-61,040	0,031	-0,009
-429,876	195,160	0,025	0,027
-428,861	116,368	0,067	0,059
-427,846	800,000	0,040	0,081
-426,832	165,931	-0,084	0,086
-425,817	-200,000	0,023	0,077
-424,803	154,024	0,040	0,039
-423,788	8,987	0,158	0,085
-422,773	-200,000	-0,005	-0,034
-421,759	-24,125	0,073	-0,031
-420,744	-45,910	-0,143	0,051
-419,730	356,066	0,025	0,036
-418,715	800,000	-0,046	-0,100
-417,701	-200,000	-0,017	0,086
-416,686	64,856	0,088	0,064
-415,671	481,240	-0,097	0,159
-414,657	527,950	0,036	-0,061
-413,642	800,000	-0,033	0,082
-412,628	-106,492	-0,121	-0,019
-411,613	243,851	0,030	0,037
-410,598	-68,542	-0,049	0,013
-409,584	-113,827	-0,091	0,013
-408,569	-200,000	-0,005	0,087
-407,555	679,841	-0,057	0,107
-406,540	-200,000	0,000	-0,053
-405,525	-65,431	-0,134	0,039
-404,511	-81,557	-0,127	0,030
-403,496	139,398	-0,059	0,056
-402,482	800,000	-0,015	0,035
-401,467	-200,000	0,018	-0,090
-400,452	800,000	-0,038	0,086
-399,438	-61,563	-0,048	0,014
-398,423	-78,478	0,125	-0,031
-397,409	-200,000	0,004	-0,054
-396,394	-26,836	0,090	-0,038
-395,379	-200,000	0,017	-0,086
-394,365	800,000	-0,032	-0,082
-393,350	9,687	-0,084	-0,046
-392,336	-186,119	-0,079	-0,001
-391,321	800,000	0,057	0,124
-390,306	88,164	-0,116	-0,092
-389,292	-159,490	-0,154	0,006
-388,277	287,195	0,056	-0,073
-387,263	800,000	0,059	0,171
-386,248	800,000	0,036	0,110
-385,233	-82,270	-0,106	-0,025
-384,219	86,775	0,109	0,087
-383,204	-75,149	0,094	-0,024
-382,190	-134,428	0,064	0,006
-381,175	-9,064	0,179	0,086
-380,160	-90,491	0,144	0,030
-379,146	800,000	0,052	-0,136
-378,131	195,663	-0,046	-0,050
-377,117	-200,000	-0,018	-0,067
-376,102	46,979	-0,027	-0,018
-375,088	-179,439	-0,183	-0,003
-374,073	-200,000	0,008	0,085
-373,058	-40,466	-0,032	-0,012
-372,044	75,492	-0,133	0,101
-371,029	36,332	0,069	-0,044
-370,015	800,000	-0,032	-0,066
-369,000	800,000	-0,019	-0,048
-367,985	800,000	0,027	0,055
-366,971	-137,740	-0,108	-0,009
-365,956	20,798	0,072	0,042
-364,942	-200,000	0,023	0,151
-363,927	-200,000	-0,018	0,080
-362,912	-200,000	-0,006	0,043
-361,898	107,734	0,050	-0,042
-360,883	-79,037	0,086	-0,021
-359,869	37,607	0,081	-0,051
-358,854	525,351	-0,041	0,070
-357,839	25,762	0,170	0,101
-356,825	-18,089	0,060	0,027
-355,810	344,926	-0,039	-0,055
-354,796	104,981	-0,066	0,056
-353,781	109,727	-0,110	-0,095
-352,766	-200,000	-0,017	-0,123
-351,752	11,398	0,117	-0,064
-350,737	109,211	0,097	0,083
-349,723	135,075	0,150	-0,140
-348,708	-200,000	0,000	-0,040
-347,693	-200,000	-0,005	0,224
-346,679	-47,877	-0,114	0,039
-345,664	-67,347	-0,028	-0,008
-344,650	-63,432	0,066	0,019
-343,635	61,820	0,077	-0,055
-342,620	-47,605	-0,009	0,003
-341,606	-11,782	-0,040	-0,019
-340,591	-200,000	0,005	0,173
-339,577	-200,000	0,023	-0,113
-338,562	737,319	0,033	0,064
-337,548	-68,473	-0,033	-0,009
-336,533	-2,034	0,062	-0,031
-335,518	171,744	0,112	-0,116
-334,504	-200,000	0,014	0,114
-333,489	-115,220	0,082	0,011
-332,475	13,927	0,068	-0,038
-331,460	608,210	0,036	-0,064
-330,445	-149,399	-0,180	-0,010
-329,431	51,071	0,023	-0,015
-328,416	-29,449	0,127	0,052
-327,402	89,656	0,145	0,116
-326,387	-200,000	-0,013	0,074
-325,372	-20,978	-0,013	-0,006
-324,358	108,096	-0,078	-0,066
-323,343	100,593	0,097	-0,080
-322,329	-200,000	-0,000	0,137
-321,314	-200,000	0,015	0,100
-320,299	164,351	0,029	0,029
-319,285	-200,000	0,009	-0,041
-318,270	307,391	-0,086	0,116
-317,256	-196,218	-0,033	-0,000
-316,241	317,142	-0,052	-0,070
-315,226	500,818	0,060	-0,099
-314,212	-52,896	-0,122	-0,040
-313,197	97,460	-0,130	0,107
-312,183	800,000	0,028	0,062
-311,168	-200,000	-0,017	-0,065
-310,153	56,139	0,077	0,054
-309,139	-170,891	-0,129	0,003
-308,124	-200,000	0,011	-0,094
-307,110	-200,000	-0,005	0,096
-306,095	149,108	-0,047	0,046
-305,080	369,059	-0,035	0,051
-304,066	-52,767	-0,076	-0,025
-303,051	-49,980	0,073	0,025
-302,037	800,000	-0,029	0,063
-301,022	-120,787	-0,057	0,007
-300,008	-200,000	0,011	0,115
-298,993	-200,000	-0,021	-0,139
-297,978	800,000	0,048	0,096
-296,964	-200,000	0,034	0,163
-295,949	800,000	-0,054	0,139
-294,935	186,420	0,086	0,091
-293,920	61,352	0,056	0,040
-292,905	341,109	-0,041	-0,057
-291,891	-200,000	-0,002	0,048
-290,876	60,566	0,073	0,052
-289,862	-138,886	-0,113	-0,009
-288,847	238,150	-0,029	0,035
-287,832	144,142	0,098	0,093
-286,818	12,848	-0,089	-0,049
-285,803	141,822	0,094	-0,089
-284,789	-105,407	0,072	-0,012
-283,774	177,794	0,062	0,064
-282,759	541,013	0,049	-0,084
-281,745	203,702	-0,048	-0,054
-280,730	10,920	0,122	0,067
-279,716	-200,000	-0,011	-0,044
-278,701	-200,000	-0,006	-0,069
-277,686	-200,000	-0,021	0,175
-276,672	-74,203	0,100	0,026
-275,657	-72,401	-0,050	0,013
-274,643	453,350	0,083	-0,132
-273,628	30,474	-0,077	0,047
-272,613	-200,000	-0,004	-0,126
-271,599	134,729	0,077	0,071
-270,584	-200,000	0,001	0,019
-269,570	463,370	0,005	0,008
-268,555	333,879	0,037	0,052
-267,540	800,000	-0,061	0,141
-266,526	142,544	-0,053	-0,050
-265,511	51,466	0,096	0,065
-264,497	800,000	-0,049	-0,109
-263,482	-81,741	0,053	0,012
-262,467	174,352	0,077	0,080
-261,453	-78,984	0,138	0,033
-260,438	457,251	-0,016	-0,026
-259,424	800,000	0,030	-0,078
-258,409	-29,943	-0,118	-0,048
-257,395	-36,748	0,087	0,033
-256,380	589,839	-0,046	0,081
-255,365	800,000	0,037	0,109
-254,351	-91,507	0,139	0,028
-253,336	248,765	-0,073	-0,089
-252,322	619,594	-0,049	-0,088
-251,307	312,370	-0,070	-0,095
-250,292	-139,421	0,221	0,017
-249,278	-200,000	-0,011	0,039
-248,263	800,000	0,058	0,139
-247,249	-4,637	0,045	0,022
-246,234	800,000	-0,083	-0,260
-245,219	77,038	0,066	-0,050
-244,205	11,521	-0,028	-0,015
-243,190	782,983	0,038	0,075
-242,176	-133,584	0,111	0,010
-241,161	182,908	-0,056	-0,059
-240,146	-13,120	-0,063	0,029
-239,132	-200,000	0,005	0,049
-238,117	-51,792	0,011	0,004
-237,103	762,238	-0,020	-0,040
-236,088	-133,656	0,065	0,006
-235,073	510,828	0,075	0,125
-234,059	284,154	-0,042	0,054
-233,044	-200,000	0,000	-0,047
-232,030	-200,000	0,004	0,058
-231,015	-14,036	-0,036	0,017
-230,000	-56,605	0,040	-0,012
-228,986	-98,267	-0,114	0,021
-227,971	168,001	0,069	0,070
-226,957	-194,398	-0,176	-0,001
-225,942	12,343	-0,079	-0,043
-224,927	-169,560	0,123	0,003
-223,913	-78,286	-0,082	0,020
-222,898	-200,000	-0,024	-0,109
-221,884	800,000	-0,022	0,063
-220,869	123,574	-0,072	-0,065
-219,855	-124,927	0,090	0,010
-218,840	53,469	0,055	-0,038
-217,825	-200,000	-0,003	-0,181
-216,811	-200,000	-0,001	0,024
-215,796	248,366	-0,073	-0,088
-214,782	-29,329	-0,070	0,028
-213,767	45,609	-0,029	-0,019
-212,752	68,219	0,101	0,074
-211,738	34,921	-0,075	-0,046
-210,723	743,215	0,029	0,055
-209,709	403,400	-0,057	0,085
-208,694	13,530	-0,121	-0,067
-207,679	800,000	-0,062	-0,147
-206,665	-23,193	0,115	-0,049
-205,650	-175,254	0,009	0,000
-204,636	512,452	0,056	-0,093
-203,621	-200,000	-0,012	0,045
-202,606	-178,395	-0,026	0,000
-201,592	-200,000	0,002	-0,106
-200,577	800,000	0,076	-0,207
-199,563	800,000	0,030	-0,080
-198,548	-200,000	0,034	-0,188
-197,533	122,184	-0,131	0,117
-196,519	-200,000	-0,002	0,082
-195,504	2,414	-0,114	-0,059
-194,490	415,376	0,110	-0,168
-193,475	-150,361	-0,087	-0,005
-192,460	52,027	0,201	0,136
-191,446	241,878	0,054	0,065
-190,431	242,450	0,123	0,147
-189,417	-82,380	-0,108	-0,025
-188,402	349,721	-0,047	0,067
-187,387	525,572	-0,069	-0,117
-186,373	-56,167	-0,160	-0,050
-185,358	122,689	0,079	-0,071
-184,344	-200,000	0,001	0,071
-183,329	316,455	-0,007	-0,009
-182,315	-200,000	-0,012	0,064
-181,300	-200,000	0,005	-0,034
-180,285	-200,000	-0,004	-0,023
-179,271	315,506	0,125	0,169
-178,256	-60,870	-0,064	-0,019
-177,242	800,000	0,011	0,024
-176,227	-66,364	0,162	0,045
-175,212	-200,000	0,006	-0,035
-174,198	344,704	-0,042	0,058
-173,183	-78,372	-0,053	0,013
-172,169	68,089	-0,114	-0,083
-171,154	170,439	-0,060	-0,062
-170,139	-200,000	0,008	0,076
-169,125	800,000	0,021	-0,044
-168,110	-167,316	-0,050	0,001
-167,096	-200,000	-0,009	0,035
-166,081	-200,000	-0,033	-0,177
-165,066	-200,000	-0,004	0,028
-164,052	721,151	0,053	-0,101
-163,037	185,621	-0,045	0,047
-162,023	800,000	-0,030	-0,071
-161,008	-200,000	-0,006	0,083
-159,993	-200,000	0,021	0,078
-158,979	800,000	-0,043	0,127
-157,964	-200,000	-0,006	-0,121
-156,950	20,130	-0,061	0,035
-155,935	-33,631	-0,065	-0,025
-154,920	309,990	0,069	0,092
-153,906	-69,403	0,088	-0,024
-152,891	-99,062	-0,096	-0,017
-151,877	-97,542	0,100	0,018
-150,862	800,000	0,068	-0,184
-149,847	-200,000	-0,006	-0,052
-148,833	-135,476	-0,001	0,000
-147,818	800,000	0,047	0,138
-146,804	-60,267	-0,063	-0,019
-145,789	-75,269	-0,042	0,011
-144,775	-91,857	-0,073	-0,015
-143,760	309,116	0,087	-0,116
-142,745	211,634	0,108	-0,121
-141,731	360,028	0,043	0,062
-140,716	-125,914	0,053	-0,006
-139,702	53,900	-0,075	-0,051
-138,687	-153,738	0,082	0,004
-137,672	-71,540	-0,135	0,036
-136,658	-3,288	-0,044	0,022
-135,643	800,000	-0,018	-0,038
-134,629	-69,668	-0,070	-0,019
-133,614	-200,000	-0,001	0,135
-132,599	-200,000	-0,010	0,051
-131,585	-102,619	0,086	-0,014
-130,570	699,577	-0,040	-0,075
-129,556	-66,821	-0,054	0,015
-128,541	-73,764	0,017	-0,004
-127,526	164,041	-0,016	0,016
-126,512	-200,000	-0,029	0,163
-125,497	-30,546	0,057	-0,023
-124,483	588,036	0,064	-0,113
-123,468	-106,100	-0,019	0,003
-122,453	800,000	-0,039	-0,095
-121,439	-81,255	0,046	-0,011
-120,424	111,919	-0,115	0,099
-119,410	-99,646	0,163	-0,029
-118,395	81,401	0,077	-0,059
-117,380	800,000	0,038	-0,100
-116,366	117,904	0,025	-0,022
-115,351	-200,000	-0,149	0,000
-114,337	-143,745	0,059	-0,004
-113,322	153,269	0,052	-0,050
-112,307	-200,000	0,006	0,056
-111,293	-2,479	0,208	0,103
-110,278	-200,000	0,019	0,091
-109,264	-48,428	-0,068	-0,023
-108,249	-8,713	-0,101	-0,048
-107,234	-12,628	-0,109	0,050
-106,220	-128,952	0,097	0,010
-105,205	50,720	-0,024	-0,016
-104,191	543,122	-0,031	-0,054
-103,176	800,000	-0,030	0,080
-102,162	480,866	0,064	0,103
-101,147	-90,825	-0,070	0,014
-100,132	-21,947	-0,140	0,060
-99,118	-200,000	-0,010	0,080
-98,103	12,566	-0,117	-0,064
-97,089	426,510	0,032	0,050
-96,074	220,274	0,053	0,060
-95,059	144,872	0,075	0,071
-94,045	172,605	-0,049	-0,050
-93,030	-200,000	-0,013	-0,057
-92,016	-61,134	0,092	0,027
-91,001	-121,167	-0,100	-0,012
-89,986	800,000	0,037	-0,077
-88,972	278,081	-0,068	0,086
-87,957	264,861	-0,053	0,066
-86,943	-200,000	0,040	-0,210
-85,928	-200,000	-0,006	-0,163
-84,913	412,533	0,024	-0,036
-83,899	-200,000	0,025	0,114
-82,884	800,000	-0,008	0,018
-81,870	-200,000	0,032	0,168
-80,855	408,130	-0,076	0,115
-79,840	-200,000	-0,018	0,118
-78,826	-105,883	-0,285	-0,045
-77,811	800,000	0,008	0,017
-76,797	-116,627	0,113	-0,015
-75,782	7,707	-0,069	0,037
-74,767	-200,000	-0,000	0,082
-73,753	264,569	-0,060	0,074
-72,738	784,494	-0,047	0,091
-71,724	-200,000	-0,013	-0,123
-70,709	-19,558	-0,024	0,010
-69,694	-26,054	-0,015	-0,006
-68,680	183,432	0,044	0,046
-67,665	300,991	0,113	0,148
-66,651	-200,000	-0,026	0,113
-65,636	453,840	-0,077	-0,121
-64,622	261,874	-0,072	0,088
-63,607	-200,000	0,034	-0,118
-62,592	45,949	0,017	0,011
-61,578	-95,849	-0,154	-0,029
-60,563	-86,452	0,116	-0,025
-59,549	-200,000	-0,002	0,186
-58,534	109,702	-2,676	-2,272
-57,519	-149,468	0,521	-0,029
-56,505	-200,000	-1,767	-5,625
-55,490	379,012	1,154	1,679
-54,476	800,000	5,423	12,055
-53,461	-200,000	22,353	350,995
-52,446	800,000	760,610	2288,253
-51,432	521,733	1643,968	2743,673
-50,417	65,873	1651,297	1184,443
-49,403	14,369	1570,310	865,180
-48,388	9,182	1522,777	812,620
-47,373	18,658	1517,336	857,532
-46,359	12,730	1505,458	821,133
-45,344	7,759	1501,451	794,001
-44,330	7,640	1499,425	792,297
-43,315	7,567	1497,945	791,120
-42,300	7,586	1495,954	790,130
-41,286	7,582	1494,419	789,267
-40,271	7,543	1492,922	788,252
-39,257	7,574	1491,348	787,545
-38,242	7,598	1489,826	786,832
-37,227	7,589	1488,743	786,181
-36,213	7,552	1487,300	785,203
-35,198	7,530	1486,105	784,433
-34,184	7,588	1484,657	783,925
-33,169	7,577	1483,073	783,005
-32,154	7,566	1481,798	782,243
-31,140	7,558	1480,293	781,379
-30,125	7,623	1479,054	781,016
-29,111	7,565	1477,939	780,111
-28,096	7,571	1477,054	779,641
-27,082	7,588	1475,997	779,135
-26,067	7,530	1474,791	778,181
-25,052	7,578	1473,512	777,714
-24,038	7,522	1472,354	776,795
-23,023	7,566	1471,569	776,569
-22,009	7,551	1470,613	775,960
-20,994	7,595	1469,721	775,675
-19,979	7,544	1468,573	774,787
-18,965	7,545	1467,741	774,320
-17,950	7,555	1466,531	773,704
-16,936	7,510	1465,699	773,013
-15,921	7,484	1464,303	772,119
-14,906	7,442	1463,314	771,360
-13,892	7,445	1462,483	770,906
-12,877	7,468	1461,490	770,463
-11,863	7,401	1460,421	769,543
-10,848	7,434	1459,375	769,121
-9,833	7,494	1458,787	769,073
-8,819	7,538	1457,634	768,652
-7,804	7,516	1456,528	767,928
-6,790	7,495	1455,997	767,515
-5,775	7,514	1454,915	767,006
-4,760	7,515	1454,125	766,566
-3,746	7,435	1452,949	765,525
-2,731	7,327	1451,861	764,401
-1,717	7,278	1450,624	763,482
-0,702	7,290	1450,004	763,183
0,313	7,094	1449,078	762,897
1,327	10,841	1446,148	779,392
2,342	20,023	1205,285	686,281
3,356	15,719	674,698	374,512
4,371	-12,338	457,620	210,905
5,386	-15,473	430,731	193,927
6,400	-16,610	421,932	188,323
7,415	-16,096	418,349	187,436
8,429	-17,690	415,580	183,937
9,444	-17,751	414,074	183,168
10,459	-17,715	413,014	182,733
11,473	-17,731	412,069	182,277
12,488	-17,853	411,117	181,669
13,502	-17,913	410,408	181,256
14,517	-18,000	409,649	180,784
15,531	-18,136	408,989	180,289
16,546	-18,115	408,211	179,958
17,561	-18,159	407,790	179,696
18,575	-18,153	407,098	179,383
19,590	-18,208	406,571	179,059
20,604	-18,030	406,005	179,039
21,619	-18,267	405,477	178,465
22,634	-18,111	404,908	178,412
23,648	-18,211	404,502	178,081
24,663	-18,228	403,944	177,796
25,677	-18,240	403,797	177,700
26,692	-18,230	403,251	177,457
27,707	-18,210	402,770	177,257
28,721	-18,072	402,367	177,251
29,736	-18,281	401,981	176,781
30,750	-18,313	401,729	176,611
31,765	-18,175	401,063	176,489
32,780	-18,285	400,960	176,280
33,794	-18,185	400,406	176,156
34,809	-18,061	399,991	176,125
35,823	-18,211	399,677	175,768
36,838	-18,387	399,321	175,358
37,853	-18,313	398,802	175,215
38,867	-18,251	398,609	175,197
39,882	-18,241	398,193	175,014
40,896	-18,283	397,867	174,797
41,911	-18,212	397,315	174,635
42,926	-18,270	396,940	174,376
43,940	-18,165	396,636	174,368
44,955	-18,280	396,382	174,087
45,969	-18,261	395,867	173,871
46,984	-18,293	395,648	173,717
47,999	-18,288	395,338	173,572
49,013	-18,299	395,068	173,422
50,028	-18,256	394,625	173,269
51,042	-18,276	394,069	172,983
52,057	-18,387	394,015	172,797
53,071	-18,286	393,508	172,693
54,086	-18,184	393,184	172,672
55,101	-18,165	392,921	172,566
56,115	-18,173	392,637	172,415
57,130	-18,161	392,233	172,238
58,144	-18,129	391,930	172,132
59,159	-18,138	391,592	171,956
60,174	-18,072	391,020	171,777
61,188	-18,073	390,755	171,643
62,203	-18,005	390,337	171,534
63,217	-18,102	390,182	171,323
64,232	-18,155	389,804	171,072
65,247	-17,978	389,322	171,078
66,261	-18,050	388,973	170,815
67,276	-18,209	388,600	170,427
68,290	-18,168	388,370	170,365
69,305	-18,169	388,016	170,193
70,320	-18,094	387,599	170,092
71,334	-18,183	387,482	169,911
72,349	-18,088	387,110	169,856
73,363	-17,990	386,678	169,779
74,378	-17,951	386,375	169,681
75,393	-18,096	386,147	169,378
76,407	-18,091	385,740	169,190
77,422	-18,052	385,371	169,065
78,436	-18,102	385,091	168,862
79,451	-17,910	384,594	168,877
80,466	-18,153	384,404	168,464
81,480	-18,146	384,000	168,281
82,495	-18,200	383,681	168,057
83,509	-18,100	383,466	168,076
84,524	-18,003	383,058	168,007
85,539	-18,251	382,805	167,563
86,553	-18,250	382,556	167,440
87,568	-18,212	382,173	167,306
88,582	-18,212	381,811	167,133
89,597	-18,102	381,579	167,158
90,611	-18,156	381,233	166,922
91,626	-18,073	380,964	166,895
92,641	-18,154	380,732	166,675
93,655	-18,038	380,357	166,644
94,670	-18,184	380,099	166,329
95,684	-18,074	379,877	166,359
96,699	-18,046	379,423	166,180
97,714	-17,926	379,116	166,183
98,728	-18,186	378,839	165,716
99,743	-18,255	378,578	165,500
100,757	-18,257	378,120	165,283
101,772	-18,205	377,850	165,216
102,787	-18,098	377,563	165,211
103,801	-18,102	377,288	165,072
104,816	-17,980	376,982	165,076
105,830	-17,985	376,686	164,926
106,845	-18,030	376,508	164,777
107,860	-17,956	376,150	164,699
108,874	-18,093	375,952	164,425
109,889	-18,085	375,494	164,220
110,903	-17,957	375,061	164,177
111,918	-17,934	374,875	164,110
112,933	-17,885	374,504	163,995
113,947	-18,035	374,424	163,756
114,962	-18,002	374,124	163,652
115,976	-18,017	373,819	163,485
116,991	-18,068	373,370	163,210
118,006	-17,918	373,068	163,252
119,020	-18,016	372,969	163,070
120,035	-18,012	372,702	162,945
121,049	-17,918	372,445	162,935
122,064	-17,861	372,215	162,891
123,079	-17,973	371,854	162,579
124,093	-17,962	371,475	162,412
125,108	-18,006	371,189	162,218
126,122	-18,080	370,770	161,928
127,137	-18,093	370,594	161,821
128,151	-18,114	370,332	161,666
129,166	-17,857	369,875	161,771
130,181	-18,029	369,512	161,385
131,195	-18,043	369,178	161,208
132,210	-17,995	369,223	161,272
133,224	-18,008	368,943	161,118
134,239	-17,758	368,483	161,212
135,254	-17,853	368,247	160,977
136,268	-17,851	367,862	160,797
137,283	-17,941	367,544	160,533
138,297	-18,145	367,303	160,163
139,312	-17,928	366,963	160,267
140,327	-17,951	366,732	160,124
141,341	-17,828	366,512	160,164
142,356	-17,912	366,366	159,983
143,370	-17,764	365,837	159,918
144,385	-17,887	365,759	159,719
145,400	-17,915	365,326	159,482
146,414	-17,996	365,163	159,298
147,429	-17,823	364,898	159,379
148,443	-17,758	364,506	159,273
149,458	-17,898	364,307	159,002
150,473	-17,893	364,084	158,896
151,487	-17,852	363,874	158,840
152,502	-17,821	363,596	158,742
153,516	-17,875	363,062	158,429
154,531	-17,828	362,890	158,397
155,546	-17,872	362,632	158,217
156,560	-17,850	362,380	158,120
157,575	-17,821	362,163	158,046
158,589	-17,932	361,915	157,790
159,604	-17,774	361,511	157,790
160,619	-17,739	361,269	157,713
161,633	-17,936	361,069	157,373
162,648	-17,710	360,621	157,437
163,662	-17,828	360,670	157,302
164,677	-17,922	360,445	157,077
165,692	-17,650	360,044	157,215
166,706	-17,688	359,800	157,048
167,721	-17,770	359,678	156,883
168,735	-17,785	359,378	156,720
169,750	-17,870	359,236	156,543
170,764	-17,681	358,967	156,637
171,779	-17,733	358,665	156,430
172,794	-17,709	358,468	156,358
173,808	-17,711	358,165	156,210
174,823	-17,964	357,964	155,806
175,837	-18,052	357,702	155,574
176,852	-17,795	357,406	155,737
177,867	-17,771	357,027	155,587
178,881	-17,687	356,912	155,622
179,896	-17,653	356,633	155,528
180,910	-17,705	356,362	155,333
181,925	-17,664	356,166	155,283
182,940	-17,506	355,841	155,314
183,954	-17,685	355,636	154,999
184,969	-17,702	355,336	154,835
185,983	-17,726	355,196	154,731
186,998	-17,679	355,035	154,703
188,013	-17,686	354,767	154,564
189,027	-17,772	354,471	154,320
190,042	-17,835	354,348	154,178
191,056	-17,542	353,976	154,348
192,071	-17,640	353,764	154,127
193,086	-17,568	353,517	154,090
194,100	-17,208	353,542	154,511
195,115	-16,585	353,342	155,142
196,129	-15,169	354,295	157,217
197,144	-10,973	356,149	162,997
198,159	-7,466	357,808	167,908
199,173	-4,775	359,141	171,723
200,188	-3,900	359,047	172,705
201,202	-3,572	358,865	172,991
202,217	-3,613	358,868	172,929
203,232	-3,267	358,598	173,194
204,246	-3,300	358,361	173,025
205,261	-2,946	358,129	173,317
206,275	-2,870	357,992	173,325
207,290	-2,850	357,771	173,226
208,304	-2,854	357,404	173,028
209,319	-2,966	357,343	172,851
210,334	-2,938	356,963	172,685
211,348	-2,875	356,711	172,622
212,363	-2,928	356,775	172,575
213,377	-2,856	356,427	172,476
214,392	-2,695	356,227	172,553
215,407	-2,708	355,912	172,370
216,421	-2,784	355,710	172,167
217,436	-2,770	355,564	172,098
218,450	-2,727	355,247	171,979
219,465	-2,695	355,024	171,894
220,480	-2,765	354,842	171,709
221,494	-2,583	354,580	171,779
222,509	-2,677	354,369	171,552
223,523	-2,615	354,120	171,488
224,538	-2,555	353,892	171,433
225,553	-2,627	353,616	171,200
226,567	-2,729	353,245	170,886
227,582	-2,624	353,021	170,885
228,596	-2,822	353,079	170,667
229,611	-2,660	352,779	170,695
230,626	-2,402	352,381	170,788
231,640	-2,547	352,170	170,502
232,655	-2,645	351,915	170,249
233,669	-2,759	351,708	170,002
234,684	-2,724	351,499	169,926
235,699	-2,692	351,305	169,854
236,713	-2,747	351,113	169,683
237,728	-2,646	350,784	169,625
238,742	-2,619	350,551	169,529
239,757	-2,812	350,572	169,300
240,772	-2,744	350,142	169,156
241,786	-2,597	349,928	169,207
242,801	-2,601	349,547	169,004
243,815	-2,599	349,547	168,991
244,830	-2,637	349,081	168,707
245,844	-2,662	348,964	168,607
246,859	-2,724	348,805	168,442
247,874	-2,573	348,561	168,484
248,888	-2,499	348,230	168,394
249,903	-2,458	347,983	168,306
250,917	-2,802	347,858	167,836
251,932	-2,581	347,621	167,960
252,947	-2,475	347,319	167,920
253,961	-2,541	347,262	167,803
254,976	-2,654	346,970	167,517
255,990	-2,738	346,971	167,408
257,005	-2,536	346,471	167,382
258,020	-2,663	346,210	167,095
259,034	-2,692	346,008	166,950
260,049	-2,602	345,911	166,991
261,063	-2,594	345,750	166,907
262,078	-2,608	345,436	166,725
263,093	-2,581	344,959	166,510
264,107	-2,504	345,005	166,605
265,122	-2,598	344,757	166,364
266,136	-2,601	344,422	166,184
267,151	-2,723	344,271	165,958
268,166	-2,489	343,985	166,070
269,180	-2,581	343,894	165,908
270,195	-2,576	343,648	165,780
271,209	-2,458	343,281	165,721
272,224	-2,445	343,151	165,658
273,239	-2,504	342,831	165,422
274,253	-2,382	342,587	165,427
275,268	-2,686	342,514	165,035
276,282	-2,480	342,282	165,140
277,297	-2,640	341,944	164,783
278,312	-2,624	341,885	164,758
279,326	-2,563	341,645	164,696
280,341	-2,404	341,369	164,726
281,355	-2,478	341,158	164,527
282,370	-2,398	341,094	164,571
283,384	-2,597	340,807	164,195
284,399	-2,409	340,619	164,300
285,414	-2,470	340,346	164,086
286,428	-2,484	340,109	163,941
287,443	-2,434	339,822	163,844
288,457	-2,473	339,715	163,734
289,472	-2,423	339,421	163,634
290,487	-2,253	339,182	163,694
291,501	-2,325	338,881	163,453
292,516	-2,265	338,717	163,426
293,530	-2,359	338,654	163,277
294,545	-2,324	338,467	163,211
295,560	-2,416	338,175	162,953
296,574	-2,301	338,065	163,013
297,589	-2,374	337,692	162,738
298,603	-2,295	337,407	162,673
299,618	-2,377	337,222	162,479
300,633	-2,374	337,192	162,454
301,647	-2,188	336,896	162,502
302,662	-2,224	336,593	162,302
303,676	-2,111	336,387	162,313
304,691	-2,308	336,269	162,024
305,706	-2,227	335,916	161,929
306,720	-2,301	335,662	161,711
307,735	-2,343	335,552	161,597
308,749	-2,287	335,326	161,535
309,764	-2,311	335,152	161,410
310,779	-2,108	334,851	161,474
311,793	-2,205	334,594	161,229
312,808	-2,357	334,403	160,957
313,822	-2,200	334,268	161,049
314,837	-2,042	334,000	161,078
315,852	-2,268	333,896	160,766
316,866	-2,171	333,794	160,809
317,881	-2,184	333,421	160,600
318,895	-2,067	333,326	160,668
319,910	-2,085	332,901	160,430
320,925	-2,099	332,839	160,370
321,939	-2,196	332,555	160,114
322,954	-2,111	332,426	160,129
323,968	-2,138	332,096	159,927
324,983	-1,992	331,900	159,977
325,997	-1,985	331,740	159,893
327,012	-2,078	331,542	159,682
328,027	-2,152	331,312	159,477
329,041	-2,319	331,019	159,142
330,056	-2,179	330,778	159,163
331,070	-2,053	330,747	159,270
332,085	-2,014	330,447	159,154
333,100	-1,955	330,266	159,116
334,114	-1,906	329,965	159,009
335,129	-2,001	329,885	158,854
336,143	-2,045	329,702	158,705
337,158	-1,818	329,362	158,771
338,173	-1,891	329,128	158,566
339,187	-1,848	329,001	158,537
340,202	-2,192	328,783	158,048
341,216	-2,002	328,464	158,084
342,231	-2,057	328,246	157,906
343,246	-1,980	328,084	157,896
344,260	-2,014	328,008	157,810
345,275	-2,105	327,757	157,578
346,289	-2,231	327,356	157,236
347,304	-1,999	327,280	157,434
348,319	-1,890	327,149	157,473
349,333	-1,918	326,866	157,293
350,348	-1,935	326,507	157,088
351,362	-1,962	326,319	156,954
352,377	-2,032	326,416	156,912
353,392	-1,797	326,100	156,997
354,406	-1,848	325,869	156,817
355,421	195,219	1322,205	1379,848
356,435	159,597	1443,389	1379,671
