DTS Sentinel unit serial number:	SN410029Multiplexer serial number:	ORYXHardware model number:	OX2-SRSoftware version number:	ORYX F/W v4,00 Oryx Data Collector v3.7.2.0data status	okinstallation	B6 Nyhavnadifferential loss correction	single-endedforward channel	channel 2reverse channel	N/Adate	2023/12/07time	14:55:08forward acquisition time	300,00reverse acquisition time	0,00gamma	499,1914k internal	0,3145k external	0,3145temperature offset calibration	1,0000default loss term (dB/km)	0,3820temperature slope calibration	1,0000multiplexer offset coefficient	1,0000multiplexer slope coefficient	1,0000fibre end	0,00T internal ref (°C)	14,09T ext. ref 1 (°C)	-1,81T ext. ref 2 (°C)	-1,80length (m)	temperature (°C)	Stokes	anti-Stokes-744,400	225,300	-0,032	0,039
-743,385	-65,470	-0,164	0,048
-742,371	434,820	0,033	-0,054
-741,356	-70,151	-0,292	0,082
-740,342	-60,159	0,163	0,051
-739,327	-184,241	-0,125	0,001
-738,312	114,565	0,108	0,097
-737,298	-102,667	-0,323	-0,056
-736,283	-129,284	0,115	0,012
-735,269	-66,370	-0,149	-0,044
-734,254	518,232	0,053	0,092
-733,239	-93,326	-0,351	-0,071
-732,225	-56,844	0,273	0,089
-731,210	-83,125	0,130	-0,031
-730,196	196,756	0,025	0,028
-729,181	508,761	-0,038	-0,065
-728,167	99,755	-0,028	-0,024
-727,152	90,992	-0,122	0,101
-726,137	556,572	-0,051	0,092
-725,123	-150,563	-0,121	-0,007
-724,108	-36,056	-0,230	-0,092
-723,094	-200,000	-0,037	-0,141
-722,079	111,268	-0,066	0,059
-721,064	-34,278	-0,169	0,068
-720,050	-1,834	0,060	-0,031
-719,035	800,000	0,032	0,083
-718,021	444,392	-0,054	-0,088
-717,006	-200,000	-0,044	-0,154
-715,991	110,663	-0,096	-0,086
-714,977	219,559	-0,010	0,012
-713,962	350,469	-0,126	0,184
-712,948	800,000	-0,059	-0,146
-711,933	91,059	-0,097	-0,081
-710,918	-200,000	-0,021	0,179
-709,904	-54,898	-0,056	-0,019
-708,889	-200,000	-0,048	-0,167
-707,875	230,275	0,018	-0,022
-706,860	41,785	0,037	0,025
-705,845	55,726	0,105	-0,075
-704,831	23,785	-0,149	-0,091
-703,816	800,000	0,046	-0,132
-702,802	524,790	-0,059	-0,103
-701,787	-200,000	-0,003	-0,083
-700,772	800,000	-0,009	0,025
-699,758	-45,003	-0,116	0,043
-698,743	188,067	0,016	-0,018
-697,729	180,734	0,121	0,132
-696,714	-1,522	0,122	0,063
-695,699	269,780	0,061	-0,079
-694,685	54,890	-0,101	-0,072
-693,670	426,133	-0,053	-0,085
-692,656	-200,000	-0,016	-0,055
-691,641	-82,372	0,099	0,024
-690,627	70,332	-0,066	0,050
-689,612	-200,000	-0,033	0,138
-688,597	-200,000	0,013	0,061
-687,583	100,126	-0,104	0,089
-686,568	-200,000	0,034	0,116
-685,554	5,539	-0,049	-0,027
-684,539	-36,407	-0,058	-0,023
-683,524	-136,123	0,101	-0,009
-682,510	289,950	0,059	0,079
-681,495	-200,000	0,011	-0,109
-680,481	-200,000	-0,006	-0,094
-679,466	179,552	-0,121	-0,131
-678,451	-108,767	-0,023	0,004
-677,437	185,684	0,025	-0,028
-676,422	719,137	-0,056	0,110
-675,408	-158,464	-0,070	0,003
-674,393	-200,000	-0,001	-0,087
-673,378	-74,641	-0,131	-0,034
-672,364	593,546	0,042	-0,077
-671,349	-121,916	0,078	-0,009
-670,335	78,283	0,123	0,097
-669,320	-80,509	0,066	-0,016
-668,305	-95,488	0,132	0,026
-667,291	-56,343	-0,101	-0,033
-666,276	318,958	-0,096	0,135
-665,262	80,817	-0,044	-0,035
-664,247	-103,863	-0,080	-0,014
-663,232	-200,000	-0,021	-0,105
-662,218	392,795	0,033	-0,050
-661,203	-200,000	0,014	-0,145
-660,189	800,000	-0,041	-0,095
-659,174	-37,552	-0,076	-0,030
-658,159	-200,000	0,029	0,104
-657,145	65,110	-0,206	-0,153
-656,130	800,000	-0,010	-0,022
-655,116	153,700	-0,077	-0,078
-654,101	-38,726	-0,082	0,032
-653,086	148,656	0,006	0,006
-652,072	166,313	-0,041	-0,043
-651,057	-200,000	-0,016	-0,056
-650,043	-200,000	-0,007	0,031
-649,028	-200,000	0,006	-0,030
-648,014	102,377	-0,084	0,073
-646,999	387,652	-0,064	-0,098
-645,984	-83,611	0,031	0,007
-644,970	-200,000	-0,051	-0,206
-643,955	-73,122	0,045	-0,012
-642,941	-200,000	-0,105	0,000
-641,926	486,102	0,051	-0,087
-640,911	800,000	0,039	-0,105
-639,897	23,928	-0,068	0,041
-638,882	-200,000	-0,005	0,032
-637,868	800,000	0,040	0,121
-636,853	691,901	-0,070	0,136
-635,838	-92,121	0,039	-0,008
-634,824	33,019	-0,018	-0,012
-633,809	800,000	-0,006	-0,019
-632,795	459,076	0,064	0,105
-631,780	-118,604	0,084	-0,011
-630,765	-139,856	-0,035	-0,003
-629,751	2,147	0,140	0,074
-628,736	86,255	-0,150	-0,122
-627,722	-81,053	-0,049	0,012
-626,707	-144,394	-0,074	0,005
-625,692	708,892	0,033	-0,064
-624,678	-200,000	0,006	-0,052
-623,663	800,000	0,034	-0,087
-622,649	22,227	0,125	-0,075
-621,634	-191,505	-0,168	-0,001
-620,619	280,866	0,016	0,022
-619,605	-133,816	0,181	0,016
-618,590	-114,768	0,174	0,024
-617,576	-97,615	-0,048	0,009
-616,561	-106,700	-0,156	0,025
-615,546	-11,421	-0,054	0,026
-614,532	800,000	-0,025	0,054
-613,517	-102,476	-0,069	-0,012
-612,503	-46,571	0,063	0,022
-611,488	76,217	0,091	0,071
-610,474	-43,990	-0,116	-0,043
-609,459	-18,920	0,109	-0,050
-608,444	-21,917	-0,192	-0,086
-607,430	800,000	-0,017	0,047
-606,415	-39,920	-0,094	-0,036
-605,401	327,248	0,017	-0,024
-604,386	15,553	0,095	0,055
-603,371	-200,000	-0,025	0,096
-602,357	105,838	-0,083	0,072
-601,342	800,000	-0,037	-0,117
-600,328	192,354	-0,101	-0,113
-599,313	-200,000	-0,033	-0,115
-598,298	-9,837	-0,108	0,053
-597,284	755,305	-0,051	0,103
-596,269	-200,000	0,032	0,161
-595,255	-25,307	-0,022	0,010
-594,240	86,496	-0,056	0,046
-593,225	459,557	-0,049	0,081
-592,211	800,000	0,027	0,071
-591,196	-200,000	-0,005	0,071
-590,182	472,100	-0,067	0,111
-589,167	370,897	-0,063	0,095
-588,152	800,000	-0,048	-0,119
-587,138	-57,249	-0,098	-0,031
-586,123	223,291	-0,150	-0,178
-585,109	-164,464	0,161	-0,005
-584,094	-200,000	0,024	-0,089
-583,079	-35,905	-0,109	0,043
-582,065	-200,000	-0,025	0,154
-581,050	800,000	0,033	0,078
-580,036	-45,953	-0,045	-0,016
-579,021	31,605	-0,088	0,055
-578,006	-200,000	-0,046	-0,158
-576,992	-122,424	0,077	-0,009
-575,977	-47,580	0,137	0,049
-574,963	-180,415	0,037	-0,001
-573,948	426,887	0,053	-0,085
-572,934	-142,177	0,044	-0,003
-571,919	125,955	-0,112	-0,104
-570,904	-8,017	-0,074	0,036
-569,890	93,534	0,096	0,080
-568,875	-4,621	-0,069	-0,035
-567,861	323,247	-0,008	-0,011
-566,846	800,000	0,062	0,127
-565,831	74,511	-0,049	0,038
-564,817	18,774	0,119	-0,070
-563,802	75,673	0,020	-0,016
-562,788	800,000	-0,060	-0,145
-561,773	136,424	0,101	-0,097
-560,758	208,433	-0,085	0,098
-559,744	-154,525	-0,022	-0,001
-558,729	214,308	0,012	0,013
-557,715	800,000	-0,030	0,082
-556,700	800,000	-0,048	-0,115
-555,685	542,654	0,056	-0,098
-554,671	-44,565	0,133	-0,049
-553,656	156,883	0,046	0,046
-552,642	800,000	0,026	0,056
-551,627	166,893	-0,058	0,060
-550,612	-135,303	0,036	-0,003
-549,598	39,179	-0,114	-0,075
-548,583	-99,916	0,015	0,003
-547,569	4,076	0,057	-0,031
-546,554	364,473	0,073	0,108
-545,539	16,825	-0,026	-0,015
-544,525	-71,736	-0,034	0,009
-543,510	9,350	0,060	0,033
-542,496	800,000	-0,060	0,173
-541,481	145,607	-0,082	-0,081
-540,466	-66,166	0,033	-0,010
-539,452	-200,000	0,019	0,076
-538,437	98,350	0,041	0,035
-537,423	-149,140	-0,086	0,005
-536,408	-200,000	0,019	0,069
-535,393	-200,000	-0,056	-0,184
-534,379	248,014	-0,071	-0,088
-533,364	129,027	-0,049	-0,046
-532,350	-200,000	-0,007	0,081
-531,335	-148,945	0,104	-0,006
-530,321	-74,131	-0,147	-0,039
-529,306	-200,000	-0,008	0,073
-528,291	-200,000	-0,004	-0,023
-527,277	-123,434	-0,224	0,026
-526,262	61,204	-0,082	-0,060
-525,248	800,000	0,034	-0,095
-524,233	-114,852	-0,109	-0,015
-523,218	-93,302	0,067	0,014
-522,204	38,955	-0,075	-0,049
-521,189	-105,551	-0,174	0,029
-520,175	-36,963	-0,184	-0,072
-519,160	-200,000	0,010	-0,118
-518,145	-185,173	-0,037	0,000
-517,131	800,000	0,050	0,144
-516,116	45,072	-0,060	-0,041
-515,102	-200,000	0,028	-0,101
-514,087	-103,510	-0,066	-0,011
-513,072	134,224	0,062	0,059
-512,058	196,254	0,090	-0,101
-511,043	126,542	-0,026	0,024
-510,029	161,569	0,042	0,044
-509,014	-60,019	0,067	-0,021
-507,999	18,317	-0,106	-0,062
-506,985	125,014	0,009	0,008
-505,970	800,000	-0,034	-0,078
-504,956	541,107	-0,020	-0,035
-503,941	268,501	-0,037	-0,047
-502,926	198,512	0,051	0,058
-501,912	73,216	0,087	-0,067
-500,897	-85,798	0,076	-0,017
-499,883	90,448	-0,122	-0,100
-498,868	523,046	0,051	0,089
-497,853	576,846	0,010	-0,018
-496,839	3,564	-0,095	-0,051
-495,824	151,671	0,073	0,073
-494,810	261,326	0,057	0,072
-493,795	109,098	-0,073	-0,064
-492,781	36,916	0,085	-0,055
-491,766	-200,000	0,011	-0,055
-490,751	392,475	-0,038	0,059
-489,737	800,000	0,023	0,073
-488,722	-200,000	0,009	-0,054
-487,708	-76,625	-0,107	0,027
-486,693	164,781	0,043	-0,044
-485,678	425,750	0,034	0,053
-484,664	-200,000	0,007	0,030
-483,649	-72,711	-0,015	-0,004
-482,635	74,594	0,036	-0,028
-481,620	142,175	0,131	0,127
-480,605	93,892	0,052	-0,043
-479,591	-200,000	0,016	-0,060
-478,576	-0,695	0,115	-0,060
-477,562	-116,660	-0,109	0,014
-476,547	-200,000	0,011	0,065
-475,532	439,896	0,010	-0,016
-474,518	530,754	-0,016	-0,028
-473,503	-21,710	0,084	0,037
-472,489	67,299	0,129	0,096
-471,474	800,000	0,029	0,075
-470,459	551,473	0,042	0,075
-469,445	83,700	0,047	-0,037
-468,430	197,247	0,094	-0,106
-467,416	-81,944	0,071	0,017
-466,401	10,834	0,063	-0,035
-465,386	-58,963	0,071	0,022
-464,372	800,000	0,022	0,064
-463,357	680,965	-0,025	-0,048
-462,343	11,085	-0,043	-0,024
-461,328	-200,000	0,019	-0,065
-460,313	-200,000	-0,001	0,087
-459,299	-125,000	-0,076	0,008
-458,284	-67,870	0,151	0,043
-457,270	-29,824	-0,202	0,084
-456,255	133,422	-0,061	-0,057
-455,241	217,155	0,062	-0,072
-454,226	-200,000	0,007	0,038
-453,211	-62,564	-0,022	-0,007
-452,197	800,000	0,046	0,102
-451,182	-200,000	-0,004	0,014
-450,168	-200,000	-0,021	0,097
-449,153	-200,000	-0,000	0,105
-448,138	-24,838	-0,142	0,061
-447,124	-123,428	0,125	0,014
-446,109	-200,000	-0,013	-0,127
-445,095	210,111	-0,030	0,035
-444,080	137,567	-0,079	0,076
-443,065	599,746	-0,019	-0,035
-442,051	-149,943	-0,085	-0,005
-441,036	-71,468	0,174	0,047
-440,022	517,579	-0,057	-0,098
-439,007	229,286	0,094	-0,112
-437,992	696,389	-0,055	-0,106
-436,978	-200,000	-0,023	-0,102
-435,963	-51,422	0,059	-0,020
-434,949	-63,493	0,036	-0,011
-433,934	-200,000	-0,014	-0,206
-432,919	800,000	-0,078	-0,181
-431,905	-42,631	-0,083	-0,031
-430,890	-90,656	0,119	0,025
-429,876	4,953	0,083	0,044
-428,861	-16,912	0,060	0,028
-427,846	-65,770	-0,074	-0,021
-426,832	-200,000	0,009	0,127
-425,817	-187,564	-0,114	0,001
-424,803	23,174	-0,046	0,027
-423,788	-200,000	-0,018	0,194
-422,773	-56,806	-0,159	-0,051
-421,759	574,618	0,067	0,121
-420,744	122,011	-0,155	-0,142
-419,730	-182,814	0,025	-0,000
-418,715	239,849	-0,070	-0,085
-417,701	2,911	-0,110	0,058
-416,686	467,716	0,078	0,129
-415,671	4,833	-0,009	-0,005
-414,657	-200,000	0,006	0,067
-413,642	-200,000	0,032	-0,140
-412,628	171,113	-0,021	-0,022
-411,613	-115,261	0,207	-0,028
-410,598	-141,799	0,125	0,009
-409,584	-117,620	0,051	0,007
-408,569	-17,737	-0,098	0,045
-407,555	-200,000	-0,000	-0,025
-406,540	-83,085	0,057	-0,013
-405,525	30,648	-0,169	0,105
-404,511	-27,045	-0,005	-0,002
-403,496	79,996	0,064	-0,050
-402,482	494,790	0,049	0,082
-401,467	588,914	0,025	0,046
-400,452	683,029	0,083	0,158
-399,438	112,516	0,105	-0,093
-398,423	37,813	-0,053	0,035
-397,409	-200,000	0,184	0,000
-396,394	800,000	-0,055	-0,125
-395,379	303,541	-0,016	0,022
-394,365	165,637	-0,059	-0,061
-393,350	114,886	0,068	0,061
-392,336	-93,263	0,058	-0,012
-391,321	-12,546	0,050	-0,024
-390,306	-63,054	-0,094	-0,028
-389,292	-200,000	-0,013	-0,183
-388,277	-200,000	0,020	0,091
-387,263	-11,649	-0,092	0,044
-386,248	70,802	0,123	0,093
-385,233	102,238	0,131	0,112
-384,219	-122,972	0,062	-0,007
-383,204	385,916	0,037	0,056
-382,190	800,000	-0,027	-0,073
-381,175	-200,000	-0,010	0,129
-380,160	99,811	-0,098	0,082
-379,146	800,000	0,016	0,038
-378,131	266,451	-0,074	0,094
-377,117	-200,000	0,021	-0,133
-376,102	-200,000	0,008	0,048
-375,088	120,492	-0,034	0,031
-374,073	800,000	-0,053	-0,129
-373,058	-14,959	0,046	-0,022
-372,044	163,518	0,032	-0,033
-371,029	428,114	-0,003	0,005
-370,015	219,756	-0,032	-0,037
-369,000	-88,993	-0,049	-0,010
-367,985	-200,000	0,020	-0,067
-366,971	143,730	-0,094	-0,091
-365,956	22,728	0,054	0,032
-364,942	-200,000	-0,018	0,142
-363,927	175,912	0,105	0,111
-362,912	-45,038	-0,083	-0,030
-361,898	382,870	0,088	0,132
-360,883	-15,455	-0,085	-0,040
-359,869	-40,097	0,185	0,070
-358,854	-23,093	-0,073	0,032
-357,839	-113,047	0,038	-0,005
-356,825	66,969	0,108	0,080
-355,810	-200,000	0,015	0,115
-354,796	800,000	-0,062	-0,172
-353,781	64,244	0,123	-0,090
-352,766	-62,178	0,065	-0,020
-351,752	-49,766	-0,050	0,017
-350,737	-200,000	0,002	0,123
-349,723	12,218	0,081	0,045
-348,708	91,650	0,185	0,151
-347,693	-32,165	-0,141	-0,057
-346,679	-200,000	0,026	-0,149
-345,664	151,841	0,074	-0,073
-344,650	800,000	0,032	0,075
-343,635	-43,830	0,135	-0,049
-342,620	-200,000	-0,024	0,098
-341,606	41,834	0,034	0,022
-340,591	70,225	-0,050	-0,037
-339,577	-200,000	-0,021	-0,142
-338,562	-141,621	0,027	0,002
-337,548	43,116	0,118	-0,078
-336,533	-33,448	0,091	-0,036
-335,518	36,452	-0,023	0,015
-334,504	800,000	0,023	0,059
-333,489	-200,000	-0,009	-0,035
-332,475	-91,878	-0,122	0,025
-331,460	614,066	-0,045	-0,083
-330,445	442,818	-0,074	-0,119
-329,431	-13,938	-0,042	-0,020
-328,416	-200,000	0,006	-0,020
-327,402	259,516	0,106	-0,133
-326,387	800,000	-0,049	-0,106
-325,372	525,392	0,062	-0,107
-324,358	-57,129	-0,087	0,028
-323,343	-92,342	-0,100	0,020
-322,329	153,038	0,099	0,098
-321,314	483,130	0,036	0,060
-320,299	-5,502	0,055	0,027
-319,285	-53,649	0,133	0,044
-318,270	1,463	0,014	-0,007
-317,256	-200,000	0,017	-0,109
-316,241	66,926	0,117	-0,086
-315,226	-60,539	-0,010	0,003
-314,212	40,028	0,037	-0,024
-313,197	-80,876	-0,103	0,025
-312,183	357,218	-0,060	0,088
-311,168	287,527	-0,018	0,024
-310,153	50,259	-0,044	-0,030
-309,139	32,452	-0,055	-0,035
-308,124	42,560	-0,056	0,037
-307,110	470,919	0,068	0,111
-306,095	216,638	0,010	0,012
-305,080	-200,000	0,001	-0,014
-304,066	-200,000	-0,030	-0,116
-303,051	15,566	-0,146	-0,083
-302,037	122,092	-0,045	-0,041
-301,022	-168,091	0,108	0,003
-300,008	419,559	-0,093	0,145
-298,993	232,439	0,006	-0,007
-297,978	-200,000	0,002	-0,008
-296,964	-200,000	-0,008	0,050
-295,949	-139,983	0,080	-0,006
-294,935	-143,095	0,083	0,006
-293,920	371,077	-0,028	-0,042
-292,905	800,000	-0,069	0,157
-291,891	197,742	-0,013	-0,014
-290,876	-8,842	-0,107	0,052
-289,862	-106,936	0,131	-0,021
-288,847	462,151	0,042	-0,068
-287,832	126,642	0,033	0,030
-286,818	500,581	0,006	0,010
-285,803	108,095	-0,014	0,013
-284,789	-200,000	0,009	-0,033
-283,774	395,103	0,030	0,045
-282,759	451,034	-0,037	0,059
-281,745	297,198	-0,061	-0,082
-280,730	25,765	-0,077	-0,047
-279,716	-200,000	-0,027	0,133
-278,701	-200,000	-0,001	0,139
-277,686	133,626	0,070	-0,065
-276,672	309,007	0,055	-0,075
-275,657	17,834	-0,050	0,029
-274,643	229,937	0,025	-0,030
-273,628	735,135	-0,095	-0,185
-272,613	-37,723	0,093	-0,036
-271,599	800,000	0,032	0,075
-270,584	-200,000	0,023	0,223
-269,570	367,457	-0,080	0,117
-268,555	62,107	0,059	0,043
-267,540	-200,000	-0,048	-0,200
-266,526	-122,722	-0,089	-0,010
-265,511	561,115	-0,028	-0,050
-264,497	172,345	-0,050	-0,052
-263,482	319,789	-0,039	-0,054
-262,467	-28,677	-0,033	-0,014
-261,453	800,000	0,016	0,034
-260,438	-92,095	0,163	0,033
-259,424	800,000	0,012	-0,035
-258,409	147,973	0,054	-0,053
-257,395	-200,000	-0,004	0,131
-256,380	250,011	0,041	-0,051
-255,365	800,000	0,084	0,200
-254,351	80,026	0,043	-0,034
-253,336	800,000	-0,022	-0,062
-252,322	-153,535	-0,136	-0,007
-251,307	800,000	0,038	0,083
-250,292	-22,896	-0,084	-0,037
-249,278	50,380	0,116	0,079
-248,263	260,772	0,034	0,042
-247,249	-84,619	-0,031	0,007
-246,234	-68,009	-0,069	0,019
-245,219	-200,000	0,025	0,118
-244,205	459,767	0,018	0,029
-243,190	84,056	0,076	-0,060
-242,176	800,000	0,045	-0,132
-241,161	715,699	-0,051	-0,098
-240,146	67,639	0,064	0,047
-239,132	43,484	-0,130	0,086
-238,117	338,791	0,050	-0,070
-237,103	46,114	0,089	-0,060
-236,088	800,000	-0,046	0,094
-235,073	-200,000	-0,020	0,077
-234,059	215,684	0,071	0,082
-233,044	104,023	-0,044	-0,037
-232,030	53,083	-0,096	0,067
-231,015	172,803	-0,109	-0,113
-230,000	-200,000	0,007	0,155
-228,986	-114,471	0,188	-0,026
-227,971	-200,000	-0,011	-0,072
-226,957	735,988	-0,025	0,048
-225,942	-179,414	0,110	0,002
-224,927	800,000	0,049	0,130
-223,913	247,921	-0,036	-0,045
-222,898	800,000	0,021	-0,054
-221,884	-119,555	0,062	-0,008
-220,869	-195,132	-0,060	-0,000
-219,855	702,362	-0,089	0,170
-218,840	-200,000	0,026	0,144
-217,825	-59,363	-0,099	0,031
-216,811	-200,000	0,002	0,106
-215,796	152,909	-0,146	-0,145
-214,782	-82,937	-0,072	-0,017
-213,767	258,959	0,063	0,078
-212,752	-11,537	0,104	0,049
-211,738	533,911	0,046	-0,079
-210,723	-110,481	0,049	0,007
-209,709	63,555	-0,064	-0,046
-208,694	800,000	-0,043	-0,120
-207,679	66,566	-0,036	-0,026
-206,665	454,804	0,039	0,063
-205,650	168,050	-0,067	0,069
-204,636	800,000	0,054	-0,129
-203,621	4,335	0,122	0,064
-202,606	-49,807	-0,228	0,078
-201,592	-200,000	-0,012	-0,051
-200,577	302,011	0,027	0,036
-199,563	-122,640	0,112	0,013
-198,548	91,870	0,065	0,053
-197,533	800,000	-0,039	-0,081
-196,519	468,105	0,027	0,045
-195,504	146,094	-0,012	0,012
-194,490	-200,000	-0,006	-0,035
-193,475	89,112	0,073	0,059
-192,460	141,927	0,133	-0,128
-191,446	42,323	-0,074	-0,049
-190,431	-145,265	0,132	-0,009
-189,417	-128,801	-0,100	0,010
-188,402	658,161	0,020	-0,037
-187,387	21,798	-0,104	-0,061
-186,373	480,917	-0,043	-0,071
-185,358	-200,000	-0,013	-0,046
-184,344	24,883	0,116	0,069
-183,329	-83,796	0,055	0,013
-182,315	-122,648	0,064	0,007
-181,300	263,364	-0,032	0,040
-180,285	-126,210	-0,052	-0,006
-179,271	170,499	-0,049	-0,051
-178,256	-200,000	0,004	0,035
-177,242	282,741	0,019	-0,024
-176,227	-200,000	-0,002	0,131
-175,212	800,000	-0,072	0,151
-174,198	99,400	-0,087	0,073
-173,183	98,746	-0,081	0,067
-172,169	51,280	0,073	-0,050
-171,154	-17,979	0,087	-0,039
-170,139	-200,000	-0,021	-0,086
-169,125	282,047	-0,022	0,028
-168,110	286,178	0,025	-0,032
-167,096	174,313	-0,110	-0,116
-166,081	347,067	0,031	0,045
-165,066	-200,000	0,017	-0,071
-164,052	193,095	0,022	-0,025
-163,037	800,000	-0,012	0,038
-162,023	-97,516	-0,080	-0,015
-161,008	-132,069	-0,022	0,002
-159,993	140,654	0,050	0,047
-158,979	355,989	0,056	-0,081
-157,964	-161,812	-0,060	0,002
-156,950	776,389	-0,056	-0,110
-155,935	-51,610	0,126	-0,042
-154,920	245,451	0,131	-0,159
-153,906	800,000	0,022	0,057
-152,891	26,890	0,028	-0,017
-151,877	298,655	-0,032	-0,042
-150,862	515,417	-0,082	0,139
-149,847	226,254	0,048	0,056
-148,833	-42,833	0,091	0,033
-147,818	227,844	-0,016	0,019
-146,804	199,835	0,067	0,074
-145,789	375,160	0,079	0,116
-144,775	253,882	-0,048	0,060
-143,760	-10,958	-0,046	-0,022
-142,745	-26,549	-0,096	0,040
-141,731	149,081	-0,055	-0,054
-140,716	563,528	-0,062	0,110
-139,702	50,593	0,087	-0,060
-138,687	-200,000	-0,011	-0,076
-137,672	246,788	-0,010	0,012
-136,658	-200,000	-0,002	-0,012
-135,643	30,566	0,108	-0,067
-134,629	-2,914	-0,075	-0,038
-133,614	153,016	-0,019	-0,018
-132,599	-61,816	0,047	0,014
-131,585	-125,579	-0,083	-0,009
-130,570	-133,873	-0,108	0,010
-129,556	-69,296	0,038	-0,010
-128,541	24,233	-0,021	0,013
-127,526	-200,000	0,003	0,086
-126,512	-23,928	0,054	-0,023
-125,497	-200,000	0,019	0,082
-124,483	314,399	0,073	0,099
-123,468	42,340	-0,048	-0,031
-122,453	-41,558	-0,120	-0,044
-121,439	800,000	0,055	-0,116
-120,424	-85,166	-0,131	0,029
-119,410	800,000	0,074	0,164
-118,395	227,164	0,043	0,050
-117,380	-143,658	0,038	-0,003
-116,366	-200,000	0,003	0,062
-115,351	-151,407	0,033	0,002
-114,337	-24,460	0,066	0,028
-113,322	117,736	-0,111	-0,099
-112,307	-89,357	0,038	0,008
-111,293	87,235	-0,081	0,065
-110,278	-21,304	0,063	-0,028
-109,264	-200,000	-0,015	0,123
-108,249	-200,000	-0,013	0,057
-107,234	715,894	0,049	-0,095
-106,220	-145,644	0,097	0,006
-105,205	-200,000	-0,005	-0,044
-104,191	152,756	-0,026	0,026
-103,176	-200,000	0,007	0,091
-102,162	-125,705	-0,163	0,018
-101,147	-140,449	0,070	0,005
-100,132	214,442	-0,126	-0,144
-99,118	-200,000	0,003	0,019
-98,103	-37,220	0,064	0,025
-97,089	800,000	0,072	0,172
-96,074	-45,564	-0,091	-0,032
-95,059	-200,000	-0,002	-0,029
-94,045	-126,488	-0,150	0,016
-93,030	-200,000	-0,022	0,086
-92,016	175,249	0,063	-0,066
-91,001	12,664	0,075	-0,041
-89,986	-200,000	-0,009	0,096
-88,972	-88,806	0,195	0,041
-87,957	-138,367	-0,059	0,005
-86,943	-120,453	0,007	0,001
-85,928	81,021	-0,149	-0,116
-84,913	-200,000	-0,021	-0,145
-83,899	-112,088	0,016	0,002
-82,884	52,297	0,106	0,073
-81,870	196,213	0,069	0,076
-80,855	-200,000	0,037	0,129
-79,840	181,799	0,007	-0,007
-78,826	184,549	-0,051	0,055
-77,811	480,638	-0,057	-0,094
-76,797	-200,000	-0,018	0,096
-75,782	-27,255	0,063	0,026
-74,767	800,000	-0,071	0,201
-73,753	98,844	0,066	0,055
-72,738	-200,000	-0,012	-0,158
-71,724	-90,407	-0,131	0,027
-70,709	56,919	0,054	0,038
-69,694	269,858	0,023	0,029
-68,680	800,000	0,040	0,126
-67,665	-3,275	-0,201	-0,100
-66,651	800,000	-0,017	0,047
-65,636	800,000	0,014	-0,035
-64,622	287,064	-0,033	0,043
-63,607	-156,503	-0,062	-0,003
-62,592	-200,000	0,009	0,108
-61,578	-28,385	-0,076	0,032
-60,563	-200,000	0,024	0,129
-59,549	-89,841	-0,085	0,018
-58,534	24,679	-2,180	-1,298
-57,519	-200,000	-0,172	-0,740
-56,505	-200,000	-1,221	-5,186
-55,490	48,804	0,861	0,581
-54,476	800,000	5,228	11,964
-53,461	-200,000	18,212	297,973
-52,446	800,000	731,261	2233,011
-51,432	515,013	1643,608	2775,356
-50,417	77,263	1604,067	1227,732
-49,403	25,478	1204,768	720,245
-48,388	17,318	937,233	534,582
-47,373	19,776	902,408	522,172
-46,359	18,569	889,726	511,195
-45,344	14,277	885,044	495,659
-44,330	14,118	883,489	494,292
-43,315	14,060	882,289	493,428
-42,300	14,040	881,649	492,992
-41,286	14,075	880,661	492,523
-40,271	13,992	879,860	491,807
-39,257	14,029	879,065	491,455
-38,242	13,971	878,257	490,812
-37,227	14,108	877,125	490,566
-36,213	13,992	876,335	489,761
-35,198	13,983	875,540	489,270
-34,184	14,050	874,756	489,010
-33,169	14,012	873,796	488,343
-32,154	14,104	872,966	488,132
-31,140	14,185	871,870	487,737
-30,125	14,190	871,234	487,378
-29,111	14,237	870,222	486,930
-28,096	14,122	869,865	486,371
-27,082	14,114	869,331	486,032
-26,067	14,115	868,627	485,621
-25,052	14,116	867,727	485,101
-24,038	14,166	866,947	484,792
-23,023	14,172	866,047	484,287
-22,009	14,124	865,491	483,818
-20,994	14,159	864,825	483,530
-19,979	14,074	864,565	483,116
-18,965	14,199	863,869	483,071
-17,950	14,156	863,326	482,622
-16,936	14,116	862,529	482,043
-15,921	14,059	862,153	481,648
-14,906	14,047	861,358	481,148
-13,892	14,088	860,685	480,873
-12,877	14,069	859,952	480,389
-11,863	14,052	859,581	480,114
-10,848	14,061	859,079	479,840
-9,833	14,060	858,762	479,640
-8,819	14,099	857,820	479,208
-7,804	14,045	857,290	478,738
-6,790	14,073	856,748	478,498
-5,775	14,089	856,556	478,418
-4,760	14,080	855,830	477,967
-3,746	13,954	855,377	477,330
-2,731	13,856	854,699	476,650
-1,717	13,847	854,006	476,217
-0,702	13,837	853,210	475,726
0,313	13,687	852,743	475,752
1,327	17,073	850,566	484,228
2,342	25,851	715,713	428,522
3,356	21,796	401,471	234,900
4,371	-7,664	266,904	129,414
5,386	-11,205	250,297	118,305
6,400	-12,499	245,242	114,814
7,415	-12,702	242,998	113,583
8,429	-12,864	242,079	113,009
9,444	-12,905	241,092	112,504
10,459	-12,905	240,601	112,264
11,473	-13,174	240,039	111,771
12,488	-13,302	239,431	111,372
13,502	-13,445	238,848	110,973
14,517	-13,692	238,553	110,624
15,531	-13,626	237,960	110,393
16,546	-13,495	237,770	110,402
17,561	-13,586	237,567	110,224
18,575	-13,357	237,058	110,164
19,590	-13,575	236,762	109,840
20,604	-13,458	236,551	109,827
21,619	-13,752	236,234	109,432
22,634	-13,602	235,844	109,362
23,648	-13,756	235,758	109,188
24,663	-13,717	235,432	109,059
25,677	-13,547	235,281	109,117
26,692	-13,661	234,956	108,864
27,707	-13,565	234,636	108,784
28,721	-13,528	234,307	108,651
29,736	-13,812	234,165	108,347
30,750	-13,821	233,817	108,169
31,765	-13,765	233,816	108,204
32,780	-13,509	233,383	108,199
33,794	-13,802	233,289	107,911
34,809	-13,694	233,020	107,864
35,823	-13,763	232,844	107,717
36,838	-13,856	232,556	107,500
37,853	-13,988	232,445	107,334
38,867	-13,852	232,179	107,310
39,882	-13,842	231,954	107,205
40,896	-13,800	231,742	107,130
41,911	-13,858	231,453	106,941
42,926	-13,871	231,268	106,836
43,940	-13,736	231,139	106,874
44,955	-13,951	230,818	106,546
45,969	-13,851	230,676	106,550
46,984	-14,024	230,511	106,327
47,999	-14,278	230,053	105,906
49,013	-14,238	229,902	105,859
50,028	-14,397	229,566	105,569
51,042	-14,574	229,441	105,364
52,057	-14,640	229,279	105,228
53,071	-14,389	229,066	105,317
54,086	-14,529	229,019	105,177
55,101	-14,289	228,951	105,325
56,115	-14,019	228,710	105,416
57,130	-13,795	228,720	105,587
58,144	-13,487	228,449	105,694
59,159	-13,422	228,192	105,616
60,174	-13,456	228,169	105,569
61,188	-13,405	227,712	105,388
62,203	-13,425	227,521	105,274
63,217	-13,598	227,390	105,070
64,232	-13,648	227,226	104,945
65,247	-13,497	226,985	104,942
66,261	-13,511	226,825	104,848
67,276	-13,680	226,428	104,524
68,290	-13,980	226,232	104,192
69,305	-14,094	226,182	104,071
70,320	-14,130	225,931	103,919
71,334	-13,769	225,794	104,126
72,349	-13,615	225,527	104,112
73,363	-13,567	225,662	104,202
74,378	-13,759	225,452	103,948
75,393	-13,642	225,123	103,876
76,407	-13,698	225,019	103,777
77,422	-13,876	224,775	103,518
78,436	-13,712	224,631	103,568
79,451	-13,638	224,324	103,474
80,466	-13,756	224,131	103,286
81,480	-14,060	223,910	102,942
82,495	-13,993	223,826	102,945
83,509	-14,071	223,776	102,854
84,524	-13,838	223,296	102,802
85,539	-14,097	223,154	102,530
86,553	-13,973	222,966	102,529
87,568	-13,959	222,746	102,429
88,582	-13,838	222,698	102,489
89,597	-13,967	222,463	102,274
90,611	-13,906	222,409	102,287
91,626	-13,625	222,298	102,440
92,641	-13,590	221,978	102,310
93,655	-13,478	221,602	102,212
94,670	-13,768	221,803	102,076
95,684	-13,771	221,534	101,941
96,699	-13,689	221,260	101,868
97,714	-13,669	221,108	101,804
98,728	-14,151	220,920	101,345
99,743	-13,988	220,749	101,380
100,757	-13,981	220,503	101,263
101,772	-13,784	220,386	101,349
102,787	-13,716	220,301	101,351
103,801	-13,705	220,134	101,274
104,816	-13,797	220,143	101,200
105,830	-13,651	219,971	101,221
106,845	-13,466	219,724	101,237
107,860	-13,510	219,543	101,113
108,874	-13,653	219,271	100,871
109,889	-13,644	219,099	100,790
110,903	-13,828	218,967	100,582
111,918	-13,807	218,680	100,458
112,933	-13,737	218,663	100,493
113,947	-13,914	218,558	100,304
114,962	-13,515	218,274	100,462
115,976	-13,735	218,126	100,221
116,991	-13,711	217,920	100,135
118,006	-13,648	217,771	100,104
119,020	-13,737	217,728	100,009
120,035	-13,634	217,681	100,055
121,049	-13,532	217,404	99,995
122,064	-13,740	217,415	99,837
123,079	-13,538	217,044	99,807
124,093	-13,870	216,777	99,430
125,108	-13,844	216,667	99,390
126,122	-14,082	216,430	99,097
127,137	-14,179	216,142	98,885
128,151	-14,236	216,086	98,808
129,166	-13,970	215,979	98,947
130,181	-13,987	215,707	98,801
131,195	-14,062	215,608	98,691
132,210	-13,972	215,635	98,760
133,224	-13,779	215,326	98,752
134,239	-13,609	215,142	98,783
135,254	-13,644	215,102	98,731
136,268	-13,824	214,851	98,474
137,283	-14,096	214,663	98,181
138,297	-13,910	214,481	98,225
139,312	-14,189	214,268	97,915
140,327	-13,835	214,309	98,183
141,341	-13,384	214,148	98,429
142,356	-13,239	214,007	98,461
143,370	-13,367	213,963	98,339
144,385	-13,371	213,822	98,262
145,400	-13,269	213,668	98,257
146,414	-13,308	213,391	98,093
147,429	-13,405	213,137	97,897
148,443	-13,201	212,957	97,953
149,458	-13,300	212,830	97,815
150,473	-13,285	212,759	97,783
151,487	-13,516	212,617	97,543
152,502	-13,405	212,508	97,564
153,516	-13,421	212,472	97,528
154,531	-13,213	212,006	97,455
155,546	-13,462	212,017	97,272
156,560	-13,502	211,824	97,146
157,575	-13,538	211,670	97,040
158,589	-13,614	211,577	96,935
159,604	-13,288	211,408	97,083
160,619	-12,925	211,152	97,216
161,633	-13,413	211,127	96,847
162,648	-13,157	210,998	96,962
163,662	-13,222	210,777	96,806
164,677	-13,444	210,774	96,637
165,692	-13,218	210,568	96,695
166,706	-13,132	210,414	96,677
167,721	-13,045	210,208	96,636
168,735	-13,104	210,357	96,654
169,750	-13,253	209,995	96,373
170,764	-13,269	209,856	96,289
171,779	-13,265	209,819	96,266
172,794	-13,423	209,579	96,035
173,808	-13,493	209,458	95,921
174,823	-13,689	209,111	95,615
175,837	-14,037	209,016	95,317
176,852	-13,402	208,816	95,666
177,867	-13,217	208,814	95,787
178,881	-13,229	208,650	95,696
179,896	-13,303	208,465	95,550
180,910	-13,140	208,447	95,648
181,925	-13,440	208,346	95,382
182,940	-12,901	208,052	95,619
183,954	-13,131	207,987	95,418
184,969	-12,996	207,880	95,456
185,983	-13,027	207,777	95,378
186,998	-13,069	207,676	95,294
188,013	-12,910	207,522	95,326
189,027	-13,274	207,504	95,054
190,042	-13,155	207,174	94,977
191,056	-13,291	207,051	94,817
192,071	-13,238	206,818	94,739
193,086	-13,239	206,798	94,721
194,100	-12,702	206,677	95,032
195,115	-12,797	206,467	94,861
196,129	-12,695	206,579	94,975
197,144	-8,219	207,790	98,668
198,159	-4,295	208,946	101,974
199,173	-0,787	209,857	104,888
200,188	0,277	209,834	105,618
201,202	-0,082	209,603	105,239
202,217	-0,451	209,423	104,880
203,232	0,187	209,258	105,236
204,246	0,312	209,143	105,257
205,261	0,233	209,295	105,268
206,275	0,376	208,947	105,184
207,290	0,625	208,909	105,330
208,304	0,504	208,692	105,127
209,319	0,361	208,571	104,956
210,334	0,490	208,359	104,931
211,348	0,156	208,219	104,617
212,363	-0,010	208,142	104,453
213,377	0,036	207,843	104,325
214,392	-0,138	207,859	104,203
215,407	-0,095	207,735	104,161
216,421	0,169	207,524	104,231
217,436	0,077	207,436	104,113
218,450	-0,191	207,163	103,780
219,465	-0,303	207,058	103,640
220,480	-0,190	206,961	103,661
221,494	-0,069	206,832	103,671
222,509	0,140	206,749	103,766
223,523	0,254	206,693	103,807
224,538	0,132	206,434	103,583
225,553	0,037	206,244	103,412
226,567	0,266	206,139	103,510
227,582	0,279	206,059	103,469
228,596	0,470	206,121	103,623
229,611	0,063	205,870	103,206
230,626	-0,246	205,759	102,929
231,640	-0,195	205,507	102,828
232,655	0,212	205,487	103,090
233,669	0,525	205,214	103,159
234,684	0,462	205,290	103,145
235,699	0,663	204,959	103,107
236,713	0,221	204,792	102,711
237,728	0,130	204,578	102,532
238,742	-0,267	204,527	102,225
239,757	0,002	204,441	102,357
240,772	-0,165	204,233	102,129
241,786	-0,035	204,104	102,145
242,801	0,261	204,099	102,335
243,815	0,763	204,063	102,651
244,830	0,376	203,788	102,240
245,844	0,045	203,518	101,870
246,859	0,090	203,393	101,829
247,874	0,286	203,285	101,899
248,888	0,191	203,281	101,823
249,903	0,463	203,020	101,868
250,917	0,181	202,974	101,644
251,932	0,183	202,641	101,470
252,947	-0,229	202,600	101,161
253,961	-0,390	202,515	101,000
254,976	-0,084	202,494	101,189
255,990	0,211	202,254	101,259
257,005	0,155	202,392	101,281
258,020	0,410	202,087	101,292
259,034	0,358	202,032	101,220
260,049	0,201	201,803	100,991
261,063	0,122	201,570	100,812
262,078	0,380	201,639	101,011
263,093	0,831	201,556	101,264
264,107	0,469	201,249	100,858
265,122	0,324	201,237	100,745
266,136	0,402	201,234	100,787
267,151	0,318	201,021	100,615
268,166	-0,012	200,747	100,248
269,180	-0,264	200,535	99,964
270,195	0,081	200,497	100,167
271,209	-0,135	200,344	99,937
272,224	-0,034	200,259	99,953
273,239	0,324	200,177	100,143
274,253	0,019	199,906	99,795
275,268	0,061	199,685	99,703
276,282	-0,258	199,564	99,421
277,297	-0,324	199,462	99,318
278,312	0,194	199,374	99,610
279,326	0,167	199,309	99,550
280,341	0,199	199,203	99,511
281,355	0,370	198,969	99,498
282,370	0,392	198,896	99,467
283,384	-0,200	198,694	98,965
284,399	-0,392	198,697	98,830
285,414	-0,214	198,447	98,815
286,428	0,126	198,528	99,071
287,443	0,262	198,308	99,043
288,457	0,164	198,154	98,893
289,472	-0,038	198,022	98,684
290,487	-0,604	197,866	98,224
291,501	-0,249	197,761	98,398
292,516	-0,116	197,541	98,367
293,530	-0,389	197,516	98,166
294,545	-0,262	197,399	98,182
295,560	-0,266	197,313	98,128
296,574	0,117	197,164	98,297
297,589	0,109	196,998	98,201
298,603	-0,005	196,935	98,085
299,618	0,227	196,674	98,099
300,633	0,238	196,836	98,178
301,647	0,424	196,605	98,176
302,662	0,273	196,614	98,072
303,676	0,494	196,484	98,144
304,691	0,480	196,276	98,022
305,706	0,241	196,046	97,742
306,720	0,339	195,972	97,760
307,735	0,236	195,720	97,559
308,749	0,183	195,568	97,440
309,764	0,192	195,637	97,471
310,779	0,146	195,427	97,328
311,793	-0,199	195,239	97,002
312,808	-0,039	195,258	97,107
313,822	0,288	194,994	97,179
314,837	0,319	194,929	97,158
315,852	0,144	194,726	96,935
316,866	0,525	194,606	97,113
317,881	0,367	194,623	97,011
318,895	0,162	194,429	96,772
319,910	-0,072	194,129	96,463
320,925	-0,284	193,969	96,239
321,939	-0,163	193,813	96,230
322,954	-0,301	193,832	96,143
323,968	0,146	193,834	96,423
324,983	0,526	193,682	96,583
325,997	0,333	193,781	96,500
327,012	0,172	193,492	96,244
328,027	0,246	193,249	96,162
329,041	0,645	193,260	96,415
330,056	0,378	193,087	96,149
331,070	0,102	192,978	95,909
332,085	-0,425	192,744	95,446
333,100	0,331	192,669	95,885
334,114	0,551	192,534	95,950
335,129	0,302	192,437	95,734
336,143	0,029	192,412	95,538
337,158	0,266	192,211	95,582
338,173	0,151	192,194	95,491
339,187	0,233	191,878	95,378
340,202	-0,087	191,850	95,152
341,216	-0,046	191,616	95,053
342,231	0,236	191,592	95,212
343,246	-0,037	191,427	94,948
344,260	-0,003	191,291	94,894
345,275	0,180	191,298	95,005
346,289	0,285	190,945	94,888
347,304	0,450	190,923	94,973
348,319	0,508	191,006	95,042
349,333	0,461	190,881	94,942
350,348	0,548	190,639	94,868
351,362	0,547	190,659	94,869
352,377	0,495	190,607	94,802
353,392	0,418	190,209	94,547
354,406	0,524	190,103	94,552
355,421	195,864	1312,661	1395,497
356,435	155,942	1449,399	1395,466
