DTS Sentinel unit serial number:	SN410029Multiplexer serial number:	ORYXHardware model number:	OX2-SRSoftware version number:	ORYX F/W v4,00 Oryx Data Collector v3.7.2.0data status	okinstallation	B6 Nyhavnadifferential loss correction	single-endedforward channel	channel 2reverse channel	N/Adate	2023/12/09time	13:00:08forward acquisition time	300,00reverse acquisition time	0,00gamma	499,1914k internal	0,3137k external	0,3137temperature offset calibration	1,0000default loss term (dB/km)	0,3820temperature slope calibration	1,0000multiplexer offset coefficient	1,0000multiplexer slope coefficient	1,0000fibre end	0,00T internal ref (°C)	19,77T ext. ref 1 (°C)	4,58T ext. ref 2 (°C)	4,55length (m)	temperature (°C)	Stokes	anti-Stokes-744,400	800,000	-0,024	-0,077
-743,385	-94,425	-0,381	-0,076
-742,371	800,000	0,025	0,070
-741,356	-84,036	-0,351	0,082
-740,342	-55,619	0,213	0,070
-739,327	-93,128	-0,250	-0,051
-738,312	179,956	0,053	-0,057
-737,298	-163,439	-0,266	-0,009
-736,283	-21,674	0,092	-0,041
-735,269	4,436	-0,190	0,103
-734,254	-200,000	0,020	-0,150
-733,239	-32,185	-0,420	-0,173
-732,225	-64,126	0,125	0,038
-731,210	287,386	0,073	-0,098
-730,196	-200,000	0,041	-0,143
-729,181	-114,917	-0,088	-0,012
-728,167	304,620	0,098	-0,135
-727,152	-48,307	0,165	-0,059
-726,137	455,615	0,046	0,077
-725,123	-85,234	-0,165	-0,038
-724,108	-200,000	0,005	-0,049
-723,094	177,423	-0,127	-0,137
-722,079	-200,000	-0,020	-0,174
-721,064	-200,000	0,014	-0,065
-720,050	664,714	-0,060	0,115
-719,035	-90,968	-0,032	-0,007
-718,021	187,460	-0,112	-0,124
-717,006	183,110	-0,100	-0,109
-715,991	-49,393	-0,122	0,043
-714,977	-7,489	0,120	-0,060
-713,962	141,265	-0,047	-0,046
-712,948	-200,000	-0,036	0,141
-711,933	434,680	0,037	0,060
-710,918	-200,000	0,015	0,067
-709,904	-146,068	-0,172	0,011
-708,889	59,507	-0,108	-0,079
-707,875	-24,453	0,061	-0,027
-706,860	-151,723	0,053	-0,003
-705,845	-41,362	-0,005	0,002
-704,831	3,922	-0,044	-0,024
-703,816	-12,808	-0,112	-0,054
-702,802	277,475	-0,023	0,031
-701,787	390,093	0,013	-0,021
-700,772	147,319	-0,066	0,066
-699,758	-200,000	0,018	0,060
-698,743	-74,887	-0,119	0,031
-697,729	241,951	0,025	-0,031
-696,714	800,000	0,035	0,092
-695,699	800,000	-0,068	-0,187
-694,685	-24,259	-0,069	0,030
-693,670	-200,000	-0,000	-0,017
-692,656	-46,549	0,086	-0,031
-691,641	-28,864	-0,129	0,054
-690,627	-41,793	-0,119	0,045
-689,612	800,000	-0,049	0,104
-688,597	207,718	0,095	0,110
-687,583	800,000	-0,010	0,027
-686,568	461,342	-0,064	-0,106
-685,554	47,195	-0,064	-0,044
-684,539	121,060	0,104	0,096
-683,524	-200,000	0,013	0,086
-682,510	123,891	0,081	0,075
-681,495	-127,173	0,138	0,015
-680,481	-36,529	0,198	-0,079
-679,466	172,178	-0,084	-0,089
-678,451	-200,000	0,002	-0,076
-677,437	336,627	0,049	0,070
-676,422	8,982	0,144	0,080
-675,408	-16,136	-0,048	-0,022
-674,393	36,008	0,043	-0,028
-673,378	800,000	0,019	0,044
-672,364	150,172	-0,010	-0,011
-671,349	43,513	-0,041	-0,028
-670,335	96,609	-0,086	-0,073
-669,320	-81,612	0,049	0,012
-668,305	283,268	-0,023	0,031
-667,291	269,603	-0,042	0,055
-666,276	159,605	0,047	-0,048
-665,262	-8,990	0,095	-0,047
-664,247	-105,637	0,033	0,005
-663,232	-26,561	0,026	0,011
-662,218	-200,000	-0,003	-0,067
-661,203	300,442	-0,036	0,049
-660,189	349,433	0,048	-0,071
-659,174	-33,298	-0,165	0,067
-658,159	800,000	-0,053	-0,140
-657,145	-192,827	-0,124	-0,001
-656,130	-76,846	-0,102	-0,026
-655,116	-200,000	-0,002	-0,041
-654,101	48,934	0,015	-0,010
-653,086	307,925	0,043	-0,060
-652,072	518,609	0,047	-0,081
-651,057	-200,000	-0,021	-0,147
-650,043	-146,380	0,028	0,002
-649,028	163,017	0,116	-0,121
-648,014	-2,408	0,171	0,088
-646,999	-125,539	-0,087	-0,010
-645,984	-200,000	-0,001	0,020
-644,970	210,907	-0,099	-0,116
-643,955	-200,000	-0,032	-0,220
-642,941	-7,399	0,100	-0,050
-641,926	-81,247	-0,049	0,012
-640,911	188,134	-0,076	0,084
-639,897	345,960	-0,047	0,069
-638,882	99,098	0,077	0,066
-637,868	81,391	0,016	-0,013
-636,853	221,749	-0,011	-0,013
-635,838	-22,747	-0,068	0,030
-634,824	-154,191	0,038	-0,002
-633,809	-66,463	0,186	-0,054
-632,795	-57,463	-0,037	-0,012
-631,780	-181,125	-0,185	0,003
-630,765	800,000	-0,009	-0,028
-629,751	218,531	0,068	0,080
-628,736	-32,168	-0,087	-0,036
-627,722	-40,932	0,050	0,019
-626,707	-38,374	0,049	0,019
-625,692	8,465	-0,025	0,014
-624,678	-26,335	0,061	-0,026
-623,663	191,895	0,108	0,120
-622,649	-171,590	-0,061	0,001
-621,634	-140,420	-0,154	-0,012
-620,619	576,468	0,020	-0,036
-619,605	10,166	0,142	-0,080
-618,590	-74,843	-0,058	0,015
-617,576	-200,000	-0,005	0,146
-616,561	152,358	-0,047	-0,047
-615,546	-200,000	0,015	-0,152
-614,532	-6,048	-0,113	-0,057
-613,517	-200,000	0,028	-0,278
-612,503	-118,339	0,075	-0,010
-611,488	86,430	-0,075	0,061
-610,474	295,792	0,046	-0,063
-609,459	18,224	-0,097	0,057
-608,444	154,271	-0,046	-0,046
-607,430	-120,527	0,033	-0,004
-606,415	-200,000	0,008	-0,058
-605,401	-200,000	0,004	0,027
-604,386	-45,206	-0,124	-0,045
-603,371	-115,644	-0,030	0,004
-602,357	800,000	-0,016	-0,040
-601,342	800,000	-0,022	0,062
-600,328	278,027	-0,083	-0,110
-599,313	-200,000	-0,006	-0,066
-598,298	800,000	-0,045	-0,116
-597,284	800,000	-0,048	0,110
-596,269	800,000	0,052	0,109
-595,255	-128,735	0,082	-0,008
-594,240	84,011	0,111	-0,090
-593,225	172,574	0,034	0,036
-592,211	-200,000	0,007	0,082
-591,196	19,386	0,101	-0,060
-590,182	326,658	0,081	-0,115
-589,167	-139,883	0,084	0,006
-588,152	129,840	-0,069	-0,065
-587,138	-34,651	-0,017	0,007
-586,123	-160,733	-0,111	-0,004
-585,109	27,802	-0,092	0,057
-584,094	190,528	0,046	0,051
-583,079	-200,000	-0,011	0,098
-582,065	-97,279	0,134	-0,026
-581,050	-36,514	-0,096	0,038
-580,036	-8,374	0,039	-0,019
-579,021	-200,000	0,013	0,079
-578,006	136,968	0,053	-0,051
-576,992	-150,737	0,060	0,003
-575,977	-84,137	0,089	-0,021
-574,963	800,000	-0,048	-0,106
-573,948	800,000	0,030	0,063
-572,934	-200,000	-0,027	0,087
-571,919	-77,365	-0,053	0,014
-570,904	-48,266	-0,043	-0,015
-569,890	-17,597	0,168	-0,078
-568,875	199,610	-0,088	-0,099
-567,861	17,449	-0,084	0,049
-566,846	35,899	-0,065	-0,042
-565,831	-200,000	0,018	-0,065
-564,817	5,583	-0,023	-0,012
-563,802	-200,000	0,013	0,059
-562,788	-81,083	0,055	0,013
-561,773	-1,302	0,057	0,030
-560,758	29,964	0,052	0,032
-559,744	800,000	-0,040	0,117
-558,729	-19,086	0,119	0,054
-557,715	95,076	-0,078	0,066
-556,700	-200,000	-0,011	-0,108
-555,685	105,907	0,085	-0,074
-554,671	4,133	-0,044	-0,024
-553,656	475,471	-0,100	0,167
-552,642	800,000	-0,083	0,180
-551,627	15,290	0,093	0,054
-550,612	-200,000	-0,011	-0,055
-549,598	311,568	-0,056	-0,077
-548,583	-200,000	-0,011	0,062
-547,569	11,153	-0,013	0,008
-546,554	-200,000	-0,011	0,086
-545,539	-200,000	0,051	0,184
-544,525	-0,138	0,033	-0,017
-543,510	-200,000	-0,005	0,069
-542,496	-80,161	-0,012	-0,003
-541,481	149,524	-0,061	0,061
-540,466	402,891	0,062	-0,097
-539,452	-182,017	0,068	-0,001
-538,437	78,052	0,108	-0,085
-537,423	116,347	-0,031	-0,028
-536,408	-200,000	0,030	-0,118
-535,393	-10,170	0,067	-0,033
-534,379	62,316	-0,024	-0,017
-533,364	800,000	0,045	-0,110
-532,350	130,621	0,059	-0,056
-531,335	-200,000	-0,021	0,205
-530,321	34,198	0,095	0,061
-529,306	-200,000	-0,001	-0,066
-528,291	84,698	-0,121	-0,098
-527,277	23,337	-0,108	0,065
-526,262	-24,232	0,021	0,009
-525,248	329,180	0,075	-0,107
-524,233	189,001	-0,060	-0,066
-523,218	-200,000	0,007	0,041
-522,204	307,869	-0,077	0,105
-521,189	-200,000	0,012	0,105
-520,175	711,450	0,022	-0,042
-519,160	-200,000	-0,002	0,087
-518,145	-60,321	-0,131	0,041
-517,131	-7,787	0,110	0,054
-516,116	507,957	0,024	0,041
-515,102	-30,263	0,093	-0,038
-514,087	27,321	-0,018	-0,011
-513,072	209,487	-0,115	-0,132
-512,058	515,875	0,044	0,075
-511,043	-200,000	0,021	0,160
-510,029	486,668	0,034	0,057
-509,014	-200,000	0,014	-0,084
-507,999	107,499	-0,069	0,061
-506,985	69,990	-0,137	0,104
-505,970	357,944	-0,067	-0,099
-504,956	800,000	-0,014	0,031
-503,941	-200,000	0,002	0,069
-502,926	185,324	0,055	-0,060
-501,912	-200,000	0,029	0,137
-500,897	800,000	-0,062	0,138
-499,883	125,442	0,090	-0,084
-498,868	25,869	0,088	-0,054
-497,853	-46,948	-0,053	-0,019
-496,839	133,368	0,026	-0,024
-495,824	-131,256	0,092	0,009
-494,810	-200,000	-0,005	-0,082
-493,795	-134,157	0,097	-0,009
-492,781	252,796	0,049	0,062
-491,766	9,742	0,030	-0,017
-490,751	-48,354	0,062	0,022
-489,737	29,797	0,118	-0,074
-488,722	-130,384	0,204	0,020
-487,708	-107,652	0,151	0,024
-486,693	-28,959	-0,102	0,043
-485,678	110,400	-0,011	0,010
-484,664	-98,593	0,082	0,015
-483,649	-81,531	-0,087	-0,021
-482,635	-200,000	-0,030	-0,163
-481,620	26,102	-0,125	-0,076
-480,605	-200,000	-0,011	-0,085
-479,591	800,000	0,028	-0,083
-478,576	82,282	-0,046	0,037
-477,562	-200,000	-0,022	-0,090
-476,547	419,107	-0,078	0,122
-475,532	-106,027	0,108	-0,018
-474,518	110,337	-0,120	0,106
-473,503	500,910	0,066	0,113
-472,489	-200,000	-0,011	0,095
-471,474	-200,000	0,003	-0,112
-470,459	-200,000	-0,051	-0,165
-469,445	111,235	0,061	-0,054
-468,430	800,000	-0,035	-0,089
-467,416	-200,000	0,016	0,061
-466,401	94,485	0,093	-0,078
-465,386	800,000	-0,087	0,183
-464,372	-74,973	-0,089	0,023
-463,357	296,276	-0,024	0,032
-462,343	89,863	0,122	-0,100
-461,328	800,000	0,010	-0,026
-460,313	-90,022	-0,067	0,014
-459,299	41,908	0,086	0,057
-458,284	-200,000	0,030	0,120
-457,270	-173,488	-0,072	-0,002
-456,255	800,000	0,032	-0,101
-455,241	800,000	0,018	-0,053
-454,226	88,436	-0,038	0,031
-453,211	-200,000	0,059	0,000
-452,197	800,000	-0,024	0,049
-451,182	436,213	0,038	0,061
-450,168	75,028	-0,099	-0,077
-449,153	-126,162	0,003	0,000
-448,138	125,024	-0,126	-0,117
-447,124	-61,213	-0,099	0,031
-446,109	231,794	0,030	-0,036
-445,095	27,943	-0,079	0,049
-444,080	-200,000	-0,001	0,086
-443,065	195,223	0,047	-0,053
-442,051	-200,000	0,013	-0,079
-441,036	347,997	0,011	0,016
-440,022	198,375	0,055	0,062
-439,007	-145,404	0,039	0,003
-437,992	52,600	-0,050	0,035
-436,978	-200,000	0,008	-0,043
-435,963	698,389	0,056	0,109
-434,949	160,468	-0,084	-0,086
-433,934	-200,000	0,005	0,074
-432,919	632,385	-0,136	-0,255
-431,905	64,156	-0,103	-0,076
-430,890	-122,901	0,095	0,011
-429,876	-200,000	-0,002	0,019
-428,861	729,834	0,098	0,193
-427,846	800,000	-0,036	0,117
-426,832	165,347	-0,223	0,231
-425,817	36,716	0,113	-0,073
-424,803	800,000	0,051	-0,159
-423,788	23,540	-0,061	0,037
-422,773	284,351	0,053	0,070
-421,759	-200,000	0,005	0,026
-420,744	-90,582	-0,082	0,017
-419,730	-20,170	-0,102	0,046
-418,715	336,058	-0,040	-0,057
-417,701	23,320	-0,112	-0,067
-416,686	-135,474	-0,028	-0,002
-415,671	-29,326	0,059	-0,025
-414,657	381,852	0,029	0,043
-413,642	-72,062	-0,123	-0,033
-412,628	-86,585	0,058	-0,013
-411,613	690,811	0,065	-0,125
-410,598	800,000	-0,012	-0,027
-409,584	242,993	-0,093	0,114
-408,569	-200,000	-0,014	-0,075
-407,555	-98,646	-0,070	0,013
-406,540	577,523	-0,062	-0,112
-405,525	-200,000	0,008	-0,026
-404,511	-200,000	0,016	0,052
-403,496	509,260	0,055	-0,094
-402,482	228,390	0,079	-0,094
-401,467	315,843	0,098	-0,136
-400,452	91,675	0,136	-0,112
-399,438	322,354	-0,049	0,069
-398,423	800,000	-0,014	0,030
-397,409	153,933	-0,093	-0,093
-396,394	-200,000	-0,014	0,112
-395,379	39,737	0,100	0,066
-394,365	800,000	-0,053	0,115
-393,350	-35,515	0,048	-0,019
-392,336	159,469	-0,071	0,072
-391,321	800,000	-0,038	0,088
-390,306	-60,394	0,121	-0,038
-389,292	-4,542	-0,145	0,073
-388,277	644,073	0,033	-0,063
-387,263	-200,000	-0,002	0,084
-386,248	49,145	0,077	0,053
-385,233	800,000	-0,031	0,073
-384,219	-171,598	-0,075	-0,002
-383,204	149,485	0,048	0,048
-382,190	458,222	-0,091	-0,148
-381,175	-200,000	-0,027	0,113
-380,160	570,886	0,050	0,089
-379,146	197,500	0,033	0,037
-378,131	-30,433	-0,095	0,039
-377,117	-200,000	0,005	-0,028
-376,102	800,000	-0,021	-0,048
-375,088	-123,588	-0,166	0,019
-374,073	36,517	0,027	-0,018
-373,058	80,533	0,157	0,124
-372,044	-97,756	-0,194	-0,036
-371,029	128,987	0,090	0,084
-370,015	423,169	0,089	0,140
-369,000	-56,595	-0,014	-0,004
-367,985	98,167	0,026	-0,022
-366,971	-17,938	0,044	-0,020
-365,956	-19,997	-0,026	0,012
-364,942	-122,756	0,159	-0,019
-363,927	800,000	-0,032	0,085
-362,912	-87,388	-0,014	0,003
-361,898	-6,364	-0,030	0,015
-360,883	103,265	0,008	-0,007
-359,869	49,287	-0,070	0,048
-358,854	213,914	-0,053	-0,061
-357,839	-200,000	-0,005	0,118
-356,825	202,269	0,043	0,048
-355,810	280,320	-0,033	0,043
-354,796	-200,000	-0,010	0,112
-353,781	-200,000	0,024	-0,121
-352,766	29,891	-0,141	-0,087
-351,752	-176,997	0,130	0,002
-350,737	136,769	-0,015	-0,014
-349,723	-200,000	0,009	-0,128
-348,708	199,353	-0,007	-0,008
-347,693	-72,776	-0,111	-0,030
-346,679	800,000	0,073	-0,181
-345,664	52,405	-0,111	-0,078
-344,650	-0,316	0,076	0,039
-343,635	800,000	-0,061	0,131
-342,620	800,000	0,020	0,060
-341,606	497,044	-0,047	0,079
-340,591	800,000	0,026	0,056
-339,577	-200,000	-0,034	-0,131
-338,562	196,033	0,081	-0,090
-337,548	-37,632	0,094	-0,036
-336,533	-159,335	0,090	-0,004
-335,518	-21,378	-0,059	0,026
-334,504	-22,449	-0,076	-0,033
-333,489	127,906	-0,027	-0,025
-332,475	74,452	-0,084	-0,065
-331,460	63,106	-0,116	-0,084
-330,445	-72,943	-0,061	0,016
-329,431	800,000	-0,019	-0,055
-328,416	-34,884	-0,058	0,023
-327,402	271,721	-0,028	0,036
-326,387	-123,654	0,102	-0,012
-325,372	771,456	-0,021	0,041
-324,358	37,837	-0,050	0,033
-323,343	577,673	0,071	0,126
-322,329	800,000	0,043	0,110
-321,314	238,188	-0,117	0,142
-320,299	306,892	0,054	0,074
-319,285	150,846	0,071	-0,070
-318,270	800,000	-0,047	-0,145
-317,256	39,365	-0,122	-0,080
-316,241	-200,000	-0,011	0,067
-315,226	800,000	0,025	0,075
-314,212	209,784	0,100	0,115
-313,197	-200,000	0,011	0,043
-312,183	800,000	0,024	0,071
-311,168	-147,168	-0,069	-0,004
-310,153	119,445	-0,067	0,061
-309,139	-200,000	0,005	0,018
-308,124	-34,726	0,043	-0,017
-307,110	62,372	0,174	0,126
-306,095	-172,277	0,021	0,000
-305,080	-56,969	-0,014	0,004
-304,066	61,995	-0,124	-0,090
-303,051	5,940	-0,093	0,050
-302,037	-86,607	-0,176	-0,039
-301,022	714,620	-0,059	0,114
-300,008	265,866	-0,099	0,126
-298,993	245,205	0,166	0,204
-297,978	-200,000	-0,035	0,139
-296,964	-83,230	-0,111	-0,026
-295,949	284,631	0,058	-0,076
-294,935	-32,846	-0,133	0,054
-293,920	-8,832	0,030	-0,015
-292,905	-88,290	0,185	0,040
-291,891	-200,000	0,021	0,105
-290,876	-200,000	-0,045	0,148
-289,862	-29,798	-0,059	-0,025
-288,847	-200,000	-0,001	-0,042
-287,832	92,944	0,068	-0,056
-286,818	-200,000	-0,011	-0,057
-285,803	289,218	-0,056	-0,074
-284,789	21,794	0,085	0,050
-283,774	143,988	0,070	0,068
-282,759	-162,457	0,173	0,006
-281,745	-111,664	0,116	0,017
-280,730	-200,000	-0,010	-0,041
-279,716	-200,000	-0,021	0,069
-278,701	18,966	-0,010	-0,006
-277,686	49,449	0,112	0,077
-276,672	-17,149	-0,141	-0,064
-275,657	151,993	-0,061	0,061
-274,643	609,522	-0,057	-0,103
-273,628	-36,226	0,132	0,052
-272,613	-109,826	-0,099	-0,015
-271,599	154,017	-0,077	0,077
-270,584	-200,000	-0,001	0,037
-269,570	800,000	-0,039	0,087
-268,555	-50,848	0,024	0,008
-267,540	-200,000	-0,013	-0,147
-266,526	186,119	-0,047	0,051
-265,511	800,000	0,050	-0,123
-264,497	-184,696	0,167	0,002
-263,482	-200,000	0,016	-0,052
-262,467	-141,362	-0,087	-0,006
-261,453	218,636	-0,048	0,056
-260,438	-200,000	0,014	0,064
-259,424	130,546	-0,096	-0,090
-258,409	130,851	-0,028	0,027
-257,395	-200,000	-0,015	-0,069
-256,380	-126,054	0,094	0,010
-255,365	-21,006	0,125	-0,056
-254,351	800,000	0,029	0,063
-253,336	-200,000	-0,010	0,051
-252,322	-165,417	-0,102	0,003
-251,307	97,153	0,070	-0,058
-250,292	268,648	0,060	-0,076
-249,278	800,000	0,049	0,126
-248,263	-108,278	-0,081	-0,013
-247,249	-18,195	0,058	-0,027
-246,234	800,000	-0,008	0,020
-245,219	-54,275	-0,148	0,049
-244,205	800,000	0,044	-0,122
-243,190	-25,500	-0,109	-0,046
-242,176	800,000	-0,017	-0,049
-241,161	-200,000	0,021	-0,089
-240,146	-200,000	-0,005	0,057
-239,132	-13,109	-0,078	-0,037
-238,117	-200,000	-0,002	0,011
-237,103	-26,535	-0,050	0,021
-236,088	464,776	-0,103	-0,168
-235,073	273,736	0,066	-0,085
-234,059	-60,820	0,118	-0,036
-233,044	-86,515	0,042	0,009
-232,030	800,000	0,026	-0,071
-231,015	147,353	-0,113	0,111
-230,000	155,125	-0,047	-0,047
-228,986	83,338	0,086	-0,068
-227,971	-167,285	0,235	0,007
-226,957	104,628	-0,025	-0,021
-225,942	410,997	0,040	0,061
-224,927	328,377	-0,050	0,071
-223,913	-131,968	0,060	-0,006
-222,898	66,359	0,107	-0,079
-221,884	-200,000	0,008	-0,141
-220,869	352,816	0,061	-0,088
-219,855	800,000	0,040	-0,118
-218,840	800,000	0,048	0,118
-217,825	-200,000	0,006	0,107
-216,811	-200,000	0,017	-0,104
-215,796	71,315	-0,147	-0,110
-214,782	-111,972	-0,041	-0,006
-213,767	100,683	0,086	0,073
-212,752	-97,194	0,077	0,015
-211,738	-31,576	0,044	0,018
-210,723	-200,000	-0,020	-0,103
-209,709	-200,000	-0,015	-0,133
-208,694	-200,000	-0,005	-0,041
-207,679	800,000	-0,043	-0,111
-206,665	-200,000	-0,011	0,123
-205,650	168,674	0,087	0,091
-204,636	81,110	-0,061	-0,048
-203,621	123,843	-0,089	-0,081
-202,606	85,070	-0,166	-0,132
-201,592	224,955	-0,135	-0,159
-200,577	615,440	-0,057	0,105
-199,563	118,896	0,135	-0,121
-198,548	81,726	-0,005	0,004
-197,533	-200,000	-0,004	-0,087
-196,519	23,017	-0,069	-0,041
-195,504	-35,914	-0,104	-0,041
-194,490	44,836	-0,123	-0,082
-193,475	162,965	0,079	-0,081
-192,460	179,544	-0,047	0,050
-191,446	278,555	0,086	-0,112
-190,431	-80,962	0,102	-0,024
-189,417	-200,000	-0,010	0,071
-188,402	-200,000	0,018	-0,112
-187,387	326,615	0,010	-0,015
-186,373	-200,000	-0,007	-0,039
-185,358	273,786	-0,053	0,069
-184,344	57,100	0,085	-0,060
-183,329	-200,000	-0,035	0,138
-182,315	-148,298	-0,052	0,003
-181,300	230,243	0,068	-0,080
-180,285	-81,247	0,113	0,027
-179,271	800,000	-0,045	0,118
-178,256	-129,108	0,120	0,012
-177,242	318,514	0,033	-0,046
-176,227	-200,000	0,004	0,070
-175,212	-200,000	0,017	0,057
-174,198	70,788	-0,039	0,029
-173,183	-50,483	0,034	0,012
-172,169	644,250	0,035	-0,064
-171,154	79,940	0,090	0,070
-170,139	-1,774	0,129	0,066
-169,125	-200,000	0,011	0,085
-168,110	67,987	0,066	0,049
-167,096	-182,657	0,064	0,001
-166,081	162,005	0,014	-0,014
-165,066	575,631	-0,007	0,013
-164,052	408,191	-0,033	0,050
-163,037	-76,545	0,108	0,027
-162,023	-74,088	0,084	0,022
-161,008	-138,033	0,077	0,006
-159,993	-200,000	-0,021	-0,069
-158,979	-87,659	-0,201	-0,044
-157,964	-200,000	-0,023	-0,104
-156,950	-200,000	0,008	-0,029
-155,935	-48,999	0,076	0,026
-154,920	-200,000	0,003	-0,084
-153,906	-121,417	-0,077	-0,009
-152,891	-200,000	-0,016	0,159
-151,877	-131,531	0,120	0,011
-150,862	800,000	-0,022	-0,065
-149,847	333,540	-0,037	-0,053
-148,833	244,012	-0,031	0,038
-147,818	389,940	0,078	0,118
-146,804	-2,748	0,110	-0,056
-145,789	800,000	-0,024	0,073
-144,775	-70,020	-0,067	-0,018
-143,760	284,969	0,053	-0,069
-142,745	158,068	-0,124	-0,125
-141,731	30,779	-0,020	-0,013
-140,716	-26,316	0,261	0,111
-139,702	800,000	-0,033	0,091
-138,687	413,476	-0,034	0,053
-137,672	-39,280	-0,007	0,003
-136,658	112,238	0,057	-0,050
-135,643	800,000	0,054	-0,160
-134,629	32,725	-0,035	-0,022
-133,614	800,000	-0,052	-0,142
-132,599	-105,811	0,114	-0,019
-131,585	800,000	-0,037	0,096
-130,570	-118,577	-0,196	-0,025
-129,556	-45,538	-0,069	0,024
-128,541	152,966	-0,028	0,028
-127,526	-200,000	0,025	-0,131
-126,512	-200,000	-0,000	-0,010
-125,497	800,000	0,029	-0,082
-124,483	106,178	-0,072	0,061
-123,468	-200,000	-0,008	0,037
-122,453	-200,000	0,005	0,175
-121,439	265,787	0,057	0,073
-120,424	-166,098	0,162	-0,005
-119,410	-8,738	0,052	-0,025
-118,395	242,046	0,045	0,054
-117,380	800,000	-0,029	0,078
-116,366	101,646	-0,090	0,076
-115,351	237,085	-0,146	0,175
-114,337	-200,000	-0,003	0,041
-113,322	648,068	-0,014	0,026
-112,307	655,449	-0,059	-0,110
-111,293	310,179	0,093	0,126
-110,278	16,889	-0,033	0,019
-109,264	-58,200	-0,105	-0,033
-108,249	227,665	0,023	0,027
-107,234	177,810	0,041	-0,043
-106,220	744,562	-0,039	-0,076
-105,205	-200,000	-0,009	0,085
-104,191	-112,171	0,068	0,010
-103,176	800,000	-0,062	0,154
-102,162	276,788	-0,073	0,094
-101,147	-97,963	-0,152	-0,028
-100,132	240,898	0,043	-0,052
-99,118	-200,000	-0,011	-0,106
-98,103	113,164	0,101	-0,089
-97,089	-182,202	0,135	-0,002
-96,074	-200,000	-0,009	-0,064
-95,059	130,490	-0,070	0,065
-94,045	80,130	0,043	-0,033
-93,030	-200,000	-0,030	-0,139
-92,016	420,281	-0,041	0,063
-91,001	113,251	0,076	-0,067
-89,986	-2,027	0,087	-0,044
-88,972	210,702	0,025	-0,029
-87,957	-200,000	0,012	0,057
-86,943	82,767	0,082	0,065
-85,928	563,526	-0,084	-0,148
-84,913	117,258	-0,073	0,065
-83,899	139,455	-0,114	0,108
-82,884	-200,000	-0,007	0,187
-81,870	68,537	0,017	-0,012
-80,855	-23,102	0,115	-0,050
-79,840	46,329	0,097	0,065
-78,826	800,000	-0,035	-0,111
-77,811	-7,095	0,094	-0,046
-76,797	800,000	0,021	0,066
-75,782	-200,000	-0,010	-0,109
-74,767	-136,962	0,116	0,009
-73,753	-2,116	-0,003	0,001
-72,738	-55,221	-0,053	0,017
-71,724	-122,722	-0,101	0,012
-70,709	-125,720	-0,066	0,007
-69,694	-200,000	-0,010	0,045
-68,680	193,087	0,069	0,076
-67,665	131,996	0,057	0,053
-66,651	518,179	-0,024	0,041
-65,636	55,434	0,084	-0,059
-64,622	-104,858	-0,090	-0,015
-63,607	800,000	-0,010	-0,027
-62,592	-14,366	-0,213	-0,099
-61,578	-200,000	-0,011	-0,127
-60,563	800,000	0,028	-0,071
-59,549	-200,000	0,008	-0,121
-58,534	-33,661	-1,586	-0,629
-57,519	800,000	-0,467	-1,203
-56,505	-200,000	-1,048	-4,558
-55,490	-135,195	0,624	-0,053
-54,476	800,000	5,033	12,167
-53,461	-200,000	15,105	262,072
-52,446	800,000	699,977	2203,513
-51,432	549,568	1621,838	2819,237
-50,417	119,366	1628,418	1455,663
-49,403	78,756	1283,856	990,960
-48,388	37,238	1024,009	653,763
-47,373	22,335	984,339	579,451
-46,359	21,358	973,593	569,898
-45,344	19,985	969,482	562,982
-44,330	20,079	967,969	562,387
-43,315	19,815	966,630	560,726
-42,300	19,799	965,407	559,944
-41,286	19,855	964,483	559,568
-40,271	19,826	963,538	558,904
-39,257	19,856	962,549	558,403
-38,242	19,823	961,808	557,845
-37,227	19,795	960,972	557,249
-36,213	19,851	959,945	556,812
-35,198	19,756	959,143	556,018
-34,184	19,834	958,404	555,818
-33,169	19,755	957,539	555,039
-32,154	19,839	956,566	554,724
-31,140	19,889	955,668	554,341
-30,125	19,869	954,887	553,803
-29,111	19,836	954,233	553,295
-28,096	19,874	953,479	552,959
-27,082	19,791	952,896	552,333
-26,067	19,799	951,928	551,776
-25,052	19,781	951,244	551,299
-24,038	19,810	950,745	551,081
-23,023	19,881	949,755	550,712
-22,009	19,856	949,106	550,235
-20,994	19,817	948,767	549,892
-19,979	19,827	948,056	549,489
-18,965	19,834	947,447	549,136
-17,950	19,812	946,831	548,687
-16,936	19,750	946,340	548,184
-15,921	19,736	945,626	547,705
-14,906	19,672	944,715	546,952
-13,892	19,657	944,260	546,616
-12,877	19,640	943,493	546,098
-11,863	19,625	942,940	545,709
-10,848	19,695	942,542	545,679
-9,833	19,760	942,099	545,606
-8,819	19,752	941,232	545,059
-7,804	19,622	940,911	544,439
-6,790	19,699	940,054	544,163
-5,775	19,712	939,552	543,893
-4,760	19,738	938,766	543,499
-3,746	19,740	938,168	543,138
-2,731	19,545	937,615	542,179
-1,717	19,512	936,895	541,636
-0,702	19,563	935,994	541,256
0,313	19,337	935,637	541,154
1,327	22,327	933,804	549,452
2,342	31,506	794,291	491,727
3,356	28,966	450,389	274,985
4,371	-0,080	295,381	151,264
5,386	-4,379	276,533	137,519
6,400	-5,403	270,694	133,651
7,415	-5,846	268,528	132,161
8,429	-5,619	267,077	131,643
9,444	-5,964	266,438	131,001
10,459	-6,092	265,734	130,525
11,473	-6,222	265,137	130,102
12,488	-6,283	264,537	129,741
13,502	-6,463	263,888	129,248
14,517	-6,611	263,683	129,002
15,531	-6,686	262,956	128,567
16,546	-6,623	262,589	128,433
17,561	-6,622	262,238	128,250
18,575	-6,769	261,917	127,950
19,590	-6,852	261,664	127,740
20,604	-6,582	261,364	127,825
21,619	-6,638	260,967	127,569
22,634	-6,648	260,525	127,332
23,648	-6,800	260,229	127,041
24,663	-6,729	260,172	127,065
25,677	-6,836	259,817	126,785
26,692	-6,909	259,602	126,604
27,707	-7,022	259,343	126,365
28,721	-6,718	259,038	126,476
29,736	-6,871	258,762	126,194
30,750	-6,979	258,454	125,937
31,765	-6,896	258,290	125,919
32,780	-6,835	258,075	125,857
33,794	-6,837	257,717	125,670
34,809	-6,855	257,543	125,557
35,823	-7,114	257,441	125,268
36,838	-6,966	257,038	125,191
37,853	-6,876	256,745	125,116
38,867	-6,930	256,528	124,951
39,882	-7,038	256,383	124,775
40,896	-7,104	256,235	124,634
41,911	-6,880	256,051	124,730
42,926	-6,897	255,616	124,493
43,940	-7,168	255,585	124,228
44,955	-6,940	255,158	124,209
45,969	-7,042	254,986	124,025
46,984	-7,279	254,777	123,705
47,999	-7,717	254,379	123,119
49,013	-7,646	254,142	123,055
50,028	-7,660	253,966	122,947
51,042	-7,757	253,685	122,716
52,057	-7,893	253,561	122,526
53,071	-7,922	253,275	122,352
54,086	-7,730	253,048	122,398
55,101	-7,678	253,057	122,437
56,115	-7,354	252,960	122,660
57,130	-6,848	252,779	122,999
58,144	-6,522	252,584	123,175
59,159	-6,729	252,427	122,909
60,174	-6,538	252,200	122,952
61,188	-6,538	252,021	122,854
62,203	-6,832	251,760	122,462
63,217	-6,733	251,626	122,472
64,232	-6,670	251,304	122,358
65,247	-6,862	251,332	122,195
66,261	-6,743	250,932	122,093
67,276	-6,898	250,443	121,711
68,290	-7,270	250,359	121,340
69,305	-7,272	250,126	121,215
70,320	-7,278	250,068	121,171
71,334	-7,039	249,792	121,230
72,349	-6,902	249,784	121,333
73,363	-6,493	249,526	121,546
74,378	-6,596	249,297	121,336
75,393	-6,664	249,106	121,174
76,407	-6,714	249,041	121,089
77,422	-6,775	248,652	120,837
78,436	-6,731	248,526	120,802
79,451	-6,770	248,394	120,694
80,466	-6,821	248,007	120,452
81,480	-7,033	247,830	120,176
82,495	-7,189	247,651	119,946
83,509	-7,100	247,316	119,849
84,524	-7,066	247,140	119,782
85,539	-7,304	246,928	119,467
86,553	-7,326	246,754	119,354
87,568	-7,049	246,597	119,501
88,582	-7,139	246,420	119,329
89,597	-6,969	246,267	119,387
90,611	-6,848	246,155	119,424
91,626	-6,772	246,071	119,436
92,641	-6,875	245,825	119,220
93,655	-6,721	245,587	119,223
94,670	-6,942	245,264	118,871
95,684	-6,825	245,073	118,865
96,699	-6,989	245,057	118,709
97,714	-6,917	244,792	118,630
98,728	-7,012	244,532	118,415
99,743	-7,144	244,373	118,217
100,757	-7,373	244,115	117,891
101,772	-7,296	243,977	117,878
102,787	-6,922	243,784	118,086
103,801	-7,032	243,693	117,939
104,816	-6,938	243,409	117,870
105,830	-6,882	243,420	117,911
106,845	-6,796	243,249	117,888
107,860	-6,743	243,064	117,833
108,874	-6,758	242,785	117,674
109,889	-6,949	242,672	117,451
110,903	-6,820	242,434	117,432
111,918	-6,921	242,367	117,305
112,933	-7,076	242,225	117,098
113,947	-6,818	242,032	117,207
114,962	-6,810	241,814	117,098
115,976	-6,790	241,514	116,958
116,991	-6,851	241,488	116,886
118,006	-6,900	241,261	116,725
119,020	-6,855	241,147	116,696
120,035	-6,703	240,969	116,725
121,049	-6,671	240,882	116,699
122,064	-6,711	240,688	116,561
123,079	-6,858	240,422	116,302
124,093	-6,806	240,121	116,188
125,108	-7,218	240,040	115,802
126,122	-7,377	239,668	115,482
127,137	-7,288	239,331	115,382
128,151	-7,426	239,428	115,305
129,166	-7,122	239,210	115,439
130,181	-7,196	239,102	115,316
131,195	-7,264	238,817	115,113
132,210	-7,143	238,858	115,220
133,224	-6,970	238,629	115,240
134,239	-6,750	238,541	115,366
135,254	-6,858	238,459	115,229
136,268	-6,777	238,020	115,071
137,283	-7,197	237,829	114,629
138,297	-7,380	237,567	114,345
139,312	-7,269	237,385	114,337
140,327	-6,891	237,429	114,653
141,341	-6,438	237,223	114,908
142,356	-6,457	237,153	114,849
143,370	-6,322	237,044	114,894
144,385	-6,268	236,875	114,846
145,400	-6,651	236,723	114,454
146,414	-6,603	236,457	114,354
147,429	-6,442	236,199	114,348
148,443	-6,597	236,227	114,227
149,458	-6,420	236,025	114,261
150,473	-6,377	235,667	114,112
151,487	-6,481	235,635	114,003
152,502	-6,651	235,531	113,806
153,516	-6,463	235,286	113,828
154,531	-6,620	235,152	113,628
155,546	-6,498	234,943	113,614
156,560	-6,717	234,820	113,370
157,575	-6,915	234,587	113,089
158,589	-6,571	234,339	113,233
159,604	-6,432	234,367	113,348
160,619	-6,396	234,263	113,316
161,633	-6,327	234,056	113,260
162,648	-6,193	233,783	113,225
163,662	-6,293	233,638	113,065
164,677	-6,368	233,465	112,911
165,692	-6,255	233,283	112,903
166,706	-6,333	233,324	112,851
167,721	-6,228	233,061	112,797
168,735	-6,200	233,010	112,784
169,750	-6,215	232,758	112,641
170,764	-6,306	232,742	112,551
171,779	-6,307	232,518	112,431
172,794	-6,169	232,353	112,451
173,808	-6,601	232,021	111,940
174,823	-6,897	231,699	111,542
175,837	-7,083	231,543	111,311
176,852	-6,724	231,790	111,702
177,867	-6,402	231,557	111,832
178,881	-6,325	231,389	111,802
179,896	-6,196	231,237	111,819
180,910	-6,325	231,127	111,655
181,925	-6,328	231,050	111,605
182,940	-6,230	230,765	111,534
183,954	-6,158	230,557	111,481
184,969	-6,092	230,466	111,478
185,983	-6,196	230,394	111,352
186,998	-6,225	230,236	111,243
188,013	-6,291	230,097	111,115
189,027	-6,079	229,918	111,183
190,042	-6,308	229,766	110,922
191,056	-6,291	229,678	110,883
192,071	-6,235	229,517	110,839
193,086	-6,162	229,423	110,839
194,100	-6,075	229,212	110,796
195,115	-5,894	229,057	110,851
196,129	-5,975	229,034	110,768
197,144	-2,545	230,066	113,923
198,159	1,614	230,933	117,579
199,173	3,513	231,521	119,347
200,188	3,657	231,448	119,411
201,202	3,675	231,241	119,308
202,217	4,010	231,327	119,602
203,232	3,981	231,187	119,496
204,246	4,165	230,969	119,516
205,261	4,119	230,926	119,447
206,275	4,299	230,767	119,494
207,290	4,587	230,597	119,617
208,304	4,430	230,484	119,428
209,319	4,413	230,298	119,307
210,334	4,309	230,101	119,114
211,348	4,147	229,735	118,789
212,363	3,822	229,513	118,413
213,377	3,677	229,411	118,238
214,392	3,638	229,206	118,092
215,407	3,484	229,301	118,012
216,421	3,907	229,038	118,192
217,436	3,445	228,767	117,687
218,450	3,456	228,587	117,592
219,465	3,374	228,386	117,415
220,480	3,359	228,399	117,400
221,494	3,283	228,208	117,232
222,509	3,562	228,052	117,355
223,523	3,498	227,924	117,230
224,538	3,623	227,682	117,191
225,553	3,694	227,557	117,171
226,567	3,616	227,570	117,107
227,582	4,047	227,366	117,320
228,596	3,985	227,348	117,254
229,611	3,450	227,107	116,711
230,626	3,552	226,862	116,652
231,640	3,359	226,698	116,411
232,655	3,603	226,711	116,593
233,669	4,128	226,526	116,886
234,684	4,235	226,484	116,935
235,699	3,998	226,314	116,657
236,713	3,821	225,962	116,331
237,728	3,443	225,926	116,016
238,742	3,262	225,653	115,728
239,757	3,668	225,638	116,017
240,772	3,328	225,455	115,656
241,786	3,534	225,265	115,704
242,801	3,825	225,112	115,834
243,815	4,049	225,097	115,985
244,830	4,024	224,782	115,793
245,844	3,801	224,687	115,567
246,859	3,572	224,480	115,278
247,874	3,849	224,426	115,448
248,888	3,888	224,244	115,373
249,903	3,679	224,200	115,183
250,917	3,505	224,135	115,009
251,932	3,687	223,732	114,929
252,947	3,721	223,530	114,840
253,961	3,612	223,579	114,774
254,976	3,556	223,332	114,595
255,990	3,878	223,211	114,763
257,005	3,725	223,158	114,611
258,020	3,852	223,027	114,629
259,034	3,842	222,955	114,573
260,049	3,752	222,810	114,421
261,063	3,789	222,577	114,319
262,078	4,087	222,376	114,427
263,093	3,869	222,307	114,220
264,107	3,800	222,209	114,108
265,122	3,789	222,072	114,019
266,136	4,026	221,951	114,123
267,151	4,058	221,656	113,985
268,166	3,706	221,438	113,602
269,180	3,242	221,296	113,176
270,195	3,452	221,214	113,279
271,209	3,353	220,982	113,077
272,224	3,777	220,847	113,310
273,239	3,680	220,867	113,239
274,253	3,488	220,710	113,007
275,268	3,322	220,508	112,771
276,282	3,550	220,145	112,744
277,297	3,336	220,122	112,564
278,312	3,296	219,984	112,454
279,326	3,594	219,951	112,646
280,341	3,746	219,642	112,589
281,355	3,795	219,721	112,656
282,370	3,641	219,523	112,432
283,384	3,278	219,256	112,019
284,399	3,356	219,114	111,993
285,414	3,212	219,025	111,833
286,428	3,627	218,867	112,045
287,443	3,589	218,990	112,070
288,457	3,757	218,661	112,015
289,472	3,549	218,546	111,793
290,487	3,239	218,176	111,369
291,501	3,047	218,167	111,215
292,516	3,336	217,965	111,312
293,530	3,285	217,978	111,272
294,545	3,498	217,713	111,281
295,560	3,305	217,670	111,110
296,574	3,390	217,500	111,074
297,589	3,439	217,421	111,059
298,603	3,666	217,311	111,158
299,618	3,712	217,118	111,082
300,633	3,825	216,922	111,054
301,647	4,124	216,993	111,296
302,662	4,001	216,669	111,031
303,676	3,586	216,727	110,752
304,691	4,069	216,486	110,966
305,706	3,923	216,417	110,817
306,720	3,645	216,329	110,561
307,735	3,484	215,916	110,224
308,749	3,678	215,782	110,286
309,764	3,803	215,835	110,393
310,779	4,338	215,740	110,719
311,793	3,727	215,594	110,195
312,808	3,933	215,402	110,235
313,822	3,500	215,250	109,837
314,837	3,719	214,983	109,848
315,852	3,434	214,894	109,589
316,866	3,675	214,728	109,667
317,881	3,854	214,643	109,741
318,895	3,849	214,624	109,718
319,910	3,442	214,313	109,259
320,925	3,257	214,149	109,034
321,939	3,352	213,945	108,988
322,954	3,123	213,853	108,769
323,968	3,623	213,918	109,148
324,983	3,772	213,676	109,120
325,997	3,944	213,696	109,243
327,012	3,869	213,572	109,116
328,027	3,713	213,426	108,922
329,041	3,927	213,327	109,013
330,056	4,050	213,111	108,980
331,070	3,717	212,869	108,611
332,085	3,373	212,743	108,294
333,100	3,417	212,523	108,203
334,114	3,662	212,395	108,302
335,129	3,638	212,370	108,262
336,143	3,622	212,183	108,146
337,158	3,604	212,007	108,034
338,173	3,825	211,759	108,053
339,187	3,504	211,723	107,800
340,202	3,291	211,545	107,549
341,216	3,160	211,405	107,377
342,231	3,470	211,280	107,522
343,246	3,269	211,288	107,375
344,260	3,491	211,075	107,412
345,275	3,573	211,040	107,443
346,289	3,650	210,925	107,428
347,304	3,747	210,748	107,396
348,319	3,764	210,499	107,272
349,333	3,869	210,340	107,255
350,348	3,823	210,409	107,248
351,362	3,798	210,319	107,175
352,377	3,908	210,167	107,165
353,392	3,905	209,960	107,048
354,406	3,675	209,852	106,823
355,421	195,920	1341,819	1430,133
356,435	156,462	1479,797	1430,197
