DTS Sentinel unit serial number:	SN410029Multiplexer serial number:	ORYXHardware model number:	OX2-SRSoftware version number:	ORYX F/W v4,00 Oryx Data Collector v3.7.2.0data status	okinstallation	B6 Nyhavnadifferential loss correction	single-endedforward channel	channel 2reverse channel	N/Adate	2023/12/11time	06:45:08forward acquisition time	300,00reverse acquisition time	0,00gamma	499,1914k internal	0,3125k external	0,3125temperature offset calibration	1,0000default loss term (dB/km)	0,3820temperature slope calibration	1,0000multiplexer offset coefficient	1,0000multiplexer slope coefficient	1,0000fibre end	0,00T internal ref (°C)	19,39T ext. ref 1 (°C)	2,52T ext. ref 2 (°C)	2,57length (m)	temperature (°C)	Stokes	anti-Stokes-744,400	-84,711	0,085	-0,020
-743,385	-9,768	-0,156	0,077
-742,371	-160,315	0,090	-0,004
-741,356	190,006	-0,156	0,175
-740,342	-25,047	0,051	-0,023
-739,327	-95,700	-0,383	0,076
-738,312	710,186	-0,069	0,137
-737,298	-16,454	-0,318	0,149
-736,283	495,161	0,024	0,042
-735,269	-178,613	-0,203	-0,003
-734,254	-175,520	0,135	-0,003
-733,239	-29,369	-0,287	0,122
-732,225	-4,288	0,063	-0,032
-731,210	800,000	-0,007	0,022
-730,196	-143,926	-0,090	-0,006
-729,181	523,269	-0,034	-0,060
-728,167	800,000	0,025	-0,059
-727,152	-200,000	-0,015	0,069
-726,137	107,422	-0,080	0,071
-725,123	34,211	-0,138	-0,089
-724,108	-79,601	-0,079	0,020
-723,094	80,681	-0,107	-0,086
-722,079	63,416	-0,080	-0,060
-721,064	-6,164	0,182	0,092
-720,050	68,266	-0,120	0,092
-719,035	-200,000	0,003	-0,183
-718,021	-143,173	-0,078	0,006
-717,006	800,000	0,011	-0,028
-715,991	247,613	-0,065	-0,082
-714,977	485,917	-0,060	-0,101
-713,962	800,000	-0,053	-0,119
-712,948	800,000	-0,002	-0,004
-711,933	-13,937	-0,043	0,020
-710,918	-42,332	-0,053	0,020
-709,904	-200,000	-0,010	-0,079
-708,889	-58,224	0,073	0,024
-707,875	-85,815	-0,067	-0,015
-706,860	403,141	-0,055	-0,086
-705,845	49,237	-0,147	-0,103
-704,831	-107,143	-0,026	0,004
-703,816	-200,000	-0,008	0,072
-702,802	-200,000	0,001	-0,004
-701,787	376,409	0,022	-0,034
-700,772	-124,213	-0,066	0,008
-699,758	800,000	-0,036	-0,091
-698,743	-62,047	0,114	0,035
-697,729	800,000	0,036	0,083
-696,714	-177,843	0,066	0,001
-695,699	164,758	-0,079	-0,083
-694,685	71,007	-0,097	-0,075
-693,670	18,207	0,142	-0,084
-692,656	-200,000	-0,002	-0,171
-691,641	35,723	-0,044	0,029
-690,627	-58,733	-0,158	-0,050
-689,612	-200,000	0,014	-0,072
-688,597	-55,190	-0,157	-0,052
-687,583	-8,195	-0,075	0,037
-686,568	182,744	0,033	0,036
-685,554	-90,588	0,145	-0,031
-684,539	-200,000	0,029	-0,181
-683,524	-22,658	-0,058	-0,026
-682,510	-32,334	-0,022	0,009
-681,495	330,146	0,056	0,080
-680,481	-200,000	-0,009	0,057
-679,466	800,000	-0,039	-0,120
-678,451	-200,000	0,002	-0,028
-677,437	-26,692	-0,082	-0,035
-676,422	110,558	-0,020	0,017
-675,408	132,417	0,087	-0,084
-674,393	213,977	-0,033	0,038
-673,378	180,330	-0,105	-0,115
-672,364	727,869	-0,060	-0,119
-671,349	-200,000	-0,028	-0,107
-670,335	359,874	0,113	0,168
-669,320	-200,000	0,025	0,170
-668,305	-200,000	-0,040	0,154
-667,291	-200,000	0,012	-0,098
-666,276	-13,157	-0,034	-0,016
-665,262	184,745	-0,022	0,024
-664,247	-70,802	-0,100	-0,028
-663,232	294,582	0,006	-0,008
-662,218	-200,000	0,017	0,061
-661,203	72,415	0,158	0,122
-660,189	190,115	-0,037	0,041
-659,174	-200,000	-0,008	-0,047
-658,159	-0,651	-0,114	0,060
-657,145	-59,297	-0,137	-0,043
-656,130	-200,000	0,019	0,093
-655,116	162,279	0,043	0,045
-654,101	800,000	-0,018	0,045
-653,086	-200,000	0,019	0,140
-652,072	-115,567	-0,119	0,016
-651,057	175,047	-0,026	-0,028
-650,043	404,364	-0,029	-0,046
-649,028	328,584	0,056	-0,081
-648,014	582,656	0,063	0,116
-646,999	-200,000	-0,031	-0,158
-645,984	-29,493	0,023	-0,010
-644,970	238,616	-0,050	0,062
-643,955	-87,519	0,046	0,010
-642,941	-2,231	-0,174	-0,091
-641,926	4,558	-0,071	0,038
-640,911	546,762	-0,011	0,020
-639,897	70,202	-0,080	-0,061
-638,882	5,092	-0,090	-0,049
-637,868	800,000	-0,058	-0,126
-636,853	800,000	-0,078	-0,249
-635,838	172,557	-0,037	-0,039
-634,824	-96,646	-0,078	0,015
-633,809	27,099	-0,087	-0,054
-632,795	-200,000	0,002	0,086
-631,780	11,696	0,093	0,053
-630,765	72,819	0,007	-0,005
-629,751	-200,000	0,007	0,052
-628,736	753,427	0,043	-0,087
-627,722	151,460	0,055	-0,056
-626,707	12,067	-0,066	0,038
-625,692	800,000	-0,013	0,033
-624,678	674,105	-0,036	0,069
-623,663	320,464	0,028	-0,040
-622,649	-200,000	-0,004	-0,038
-621,634	-117,815	0,143	-0,019
-620,619	763,718	-0,052	0,104
-619,605	-65,685	0,110	0,033
-618,590	-36,919	0,064	0,025
-617,576	55,459	0,036	0,026
-616,561	-18,961	-0,209	-0,096
-615,546	-200,000	-0,049	-0,197
-614,532	442,334	-0,041	-0,067
-613,517	-151,171	-0,132	0,007
-612,503	588,105	-0,048	-0,088
-611,488	49,248	-0,019	0,013
-610,474	-200,000	-0,006	-0,024
-609,459	165,597	-0,072	0,076
-608,444	228,455	-0,030	-0,036
-607,430	57,085	-0,077	-0,056
-606,415	41,971	0,052	0,035
-605,401	62,392	-0,083	-0,062
-604,386	32,407	-0,018	0,011
-603,371	274,662	-0,042	-0,056
-602,357	56,119	-0,051	-0,036
-601,342	110,448	-0,038	-0,034
-600,328	-200,000	-0,039	-0,130
-599,313	28,735	0,091	0,057
-598,298	-200,000	-0,000	-0,002
-597,284	-200,000	-0,017	-0,145
-596,269	800,000	0,007	0,021
-595,255	355,225	0,069	0,102
-594,240	462,413	0,038	-0,063
-593,225	800,000	-0,053	-0,115
-592,211	-17,017	-0,097	-0,045
-591,196	-200,000	-0,002	-0,064
-590,182	128,393	0,055	-0,052
-589,167	112,869	0,081	0,073
-588,152	28,529	0,046	0,029
-587,138	-174,425	0,008	0,000
-586,123	46,661	-0,077	-0,053
-585,109	113,690	-0,075	-0,067
-584,094	78,938	0,077	0,061
-583,079	-200,000	-0,013	-0,076
-582,065	64,444	-0,074	0,055
-581,050	17,707	0,127	0,074
-580,036	-23,733	0,028	0,012
-579,021	437,126	-0,084	0,136
-578,006	83,254	-0,154	-0,124
-576,992	-200,000	0,010	-0,122
-575,977	669,714	0,080	0,154
-574,963	26,860	-0,054	0,034
-573,948	-200,000	0,009	-0,080
-572,934	233,586	0,062	-0,075
-571,919	-111,771	0,057	-0,008
-570,904	4,416	-0,078	0,042
-569,890	-200,000	0,008	0,062
-568,875	-95,179	0,176	-0,035
-567,861	-200,000	0,003	0,032
-566,846	81,989	0,043	0,034
-565,831	162,876	-0,097	-0,101
-564,817	43,636	-0,082	-0,056
-563,802	-200,000	0,006	-0,080
-562,788	800,000	0,017	-0,037
-561,773	23,341	-0,059	0,036
-560,758	36,702	0,113	-0,074
-559,744	-200,000	0,011	-0,139
-558,729	110,252	-0,164	0,146
-557,715	-59,610	-0,068	-0,021
-556,700	759,773	0,020	0,040
-555,685	54,165	-0,009	-0,006
-554,671	184,082	0,024	-0,026
-553,656	-200,000	-0,005	-0,019
-552,642	159,474	0,126	0,130
-551,627	352,070	-0,048	0,070
-550,612	211,421	0,023	-0,027
-549,598	89,365	0,030	0,024
-548,583	-200,000	-0,001	-0,031
-547,569	768,153	-0,035	0,070
-546,554	-75,315	0,150	0,039
-545,539	73,814	0,061	-0,047
-544,525	310,766	0,067	-0,093
-543,510	178,738	0,068	-0,073
-542,496	-42,460	-0,090	0,034
-541,481	94,832	-0,069	-0,058
-540,466	144,192	-0,061	-0,060
-539,452	800,000	0,006	-0,016
-538,437	-126,595	0,060	0,007
-537,423	351,718	-0,062	0,091
-536,408	800,000	-0,043	0,128
-535,393	800,000	-0,039	-0,105
-534,379	50,134	0,162	-0,113
-533,364	-200,000	0,002	-0,034
-532,350	800,000	-0,045	0,095
-531,335	137,085	0,059	0,057
-530,321	-104,905	0,227	0,038
-529,306	-1,668	-0,189	-0,098
-528,291	-200,000	-0,005	0,020
-527,277	556,620	-0,023	0,042
-526,262	-47,700	-0,027	-0,010
-525,248	-97,348	0,095	0,018
-524,233	-200,000	-0,006	-0,088
-523,218	465,022	0,090	-0,149
-522,204	-123,327	0,070	0,008
-521,189	129,700	0,035	-0,033
-520,175	-10,638	0,182	-0,088
-519,160	226,479	-0,092	0,111
-518,145	226,628	0,052	-0,063
-517,131	132,689	0,075	-0,072
-516,116	-200,000	0,046	0,167
-515,102	-200,000	0,017	0,084
-514,087	-200,000	-0,004	0,139
-513,072	-141,395	-0,161	0,012
-512,058	191,083	0,053	-0,059
-511,043	-112,832	0,106	-0,015
-510,029	800,000	-0,029	0,067
-509,014	117,168	-0,041	-0,037
-507,999	800,000	-0,061	-0,127
-506,985	-47,277	-0,025	-0,009
-505,970	-89,968	0,038	-0,008
-504,956	-200,000	-0,006	-0,139
-503,941	87,766	-0,123	-0,100
-502,926	-200,000	0,011	0,193
-501,912	-5,672	0,056	0,028
-500,897	800,000	0,012	0,037
-499,883	219,880	-0,133	0,158
-498,868	30,943	-0,061	-0,038
-497,853	607,568	-0,042	-0,077
-496,839	162,672	0,057	-0,059
-495,824	-200,000	0,033	0,118
-494,810	-44,856	0,056	0,020
-493,795	-97,111	0,036	0,007
-492,781	-200,000	0,019	0,093
-491,766	-163,039	-0,138	0,005
-490,751	189,048	-0,019	0,021
-489,737	-200,000	0,030	-0,115
-488,722	-167,430	0,124	0,004
-487,708	-97,394	0,082	0,016
-486,693	-53,003	-0,125	0,042
-485,678	800,000	0,055	0,117
-484,664	-3,593	0,043	0,022
-483,649	-120,630	-0,067	0,008
-482,635	-32,376	-0,094	-0,039
-481,620	800,000	0,029	-0,069
-480,605	-35,797	0,006	-0,002
-479,591	2,905	0,093	-0,049
-478,576	-200,000	-0,003	-0,020
-477,562	800,000	0,030	-0,075
-476,547	416,649	-0,129	-0,203
-475,532	-83,537	0,057	0,013
-474,518	-186,433	0,039	-0,000
-473,503	28,515	-0,146	-0,091
-472,489	8,783	0,022	-0,012
-471,474	-21,927	-0,098	-0,044
-470,459	-42,402	-0,131	0,049
-469,445	800,000	0,036	-0,077
-468,430	-200,000	-0,101	0,000
-467,416	-200,000	-0,041	0,138
-466,401	118,594	-0,090	0,082
-465,386	-54,418	0,171	0,057
-464,372	21,454	0,098	0,058
-463,357	-200,000	-0,039	0,134
-462,343	219,420	-0,125	-0,148
-461,328	-200,000	-0,011	-0,079
-460,313	-200,000	-0,005	-0,025
-459,299	-44,776	0,158	0,058
-458,284	-76,347	0,103	-0,027
-457,270	16,396	0,155	0,090
-456,255	-200,000	-0,016	-0,166
-455,241	800,000	-0,028	0,085
-454,226	13,778	-0,066	0,038
-453,211	-200,000	0,002	-0,054
-452,197	176,757	0,118	0,126
-451,182	-200,000	0,013	0,102
-450,168	15,690	0,073	-0,042
-449,153	225,947	0,084	0,101
-448,138	-144,591	-0,209	-0,014
-447,124	-200,000	-0,009	-0,083
-446,109	405,729	-0,056	-0,088
-445,095	-200,000	0,014	0,199
-444,080	352,851	-0,031	-0,045
-443,065	560,544	-0,086	0,153
-442,051	-200,000	0,005	0,104
-441,036	-1,425	-0,116	-0,060
-440,022	292,977	0,033	-0,045
-439,007	-57,179	0,094	0,030
-437,992	107,304	-0,068	0,060
-436,978	289,216	0,022	0,029
-435,963	-62,532	0,114	0,035
-434,949	-200,000	-0,009	0,030
-433,934	-200,000	0,006	-0,102
-432,919	-200,000	-0,006	0,025
-431,905	-140,406	-0,155	-0,012
-430,890	382,834	0,018	0,028
-429,876	-156,786	0,028	-0,001
-428,861	86,279	0,032	-0,026
-427,846	238,601	0,056	-0,069
-426,832	-200,000	0,003	-0,126
-425,817	62,068	-0,065	-0,048
-424,803	-200,000	0,017	-0,078
-423,788	-18,387	0,092	0,042
-422,773	-200,000	0,018	-0,111
-421,759	-106,755	0,048	-0,008
-420,744	-200,000	-0,009	0,058
-419,730	-200,000	-0,013	0,066
-418,715	800,000	-0,055	-0,138
-417,701	-200,000	0,001	-0,034
-416,686	17,485	0,057	0,033
-415,671	130,807	0,092	-0,087
-414,657	78,041	0,061	0,048
-413,642	548,786	0,059	0,104
-412,628	744,271	-0,083	-0,165
-411,613	-156,513	0,010	0,000
-410,598	800,000	-0,026	0,054
-409,584	188,065	-0,082	0,090
-408,569	-52,266	-0,039	0,013
-407,555	-139,852	0,128	-0,010
-406,540	800,000	-0,077	-0,169
-405,525	68,739	-0,060	0,045
-404,511	-96,199	0,058	-0,011
-403,496	-200,000	-0,011	-0,060
-402,482	-200,000	-0,016	0,165
-401,467	800,000	0,034	0,098
-400,452	488,969	0,066	0,111
-399,438	-200,000	-0,017	0,126
-398,423	-200,000	0,007	0,050
-397,409	-200,000	-0,003	-0,044
-396,394	800,000	-0,045	-0,130
-395,379	35,082	-0,075	0,048
-394,365	277,555	-0,058	0,076
-393,350	-101,664	0,038	-0,007
-392,336	800,000	-0,068	0,152
-391,321	800,000	-0,026	0,056
-390,306	800,000	0,015	-0,041
-389,292	161,151	-0,066	0,068
-388,277	-3,576	-0,091	0,046
-387,263	79,437	0,054	0,042
-386,248	-30,135	-0,203	-0,084
-385,233	574,129	0,059	0,107
-384,219	590,495	0,020	-0,036
-383,204	-99,833	0,078	0,014
-382,190	165,693	-0,043	0,044
-381,175	800,000	-0,032	-0,071
-380,160	-200,000	0,003	0,018
-379,146	279,396	0,057	0,075
-378,131	-138,839	-0,092	-0,007
-377,117	66,223	-0,009	0,007
-376,102	-200,000	-0,012	-0,105
-375,088	-200,000	0,019	0,092
-374,073	-200,000	0,004	0,030
-373,058	-10,468	-0,150	0,073
-372,044	-85,445	-0,040	0,009
-371,029	-38,679	0,165	0,064
-370,015	12,951	-0,063	0,036
-369,000	-200,000	0,022	-0,074
-367,985	156,301	-0,045	0,046
-366,971	107,128	-0,110	-0,096
-365,956	535,499	-0,053	-0,093
-364,942	-100,611	0,092	0,017
-363,927	-58,089	0,093	0,029
-362,912	241,448	0,027	0,033
-361,898	-200,000	0,010	0,129
-360,883	67,523	-0,102	-0,077
-359,869	554,616	-0,032	0,057
-358,854	-131,682	0,151	0,014
-357,839	-98,901	0,091	-0,017
-356,825	38,219	-0,062	-0,040
-355,810	230,657	0,104	0,125
-354,796	-18,833	-0,066	-0,030
-353,781	90,006	0,017	-0,014
-352,766	153,296	0,082	0,082
-351,752	121,241	-0,128	-0,117
-350,737	310,322	-0,050	0,069
-349,723	-48,399	-0,070	0,024
-348,708	-140,795	0,092	0,007
-347,693	-200,000	0,002	-0,046
-346,679	-200,000	-0,014	-0,091
-345,664	-50,566	-0,096	0,033
-344,650	84,016	0,117	-0,094
-343,635	-200,000	0,001	-0,030
-342,620	-44,198	0,167	0,061
-341,606	464,276	-0,065	-0,106
-340,591	348,809	-0,017	-0,024
-339,577	-200,000	-0,006	0,133
-338,562	-68,882	-0,114	-0,032
-337,548	420,776	-0,041	0,065
-336,533	800,000	0,029	0,064
-335,518	34,480	0,065	0,042
-334,504	96,183	-0,103	0,086
-333,489	-99,562	0,065	-0,012
-332,475	563,854	-0,055	0,098
-331,460	-67,519	-0,139	-0,040
-330,445	3,807	0,033	-0,018
-329,431	-50,290	0,121	0,042
-328,416	-103,338	-0,037	-0,006
-327,402	408,297	0,019	0,029
-326,387	403,765	0,057	-0,088
-325,372	11,956	0,028	-0,016
-324,358	-0,682	-0,058	0,030
-323,343	-189,963	0,100	-0,001
-322,329	-84,509	0,095	-0,022
-321,314	-97,461	0,127	0,024
-320,299	-200,000	-0,052	0,205
-319,285	439,992	0,040	0,064
-318,270	-77,219	0,089	0,023
-317,256	124,379	-0,138	-0,127
-316,241	-97,795	-0,036	-0,007
-315,226	-11,293	0,081	0,039
-314,212	-200,000	-0,128	0,000
-313,197	800,000	-0,037	0,102
-312,183	437,951	-0,028	-0,045
-311,168	14,585	-0,065	-0,037
-310,153	-200,000	0,010	-0,045
-309,139	155,941	0,069	0,070
-308,124	126,806	0,077	0,072
-307,110	-132,016	0,122	0,012
-306,095	-100,017	0,059	0,011
-305,080	-200,000	-0,004	0,018
-304,066	800,000	0,002	0,006
-303,051	-66,097	-0,079	0,023
-302,037	-146,301	0,073	-0,005
-301,022	71,537	0,049	-0,037
-300,008	-129,838	0,149	-0,015
-298,993	-200,000	0,012	0,083
-297,978	115,969	0,095	0,085
-296,964	637,511	0,059	-0,111
-295,949	800,000	-0,008	0,018
-294,935	-51,009	-0,123	-0,042
-293,920	-200,000	0,017	-0,189
-292,905	-173,886	0,197	0,004
-291,891	155,594	0,120	0,121
-290,876	49,661	-0,063	0,043
-289,862	-200,000	0,008	-0,038
-288,847	5,915	-0,101	-0,054
-287,832	506,682	0,073	0,124
-286,818	800,000	-0,003	0,007
-285,803	-95,339	-0,034	0,007
-284,789	-4,000	0,124	-0,063
-283,774	-38,873	-0,046	-0,018
-282,759	239,126	-0,022	-0,027
-281,745	7,526	-0,038	0,021
-280,730	-200,000	0,011	-0,048
-279,716	-200,000	0,001	-0,032
-278,701	-200,000	-0,003	-0,147
-277,686	-54,911	0,079	0,026
-276,672	-17,856	-0,140	0,064
-275,657	-131,352	0,153	0,015
-274,643	511,101	-0,048	-0,081
-273,628	-128,431	0,108	-0,011
-272,613	265,493	-0,028	-0,035
-271,599	-103,699	-0,073	0,012
-270,584	-39,273	-0,126	0,048
-269,570	800,000	0,062	0,196
-268,555	-200,000	-0,012	0,055
-267,540	119,803	0,024	-0,022
-266,526	-200,000	0,023	0,161
-265,511	-115,183	-0,137	0,019
-264,497	-101,546	0,124	0,022
-263,482	216,526	0,088	0,103
-262,467	285,819	-0,054	0,071
-261,453	-200,000	0,048	-0,189
-260,438	800,000	-0,025	0,052
-259,424	-200,000	0,008	0,038
-258,409	800,000	-0,051	-0,144
-257,395	-6,600	0,030	-0,015
-256,380	64,914	-0,040	0,030
-255,365	-52,915	-0,079	0,026
-254,351	-3,086	-0,062	0,031
-253,336	-36,996	0,081	-0,031
-252,322	-200,000	0,006	0,110
-251,307	263,076	-0,085	0,109
-250,292	194,318	-0,010	-0,011
-249,278	-70,549	0,137	-0,038
-248,263	81,925	-0,131	0,103
-247,249	634,401	-0,041	0,077
-246,234	-200,000	-0,002	-0,154
-245,219	421,744	-0,059	-0,093
-244,205	-200,000	-0,026	-0,129
-243,190	-200,000	0,004	0,068
-242,176	136,540	0,027	-0,026
-241,161	-200,000	0,017	-0,055
-240,146	-200,000	-0,012	-0,091
-239,132	476,941	-0,006	0,011
-238,117	215,144	-0,087	-0,101
-237,103	-110,298	0,095	-0,014
-236,088	-79,092	-0,179	-0,044
-235,073	-39,270	0,039	-0,015
-234,059	-81,593	-0,078	0,019
-233,044	-119,015	0,060	0,008
-232,030	165,529	-0,106	-0,109
-231,015	800,000	-0,075	0,166
-230,000	800,000	-0,056	0,170
-228,986	391,726	-0,009	-0,014
-227,971	-34,122	0,033	0,013
-226,957	-40,641	0,128	0,048
-225,942	800,000	-0,026	-0,062
-224,927	-200,000	0,014	0,088
-223,913	-57,977	0,154	0,049
-222,898	800,000	-0,054	0,117
-221,884	144,123	0,019	0,018
-220,869	104,876	0,085	0,073
-219,855	368,726	0,041	0,061
-218,840	253,232	-0,035	-0,044
-217,825	-200,000	-0,001	0,061
-216,811	-99,149	0,044	-0,008
-215,796	-84,781	-0,115	0,026
-214,782	28,738	-0,069	0,042
-213,767	-200,000	0,010	0,076
-212,752	338,355	-0,063	0,090
-211,738	-200,000	0,005	-0,017
-210,723	-16,378	0,068	-0,031
-209,709	685,344	0,031	-0,059
-208,694	800,000	-0,013	-0,037
-207,679	800,000	-0,033	-0,097
-206,665	-200,000	0,026	-0,130
-205,650	-161,852	-0,040	-0,001
-204,636	-39,583	0,065	-0,025
-203,621	-29,870	0,082	-0,034
-202,606	-113,350	-0,052	-0,007
-201,592	-95,352	-0,041	0,008
-200,577	-44,267	-0,081	0,030
-199,563	-200,000	0,009	-0,053
-198,548	-137,904	0,178	0,014
-197,533	265,777	0,127	-0,162
-196,519	213,198	0,021	-0,024
-195,504	127,667	-0,085	-0,078
-194,490	113,936	0,073	-0,065
-193,475	461,266	0,029	-0,048
-192,460	-200,000	-0,024	-0,094
-191,446	-161,177	0,118	0,004
-190,431	257,867	-0,055	0,070
-189,417	-86,886	-0,072	0,016
-188,402	96,829	-0,069	-0,058
-187,387	97,142	-0,098	-0,082
-186,373	-33,266	0,137	-0,055
-185,358	800,000	0,051	-0,119
-184,344	800,000	-0,046	-0,098
-183,329	51,942	0,126	0,087
-182,315	-200,000	-0,026	0,086
-181,300	342,983	-0,109	0,156
-180,285	-200,000	0,030	-0,108
-179,271	-200,000	-0,033	-0,109
-178,256	-200,000	-0,001	-0,072
-177,242	43,620	0,061	0,040
-176,227	52,251	0,120	0,083
-175,212	623,586	0,025	-0,045
-174,198	-200,000	-0,005	-0,068
-173,183	-200,000	0,004	-0,055
-172,169	551,293	-0,050	0,089
-171,154	394,418	0,002	-0,002
-170,139	-45,116	0,039	-0,014
-169,125	-76,863	0,032	0,008
-168,110	238,951	0,066	0,080
-167,096	800,000	0,060	0,129
-166,081	-200,000	0,019	0,107
-165,066	126,366	-0,019	-0,017
-164,052	503,728	-0,036	0,061
-163,037	377,025	0,046	0,069
-162,023	-200,000	0,002	0,151
-161,008	-63,540	0,093	0,027
-159,993	-167,085	-0,224	0,007
-158,979	-115,522	0,071	-0,010
-157,964	-200,000	-0,018	-0,084
-156,950	-38,204	0,139	0,053
-155,935	-200,000	-0,001	0,043
-154,920	800,000	-0,038	0,111
-153,906	-27,924	0,151	-0,064
-152,891	-15,449	-0,227	-0,105
-151,877	800,000	-0,043	0,087
-150,862	-108,381	0,045	-0,007
-149,847	364,737	0,043	-0,064
-148,833	40,567	0,080	0,053
-147,818	190,560	-0,125	0,137
-146,804	-200,000	-0,006	0,076
-145,789	-32,182	0,006	-0,002
-144,775	800,000	-0,027	0,057
-143,760	-200,000	0,001	-0,059
-142,745	92,878	-0,046	-0,038
-141,731	-45,434	-0,045	0,016
-140,716	800,000	0,034	-0,070
-139,702	442,144	-0,096	0,153
-138,687	-165,977	-0,116	0,004
-137,672	-200,000	-0,020	0,106
-136,658	-58,501	0,055	-0,017
-135,643	88,974	0,067	0,054
-134,629	-157,344	0,067	0,003
-133,614	-40,440	-0,049	0,018
-132,599	153,886	0,030	-0,030
-131,585	-200,000	0,013	0,048
-130,570	800,000	0,035	-0,079
-129,556	-100,406	-0,096	0,017
-128,541	455,230	0,033	-0,054
-127,526	371,164	0,046	-0,069
-126,512	-33,387	0,075	0,030
-125,497	3,071	0,128	0,068
-124,483	-38,718	-0,105	-0,040
-123,468	800,000	-0,032	0,084
-122,453	-200,000	-0,007	-0,035
-121,439	38,413	-0,117	-0,076
-120,424	800,000	0,036	-0,096
-119,410	-200,000	0,015	0,051
-118,395	-121,290	-0,074	0,009
-117,380	367,139	-0,039	-0,057
-116,366	-200,000	0,004	0,021
-115,351	-71,940	0,095	0,026
-114,337	-13,675	-0,100	-0,047
-113,322	56,569	-0,060	-0,042
-112,307	-200,000	-0,003	0,046
-111,293	347,579	0,070	-0,101
-110,278	-60,807	0,081	0,025
-109,264	353,065	0,043	-0,063
-108,249	-95,021	-0,056	0,011
-107,234	-79,872	-0,172	-0,042
-106,220	800,000	-0,007	0,017
-105,205	-200,000	0,026	-0,151
-104,191	46,535	0,044	0,029
-103,176	-141,829	-0,077	0,006
-102,162	800,000	-0,040	0,093
-101,147	-200,000	-0,008	0,180
-100,132	54,231	-0,081	0,057
-99,118	30,557	0,069	-0,043
-98,103	-200,000	0,019	-0,120
-97,089	617,906	0,047	0,086
-96,074	-45,398	0,081	-0,029
-95,059	-156,576	0,077	-0,003
-94,045	3,108	0,063	-0,033
-93,030	-113,697	-0,034	-0,005
-92,016	-42,746	-0,092	-0,034
-91,001	309,540	-0,023	-0,032
-89,986	292,431	0,058	0,077
-88,972	205,621	-0,017	0,020
-87,957	489,548	-0,026	-0,043
-86,943	800,000	0,045	-0,107
-85,928	478,927	0,038	-0,063
-84,913	518,782	0,054	-0,092
-83,899	-166,552	0,046	0,001
-82,884	-200,000	-0,022	-0,099
-81,870	284,269	0,068	0,089
-80,855	489,979	0,049	0,081
-79,840	800,000	0,039	-0,087
-78,826	-99,758	0,197	-0,035
-77,811	138,479	-0,072	-0,069
-76,797	-109,568	0,191	0,029
-75,782	61,333	0,024	-0,017
-74,767	99,271	0,078	-0,066
-73,753	-20,828	0,076	0,034
-72,738	-200,000	0,001	0,089
-71,724	737,626	-0,035	-0,068
-70,709	19,368	0,042	-0,025
-69,694	-141,946	-0,029	-0,002
-68,680	-200,000	0,013	0,047
-67,665	-53,389	0,048	-0,016
-66,651	800,000	-0,033	-0,096
-65,636	518,196	0,008	-0,013
-64,622	73,119	-0,072	-0,054
-63,607	-200,000	-0,005	0,027
-62,592	88,978	-0,077	-0,062
-61,578	88,134	-0,057	-0,046
-60,563	-39,732	0,101	0,038
-59,549	10,396	-0,061	0,034
-58,534	-56,222	-1,578	-0,506
-57,519	800,000	-0,629	-1,303
-56,505	-200,000	-1,008	-4,662
-55,490	-123,070	0,748	-0,086
-54,476	800,000	5,070	12,045
-53,461	-200,000	15,116	272,825
-52,446	-200,000	694,798	2256,016
-51,432	582,257	1615,208	2884,470
-50,417	121,638	1625,047	1468,867
-49,403	82,191	1283,319	1008,029
-48,388	37,414	1024,849	657,380
-47,373	22,178	985,750	581,958
-46,359	21,187	974,752	572,177
-45,344	19,647	970,548	564,626
-44,330	19,698	969,331	564,063
-43,315	19,508	967,614	562,421
-42,300	19,454	966,620	561,643
-41,286	19,413	965,505	560,837
-40,271	19,412	964,597	560,285
-39,257	19,493	963,742	560,031
-38,242	19,443	962,973	559,399
-37,227	19,498	961,930	558,951
-36,213	19,426	961,316	558,335
-35,198	19,463	960,332	557,865
-34,184	19,490	959,553	557,475
-33,169	19,425	958,715	556,758
-32,154	19,436	957,912	556,303
-31,140	19,449	957,015	555,802
-30,125	19,466	956,061	555,281
-29,111	19,426	955,416	554,756
-28,096	19,462	954,829	554,509
-27,082	19,436	953,997	553,922
-26,067	19,457	953,251	553,533
-25,052	19,343	952,730	552,841
-24,038	19,441	951,728	552,552
-23,023	19,330	951,317	551,935
-22,009	19,416	950,554	551,747
-20,994	19,457	949,861	551,454
-19,979	19,416	949,092	550,856
-18,965	19,416	948,515	550,497
-17,950	19,452	947,783	550,166
-16,936	19,376	947,219	549,573
-15,921	19,379	946,637	549,224
-14,906	19,295	946,048	548,591
-13,892	19,213	945,421	547,944
-12,877	19,317	944,720	547,849
-11,863	19,259	944,063	547,260
-10,848	19,312	943,537	547,102
-9,833	19,406	943,087	547,120
-8,819	19,424	942,327	546,714
-7,804	19,337	941,583	545,985
-6,790	19,236	941,402	545,537
-5,775	19,352	940,468	545,343
-4,760	19,333	939,995	544,985
-3,746	19,314	939,357	544,533
-2,731	19,115	938,705	543,502
-1,717	19,137	937,882	543,074
-0,702	19,092	937,325	542,588
0,313	18,958	936,669	542,602
1,327	21,997	935,021	551,215
2,342	31,294	794,329	493,051
3,356	28,333	449,352	274,439
4,371	-2,200	294,969	149,473
5,386	-6,081	276,265	136,284
6,400	-7,740	270,614	131,934
7,415	-8,334	268,246	130,217
8,429	-7,799	267,180	130,183
9,444	-7,822	266,295	129,718
10,459	-7,420	265,655	129,763
11,473	-7,798	265,115	129,142
12,488	-7,947	264,562	128,726
13,502	-7,727	264,007	128,644
14,517	-7,622	263,570	128,516
15,531	-7,470	263,321	128,521
16,546	-7,154	263,099	128,688
17,561	-7,255	262,592	128,336
18,575	-7,179	262,271	128,238
19,590	-7,398	262,049	127,919
20,604	-7,247	261,592	127,821
21,619	-7,545	261,402	127,448
22,634	-7,437	261,103	127,388
23,648	-7,498	260,818	127,183
24,663	-7,350	260,492	127,146
25,677	-7,354	260,357	127,065
26,692	-7,283	259,870	126,880
27,707	-7,424	259,871	126,742
28,721	-7,446	259,418	126,491
29,736	-7,440	259,124	126,341
30,750	-7,290	258,951	126,380
31,765	-7,458	258,746	126,119
32,780	-7,406	258,500	126,033
33,794	-7,474	258,285	125,857
34,809	-7,467	258,187	125,804
35,823	-7,420	257,589	125,544
36,838	-7,395	257,449	125,486
37,853	-7,433	257,327	125,381
38,867	-7,466	257,199	125,279
39,882	-7,580	256,982	125,061
40,896	-7,500	256,603	124,936
41,911	-7,393	256,267	124,856
42,926	-7,656	256,262	124,610
43,940	-7,344	255,872	124,684
44,955	-7,479	255,671	124,456
45,969	-7,614	255,618	124,301
46,984	-7,855	255,366	123,956
47,999	-7,885	254,936	123,709
49,013	-7,919	254,775	123,590
50,028	-8,006	254,448	123,345
51,042	-8,109	254,216	123,130
52,057	-8,196	253,956	122,918
53,071	-8,166	253,953	122,932
54,086	-8,090	253,541	122,787
55,101	-7,913	253,566	122,943
56,115	-7,837	253,485	122,960
57,130	-7,616	253,465	123,131
58,144	-7,190	253,070	123,299
59,159	-7,366	252,882	123,043
60,174	-7,445	252,800	122,924
61,188	-7,432	252,477	122,767
62,203	-7,447	252,212	122,615
63,217	-7,292	252,049	122,659
64,232	-7,241	251,777	122,559
65,247	-7,325	251,604	122,392
66,261	-7,638	251,433	122,027
67,276	-7,721	251,220	121,841
68,290	-7,873	250,997	121,591
69,305	-8,121	250,723	121,233
70,320	-7,634	250,325	121,450
71,334	-7,627	250,369	121,466
72,349	-7,369	250,239	121,613
73,363	-7,596	250,106	121,343
74,378	-7,299	249,805	121,441
75,393	-7,321	249,505	121,266
76,407	-7,360	249,267	121,105
77,422	-7,435	249,278	121,036
78,436	-7,418	248,908	120,860
79,451	-7,526	248,867	120,737
80,466	-7,551	248,580	120,566
81,480	-7,633	248,274	120,337
82,495	-7,768	248,219	120,185
83,509	-7,560	248,066	120,277
84,524	-7,885	247,804	119,863
85,539	-7,825	247,574	119,791
86,553	-7,753	247,428	119,771
87,568	-7,926	247,134	119,471
88,582	-7,667	246,904	119,569
89,597	-7,634	246,802	119,537
90,611	-7,814	246,586	119,269
91,626	-7,468	246,485	119,503
92,641	-7,454	246,283	119,405
93,655	-7,479	246,136	119,302
94,670	-7,705	245,918	118,996
95,684	-7,521	245,613	118,993
96,699	-7,579	245,578	118,917
97,714	-7,695	245,308	118,677
98,728	-7,647	245,066	118,590
99,743	-7,823	244,953	118,377
100,757	-7,777	244,646	118,256
101,772	-7,824	244,523	118,147
102,787	-7,709	244,270	118,111
103,801	-7,646	244,243	118,139
104,816	-7,424	244,076	118,235
105,830	-7,346	243,764	118,138
106,845	-7,463	243,710	118,004
107,860	-7,470	243,523	117,896
108,874	-7,627	243,189	117,594
109,889	-7,669	243,016	117,464
110,903	-7,762	242,904	117,322
111,918	-7,877	242,718	117,127
112,933	-7,651	242,495	117,196
113,947	-7,765	242,528	117,107
114,962	-7,693	242,268	117,031
115,976	-7,587	241,988	116,973
116,991	-7,582	241,867	116,908
118,006	-7,671	241,682	116,734
119,020	-7,660	241,731	116,756
120,035	-7,496	241,456	116,749
121,049	-7,422	241,247	116,699
122,064	-7,642	241,229	116,498
123,079	-7,545	240,893	116,405
124,093	-7,681	240,728	116,203
125,108	-7,651	240,497	116,106
126,122	-7,948	240,342	115,777
127,137	-7,990	240,135	115,632
128,151	-7,929	239,937	115,577
129,166	-7,771	239,921	115,688
130,181	-7,809	239,542	115,464
131,195	-7,899	239,399	115,312
132,210	-7,770	239,275	115,347
133,224	-7,546	238,939	115,358
134,239	-7,557	238,941	115,339
135,254	-7,859	238,957	115,089
136,268	-7,880	238,586	114,884
137,283	-8,050	238,426	114,659
138,297	-7,942	238,174	114,615
139,312	-7,991	237,828	114,398
140,327	-7,611	237,797	114,681
141,341	-7,209	237,820	115,009
142,356	-7,206	237,620	114,904
143,370	-7,417	237,538	114,683
144,385	-7,366	237,296	114,598
145,400	-7,048	237,226	114,810
146,414	-7,502	237,091	114,368
147,429	-7,490	236,803	114,228
148,443	-7,460	236,557	114,124
149,458	-7,262	236,422	114,208
150,473	-7,479	236,271	113,950
151,487	-7,453	235,864	113,764
152,502	-7,365	235,826	113,807
153,516	-7,337	235,870	113,840
154,531	-7,195	235,386	113,711
155,546	-7,480	235,438	113,498
156,560	-7,526	235,199	113,335
157,575	-7,514	234,949	113,214
158,589	-7,407	234,816	113,225
159,604	-7,337	234,743	113,236
160,619	-7,316	234,622	113,184
161,633	-7,219	234,587	113,235
162,648	-7,268	234,328	113,061
163,662	-7,354	234,289	112,963
164,677	-7,592	234,060	112,653
165,692	-7,532	233,903	112,615
166,706	-7,239	233,702	112,742
167,721	-7,159	233,381	112,640
168,735	-7,041	233,413	112,740
169,750	-7,421	233,245	112,346
170,764	-7,387	232,993	112,241
171,779	-7,190	232,826	112,307
172,794	-7,239	232,820	112,256
173,808	-7,502	232,547	111,906
174,823	-7,706	232,237	111,586
175,837	-7,971	232,095	111,298
176,852	-7,640	232,042	111,524
177,867	-7,509	232,166	111,677
178,881	-7,345	231,797	111,620
179,896	-7,356	231,632	111,522
180,910	-7,368	231,473	111,425
181,925	-7,206	231,277	111,448
182,940	-7,338	231,094	111,247
183,954	-7,478	231,053	111,107
184,969	-7,236	230,970	111,247
185,983	-7,206	230,899	111,226
186,998	-7,096	230,511	111,116
188,013	-7,119	230,291	110,982
189,027	-7,237	230,351	110,909
190,042	-7,200	230,095	110,805
191,056	-7,119	229,964	110,795
192,071	-7,246	229,734	110,575
193,086	-7,528	229,528	110,246
194,100	-7,756	229,153	109,879
195,115	-8,656	228,721	108,962
196,129	-8,523	228,938	109,159
197,144	-3,808	230,263	113,466
198,159	1,059	231,613	117,938
199,173	3,884	232,421	120,557
200,188	4,289	232,340	120,821
201,202	4,620	232,074	120,931
202,217	4,441	232,103	120,796
203,232	4,504	232,026	120,794
204,246	4,806	231,790	120,896
205,261	4,603	231,674	120,667
206,275	4,837	231,568	120,782
207,290	4,974	231,374	120,777
208,304	4,879	231,301	120,655
209,319	4,731	231,073	120,410
210,334	4,572	231,000	120,238
211,348	4,343	230,741	119,914
212,363	4,086	230,467	119,561
213,377	4,002	230,178	119,336
214,392	4,013	230,046	119,265
215,407	3,850	230,048	119,129
216,421	4,176	229,734	119,208
217,436	3,853	229,474	118,813
218,450	3,598	229,306	118,518
219,465	3,779	229,225	118,606
220,480	3,866	229,155	118,627
221,494	3,709	229,084	118,457
222,509	3,658	228,908	118,317
223,523	3,795	228,622	118,264
224,538	3,966	228,595	118,371
225,553	3,855	228,411	118,180
226,567	3,971	228,421	118,264
227,582	4,363	228,096	118,386
228,596	4,064	228,243	118,221
229,611	3,998	227,937	118,002
230,626	3,754	227,614	117,638
231,640	3,972	227,672	117,823
232,655	4,027	227,380	117,705
233,669	4,411	227,353	117,974
234,684	4,594	227,229	118,038
235,699	4,232	227,033	117,649
236,713	4,148	226,921	117,517
237,728	3,762	226,810	117,155
238,742	4,085	226,486	117,223
239,757	3,947	226,349	117,036
240,772	4,061	226,204	117,038
241,786	3,887	226,024	116,802
242,801	3,998	226,113	116,922
243,815	4,244	225,979	117,029
244,830	4,251	225,843	116,953
245,844	4,087	225,548	116,666
246,859	4,104	225,361	116,571
247,874	4,167	225,167	116,509
248,888	4,194	225,218	116,546
249,903	4,170	225,007	116,407
250,917	3,989	224,781	116,143
251,932	4,106	224,574	116,114
252,947	3,916	224,450	115,897
253,961	3,817	224,361	115,766
254,976	3,840	224,187	115,684
255,990	3,954	224,082	115,704
257,005	4,118	223,934	115,741
258,020	4,110	223,847	115,679
259,034	4,249	223,826	115,762
260,049	4,258	223,591	115,638
261,063	4,218	223,376	115,486
262,078	4,112	223,373	115,395
263,093	4,172	223,085	115,280
264,107	4,239	222,970	115,261
265,122	4,001	222,957	115,067
266,136	4,296	222,754	115,171
267,151	4,356	222,449	115,049
268,166	4,047	222,247	114,703
269,180	3,905	222,100	114,512
270,195	3,764	222,033	114,362
271,209	3,727	221,880	114,246
272,224	3,929	221,751	114,319
273,239	3,976	221,711	114,323
274,253	3,855	221,467	114,097
275,268	3,530	221,222	113,720
276,282	3,533	221,139	113,669
277,297	3,593	220,856	113,558
278,312	3,709	220,751	113,579
279,326	3,704	220,802	113,592
280,341	3,736	220,628	113,516
281,355	3,896	220,563	113,590
282,370	3,978	220,305	113,508
283,384	3,853	220,120	113,310
284,399	3,855	219,853	113,164
285,414	3,692	219,891	113,054
286,428	3,887	219,598	113,036
287,443	4,134	219,616	113,218
288,457	4,045	219,511	113,087
289,472	3,801	219,332	112,806
290,487	3,582	219,005	112,468
291,501	3,500	218,946	112,368
292,516	3,518	218,792	112,291
293,530	3,756	218,675	112,396
294,545	3,641	218,631	112,279
295,560	3,691	218,522	112,250
296,574	3,889	218,408	112,325
297,589	4,052	218,248	112,352
298,603	4,179	218,128	112,373
299,618	4,070	217,942	112,187
300,633	4,093	217,826	112,135
301,647	4,128	217,708	112,089
302,662	4,197	217,592	112,070
303,676	4,127	217,543	111,984
304,691	4,112	217,336	111,856
305,706	4,257	217,202	111,883
306,720	4,421	217,030	111,903
307,735	3,820	216,875	111,378
308,749	3,857	216,676	111,293
309,764	4,110	216,438	111,343
310,779	4,111	216,443	111,336
311,793	4,216	216,189	111,271
312,808	4,259	216,201	111,299
313,822	4,101	216,090	111,118
314,837	3,808	215,833	110,765
315,852	3,694	215,746	110,628
316,866	4,091	215,463	110,758
317,881	4,147	215,638	110,878
318,895	4,219	215,372	110,784
319,910	3,961	215,155	110,477
320,925	3,883	214,873	110,267
321,939	3,567	214,712	109,948
322,954	3,668	214,597	109,951
323,968	3,913	214,639	110,138
324,983	3,982	214,584	110,150
325,997	3,949	214,457	110,051
327,012	4,108	214,112	109,978
328,027	4,193	214,033	109,988
329,041	4,249	213,984	109,993
330,056	4,133	213,853	109,833
331,070	3,930	213,728	109,615
332,085	3,501	213,432	109,148
333,100	3,956	213,338	109,413
334,114	4,026	213,209	109,387
335,129	3,819	213,130	109,190
336,143	3,644	212,925	108,951
337,158	3,872	212,774	109,026
338,173	3,953	212,616	108,993
339,187	3,532	212,531	108,641
340,202	3,818	212,252	108,691
341,216	3,607	212,159	108,485
342,231	3,685	212,142	108,521
343,246	3,650	212,028	108,428
344,260	3,464	212,010	108,278
345,275	3,694	211,910	108,379
346,289	4,020	211,639	108,461
347,304	3,953	211,569	108,368
348,319	3,891	211,449	108,254
349,333	4,047	211,228	108,241
350,348	3,878	211,141	108,068
351,362	3,977	211,035	108,074
352,377	4,130	210,956	108,130
353,392	4,086	210,715	107,967
354,406	3,968	210,640	107,836
355,421	192,784	1343,915	1427,534
356,435	153,847	1482,040	1427,598
