DTS Sentinel unit serial number:	SN410029Multiplexer serial number:	ORYXHardware model number:	OX2-SRSoftware version number:	ORYX F/W v4,00 Oryx Data Collector v3.7.2.0data status	okinstallation	B6 Nyhavnadifferential loss correction	single-endedforward channel	channel 2reverse channel	N/Adate	2023/12/10time	20:20:08forward acquisition time	300,00reverse acquisition time	0,00gamma	499,1914k internal	0,3122k external	0,3122temperature offset calibration	1,0000default loss term (dB/km)	0,3820temperature slope calibration	1,0000multiplexer offset coefficient	1,0000multiplexer slope coefficient	1,0000fibre end	0,00T internal ref (°C)	22,28T ext. ref 1 (°C)	5,83T ext. ref 2 (°C)	5,87length (m)	temperature (°C)	Stokes	anti-Stokes-744,400	-200,000	0,015	-0,166
-743,385	23,138	-0,197	0,120
-742,371	-200,000	0,034	-0,165
-741,356	93,119	-0,220	0,186
-740,342	-12,246	-0,127	-0,062
-739,327	-137,096	-0,242	0,020
-738,312	12,726	0,130	-0,075
-737,298	-32,605	-0,230	0,095
-736,283	800,000	0,015	-0,033
-735,269	-76,679	-0,204	0,053
-734,254	490,500	0,105	0,179
-733,239	-119,856	-0,378	-0,048
-732,225	-66,967	0,173	0,051
-731,210	800,000	0,035	0,073
-730,196	800,000	-0,020	-0,052
-729,181	-103,492	-0,172	0,030
-728,167	221,821	-0,094	0,113
-727,152	263,902	-0,025	0,033
-726,137	800,000	-0,033	-0,097
-725,123	2,297	-0,063	-0,034
-724,108	18,696	-0,146	-0,087
-723,094	-19,250	-0,188	0,087
-722,079	800,000	-0,059	-0,168
-721,064	133,687	-0,090	-0,086
-720,050	800,000	-0,042	0,104
-719,035	173,355	0,045	0,049
-718,021	-96,782	0,087	-0,017
-717,006	87,604	-0,150	-0,123
-715,991	-200,000	-0,040	-0,133
-714,977	292,088	-0,036	-0,049
-713,962	381,690	0,056	-0,085
-712,948	-38,377	-0,022	0,009
-711,933	-200,000	0,063	-0,213
-710,918	800,000	0,031	0,087
-709,904	-120,149	-0,084	0,011
-708,889	493,686	-0,062	0,107
-707,875	425,068	-0,019	-0,031
-706,860	164,764	-0,106	-0,111
-705,845	575,377	-0,072	0,132
-704,831	-4,047	-0,066	0,034
-703,816	-200,000	0,012	-0,043
-702,802	162,403	-0,037	-0,039
-701,787	800,000	0,032	-0,096
-700,772	800,000	0,031	0,077
-699,758	-134,275	0,106	-0,010
-698,743	103,576	0,047	0,041
-697,729	304,381	0,041	-0,057
-696,714	-200,000	-0,008	0,122
-695,699	55,545	-0,019	-0,014
-694,685	81,569	-0,110	-0,088
-693,670	133,157	-0,111	-0,106
-692,656	-200,000	-0,021	-0,148
-691,641	-200,000	0,023	-0,075
-690,627	800,000	0,033	-0,086
-689,612	175,621	-0,031	-0,033
-688,597	15,897	0,072	-0,042
-687,583	-200,000	-0,009	-0,039
-686,568	-90,041	-0,185	-0,040
-685,554	195,680	0,024	-0,028
-684,539	-167,042	-0,026	0,001
-683,524	-88,130	-0,034	-0,008
-682,510	417,427	0,106	0,168
-681,495	-28,719	-0,037	0,016
-680,481	-200,000	-0,009	-0,058
-679,466	-26,429	-0,129	-0,056
-678,451	209,357	-0,077	0,090
-677,437	800,000	0,061	0,186
-676,422	-69,482	-0,091	-0,026
-675,408	-200,000	0,017	0,176
-674,393	57,739	-0,050	0,036
-673,378	157,540	0,062	0,064
-672,364	537,034	-0,021	0,038
-671,349	250,124	-0,031	-0,040
-670,335	-78,923	-0,048	-0,012
-669,320	77,157	-0,131	-0,104
-668,305	648,931	0,005	-0,009
-667,291	800,000	0,046	0,105
-666,276	49,300	-0,115	-0,080
-665,262	63,687	-0,048	-0,036
-664,247	-200,000	-0,027	-0,090
-663,232	800,000	0,039	0,084
-662,218	234,603	0,060	-0,074
-661,203	-200,000	0,023	0,087
-660,189	355,616	-0,022	-0,033
-659,174	60,377	-0,187	-0,137
-658,159	800,000	0,033	-0,092
-657,145	800,000	-0,084	-0,187
-656,130	219,484	0,021	-0,025
-655,116	-179,749	0,097	0,002
-654,101	784,817	0,045	0,091
-653,086	800,000	-0,045	0,106
-652,072	-200,000	0,002	-0,028
-651,057	209,817	-0,034	0,039
-650,043	-40,703	-0,139	-0,053
-649,028	-161,101	0,034	-0,001
-648,014	800,000	0,029	0,073
-646,999	180,594	-0,050	-0,055
-645,984	-126,680	0,037	0,004
-644,970	412,882	0,010	0,016
-643,955	-27,363	-0,071	-0,031
-642,941	800,000	-0,078	-0,217
-641,926	-28,039	0,079	0,034
-640,911	-200,000	-0,005	0,129
-639,897	193,650	-0,050	0,056
-638,882	800,000	-0,013	-0,036
-637,868	-63,802	-0,081	-0,025
-636,853	2,196	-0,047	-0,025
-635,838	-55,421	-0,076	-0,025
-634,824	-128,736	-0,141	-0,015
-633,809	638,941	-0,064	0,121
-632,795	-200,000	0,018	0,135
-631,780	-95,530	0,064	0,013
-630,765	189,646	0,101	0,113
-629,751	24,832	-0,171	-0,105
-628,736	19,409	-0,068	-0,040
-627,722	-50,667	-0,124	-0,043
-626,707	146,021	-0,085	0,084
-625,692	-29,863	-0,124	0,052
-624,678	-200,000	-0,000	0,079
-623,663	-200,000	-0,010	-0,175
-622,649	560,188	-0,014	0,025
-621,634	17,767	-0,052	-0,030
-620,619	188,318	-0,053	0,058
-619,605	-171,654	0,157	-0,004
-618,590	17,632	-0,151	0,089
-617,576	384,515	0,088	0,136
-616,561	800,000	0,035	-0,072
-615,546	573,609	0,039	-0,071
-614,532	-200,000	0,007	0,037
-613,517	6,330	-0,101	0,055
-612,503	-148,085	0,100	0,006
-611,488	-200,000	-0,019	-0,103
-610,474	169,209	-0,059	-0,063
-609,459	800,000	0,024	-0,064
-608,444	88,864	-0,032	0,026
-607,430	-200,000	-0,007	-0,027
-606,415	800,000	0,013	0,028
-605,401	-83,001	0,066	-0,016
-604,386	-196,835	-0,093	0,000
-603,371	75,621	0,052	-0,041
-602,357	-200,000	0,006	0,112
-601,342	-200,000	-0,006	0,087
-600,328	-200,000	-0,010	0,089
-599,313	713,436	0,037	-0,072
-598,298	-200,000	-0,049	-0,192
-597,284	-200,000	0,028	0,162
-596,269	-200,000	-0,006	0,042
-595,255	-23,198	0,069	-0,031
-594,240	160,708	-0,081	-0,084
-593,225	-200,000	-0,001	-0,070
-592,211	180,641	-0,048	-0,052
-591,196	-15,580	0,059	-0,028
-590,182	168,380	0,023	-0,024
-589,167	-126,655	-0,022	0,002
-588,152	-180,650	-0,072	-0,001
-587,138	-200,000	0,003	0,113
-586,123	-200,000	0,016	0,057
-585,109	-10,109	0,092	0,045
-584,094	800,000	0,040	0,107
-583,079	800,000	-0,031	0,097
-582,065	125,539	-0,130	0,122
-581,050	-200,000	-0,007	0,210
-580,036	235,192	-0,028	0,034
-579,021	-200,000	-0,014	-0,058
-578,006	703,011	-0,077	-0,150
-576,992	235,206	-0,016	-0,020
-575,977	-101,533	0,073	-0,013
-574,963	-122,621	0,045	0,005
-573,948	800,000	-0,033	-0,069
-572,934	800,000	0,010	0,028
-571,919	-184,496	-0,148	0,002
-570,904	-134,420	-0,121	-0,011
-569,890	-81,418	0,108	-0,026
-568,875	800,000	0,039	-0,088
-567,861	-200,000	-0,020	0,101
-566,846	-93,540	-0,071	0,014
-565,831	800,000	-0,031	-0,102
-564,817	-75,108	-0,113	0,030
-563,802	-79,606	0,058	0,014
-562,788	55,095	0,069	-0,049
-561,773	800,000	-0,008	0,021
-560,758	713,707	0,018	0,035
-559,744	-91,401	0,091	-0,019
-558,729	-117,023	-0,110	0,015
-557,715	577,127	0,033	0,060
-556,700	-61,901	0,084	-0,026
-555,685	800,000	0,040	-0,095
-554,671	-48,153	-0,128	-0,045
-553,656	353,593	0,030	-0,044
-552,642	320,954	-0,093	0,130
-551,627	218,228	0,046	0,054
-550,612	34,151	0,080	0,051
-549,598	409,608	-0,057	-0,089
-548,583	-29,333	0,022	-0,009
-547,569	800,000	-0,025	0,062
-546,554	-117,401	0,092	0,012
-545,539	13,560	0,072	0,041
-544,525	53,097	0,111	0,079
-543,510	-200,000	-0,009	-0,100
-542,496	283,407	-0,130	-0,173
-541,481	-200,000	0,014	-0,054
-540,466	264,237	0,103	0,132
-539,452	149,717	0,044	0,044
-538,437	106,110	-0,008	0,007
-537,423	-200,000	-0,006	-0,037
-536,408	401,221	0,055	0,086
-535,393	-90,597	-0,076	0,016
-534,379	800,000	0,032	-0,099
-533,364	414,006	-0,032	0,050
-532,350	9,377	0,115	-0,064
-531,335	-200,000	0,010	0,037
-530,321	-200,000	-0,006	0,120
-529,306	-164,270	0,130	0,004
-528,291	-128,402	-0,120	-0,012
-527,277	468,099	-0,036	-0,060
-526,262	-36,391	0,080	0,032
-525,248	4,280	0,023	0,013
-524,233	88,618	0,056	-0,046
-523,218	-12,611	-0,041	0,020
-522,204	-200,000	-0,028	-0,143
-521,189	76,228	-0,047	-0,036
-520,175	-14,270	-0,114	-0,054
-519,160	123,416	-0,005	-0,004
-518,145	109,229	0,035	-0,031
-517,131	161,214	-0,076	-0,078
-516,116	-158,348	0,043	-0,002
-515,102	-200,000	-0,011	0,062
-514,087	665,971	-0,060	0,116
-513,072	-52,397	-0,168	0,057
-512,058	105,466	0,053	-0,046
-511,043	-132,730	0,034	0,003
-510,029	800,000	0,034	0,089
-509,014	37,202	-0,107	-0,070
-507,999	140,584	0,016	-0,015
-506,985	-200,000	-0,003	-0,139
-505,970	-107,626	-0,134	-0,021
-504,956	63,318	0,029	-0,021
-503,941	517,899	0,075	-0,130
-502,926	182,929	0,089	0,097
-501,912	735,306	-0,019	0,037
-500,897	-200,000	-0,005	-0,072
-499,883	-200,000	0,032	-0,169
-498,868	421,475	-0,024	0,038
-497,853	-200,000	-0,007	-0,036
-496,839	-46,360	-0,028	0,010
-495,824	-200,000	-0,013	0,080
-494,810	559,214	0,036	0,065
-493,795	-200,000	0,002	0,080
-492,781	34,361	0,123	-0,079
-491,766	-200,000	0,015	-0,071
-490,751	-40,675	-0,164	-0,063
-489,737	-38,547	-0,220	0,085
-488,722	0,944	0,169	-0,089
-487,708	-26,073	-0,062	0,027
-486,693	644,799	0,077	0,145
-485,678	156,676	-0,093	0,095
-484,664	-200,000	0,012	0,082
-483,649	345,364	0,023	-0,033
-482,635	15,848	-0,049	0,028
-481,620	215,655	0,101	-0,119
-480,605	-84,201	-0,048	0,011
-479,591	384,355	-0,043	-0,066
-478,576	-142,342	-0,106	0,008
-477,562	265,975	0,012	-0,015
-476,547	141,852	-0,041	-0,040
-475,532	-75,781	-0,037	-0,009
-474,518	-144,016	0,082	-0,006
-473,503	-24,761	-0,165	0,072
-472,489	800,000	-0,027	0,063
-471,474	3,400	0,124	0,066
-470,459	26,753	-0,064	0,039
-469,445	60,368	-0,057	-0,041
-468,430	-8,757	0,085	-0,042
-467,416	800,000	-0,014	0,039
-466,401	-200,000	0,021	-0,082
-465,386	91,451	0,079	-0,065
-464,372	-110,303	-0,102	0,015
-463,357	800,000	0,049	0,135
-462,343	69,322	-0,131	0,099
-461,328	-200,000	0,000	-0,072
-460,313	-116,383	0,022	0,003
-459,299	747,366	-0,031	0,063
-458,284	249,202	0,020	-0,025
-457,270	316,717	0,029	0,041
-456,255	494,168	-0,041	0,070
-455,241	-130,568	0,100	0,010
-454,226	76,257	0,026	0,020
-453,211	-121,523	-0,051	-0,006
-452,197	-44,936	0,065	0,024
-451,182	174,292	0,113	0,121
-450,168	-200,000	-0,017	0,142
-449,153	-32,615	-0,085	-0,035
-448,138	-200,000	-0,010	0,053
-447,124	233,208	-0,096	0,116
-446,109	-66,128	0,020	0,006
-445,095	-161,275	0,058	0,002
-444,080	-200,000	-0,012	0,043
-443,065	317,122	0,027	-0,038
-442,051	-49,333	0,028	-0,010
-441,036	287,328	-0,029	-0,039
-440,022	-200,000	0,017	-0,125
-439,007	242,711	0,117	-0,144
-437,992	-84,315	-0,144	-0,033
-436,978	358,806	0,032	0,048
-435,963	800,000	0,013	-0,040
-434,949	-113,808	-0,175	-0,025
-433,934	-200,000	0,022	-0,111
-432,919	-200,000	-0,021	-0,166
-431,905	-200,000	-0,014	0,064
-430,890	-52,645	0,113	0,038
-429,876	800,000	-0,034	-0,074
-428,861	-200,000	0,016	0,054
-427,846	416,672	0,017	-0,027
-426,832	-75,610	-0,134	0,035
-425,817	-200,000	-0,008	0,059
-424,803	-84,451	0,087	-0,020
-423,788	25,814	0,197	-0,121
-422,773	-6,427	0,088	-0,044
-421,759	189,793	0,053	-0,059
-420,744	28,114	0,079	-0,049
-419,730	-120,791	0,051	-0,006
-418,715	361,264	0,041	-0,061
-417,701	24,583	0,038	0,023
-416,686	99,250	0,069	-0,059
-415,671	-100,864	0,041	-0,007
-414,657	-29,596	0,015	-0,006
-413,642	767,010	0,033	0,066
-412,628	-50,734	-0,017	-0,006
-411,613	629,962	0,024	-0,045
-410,598	482,102	-0,048	-0,080
-409,584	-128,553	0,114	0,012
-408,569	800,000	-0,008	-0,024
-407,555	500,937	0,070	-0,120
-406,540	800,000	0,023	0,047
-405,525	-42,570	0,150	-0,056
-404,511	800,000	-0,030	-0,063
-403,496	-42,548	0,122	-0,045
-402,482	210,730	-0,091	-0,105
-401,467	-200,000	-0,016	0,094
-400,452	-120,137	0,064	0,008
-399,438	-41,529	0,098	0,037
-398,423	800,000	-0,026	0,060
-397,409	800,000	-0,030	-0,089
-396,394	141,711	-0,076	0,074
-395,379	179,664	0,057	0,061
-394,365	466,867	0,023	0,038
-393,350	99,382	0,037	-0,032
-392,336	-38,309	0,126	0,049
-391,321	249,017	-0,063	-0,079
-390,306	198,448	0,117	0,131
-389,292	-200,000	-0,009	0,033
-388,277	159,376	-0,029	0,030
-387,263	95,358	-0,031	0,026
-386,248	132,709	-0,073	-0,070
-385,233	800,000	0,050	0,110
-384,219	231,525	-0,072	-0,087
-383,204	-32,547	-0,085	0,035
-382,190	7,088	-0,091	0,050
-381,175	-145,647	0,122	-0,008
-380,160	-104,237	0,054	0,009
-379,146	113,727	0,045	0,040
-378,131	62,880	-0,115	0,085
-377,117	-147,195	-0,084	-0,005
-376,102	-85,026	0,047	-0,011
-375,088	-200,000	0,009	-0,100
-374,073	800,000	0,033	0,105
-373,058	-103,085	0,078	-0,013
-372,044	-27,674	0,151	0,064
-371,029	195,951	0,073	0,081
-370,015	157,392	-0,021	0,022
-369,000	19,453	-0,101	0,060
-367,985	-200,000	0,012	0,132
-366,971	-73,277	0,074	0,020
-365,956	800,000	-0,015	0,043
-364,942	-200,000	-0,006	0,073
-363,927	-200,000	0,013	-0,064
-362,912	-148,318	-0,080	0,005
-361,898	1,804	0,032	-0,017
-360,883	800,000	0,043	-0,117
-359,869	-200,000	-0,003	-0,052
-358,854	-200,000	-0,021	0,085
-357,839	800,000	-0,026	0,082
-356,825	358,168	0,034	0,050
-355,810	800,000	0,026	0,071
-354,796	238,789	-0,100	-0,122
-353,781	-200,000	0,034	-0,164
-352,766	286,422	-0,060	-0,080
-351,752	121,765	0,092	0,084
-350,737	-188,299	0,023	-0,000
-349,723	-78,759	0,072	-0,018
-348,708	-52,011	-0,056	0,019
-347,693	800,000	-0,026	-0,078
-346,679	191,458	-0,091	0,101
-345,664	393,196	-0,115	-0,177
-344,650	-200,000	-0,016	-0,137
-343,635	293,338	-0,061	0,082
-342,620	254,132	0,063	-0,079
-341,606	-200,000	-0,017	0,128
-340,591	800,000	0,017	0,037
-339,577	800,000	-0,016	-0,042
-338,562	-200,000	0,024	-0,092
-337,548	-176,785	-0,071	-0,001
-336,533	97,380	0,091	0,077
-335,518	-174,369	0,057	-0,001
-334,504	178,178	0,078	-0,084
-333,489	-193,712	0,108	0,001
-332,475	800,000	-0,013	-0,040
-331,460	5,002	-0,134	-0,072
-330,445	84,999	-0,062	0,050
-329,431	33,581	0,127	0,081
-328,416	-200,000	-0,002	0,014
-327,402	-200,000	-0,025	0,113
-326,387	56,460	-0,087	-0,062
-325,372	-200,000	-0,012	-0,049
-324,358	-34,729	0,025	-0,010
-323,343	-0,132	0,041	-0,021
-322,329	30,441	-0,080	0,050
-321,314	800,000	-0,027	0,083
-320,299	-200,000	0,018	-0,076
-319,285	-0,332	-0,103	-0,054
-318,270	25,421	-0,089	-0,054
-317,256	-200,000	0,028	0,176
-316,241	-200,000	-0,030	0,141
-315,226	-200,000	-0,002	-0,054
-314,212	100,963	-0,015	-0,013
-313,197	-3,962	0,054	0,027
-312,183	-200,000	0,013	0,000
-311,168	666,950	-0,072	-0,137
-310,153	-132,800	-0,087	0,008
-309,139	-111,521	0,180	-0,027
-308,124	70,192	-0,088	-0,066
-307,110	-76,595	-0,067	-0,017
-306,095	468,188	0,020	0,033
-305,080	108,702	0,040	0,035
-304,066	-200,000	-0,017	0,120
-303,051	-200,000	-0,014	-0,067
-302,037	203,177	-0,054	-0,061
-301,022	-200,000	-0,013	-0,082
-300,008	800,000	0,034	-0,101
-298,993	21,860	0,065	0,039
-297,978	-200,000	-0,000	-0,116
-296,964	800,000	-0,044	-0,126
-295,949	-110,795	-0,111	0,017
-294,935	800,000	-0,020	-0,050
-293,920	558,468	0,037	-0,065
-292,905	800,000	0,035	0,100
-291,891	-76,484	0,212	0,054
-290,876	-200,000	0,010	-0,098
-289,862	-153,713	0,015	-0,001
-288,847	357,234	-0,034	-0,049
-287,832	22,379	-0,100	-0,060
-286,818	335,370	0,005	-0,007
-285,803	44,009	0,184	0,123
-284,789	-129,563	-0,064	-0,006
-283,774	800,000	0,023	-0,059
-282,759	4,218	-0,127	0,068
-281,745	294,614	0,084	-0,112
-280,730	70,510	-0,130	-0,098
-279,716	575,268	-0,026	0,047
-278,701	-85,362	-0,049	0,011
-277,686	269,532	-0,091	0,117
-276,672	-21,505	0,109	0,048
-275,657	-115,415	0,165	0,023
-274,643	-180,466	-0,110	0,002
-273,628	84,509	-0,047	-0,038
-272,613	33,270	-0,059	0,037
-271,599	-120,008	0,113	-0,014
-270,584	-36,759	-0,050	-0,020
-269,570	508,552	0,039	-0,066
-268,555	-200,000	0,000	-0,085
-267,540	191,586	-0,081	-0,089
-266,526	80,620	0,084	0,066
-265,511	-200,000	0,006	-0,042
-264,497	800,000	-0,028	-0,059
-263,482	-72,157	0,095	-0,026
-262,467	-200,000	0,017	0,070
-261,453	100,295	-0,109	-0,092
-260,438	5,244	-0,042	-0,023
-259,424	49,127	-0,100	-0,068
-258,409	-200,000	-0,006	0,058
-257,395	-36,078	0,091	0,036
-256,380	-200,000	0,063	0,248
-255,365	275,080	0,106	0,138
-254,351	312,130	0,047	-0,065
-253,336	-200,000	-0,039	-0,137
-252,322	-200,000	0,001	-0,093
-251,307	495,268	0,026	-0,045
-250,292	-200,000	0,001	-0,079
-249,278	509,016	0,028	-0,048
-248,263	520,364	0,030	0,051
-247,249	111,858	0,120	0,106
-246,234	21,444	0,059	0,035
-245,219	-92,446	0,100	-0,020
-244,205	-184,996	0,115	-0,001
-243,190	49,782	0,164	0,113
-242,176	576,366	-0,027	0,049
-241,161	787,055	0,050	0,102
-240,146	-61,612	0,063	0,019
-239,132	-85,985	-0,074	-0,017
-238,117	-31,619	-0,046	-0,019
-237,103	-157,908	-0,035	-0,002
-236,088	-81,668	-0,027	-0,006
-235,073	-48,456	0,029	0,010
-234,059	153,876	0,027	0,027
-233,044	-26,102	0,081	0,035
-232,030	-200,000	-0,030	0,135
-231,015	-7,564	-0,111	-0,055
-230,000	80,739	-0,086	-0,068
-228,986	800,000	-0,034	0,097
-227,971	-150,343	0,125	-0,007
-226,957	-200,000	-0,003	0,104
-225,942	-166,539	-0,026	0,001
-224,927	-157,814	-0,030	-0,001
-223,913	322,831	-0,099	-0,138
-222,898	12,957	-0,092	-0,052
-221,884	188,808	0,083	-0,090
-220,869	-135,518	-0,036	-0,003
-219,855	-28,824	0,036	0,015
-218,840	-200,000	-0,022	0,184
-217,825	299,672	0,037	-0,049
-216,811	800,000	-0,040	-0,089
-215,796	508,603	-0,091	-0,156
-214,782	53,790	0,054	-0,038
-213,767	-62,524	0,124	0,037
-212,752	-200,000	-0,012	-0,093
-211,738	-200,000	-0,018	-0,116
-210,723	800,000	0,008	0,016
-209,709	185,630	-0,063	0,069
-208,694	-200,000	-0,003	0,186
-207,679	-77,487	0,113	0,028
-206,665	1,822	-0,106	-0,056
-205,650	-200,000	0,006	0,037
-204,636	-200,000	-0,005	0,101
-203,621	800,000	-0,030	0,090
-202,606	54,216	-0,101	-0,071
-201,592	-200,000	0,025	0,121
-200,577	-200,000	-0,010	-0,083
-199,563	9,056	0,059	-0,033
-198,548	-17,800	0,044	0,020
-197,533	800,000	0,022	-0,064
-196,519	800,000	0,028	0,089
-195,504	-14,888	-0,049	0,023
-194,490	105,856	0,042	0,036
-193,475	-150,248	0,020	0,001
-192,460	327,620	-0,038	0,053
-191,446	283,816	-0,038	-0,050
-190,431	-115,713	0,124	0,017
-189,417	800,000	-0,026	0,082
-188,402	-95,661	-0,088	-0,017
-187,387	-71,944	-0,139	0,038
-186,373	-196,450	0,069	0,000
-185,358	-16,660	0,163	-0,075
-184,344	-44,570	-0,080	0,029
-183,329	-123,140	0,054	-0,006
-182,315	-200,000	-0,009	0,090
-181,300	381,373	-0,062	0,093
-180,285	-200,000	0,004	-0,132
-179,271	-200,000	0,018	-0,076
-178,256	800,000	0,045	-0,098
-177,242	36,246	0,064	0,041
-176,227	189,970	0,032	0,035
-175,212	48,147	0,081	-0,055
-174,198	-144,482	-0,060	-0,004
-173,183	160,877	-0,036	0,037
-172,169	-5,395	0,037	0,018
-171,154	800,000	0,073	-0,200
-170,139	52,709	0,113	0,079
-169,125	288,675	-0,036	-0,048
-168,110	-25,320	0,103	-0,044
-167,096	18,644	-0,123	0,072
-166,081	410,067	0,029	-0,046
-165,066	20,940	-0,189	-0,111
-164,052	-14,201	0,101	0,047
-163,037	800,000	0,029	-0,088
-162,023	-108,065	-0,082	0,013
-161,008	-102,996	0,084	-0,014
-159,993	43,566	-0,096	-0,064
-158,979	-200,000	0,020	0,118
-157,964	800,000	-0,023	0,062
-156,950	-74,600	-0,077	0,020
-155,935	-200,000	0,012	0,080
-154,920	38,214	0,095	0,061
-153,906	-6,308	-0,051	-0,025
-152,891	800,000	0,010	0,022
-151,877	54,253	-0,181	-0,126
-150,862	41,434	-0,097	-0,064
-149,847	800,000	0,062	-0,151
-148,833	-101,127	-0,050	0,009
-147,818	89,246	0,053	-0,043
-146,804	800,000	-0,018	0,050
-145,789	57,468	0,040	0,028
-144,775	-200,000	-0,001	0,071
-143,760	49,801	-0,075	0,051
-142,745	-200,000	-0,023	-0,097
-141,731	-194,492	-0,021	0,000
-140,716	684,408	0,041	0,079
-139,702	25,836	0,020	-0,012
-138,687	800,000	0,049	-0,131
-137,672	-200,000	0,013	-0,084
-136,658	-200,000	-0,011	-0,042
-135,643	-77,845	0,087	0,022
-134,629	234,981	-0,084	0,101
-133,614	53,993	0,095	-0,066
-132,599	-196,508	-0,160	0,001
-131,585	-63,456	-0,133	-0,040
-130,570	166,331	0,065	-0,068
-129,556	-19,703	-0,110	0,049
-128,541	-54,698	0,009	-0,003
-127,526	46,312	0,079	-0,053
-126,512	31,020	-0,083	0,051
-125,497	-200,000	0,005	0,048
-124,483	16,056	0,025	0,014
-123,468	230,304	-0,062	0,074
-122,453	130,053	0,062	0,058
-121,439	78,125	-0,112	-0,087
-120,424	-200,000	0,005	-0,147
-119,410	-80,244	-0,075	-0,018
-118,395	26,780	0,138	-0,084
-117,380	277,563	0,048	0,062
-116,366	24,026	0,090	0,054
-115,351	-200,000	0,009	-0,055
-114,337	685,979	-0,056	-0,107
-113,322	-200,000	0,049	-0,182
-112,307	-91,460	-0,097	-0,020
-111,293	800,000	-0,058	0,174
-110,278	-200,000	0,012	0,177
-109,264	800,000	-0,035	-0,106
-108,249	-90,514	0,069	0,014
-107,234	800,000	-0,014	-0,032
-106,220	-97,368	-0,063	0,012
-105,205	800,000	0,057	0,131
-104,191	200,645	0,030	-0,034
-103,176	-200,000	-0,025	0,127
-102,162	-200,000	0,005	0,071
-101,147	-200,000	-0,008	-0,065
-100,132	800,000	0,020	0,042
-99,118	77,502	-0,080	-0,062
-98,103	36,185	0,035	-0,023
-97,089	-32,958	0,098	0,039
-96,074	-200,000	0,016	0,151
-95,059	-200,000	-0,031	0,169
-94,045	-94,617	-0,113	0,022
-93,030	-200,000	-0,013	0,042
-92,016	131,436	-0,057	0,053
-91,001	64,233	-0,007	0,005
-89,986	-81,437	-0,035	0,008
-88,972	-175,807	0,097	0,002
-87,957	-200,000	-0,018	0,062
-86,943	-34,012	0,133	-0,053
-85,928	-33,825	-0,108	-0,043
-84,913	383,794	-0,032	-0,048
-83,899	800,000	0,049	0,104
-82,884	447,509	0,044	-0,071
-81,870	208,309	0,005	-0,006
-80,855	75,134	-0,048	0,037
-79,840	-200,000	-0,010	0,136
-78,826	-91,373	-0,112	0,023
-77,811	-84,633	-0,083	0,019
-76,797	33,066	0,025	-0,016
-75,782	295,558	-0,080	0,107
-74,767	-15,646	0,037	0,017
-73,753	-200,000	-0,020	0,141
-72,738	587,504	-0,029	0,051
-71,724	-80,360	-0,046	-0,011
-70,709	-200,000	-0,008	-0,099
-69,694	214,219	-0,098	0,113
-68,680	800,000	0,053	0,138
-67,665	26,086	0,117	0,071
-66,651	59,891	-0,055	-0,039
-65,636	505,161	0,040	0,068
-64,622	503,146	0,051	-0,087
-63,607	-91,851	-0,072	-0,015
-62,592	286,024	0,024	-0,031
-61,578	350,470	0,037	0,053
-60,563	-200,000	-0,004	0,062
-59,549	-3,178	-0,088	-0,045
-58,534	-150,260	-1,339	-0,074
-57,519	547,359	-0,871	-1,519
-56,505	-200,000	-0,946	-4,393
-55,490	68,799	0,581	-0,433
-54,476	800,000	4,976	11,872
-53,461	-200,000	13,618	253,069
-52,446	-200,000	690,145	2256,604
-51,432	589,337	1622,399	2914,128
-50,417	118,947	1634,599	1466,195
-49,403	73,058	1288,615	976,337
-48,388	37,946	1024,116	659,372
-47,373	24,256	981,778	587,084
-46,359	23,517	971,439	578,455
-45,344	22,520	967,310	572,714
-44,330	22,457	965,643	571,500
-43,315	22,337	964,294	570,286
-42,300	22,371	963,104	569,672
-41,286	22,343	962,304	569,083
-40,271	22,303	961,431	568,415
-39,257	22,333	960,278	567,809
-38,242	22,269	959,545	567,145
-37,227	22,258	958,566	566,507
-36,213	22,324	957,479	566,057
-35,198	22,193	956,870	565,250
-34,184	22,292	956,262	565,189
-33,169	22,255	955,359	564,514
-32,154	22,333	954,328	564,134
-31,140	22,345	953,430	563,620
-30,125	22,376	952,628	563,222
-29,111	22,301	951,966	562,568
-28,096	22,316	951,196	562,139
-27,082	22,386	950,498	561,929
-26,067	22,364	949,716	561,372
-25,052	22,360	948,974	560,901
-24,038	22,385	948,327	560,574
-23,023	22,310	947,736	559,964
-22,009	22,339	947,157	559,690
-20,994	22,419	946,529	559,553
-19,979	22,345	945,988	558,976
-18,965	22,318	945,240	558,426
-17,950	22,351	944,659	558,163
-16,936	22,276	944,080	557,561
-15,921	22,288	943,286	557,108
-14,906	22,220	942,519	556,418
-13,892	22,190	941,914	555,941
-12,877	22,153	941,392	555,495
-11,863	22,131	940,626	554,951
-10,848	22,228	940,048	554,895
-9,833	22,229	939,882	554,780
-8,819	22,264	939,219	554,476
-7,804	22,189	938,466	553,771
-6,790	22,156	937,844	553,278
-5,775	22,226	937,308	553,162
-4,760	22,221	936,638	552,727
-3,746	22,188	936,054	552,258
-2,731	22,062	935,315	551,403
-1,717	22,097	934,361	550,927
-0,702	22,038	933,953	550,480
0,313	21,818	933,464	550,329
1,327	24,973	931,295	558,921
2,342	34,793	795,864	503,794
3,356	32,861	451,640	282,959
4,371	1,520	294,138	152,969
5,386	-2,777	274,983	138,924
6,400	-4,420	269,062	134,395
7,415	-5,189	266,744	132,517
8,429	-4,665	265,489	132,363
9,444	-4,523	264,592	132,033
10,459	-4,679	264,023	131,595
11,473	-4,612	263,387	131,327
12,488	-4,798	262,919	130,914
13,502	-4,819	262,390	130,619
14,517	-4,705	261,928	130,480
15,531	-4,592	261,550	130,382
16,546	-4,520	261,156	130,240
17,561	-4,724	260,953	129,943
18,575	-4,565	260,633	129,915
19,590	-4,555	260,160	129,676
20,604	-4,693	259,943	129,434
21,619	-4,746	259,488	129,147
22,634	-4,707	259,274	129,064
23,648	-4,762	259,097	128,916
24,663	-4,593	258,589	128,802
25,677	-4,624	258,482	128,710
26,692	-4,637	258,261	128,577
27,707	-4,843	257,945	128,225
28,721	-4,668	257,544	128,169
29,736	-4,719	257,430	128,056
30,750	-4,941	257,300	127,783
31,765	-4,891	256,978	127,655
32,780	-4,744	256,762	127,667
33,794	-4,810	256,589	127,511
34,809	-4,917	256,320	127,272
35,823	-4,872	256,026	127,155
36,838	-4,916	255,678	126,932
37,853	-4,854	255,531	126,901
38,867	-4,761	255,435	126,924
39,882	-4,759	255,129	126,763
40,896	-4,741	254,947	126,677
41,911	-4,689	254,616	126,547
42,926	-4,907	254,411	126,243
43,940	-4,865	254,172	126,150
44,955	-5,101	254,013	125,853
45,969	-4,809	253,674	125,929
46,984	-5,183	253,606	125,558
47,999	-5,324	253,171	125,208
49,013	-5,379	252,819	124,975
50,028	-5,396	252,607	124,844
51,042	-5,550	252,373	124,583
52,057	-5,512	252,169	124,505
53,071	-5,628	252,033	124,326
54,086	-5,448	251,755	124,334
55,101	-5,323	251,726	124,417
56,115	-5,313	251,569	124,336
57,130	-4,911	251,634	124,706
58,144	-4,533	251,341	124,876
59,159	-4,515	251,237	124,828
60,174	-4,738	250,986	124,500
61,188	-4,556	250,702	124,505
62,203	-4,563	250,570	124,422
63,217	-4,850	250,320	124,040
64,232	-4,750	250,107	124,009
65,247	-4,623	249,838	123,974
66,261	-4,747	249,751	123,813
67,276	-5,015	249,516	123,456
68,290	-5,066	249,215	123,252
69,305	-5,193	248,848	122,952
70,320	-5,176	248,724	122,894
71,334	-5,055	248,665	122,957
72,349	-4,812	248,570	123,107
73,363	-4,622	248,331	123,140
74,378	-4,655	248,091	122,981
75,393	-4,622	247,753	122,831
76,407	-5,003	247,737	122,488
77,422	-4,724	247,457	122,575
78,436	-4,564	247,216	122,581
79,451	-4,768	246,992	122,286
80,466	-4,847	246,811	122,118
81,480	-4,954	246,586	121,906
82,495	-5,196	246,368	121,583
83,509	-5,016	246,256	121,669
84,524	-5,162	246,130	121,472
85,539	-5,141	245,723	121,278
86,553	-5,039	245,423	121,205
87,568	-4,980	245,481	121,273
88,582	-4,820	245,227	121,271
89,597	-5,005	245,053	121,019
90,611	-4,921	245,098	121,100
91,626	-4,802	244,751	121,018
92,641	-4,911	244,713	120,897
93,655	-4,977	244,483	120,717
94,670	-5,009	244,283	120,581
95,684	-4,890	243,980	120,520
96,699	-4,878	243,842	120,451
97,714	-4,920	243,505	120,239
98,728	-5,084	243,411	120,045
99,743	-5,092	243,139	119,894
100,757	-5,059	242,966	119,825
101,772	-5,180	242,796	119,630
102,787	-5,086	242,557	119,580
103,801	-4,941	242,531	119,677
104,816	-4,845	242,426	119,694
105,830	-4,725	242,152	119,647
106,845	-4,790	242,107	119,560
107,860	-4,740	241,859	119,469
108,874	-4,797	241,613	119,289
109,889	-5,112	241,423	118,925
110,903	-5,026	241,183	118,867
111,918	-5,013	241,037	118,795
112,933	-4,948	240,984	118,813
113,947	-4,983	240,827	118,695
114,962	-4,780	240,614	118,747
115,976	-4,788	240,444	118,645
116,991	-4,764	240,288	118,578
118,006	-4,997	240,323	118,393
119,020	-5,005	239,974	118,204
120,035	-4,797	239,960	118,358
121,049	-4,673	239,641	118,291
122,064	-4,927	239,565	118,035
123,079	-4,928	239,179	117,833
124,093	-4,919	239,003	117,744
125,108	-5,109	238,772	117,464
126,122	-5,291	238,577	117,210
127,137	-4,963	238,383	117,371
128,151	-5,161	238,149	117,084
129,166	-5,039	238,146	117,171
130,181	-5,110	237,833	116,950
131,195	-5,113	237,672	116,858
132,210	-5,009	237,659	116,925
133,224	-4,859	237,330	116,874
134,239	-5,102	237,281	116,643
135,254	-4,760	237,229	116,884
136,268	-4,977	236,858	116,515
137,283	-5,016	236,573	116,333
138,297	-5,488	236,418	115,866
139,312	-5,399	236,286	115,862
140,327	-4,985	236,233	116,160
141,341	-4,707	236,134	116,325
142,356	-4,551	236,028	116,388
143,370	-4,669	235,879	116,209
144,385	-4,327	235,646	116,359
145,400	-4,376	235,470	116,222
146,414	-4,578	235,383	116,006
147,429	-4,382	235,098	116,012
148,443	-4,712	235,065	115,721
149,458	-4,390	234,873	115,874
150,473	-4,540	234,579	115,600
151,487	-4,683	234,570	115,471
152,502	-4,617	234,184	115,323
153,516	-4,490	234,238	115,441
154,531	-4,630	234,145	115,272
155,546	-4,702	234,004	115,135
156,560	-4,613	233,685	115,039
157,575	-4,827	233,476	114,756
158,589	-4,743	233,166	114,660
159,604	-4,457	233,277	114,932
160,619	-4,452	233,094	114,835
161,633	-4,350	232,842	114,781
162,648	-4,495	232,736	114,604
163,662	-4,648	232,606	114,408
164,677	-4,736	232,428	114,242
165,692	-4,644	232,379	114,280
166,706	-4,334	232,200	114,426
167,721	-4,274	231,976	114,353
168,735	-4,214	231,734	114,271
169,750	-4,482	231,756	114,060
170,764	-4,405	231,577	114,023
171,779	-4,492	231,355	113,835
172,794	-4,580	231,379	113,768
173,808	-4,329	230,929	113,733
174,823	-4,991	230,780	113,130
175,837	-5,169	230,473	112,830
176,852	-4,809	230,470	113,100
177,867	-4,696	230,435	113,162
178,881	-4,244	230,117	113,349
179,896	-4,448	230,124	113,183
180,910	-4,664	230,060	112,973
181,925	-4,340	229,793	113,084
182,940	-4,367	229,701	113,007
183,954	-4,227	229,386	112,952
184,969	-4,481	229,460	112,780
185,983	-4,245	229,239	112,846
186,998	-4,332	229,226	112,762
188,013	-4,229	228,894	112,668
189,027	-4,081	228,636	112,646
190,042	-4,310	228,573	112,427
191,056	-4,324	228,370	112,306
192,071	-4,480	228,296	112,139
193,086	-4,491	228,129	112,038
194,100	-4,380	228,027	112,064
195,115	-4,666	227,521	111,584
196,129	-5,358	227,427	110,994
197,144	-2,041	228,232	113,947
198,159	2,008	229,589	117,761
199,173	4,249	230,070	119,740
200,188	4,351	230,001	119,772
201,202	4,466	229,862	119,779
202,217	4,325	229,702	119,575
203,232	4,584	229,565	119,693
204,246	4,793	229,571	119,848
205,261	4,845	229,379	119,777
206,275	4,987	229,270	119,820
207,290	4,936	229,098	119,679
208,304	5,117	228,816	119,661
209,319	4,757	228,733	119,330
210,334	5,008	228,523	119,402
211,348	4,689	228,302	119,031
212,363	4,344	228,017	118,607
213,377	4,250	227,604	118,309
214,392	4,141	227,596	118,211
215,407	4,185	227,717	118,296
216,421	4,163	227,520	118,167
217,436	4,042	227,175	117,885
218,450	3,908	227,016	117,689
219,465	3,764	226,897	117,507
220,480	4,088	226,794	117,691
221,494	3,794	226,591	117,350
222,509	4,171	226,350	117,503
223,523	4,246	226,370	117,560
224,538	4,097	226,123	117,308
225,553	3,976	226,076	117,181
226,567	4,220	225,923	117,276
227,582	4,286	225,900	117,304
228,596	4,651	225,719	117,477
229,611	4,146	225,596	117,019
230,626	4,028	225,321	116,777
231,640	4,172	225,213	116,819
232,655	4,280	224,993	116,777
233,669	4,781	225,051	117,175
234,684	4,903	224,861	117,159
235,699	4,538	224,576	116,724
236,713	3,948	224,694	116,329
237,728	4,125	224,249	116,222
238,742	3,972	224,230	116,085
239,757	4,035	224,045	116,028
240,772	4,129	223,880	116,002
241,786	4,295	223,694	116,020
242,801	4,256	223,684	115,976
243,815	4,580	223,604	116,168
244,830	4,554	223,451	116,058
245,844	4,195	223,244	115,671
246,859	3,985	223,022	115,388
247,874	4,510	222,843	115,678
248,888	4,560	222,754	115,659
249,903	4,355	222,622	115,427
250,917	4,192	222,411	115,186
251,932	4,190	222,265	115,098
252,947	4,051	222,155	114,927
253,961	4,003	221,908	114,754
254,976	4,123	221,773	114,762
255,990	4,306	221,731	114,866
257,005	4,306	221,642	114,811
258,020	4,436	221,567	114,858
259,034	4,751	221,347	114,968
260,049	4,548	221,238	114,751
261,063	4,494	221,051	114,603
262,078	4,265	221,079	114,437
263,093	4,594	220,964	114,612
264,107	4,512	220,673	114,390
265,122	4,169	220,657	114,117
266,136	4,366	220,534	114,189
267,151	4,564	220,297	114,203
268,166	4,221	220,053	113,813
269,180	3,892	219,837	113,448
270,195	3,898	219,623	113,332
271,209	4,126	219,494	113,423
272,224	3,892	219,508	113,248
273,239	4,290	219,171	113,357
274,253	4,050	219,135	113,152
275,268	3,765	218,920	112,821
276,282	3,723	218,846	112,742
277,297	3,754	218,565	112,610
278,312	3,817	218,628	112,679
279,326	4,050	218,477	112,761
280,341	3,966	218,331	112,615
281,355	4,052	218,254	112,628
282,370	4,090	217,898	112,462
283,384	4,021	217,830	112,367
284,399	3,926	217,638	112,189
285,414	3,963	217,548	112,158
286,428	4,180	217,428	112,245
287,443	4,364	217,381	112,345
288,457	4,324	217,282	112,254
289,472	4,276	216,880	112,002
290,487	3,702	216,784	111,526
291,501	3,644	216,567	111,361
292,516	3,855	216,509	111,475
293,530	3,948	216,329	111,440
294,545	3,840	216,302	111,337
295,560	4,097	216,159	111,440
296,574	3,828	216,121	111,216
297,589	4,164	215,939	111,355
298,603	4,208	215,856	111,334
299,618	4,147	215,628	111,163
300,633	4,101	215,531	111,070
301,647	4,287	215,618	111,238
302,662	4,355	215,412	111,172
303,676	4,349	215,151	111,022
304,691	3,890	215,131	110,672
305,706	4,432	214,879	110,922
306,720	4,544	214,709	110,905
307,735	4,146	214,708	110,608
308,749	4,007	214,508	110,396
309,764	4,285	214,280	110,468
310,779	4,478	214,149	110,529
311,793	4,148	214,139	110,278
312,808	4,483	213,948	110,409
313,822	4,322	213,784	110,199
314,837	4,349	213,556	110,092
315,852	3,938	213,398	109,707
316,866	4,029	213,375	109,750
317,881	4,361	213,289	109,933
318,895	4,329	213,081	109,793
319,910	4,190	212,863	109,572
320,925	4,077	212,682	109,389
321,939	3,932	212,485	109,175
322,954	3,852	212,495	109,113
323,968	4,160	212,413	109,280
324,983	4,203	212,347	109,267
325,997	4,332	212,203	109,275
327,012	4,225	212,066	109,118
328,027	3,959	211,897	108,833
329,041	4,562	211,843	109,223
330,056	4,673	211,704	109,220
331,070	4,117	211,491	108,708
332,085	3,993	211,183	108,452
333,100	4,252	211,050	108,556
334,114	4,063	210,984	108,380
335,129	4,130	210,792	108,319
336,143	3,994	210,641	108,136
337,158	3,722	210,525	107,876
338,173	3,953	210,398	107,963
339,187	3,885	210,267	107,838
340,202	3,791	210,075	107,665
341,216	3,861	210,028	107,680
342,231	3,997	209,981	107,741
343,246	4,053	209,820	107,689
344,260	4,219	209,744	107,756
345,275	3,960	209,551	107,466
346,289	4,055	209,425	107,458
347,304	4,236	209,171	107,444
348,319	4,146	209,182	107,378
349,333	4,146	209,088	107,320
350,348	4,189	208,880	107,234
351,362	4,229	208,852	107,238
352,377	4,399	208,739	107,288
353,392	4,221	208,533	107,049
354,406	4,321	208,312	106,995
355,421	194,266	1343,901	1433,806
356,435	155,021	1482,358	1433,921
