DTS Sentinel unit serial number:	SN410029Multiplexer serial number:	ORYXHardware model number:	OX2-SRSoftware version number:	ORYX F/W v4,00 Oryx Data Collector v3.7.2.0data status	okinstallation	B6 Nyhavnadifferential loss correction	single-endedforward channel	channel 2reverse channel	N/Adate	2023/12/10time	14:40:08forward acquisition time	300,00reverse acquisition time	0,00gamma	499,1914k internal	0,3122k external	0,3122temperature offset calibration	1,0000default loss term (dB/km)	0,3820temperature slope calibration	1,0000multiplexer offset coefficient	1,0000multiplexer slope coefficient	1,0000fibre end	0,00T internal ref (°C)	22,57T ext. ref 1 (°C)	6,06T ext. ref 2 (°C)	6,05length (m)	temperature (°C)	Stokes	anti-Stokes-744,400	581,235	-0,029	0,053
-743,385	42,246	-0,146	0,099
-742,371	62,055	0,112	0,083
-741,356	121,590	-0,138	0,128
-740,342	-200,000	0,007	0,049
-739,327	60,748	-0,196	0,145
-738,312	-200,000	0,019	0,102
-737,298	-63,780	-0,211	-0,064
-736,283	-200,000	-0,026	-0,157
-735,269	-121,852	-0,273	0,033
-734,254	-86,411	0,139	0,031
-733,239	-64,321	-0,439	-0,132
-732,225	-21,969	0,101	0,046
-731,210	300,904	0,055	0,076
-730,196	-65,210	-0,143	0,043
-729,181	-200,000	0,010	0,074
-728,167	-36,423	0,078	-0,031
-727,152	-200,000	0,004	-0,026
-726,137	-19,725	-0,052	0,024
-725,123	-44,337	-0,156	-0,058
-724,108	649,600	-0,041	-0,078
-723,094	117,374	-0,148	-0,135
-722,079	752,162	0,034	0,069
-721,064	800,000	-0,020	-0,061
-720,050	-72,934	-0,018	-0,005
-719,035	354,369	-0,079	0,117
-718,021	12,027	-0,071	0,041
-717,006	-200,000	0,005	0,018
-715,991	249,082	-0,127	-0,160
-714,977	-18,188	0,118	-0,055
-713,962	80,711	-0,133	0,107
-712,948	217,739	0,063	-0,075
-711,933	219,674	-0,059	0,071
-710,918	196,024	-0,159	0,180
-709,904	-72,237	-0,074	-0,020
-708,889	-195,424	-0,137	-0,001
-707,875	37,886	-0,140	-0,093
-706,860	112,931	0,022	0,019
-705,845	-200,000	-0,006	-0,063
-704,831	-200,000	0,011	-0,115
-703,816	370,443	-0,045	0,069
-702,802	-200,000	-0,001	-0,018
-701,787	-2,237	0,079	-0,041
-700,772	-191,334	-0,084	-0,001
-699,758	-50,381	0,117	-0,041
-698,743	45,690	0,057	-0,039
-697,729	77,985	-0,066	-0,052
-696,714	519,406	0,032	0,056
-695,699	-51,679	-0,035	-0,012
-694,685	-200,000	0,018	-0,059
-693,670	508,524	-0,057	-0,098
-692,656	-200,000	0,010	0,070
-691,641	-162,206	-0,214	0,008
-690,627	-39,437	-0,018	-0,007
-689,612	-102,873	-0,129	0,023
-688,597	-11,290	0,047	0,023
-687,583	71,394	-0,109	-0,084
-686,568	-190,295	-0,139	0,001
-685,554	-67,521	0,065	0,019
-684,539	119,083	-0,006	-0,006
-683,524	361,249	-0,029	-0,044
-682,510	-151,098	0,011	-0,001
-681,495	360,163	0,028	-0,041
-680,481	800,000	-0,038	-0,115
-679,466	-129,283	-0,061	0,006
-678,451	124,820	-0,063	0,059
-677,437	167,614	0,035	-0,037
-676,422	18,821	0,086	-0,051
-675,408	-200,000	-0,022	0,073
-674,393	-59,545	-0,035	0,011
-673,378	104,453	-0,084	0,073
-672,364	-200,000	-0,016	-0,074
-671,349	104,846	0,070	0,062
-670,335	-200,000	-0,026	0,119
-669,320	-200,000	-0,004	-0,108
-668,305	-200,000	-0,001	0,073
-667,291	-0,584	-0,106	0,056
-666,276	39,343	-0,110	0,073
-665,262	81,114	0,085	-0,068
-664,247	-129,245	0,047	-0,005
-663,232	800,000	0,013	0,041
-662,218	118,280	-0,064	-0,059
-661,203	128,005	0,134	-0,126
-660,189	-65,469	-0,052	-0,015
-659,174	53,803	-0,068	-0,048
-658,159	800,000	-0,038	0,084
-657,145	49,491	0,051	-0,036
-656,130	-164,764	-0,151	-0,005
-655,116	69,755	0,050	0,038
-654,101	175,328	0,019	-0,021
-653,086	800,000	-0,044	0,098
-652,072	-200,000	-0,002	-0,052
-651,057	800,000	-0,016	-0,035
-650,043	800,000	0,029	-0,065
-649,028	131,163	-0,058	-0,056
-648,014	-200,000	0,013	0,078
-646,999	-119,990	0,132	0,017
-645,984	-19,664	-0,069	0,031
-644,970	324,566	0,058	-0,082
-643,955	163,535	-0,046	-0,048
-642,941	-200,000	0,013	-0,102
-641,926	224,365	-0,015	0,018
-640,911	-200,000	0,005	0,035
-639,897	-200,000	0,035	0,162
-638,882	-92,779	0,050	-0,010
-637,868	-88,304	0,070	-0,016
-636,853	800,000	-0,052	-0,111
-635,838	95,604	0,037	0,031
-634,824	-70,019	0,041	-0,011
-633,809	244,864	-0,026	0,032
-632,795	-138,787	-0,043	0,003
-631,780	-8,048	-0,075	0,037
-630,765	149,586	-0,124	-0,125
-629,751	-200,000	-0,009	-0,120
-628,736	-200,000	-0,002	-0,134
-627,722	181,278	0,004	0,004
-626,707	152,339	0,028	0,029
-625,692	52,917	-0,053	-0,037
-624,678	28,941	0,008	0,005
-623,663	-200,000	0,013	-0,051
-622,649	157,920	0,021	-0,022
-621,634	-108,345	-0,083	-0,013
-620,619	800,000	-0,031	0,083
-619,605	152,770	0,076	0,077
-618,590	-43,330	0,106	-0,040
-617,576	297,747	0,018	0,025
-616,561	390,358	-0,053	-0,083
-615,546	800,000	0,025	-0,073
-614,532	-200,000	-0,013	-0,081
-613,517	362,689	-0,020	-0,031
-612,503	163,709	0,021	0,022
-611,488	-161,968	0,133	0,005
-610,474	18,850	0,147	-0,087
-609,459	-113,478	-0,188	0,027
-608,444	-109,972	-0,022	-0,003
-607,430	-112,237	-0,019	0,003
-606,415	538,060	-0,046	-0,081
-605,401	-26,991	0,028	0,012
-604,386	355,073	0,080	0,118
-603,371	-68,045	-0,135	-0,039
-602,357	285,040	-0,012	-0,016
-601,342	-200,000	-0,000	-0,007
-600,328	-45,399	-0,052	-0,019
-599,313	-200,000	-0,007	-0,047
-598,298	42,237	0,037	-0,025
-597,284	800,000	-0,027	-0,075
-596,269	-118,661	0,061	-0,008
-595,255	-84,133	-0,090	-0,021
-594,240	-62,052	-0,070	0,021
-593,225	800,000	-0,059	0,140
-592,211	800,000	-0,024	-0,064
-591,196	64,882	-0,040	-0,030
-590,182	-200,000	0,002	0,019
-589,167	88,376	-0,028	-0,023
-588,152	77,343	0,065	0,051
-587,138	-65,857	0,095	-0,028
-586,123	389,095	-0,025	-0,039
-585,109	-200,000	-0,012	0,091
-584,094	-139,485	-0,128	-0,010
-583,079	-200,000	-0,008	-0,032
-582,065	800,000	0,011	0,031
-581,050	639,073	0,073	-0,139
-580,036	-63,134	0,067	0,020
-579,021	-93,903	0,104	0,021
-578,006	-200,000	-0,004	-0,078
-576,992	-200,000	0,020	-0,088
-575,977	124,777	0,092	0,086
-574,963	22,252	0,021	-0,013
-573,948	-196,597	-0,100	0,000
-572,934	-139,691	-0,086	-0,007
-571,919	800,000	-0,063	-0,151
-570,904	-37,310	0,073	-0,029
-569,890	149,772	0,136	-0,136
-568,875	-200,000	-0,011	-0,075
-567,861	-200,000	0,012	0,097
-566,846	-54,989	0,180	0,060
-565,831	6,536	-0,131	-0,072
-564,817	269,432	-0,103	-0,134
-563,802	199,278	-0,108	0,123
-562,788	-200,000	0,049	-0,164
-561,773	800,000	0,038	0,098
-560,758	-200,000	0,004	0,115
-559,744	-3,515	0,090	0,046
-558,729	-200,000	-0,019	0,068
-557,715	-110,415	-0,026	-0,004
-556,700	-200,000	-0,018	-0,077
-555,685	172,174	-0,073	-0,078
-554,671	62,197	0,044	0,033
-553,656	22,343	-0,051	-0,031
-552,642	-108,954	0,151	0,024
-551,627	106,444	0,027	-0,023
-550,612	337,471	-0,041	-0,059
-549,598	-57,058	-0,079	0,026
-548,583	-90,453	0,039	-0,008
-547,569	151,550	0,058	0,059
-546,554	-200,000	-0,001	0,042
-545,539	99,976	0,115	0,099
-544,525	-121,308	0,058	0,007
-543,510	366,014	-0,034	-0,051
-542,496	9,916	0,043	-0,024
-541,481	-48,908	0,079	0,028
-540,466	213,293	0,089	-0,104
-539,452	-136,610	-0,079	-0,007
-538,437	55,631	-0,060	-0,043
-537,423	39,928	-0,030	0,020
-536,408	100,298	0,040	0,034
-535,393	-56,851	-0,131	0,042
-534,379	-200,000	0,053	-0,199
-533,364	101,844	-0,065	0,056
-532,350	-26,286	-0,021	0,009
-531,335	-200,000	0,043	-0,158
-530,321	17,144	-0,047	-0,028
-529,306	253,837	-0,038	0,048
-528,291	-88,491	-0,098	-0,021
-527,277	-200,000	0,000	-0,078
-526,262	-8,546	-0,040	0,020
-525,248	-200,000	0,007	0,045
-524,233	-200,000	-0,019	0,135
-523,218	-200,000	-0,011	-0,065
-522,204	-200,000	0,028	-0,100
-521,189	800,000	0,035	0,091
-520,175	220,101	0,078	0,092
-519,160	217,151	-0,008	0,009
-518,145	99,235	-0,057	-0,049
-517,131	-75,754	-0,041	0,011
-516,116	-51,772	-0,060	-0,021
-515,102	-121,093	-0,039	0,005
-514,087	-30,961	-0,140	0,058
-513,072	-138,726	-0,177	-0,014
-512,058	-79,571	-0,091	-0,022
-511,043	-200,000	0,006	0,024
-510,029	29,903	0,078	0,049
-509,014	-200,000	0,010	0,045
-507,999	-200,000	-0,005	0,064
-506,985	106,548	0,062	0,054
-505,970	555,600	-0,066	-0,118
-504,956	-153,232	-0,120	0,006
-503,941	-200,000	-0,015	0,051
-502,926	-200,000	0,052	0,169
-501,912	-82,594	0,108	-0,026
-500,897	154,826	0,059	0,060
-499,883	513,938	-0,016	0,027
-498,868	-63,748	-0,146	-0,044
-497,853	622,302	0,014	-0,027
-496,839	577,013	-0,037	-0,068
-495,824	-129,106	0,217	0,022
-494,810	349,195	0,006	-0,009
-493,795	505,020	-0,068	0,117
-492,781	84,588	-0,036	-0,029
-491,766	291,431	-0,091	0,122
-490,751	182,995	-0,108	-0,118
-489,737	263,915	-0,094	0,121
-488,722	260,438	-0,087	0,111
-487,708	-90,432	-0,082	0,017
-486,693	-89,761	0,033	-0,007
-485,678	-200,000	0,007	-0,056
-484,664	-72,256	-0,122	-0,033
-483,649	174,655	-0,068	-0,073
-482,635	-168,895	0,113	0,003
-481,620	800,000	-0,028	0,076
-480,605	44,960	0,033	0,022
-479,591	800,000	0,032	0,082
-478,576	0,041	-0,078	-0,041
-477,562	432,201	-0,030	-0,047
-476,547	287,523	-0,050	-0,066
-475,532	52,425	-0,070	-0,049
-474,518	-151,766	-0,098	-0,005
-473,503	-155,971	0,213	-0,010
-472,489	-200,000	-0,010	0,055
-471,474	134,298	0,082	-0,079
-470,459	-110,720	-0,038	-0,006
-469,445	386,208	-0,027	0,041
-468,430	35,081	0,057	0,037
-467,416	-177,832	-0,095	0,002
-466,401	178,935	-0,041	-0,044
-465,386	-84,628	-0,041	-0,009
-464,372	553,353	0,047	-0,083
-463,357	-94,447	-0,081	-0,016
-462,343	-200,000	-0,063	-0,260
-461,328	90,540	-0,053	-0,044
-460,313	800,000	-0,035	-0,088
-459,299	21,709	0,045	0,027
-458,284	-200,000	0,015	0,074
-457,270	-141,882	0,055	0,004
-456,255	-200,000	-0,015	-0,125
-455,241	144,452	0,040	0,039
-454,226	21,829	-0,124	-0,074
-453,211	-67,017	0,081	0,023
-452,197	415,779	0,046	0,072
-451,182	132,091	-0,048	-0,046
-450,168	-200,000	-0,070	0,275
-449,153	-143,415	-0,103	0,007
-448,138	-200,000	0,014	-0,112
-447,124	-46,518	-0,068	-0,025
-446,109	800,000	0,025	-0,059
-445,095	-200,000	0,003	0,032
-444,080	18,847	0,159	0,093
-443,065	-90,437	0,157	0,033
-442,051	-79,062	0,074	0,018
-441,036	54,373	0,014	0,010
-440,022	-200,000	0,031	0,133
-439,007	-190,826	0,139	-0,001
-437,992	-117,177	0,088	-0,012
-436,978	309,990	0,098	0,135
-435,963	-200,000	-0,024	0,099
-434,949	124,654	-0,034	-0,031
-433,934	-200,000	-0,000	0,018
-432,919	-9,096	-0,200	-0,098
-431,905	276,126	-0,021	-0,027
-430,890	-24,536	0,063	0,028
-429,876	332,537	-0,093	0,133
-428,861	87,514	0,101	0,082
-427,846	-159,639	-0,109	0,004
-426,832	344,906	-0,047	0,068
-425,817	-46,775	-0,091	-0,033
-424,803	800,000	0,050	-0,122
-423,788	206,480	0,048	-0,055
-422,773	-5,717	0,071	0,036
-421,759	800,000	-0,042	0,123
-420,744	800,000	-0,014	0,032
-419,730	112,811	0,076	-0,068
-418,715	-38,418	0,108	-0,042
-417,701	31,022	-0,120	-0,076
-416,686	346,860	0,016	0,023
-415,671	-200,000	-0,008	-0,140
-414,657	-200,000	0,004	-0,078
-413,642	706,142	-0,038	0,075
-412,628	-63,431	-0,087	-0,026
-411,613	72,959	-0,025	-0,019
-410,598	800,000	-0,042	-0,096
-409,584	-200,000	0,006	-0,032
-408,569	288,709	-0,097	0,130
-407,555	-14,507	-0,033	0,015
-406,540	32,547	-0,013	0,008
-405,525	27,774	-0,118	-0,073
-404,511	-200,000	0,002	0,045
-403,496	-36,203	-0,138	-0,054
-402,482	-38,854	0,243	0,094
-401,467	-200,000	-0,009	0,085
-400,452	-200,000	-0,012	0,050
-399,438	99,414	-0,020	-0,017
-398,423	370,409	0,021	-0,031
-397,409	800,000	0,038	0,088
-396,394	-200,000	-0,027	0,109
-395,379	-200,000	-0,000	-0,130
-394,365	-175,426	0,065	-0,001
-393,350	800,000	-0,075	0,203
-392,336	-200,000	-0,008	0,031
-391,321	800,000	0,028	0,067
-390,306	546,536	0,045	-0,079
-389,292	-200,000	0,024	-0,106
-388,277	-114,839	-0,078	-0,011
-387,263	291,290	0,067	0,090
-386,248	2,925	-0,010	0,006
-385,233	4,247	0,111	0,060
-384,219	-200,000	0,035	0,117
-383,204	-50,902	-0,086	0,029
-382,190	-79,370	0,051	-0,012
-381,175	799,176	-0,032	-0,065
-380,160	800,000	0,050	0,108
-379,146	-168,461	0,045	0,001
-378,131	-158,215	0,066	-0,003
-377,117	-200,000	-0,007	0,075
-376,102	800,000	0,037	-0,092
-375,088	302,304	0,064	-0,088
-374,073	108,332	0,133	-0,117
-373,058	-200,000	0,005	0,049
-372,044	-200,000	-0,006	-0,067
-371,029	-29,784	0,132	-0,055
-370,015	-84,321	0,015	0,003
-369,000	-200,000	0,003	0,112
-367,985	-32,037	-0,114	0,046
-366,971	240,126	0,079	-0,097
-365,956	-200,000	-0,009	0,054
-364,942	273,927	0,102	-0,132
-363,927	-200,000	0,015	0,052
-362,912	266,588	-0,034	0,044
-361,898	98,833	-0,103	-0,087
-360,883	-57,903	0,023	-0,007
-359,869	-7,146	-0,059	-0,029
-358,854	208,556	-0,030	-0,035
-357,839	800,000	0,026	-0,081
-356,825	-75,736	0,072	-0,019
-355,810	107,824	0,015	0,013
-354,796	141,569	0,078	-0,075
-353,781	-200,000	0,002	-0,091
-352,766	708,337	0,013	-0,026
-351,752	450,122	0,096	-0,156
-350,737	-73,616	0,082	-0,022
-349,723	226,355	-0,059	-0,070
-348,708	183,656	-0,076	-0,083
-347,693	-130,458	-0,121	0,012
-346,679	315,140	-0,032	-0,045
-345,664	800,000	0,007	-0,022
-344,650	-170,175	-0,108	0,003
-343,635	800,000	-0,069	0,143
-342,620	-101,416	0,014	0,002
-341,606	-136,177	0,079	0,007
-340,591	258,302	0,065	-0,083
-339,577	147,460	0,049	-0,049
-338,562	26,787	-0,088	-0,054
-337,548	-29,419	0,058	-0,024
-336,533	-23,022	0,117	0,051
-335,518	31,217	0,047	0,030
-334,504	-200,000	0,008	0,073
-333,489	-200,000	-0,012	0,045
-332,475	210,274	0,065	0,075
-331,460	-200,000	-0,016	0,062
-330,445	-200,000	0,005	0,028
-329,431	552,854	0,006	-0,011
-328,416	-95,299	0,075	-0,015
-327,402	800,000	0,022	0,046
-326,387	-107,277	0,081	0,013
-325,372	-59,469	-0,102	-0,032
-324,358	342,129	0,030	-0,044
-323,343	234,405	-0,106	-0,128
-322,329	-200,000	-0,006	-0,108
-321,314	800,000	0,014	0,036
-320,299	295,157	0,034	-0,045
-319,285	299,444	-0,020	0,027
-318,270	-1,929	-0,096	-0,049
-317,256	233,538	-0,061	-0,073
-316,241	383,840	-0,035	-0,054
-315,226	-56,553	0,061	-0,020
-314,212	-200,000	0,018	0,104
-313,197	-200,000	0,025	-0,162
-312,183	362,065	0,021	-0,030
-311,168	179,745	-0,007	0,008
-310,153	-200,000	0,001	0,035
-309,139	-54,740	0,062	0,020
-308,124	-26,951	-0,177	-0,075
-307,110	115,203	0,093	0,083
-306,095	54,447	-0,069	0,049
-305,080	-50,681	0,089	-0,031
-304,066	96,501	0,046	0,039
-303,051	-71,223	-0,043	0,012
-302,037	800,000	0,014	-0,042
-301,022	40,420	-0,030	0,020
-300,008	-200,000	-0,004	0,166
-298,993	532,990	0,024	-0,042
-297,978	-112,337	0,144	0,021
-296,964	77,532	-0,079	0,062
-295,949	147,107	-0,116	-0,115
-294,935	-17,619	-0,060	-0,027
-293,920	143,832	-0,031	-0,031
-292,905	800,000	-0,032	0,074
-291,891	730,674	0,024	-0,046
-290,876	177,826	-0,071	-0,076
-289,862	-67,851	0,055	-0,015
-288,847	-200,000	0,004	-0,016
-287,832	400,169	-0,040	-0,062
-286,818	402,357	0,024	0,038
-285,803	103,959	0,122	0,105
-284,789	69,425	0,126	-0,095
-283,774	261,988	-0,010	0,012
-282,759	455,332	0,064	0,105
-281,745	101,639	0,046	0,039
-280,730	-84,092	-0,180	0,042
-279,716	459,558	0,020	-0,034
-278,701	-96,351	0,190	-0,036
-277,686	800,000	-0,017	0,035
-276,672	502,059	0,011	-0,019
-275,657	59,647	0,076	-0,055
-274,643	-59,707	-0,048	-0,015
-273,628	560,325	0,009	-0,015
-272,613	-43,759	-0,036	0,013
-271,599	75,577	0,060	-0,046
-270,584	800,000	0,030	0,090
-269,570	-46,137	0,042	0,015
-268,555	-51,821	-0,049	0,017
-267,540	268,802	-0,041	-0,053
-266,526	194,081	-0,081	-0,090
-265,511	-90,542	0,047	0,010
-264,497	-47,528	0,072	-0,025
-263,482	41,904	0,038	0,025
-262,467	742,100	0,039	-0,078
-261,453	212,928	-0,011	-0,013
-260,438	188,796	-0,017	0,018
-259,424	-108,877	0,031	-0,005
-258,409	112,972	0,033	0,029
-257,395	117,969	-0,050	0,045
-256,380	-80,814	-0,052	-0,012
-255,365	-44,879	0,052	0,019
-254,351	186,336	0,013	0,014
-253,336	2,066	0,055	0,029
-252,322	241,841	0,052	0,064
-251,307	800,000	-0,025	0,059
-250,292	-200,000	-0,004	0,016
-249,278	800,000	-0,025	0,066
-248,263	-72,839	-0,091	0,024
-247,249	-200,000	0,027	0,134
-246,234	10,377	0,061	-0,034
-245,219	385,691	-0,109	-0,166
-244,205	-61,032	0,043	-0,013
-243,190	287,578	0,063	-0,084
-242,176	496,548	-0,048	0,081
-241,161	-118,027	0,165	0,021
-240,146	107,126	-0,075	0,065
-239,132	121,819	0,061	0,055
-238,117	18,748	-0,049	-0,029
-237,103	-200,000	-0,014	0,074
-236,088	263,888	-0,056	0,071
-235,073	-86,006	-0,124	-0,028
-234,059	-200,000	-0,020	0,068
-233,044	800,000	-0,034	0,077
-232,030	27,820	0,045	0,027
-231,015	116,690	0,030	0,027
-230,000	130,739	0,136	0,127
-228,986	87,513	0,029	-0,023
-227,971	-48,643	-0,075	-0,026
-226,957	-200,000	-0,005	0,023
-225,942	-107,309	-0,049	0,008
-224,927	528,376	-0,022	0,037
-223,913	169,231	-0,119	-0,125
-222,898	23,234	-0,070	0,042
-221,884	800,000	0,047	0,095
-220,869	-162,443	0,129	0,005
-219,855	-58,039	0,068	0,021
-218,840	-31,408	0,056	0,023
-217,825	-97,864	0,091	-0,017
-216,811	-200,000	0,008	0,043
-215,796	31,790	-0,041	0,026
-214,782	247,794	-0,058	0,072
-213,767	-51,203	0,186	-0,063
-212,752	-47,690	-0,135	0,048
-211,738	512,941	0,055	0,093
-210,723	-38,028	0,107	0,041
-209,709	279,206	0,101	-0,132
-208,694	43,027	-0,036	-0,024
-207,679	246,089	-0,065	0,080
-206,665	29,369	-0,068	-0,042
-205,650	98,204	0,017	-0,014
-204,636	800,000	0,021	0,062
-203,621	-61,376	-0,030	0,009
-202,606	4,634	-0,056	0,030
-201,592	264,934	-0,048	-0,061
-200,577	800,000	0,032	-0,070
-199,563	-126,928	-0,160	0,017
-198,548	-59,523	0,184	0,057
-197,533	114,430	-0,014	0,012
-196,519	-145,805	0,148	0,009
-195,504	-74,172	-0,010	0,003
-194,490	-131,358	0,063	0,006
-193,475	776,159	-0,096	-0,193
-192,460	64,248	-0,109	-0,080
-191,446	-200,000	-0,001	0,147
-190,431	-2,965	0,118	0,060
-189,417	-25,776	-0,024	-0,010
-188,402	-120,716	0,091	0,011
-187,387	800,000	-0,046	0,103
-186,373	93,042	0,032	0,027
-185,358	800,000	0,013	0,029
-184,344	-10,296	0,021	0,010
-183,329	-98,758	-0,157	0,029
-182,315	396,266	-0,055	0,084
-181,300	429,163	0,011	0,017
-180,285	-75,032	-0,087	0,023
-179,271	32,334	-0,164	-0,103
-178,256	231,023	0,041	0,049
-177,242	-106,609	-0,063	0,010
-176,227	-200,000	0,009	0,041
-175,212	80,127	-0,114	0,090
-174,198	220,638	-0,090	-0,105
-173,183	-71,072	-0,111	0,030
-172,169	103,429	-0,083	0,071
-171,154	-135,475	0,099	-0,009
-170,139	212,063	0,068	0,078
-169,125	800,000	-0,030	-0,067
-168,110	-200,000	0,007	-0,033
-167,096	438,312	-0,047	0,075
-166,081	-166,316	-0,059	0,002
-165,066	-48,631	0,029	0,010
-164,052	-43,327	0,138	-0,050
-163,037	-200,000	0,001	-0,011
-162,023	800,000	0,032	0,096
-161,008	-173,984	0,171	0,004
-159,993	146,665	-0,074	0,072
-158,979	-200,000	0,020	-0,093
-157,964	330,298	0,021	-0,030
-156,950	27,114	-0,076	-0,046
-155,935	-200,000	0,016	0,125
-154,920	-92,745	0,170	0,034
-153,906	221,118	-0,019	0,022
-152,891	-172,618	0,189	0,004
-151,877	-200,000	-0,011	0,048
-150,862	411,240	-0,038	0,058
-149,847	-27,562	0,096	-0,040
-148,833	-10,578	0,076	0,036
-147,818	325,888	-0,053	0,074
-146,804	800,000	0,051	-0,107
-145,789	158,036	0,028	-0,028
-144,775	-109,001	0,070	0,011
-143,760	-81,079	-0,072	-0,017
-142,745	-200,000	-0,012	-0,055
-141,731	800,000	-0,035	-0,086
-140,716	-63,885	-0,063	-0,019
-139,702	242,723	0,092	0,113
-138,687	800,000	0,046	0,107
-137,672	375,859	-0,068	-0,101
-136,658	-30,750	-0,066	0,027
-135,643	-77,937	-0,084	0,021
-134,629	-200,000	-0,005	-0,074
-133,614	-19,130	-0,022	-0,010
-132,599	800,000	0,091	0,231
-131,585	-60,589	-0,049	-0,015
-130,570	-145,174	-0,082	0,005
-129,556	-84,272	-0,151	0,035
-128,541	471,552	-0,055	-0,090
-127,526	800,000	-0,021	0,061
-126,512	-200,000	0,019	-0,068
-125,497	-37,806	-0,047	-0,018
-124,483	265,441	0,024	0,030
-123,468	-91,465	-0,139	0,029
-122,453	-200,000	-0,024	-0,152
-121,439	101,321	0,082	0,070
-120,424	193,052	-0,037	0,041
-119,410	800,000	0,021	-0,054
-118,395	-127,529	0,086	-0,009
-117,380	-200,000	0,007	0,059
-116,366	405,925	-0,044	0,067
-115,351	-155,108	-0,110	0,005
-114,337	-109,281	0,017	0,003
-113,322	381,174	-0,038	-0,058
-112,307	267,597	-0,055	-0,070
-111,293	136,080	0,126	-0,120
-110,278	-138,196	-0,141	-0,011
-109,264	86,117	0,002	0,002
-108,249	21,859	0,168	0,099
-107,234	-88,482	-0,044	0,010
-106,220	-42,077	0,029	0,011
-105,205	231,651	0,010	0,012
-104,191	-200,000	0,017	-0,150
-103,176	-97,533	0,148	-0,028
-102,162	353,861	-0,069	-0,100
-101,147	-200,000	-0,006	-0,093
-100,132	-93,493	-0,181	-0,036
-99,118	-71,362	-0,150	-0,041
-98,103	654,101	0,016	0,029
-97,089	-9,150	0,108	-0,052
-96,074	177,506	0,072	0,077
-95,059	-200,000	0,024	0,126
-94,045	419,964	0,029	0,045
-93,030	-200,000	0,022	-0,106
-92,016	220,865	-0,098	-0,114
-91,001	-200,000	-0,037	-0,124
-89,986	800,000	-0,053	-0,151
-88,972	-160,360	0,122	-0,005
-87,957	-200,000	-0,034	0,147
-86,943	-200,000	0,003	0,073
-85,928	701,745	-0,054	-0,105
-84,913	31,136	0,062	0,039
-83,899	-200,000	-0,009	0,069
-82,884	177,992	-0,002	-0,003
-81,870	-200,000	0,030	0,099
-80,855	800,000	0,036	-0,076
-79,840	-190,277	-0,045	0,000
-78,826	-135,602	0,173	-0,015
-77,811	299,402	0,068	-0,091
-76,797	-200,000	0,008	-0,029
-75,782	104,874	0,088	-0,075
-74,767	-200,000	-0,003	0,173
-73,753	-200,000	-0,013	0,120
-72,738	-200,000	0,024	-0,107
-71,724	-119,537	0,104	-0,013
-70,709	69,901	0,128	0,096
-69,694	-35,255	-0,079	0,031
-68,680	149,578	0,044	0,044
-67,665	30,028	0,055	0,034
-66,651	800,000	0,049	0,152
-65,636	800,000	-0,053	0,161
-64,622	19,873	0,083	-0,048
-63,607	303,633	-0,047	0,063
-62,592	97,624	-0,041	0,035
-61,578	-13,397	0,076	-0,036
-60,563	-200,000	0,009	0,076
-59,549	-200,000	0,004	0,049
-58,534	-117,345	-1,417	-0,184
-57,519	466,957	-0,910	-1,486
-56,505	-200,000	-0,881	-4,532
-55,490	4,713	0,638	-0,339
-54,476	800,000	4,911	11,843
-53,461	-200,000	13,390	253,592
-52,446	-200,000	688,807	2269,272
-51,432	596,601	1622,358	2928,559
-50,417	120,629	1636,126	1475,764
-49,403	73,709	1290,107	980,244
-48,388	38,322	1025,165	661,416
-47,373	24,536	982,374	588,445
-46,359	23,721	972,193	579,648
-45,344	22,786	967,772	573,934
-44,330	22,720	966,495	572,939
-43,315	22,672	965,039	571,895
-42,300	22,615	964,199	571,190
-41,286	22,543	963,376	570,443
-40,271	22,560	962,066	569,703
-39,257	22,553	961,228	569,159
-38,242	22,520	960,184	568,413
-37,227	22,580	959,409	568,127
-36,213	22,502	958,631	567,390
-35,198	22,581	957,562	566,989
-34,184	22,610	957,063	566,764
-33,169	22,528	956,214	565,975
-32,154	22,602	955,232	565,610
-31,140	22,650	954,201	565,131
-30,125	22,595	953,525	564,531
-29,111	22,651	952,640	564,168
-28,096	22,603	951,969	563,592
-27,082	22,585	951,364	563,153
-26,067	22,603	950,551	562,709
-25,052	22,593	949,832	562,227
-24,038	22,612	949,196	561,890
-23,023	22,565	948,696	561,421
-22,009	22,627	948,087	561,236
-20,994	22,635	947,343	560,800
-19,979	22,639	946,708	560,414
-18,965	22,673	945,970	560,066
-17,950	22,609	945,386	559,493
-16,936	22,587	944,735	559,015
-15,921	22,534	944,180	558,493
-14,906	22,570	943,290	558,060
-13,892	22,539	942,736	557,611
-12,877	22,522	942,076	557,146
-11,863	22,502	941,524	556,733
-10,848	22,532	940,862	556,416
-9,833	22,540	940,648	556,293
-8,819	22,547	939,990	555,902
-7,804	22,472	939,154	555,149
-6,790	22,477	938,674	554,860
-5,775	22,555	938,018	554,697
-4,760	22,547	937,353	554,257
-3,746	22,467	936,838	553,676
-2,731	22,288	936,192	552,706
-1,717	22,405	935,335	552,549
-0,702	22,316	934,675	551,856
0,313	22,168	934,066	551,863
1,327	25,180	931,909	560,016
2,342	34,674	796,762	504,115
3,356	32,678	452,289	283,127
4,371	1,653	294,136	153,124
5,386	-2,942	275,135	138,862
6,400	-4,555	269,248	134,380
7,415	-4,821	266,562	132,783
8,429	-4,461	265,469	132,556
9,444	-4,462	264,717	132,168
10,459	-4,535	264,034	131,749
11,473	-4,562	263,544	131,468
12,488	-4,685	262,891	131,019
13,502	-4,777	262,260	130,609
14,517	-4,759	262,058	130,513
15,531	-4,720	261,535	130,277
16,546	-4,525	261,134	130,241
17,561	-4,597	260,928	130,062
18,575	-4,499	260,568	129,959
19,590	-4,547	260,334	129,788
20,604	-4,401	259,917	129,699
21,619	-4,407	259,535	129,492
22,634	-4,592	259,227	129,161
23,648	-4,536	259,043	129,108
24,663	-4,455	258,611	128,953
25,677	-4,637	258,486	128,717
26,692	-4,643	258,288	128,602
27,707	-4,465	257,934	128,572
28,721	-4,421	257,578	128,423
29,736	-4,826	257,506	128,016
30,750	-4,554	257,250	128,118
31,765	-4,601	257,012	127,946
32,780	-4,481	256,701	127,886
33,794	-4,608	256,543	127,684
34,809	-4,562	256,251	127,568
35,823	-4,742	256,217	127,381
36,838	-4,752	255,765	127,136
37,853	-4,529	255,461	127,169
38,867	-4,818	255,288	126,818
39,882	-4,718	255,149	126,826
40,896	-4,638	255,013	126,817
41,911	-4,701	254,609	126,550
42,926	-4,751	254,546	126,463
43,940	-4,885	254,196	126,161
44,955	-4,988	254,074	125,999
45,969	-5,152	254,033	125,824
46,984	-5,141	253,432	125,524
47,999	-5,132	253,218	125,415
49,013	-5,418	253,178	125,134
50,028	-5,311	252,650	124,956
51,042	-5,579	252,469	124,623
52,057	-5,460	252,263	124,613
53,071	-5,554	252,199	124,488
54,086	-5,332	251,912	124,528
55,101	-5,335	251,876	124,497
56,115	-4,904	251,623	124,733
57,130	-4,716	251,503	124,825
58,144	-4,498	251,513	125,008
59,159	-4,545	251,363	124,882
60,174	-4,405	250,975	124,798
61,188	-4,646	250,815	124,500
62,203	-4,691	250,605	124,346
63,217	-4,612	250,301	124,251
64,232	-4,446	250,129	124,298
65,247	-4,529	249,897	124,101
66,261	-4,523	249,709	124,002
67,276	-4,822	249,378	123,569
68,290	-4,899	249,251	123,430
69,305	-5,187	248,924	123,010
70,320	-5,119	248,889	123,040
71,334	-4,835	248,655	123,157
72,349	-4,351	248,476	123,470
73,363	-4,330	248,341	123,410
74,378	-4,400	248,099	123,219
75,393	-4,729	248,094	122,925
76,407	-4,602	247,877	122,914
77,422	-4,514	247,528	122,805
78,436	-4,346	247,395	122,871
79,451	-4,454	247,047	122,596
80,466	-4,488	246,710	122,389
81,480	-4,892	246,620	121,991
82,495	-4,794	246,466	121,987
83,509	-4,996	246,519	121,832
84,524	-4,679	245,955	121,809
85,539	-4,832	245,734	121,559
86,553	-4,993	245,728	121,411
87,568	-4,869	245,530	121,407
88,582	-4,876	245,337	121,294
89,597	-4,856	245,245	121,255
90,611	-4,679	244,998	121,271
91,626	-4,683	245,053	121,284
92,641	-4,578	244,672	121,172
93,655	-4,566	244,443	121,058
94,670	-4,824	244,422	120,820
95,684	-4,850	244,076	120,617
96,699	-4,779	243,798	120,528
97,714	-4,903	243,778	120,404
98,728	-4,819	243,514	120,333
99,743	-5,172	243,363	119,953
100,757	-5,010	243,137	119,967
101,772	-4,884	242,896	119,941
102,787	-5,127	242,765	119,664
103,801	-4,954	242,615	119,723
104,816	-4,728	242,412	119,800
105,830	-4,516	242,269	119,894
106,845	-4,510	242,134	119,822
107,860	-4,650	241,959	119,609
108,874	-4,756	241,589	119,328
109,889	-4,806	241,543	119,253
110,903	-4,669	241,278	119,224
111,918	-4,769	241,179	119,082
112,933	-4,838	240,927	118,890
113,947	-4,935	240,758	118,716
114,962	-4,827	240,780	118,806
115,976	-4,707	240,394	118,703
116,991	-4,509	240,361	118,840
118,006	-4,765	240,245	118,560
119,020	-4,437	239,930	118,664
120,035	-4,441	239,963	118,667
121,049	-4,633	239,877	118,456
122,064	-4,592	239,546	118,316
123,079	-4,800	239,460	118,092
124,093	-4,879	239,167	117,872
125,108	-4,939	238,986	117,724
126,122	-5,179	238,723	117,388
127,137	-5,005	238,551	117,435
128,151	-5,068	238,354	117,276
129,166	-4,931	238,280	117,341
130,181	-4,886	237,942	117,201
131,195	-4,966	237,910	117,109
132,210	-4,846	237,736	117,110
133,224	-4,438	237,476	117,303
134,239	-4,675	237,470	117,097
135,254	-4,884	237,206	116,788
136,268	-5,044	237,098	116,594
137,283	-5,131	236,755	116,345
138,297	-5,311	236,649	116,137
139,312	-5,187	236,402	116,105
140,327	-4,805	236,340	116,372
141,341	-4,401	236,467	116,751
142,356	-4,265	236,128	116,683
143,370	-4,388	236,080	116,549
144,385	-4,260	235,726	116,467
145,400	-4,162	235,698	116,522
146,414	-4,346	235,501	116,266
147,429	-4,329	235,354	116,197
148,443	-4,509	235,157	115,945
149,458	-4,561	235,012	115,822
150,473	-4,490	234,863	115,795
151,487	-4,743	234,707	115,505
152,502	-4,573	234,490	115,524
153,516	-4,291	234,361	115,675
154,531	-4,248	234,190	115,615
155,546	-4,554	234,110	115,321
156,560	-4,446	233,648	115,169
157,575	-4,568	233,491	114,985
158,589	-4,739	233,467	114,826
159,604	-4,276	233,415	115,159
160,619	-4,424	233,292	114,970
161,633	-4,462	233,147	114,858
162,648	-4,237	232,936	114,922
163,662	-4,422	232,753	114,675
164,677	-4,625	232,494	114,377
165,692	-4,536	232,419	114,400
166,706	-4,118	232,293	114,659
167,721	-4,239	232,186	114,500
168,735	-4,223	232,004	114,412
169,750	-4,358	231,779	114,185
170,764	-4,595	231,581	113,890
171,779	-4,515	231,519	113,912
172,794	-4,431	231,430	113,925
173,808	-4,587	231,042	113,601
174,823	-5,016	230,795	113,132
175,837	-5,039	230,519	112,969
176,852	-4,573	230,643	113,385
177,867	-4,254	230,424	113,518
178,881	-4,291	230,329	113,432
179,896	-4,132	230,162	113,463
180,910	-4,321	230,105	113,278
181,925	-4,326	230,084	113,253
182,940	-4,210	229,788	113,188
183,954	-4,157	229,567	113,111
184,969	-4,325	229,430	112,902
185,983	-4,140	229,348	112,996
186,998	-4,023	229,239	113,023
188,013	-4,157	229,190	112,884
189,027	-4,222	228,783	112,623
190,042	-4,387	228,683	112,436
191,056	-4,156	228,510	112,521
192,071	-4,205	228,426	112,430
193,086	-4,359	228,289	112,234
194,100	-4,342	228,098	112,143
195,115	-4,637	227,639	111,680
196,129	-5,469	227,290	110,856
197,144	-2,339	228,387	113,808
198,159	1,767	229,692	117,643
199,173	3,844	230,175	119,495
200,188	4,257	230,027	119,729
201,202	4,042	229,931	119,501
202,217	4,497	229,692	119,719
203,232	4,557	229,527	119,669
204,246	4,742	229,518	119,797
205,261	4,746	229,320	119,686
206,275	4,840	229,229	119,700
207,290	4,905	229,103	119,673
208,304	4,697	229,049	119,474
209,319	4,653	228,784	119,291
210,334	4,632	228,615	119,177
211,348	4,538	228,380	118,971
212,363	4,398	227,928	118,617
213,377	4,060	227,926	118,346
214,392	3,791	227,869	118,099
215,407	4,204	227,583	118,257
216,421	4,082	227,399	118,058
217,436	4,110	227,380	118,059
218,450	3,821	227,119	117,691
219,465	3,713	226,727	117,395
220,480	3,923	226,754	117,560
221,494	3,755	226,712	117,399
222,509	4,046	226,525	117,513
223,523	3,808	226,489	117,302
224,538	3,990	226,137	117,249
225,553	3,950	226,124	117,201
226,567	4,141	225,934	117,237
227,582	4,302	225,777	117,268
228,596	4,569	225,663	117,401
229,611	4,174	225,395	116,952
230,626	4,085	225,173	116,758
231,640	3,854	225,146	116,558
232,655	4,123	225,135	116,746
233,669	4,576	225,147	117,086
234,684	4,679	224,887	117,018
235,699	4,229	224,841	116,644
236,713	4,309	224,384	116,456
237,728	4,024	224,197	116,133
238,742	3,907	224,219	116,046
239,757	3,811	224,126	115,916
240,772	3,861	223,921	115,837
241,786	3,773	223,815	115,706
242,801	4,138	223,699	115,910
243,815	4,605	223,577	116,187
244,830	4,537	223,379	116,023
245,844	4,177	223,198	115,648
246,859	4,211	223,091	115,608
247,874	4,228	223,005	115,566
248,888	4,286	222,805	115,496
249,903	4,161	222,646	115,309
250,917	4,040	222,430	115,097
251,932	3,873	222,378	114,935
252,947	3,892	222,188	114,840
253,961	3,802	222,052	114,693
254,976	3,942	221,820	114,667
255,990	4,244	221,865	114,905
257,005	4,152	221,663	114,722
258,020	4,101	221,671	114,678
259,034	4,360	221,501	114,772
260,049	4,393	221,164	114,612
261,063	4,142	221,143	114,405
262,078	4,385	221,006	114,503
263,093	4,346	220,953	114,437
264,107	4,342	220,736	114,311
265,122	4,321	220,557	114,193
266,136	4,536	220,550	114,338
267,151	4,533	220,265	114,179
268,166	4,226	220,023	113,816
269,180	3,802	219,801	113,378
270,195	3,799	219,785	113,358
271,209	3,997	219,462	113,327
272,224	3,947	219,438	113,268
273,239	3,990	219,515	113,329
274,253	4,054	219,064	113,132
275,268	3,696	219,051	112,853
276,282	3,610	218,858	112,680
277,297	3,638	218,676	112,597
278,312	3,628	218,591	112,536
279,326	3,968	218,393	112,673
280,341	4,097	218,295	112,707
281,355	4,297	218,150	112,768
282,370	3,904	218,037	112,413
283,384	3,988	217,876	112,381
284,399	3,705	217,723	112,085
285,414	3,852	217,514	112,075
286,428	3,958	217,538	112,154
287,443	4,070	217,501	112,207
288,457	4,105	217,319	112,129
289,472	3,986	217,147	111,944
290,487	3,631	216,717	111,454
291,501	3,671	216,583	111,404
292,516	3,689	216,599	111,415
293,530	3,902	216,398	111,457
294,545	3,740	216,342	111,301
295,560	4,083	216,098	111,413
296,574	3,965	216,087	111,312
297,589	4,084	215,922	111,303
298,603	4,075	215,975	111,314
299,618	4,083	215,640	111,138
300,633	4,027	215,657	111,096
301,647	4,243	215,571	111,197
302,662	4,192	215,481	111,104
303,676	4,240	215,266	111,018
304,691	4,243	215,143	110,947
305,706	4,526	214,897	111,014
306,720	4,175	214,831	110,718
307,735	4,331	214,535	110,667
308,749	3,960	214,442	110,343
309,764	4,277	214,405	110,542
310,779	4,226	214,290	110,436
311,793	4,216	214,147	110,345
312,808	4,104	213,975	110,166
313,822	4,241	213,756	110,141
314,837	3,948	213,635	109,860
315,852	3,935	213,590	109,818
316,866	4,117	213,374	109,827
317,881	4,339	213,178	109,874
318,895	3,892	213,079	109,495
319,910	3,923	213,038	109,486
320,925	3,700	212,789	109,191
321,939	3,553	212,520	108,938
322,954	3,599	212,534	108,968
323,968	3,948	212,379	109,126
324,983	3,778	212,400	109,007
325,997	4,131	212,281	109,187
327,012	4,103	212,032	109,029
328,027	3,943	211,826	108,800
329,041	4,498	211,887	109,214
330,056	4,464	211,755	109,112
331,070	4,258	211,419	108,784
332,085	3,756	211,195	108,305
333,100	3,851	211,042	108,284
334,114	4,149	211,030	108,478
335,129	4,022	210,858	108,291
336,143	3,839	210,717	108,080
337,158	3,968	210,581	108,091
338,173	4,175	210,381	108,124
339,187	3,755	210,395	107,827
340,202	3,632	210,184	107,623
341,216	3,662	210,020	107,551
342,231	3,792	209,972	107,607
343,246	3,694	209,882	107,484
344,260	3,964	209,650	107,543
345,275	3,797	209,641	107,413
346,289	3,998	209,563	107,504
347,304	4,270	209,323	107,560
348,319	4,074	209,106	107,303
349,333	4,098	209,057	107,285
350,348	4,112	209,012	107,262
351,362	4,148	208,915	107,227
352,377	4,051	208,806	107,095
353,392	4,167	208,558	107,038
354,406	3,903	208,473	106,802
355,421	192,910	1346,227	1432,021
356,435	153,881	1484,946	1432,148
