DTS Sentinel unit serial number:	SN410029Multiplexer serial number:	ORYXHardware model number:	OX2-SRSoftware version number:	ORYX F/W v4,00 Oryx Data Collector v3.7.2.0data status	okinstallation	B6 Nyhavnadifferential loss correction	single-endedforward channel	channel 2reverse channel	N/Adate	2023/12/07time	19:55:08forward acquisition time	300,00reverse acquisition time	0,00gamma	499,1914k internal	0,3164k external	0,3164temperature offset calibration	1,0000default loss term (dB/km)	0,3820temperature slope calibration	1,0000multiplexer offset coefficient	1,0000multiplexer slope coefficient	1,0000fibre end	0,00T internal ref (°C)	13,92T ext. ref 1 (°C)	-3,06T ext. ref 2 (°C)	-3,06length (m)	temperature (°C)	Stokes	anti-Stokes-744,400	800,000	0,096	-0,219
-743,385	-138,155	-0,188	0,015
-742,371	259,232	0,056	0,071
-741,356	-118,314	-0,232	-0,030
-740,342	754,912	0,095	0,189
-739,327	-21,495	-0,155	0,069
-738,312	-200,000	-0,010	-0,072
-737,298	-52,480	-0,195	0,066
-736,283	183,533	0,064	0,069
-735,269	-163,446	-0,233	-0,008
-734,254	182,465	0,121	0,132
-733,239	24,708	-0,470	-0,286
-732,225	-147,399	0,068	-0,004
-731,210	-200,000	-0,005	-0,024
-730,196	-200,000	0,018	-0,164
-729,181	121,358	-0,032	-0,029
-728,167	78,003	-0,141	-0,110
-727,152	-76,960	0,054	-0,014
-726,137	196,092	-0,035	0,039
-725,123	-200,000	0,020	-0,123
-724,108	-200,000	0,032	-0,135
-723,094	800,000	-0,034	-0,106
-722,079	800,000	-0,021	-0,050
-721,064	111,522	-0,093	0,082
-720,050	800,000	-0,039	-0,092
-719,035	647,924	0,025	-0,046
-718,021	418,188	0,075	-0,119
-717,006	-28,860	-0,194	-0,082
-715,991	148,535	-0,069	-0,068
-714,977	-117,256	0,142	0,019
-713,962	-200,000	-0,008	-0,078
-712,948	-200,000	-0,007	-0,043
-711,933	150,717	-0,056	0,056
-710,918	-176,932	-0,126	-0,002
-709,904	557,670	-0,108	-0,191
-708,889	-20,696	0,046	-0,021
-707,875	161,903	-0,057	-0,059
-706,860	-200,000	0,008	-0,089
-705,845	199,667	0,025	-0,028
-704,831	49,442	0,106	0,073
-703,816	31,648	0,057	-0,036
-702,802	800,000	0,056	-0,137
-701,787	800,000	-0,047	-0,109
-700,772	-71,197	0,073	-0,020
-699,758	16,466	-0,083	-0,048
-698,743	176,340	-0,121	-0,129
-697,729	800,000	-0,019	-0,061
-696,714	-81,175	0,095	0,023
-695,699	-31,119	-0,031	-0,013
-694,685	382,028	0,095	-0,143
-693,670	-19,892	-0,062	0,028
-692,656	267,717	0,055	-0,071
-691,641	190,019	0,071	0,079
-690,627	-2,511	-0,117	-0,060
-689,612	-200,000	-0,010	-0,104
-688,597	-62,428	-0,112	0,034
-687,583	300,432	-0,019	-0,025
-686,568	800,000	-0,081	-0,169
-685,554	-200,000	0,022	-0,109
-684,539	-84,090	0,077	0,018
-683,524	123,726	0,064	-0,059
-682,510	-118,007	0,108	-0,014
-681,495	120,634	-0,176	-0,161
-680,481	-144,604	-0,060	0,004
-679,466	-200,000	-0,015	0,123
-678,451	-200,000	0,010	0,085
-677,437	161,919	-0,074	0,076
-676,422	-118,635	-0,063	-0,008
-675,408	175,700	-0,098	0,105
-674,393	-200,000	-0,017	-0,062
-673,378	-63,850	-0,224	-0,067
-672,364	-200,000	-0,012	-0,119
-671,349	-200,000	-0,010	0,141
-670,335	0,728	-0,073	0,038
-669,320	800,000	-0,032	-0,088
-668,305	17,593	0,071	-0,041
-667,291	-133,112	-0,083	-0,008
-666,276	-128,209	0,116	-0,012
-665,262	7,206	0,071	-0,039
-664,247	-103,595	0,141	-0,024
-663,232	231,539	-0,064	-0,077
-662,218	800,000	0,030	-0,089
-661,203	-112,315	0,067	-0,010
-660,189	800,000	-0,051	-0,149
-659,174	-200,000	-0,012	-0,094
-658,159	-200,000	-0,008	-0,055
-657,145	-200,000	-0,017	-0,103
-656,130	-190,175	0,107	0,001
-655,116	398,192	-0,023	-0,036
-654,101	-200,000	0,025	-0,148
-653,086	-98,884	-0,097	0,018
-652,072	-18,504	-0,064	-0,029
-651,057	440,653	-0,094	0,151
-650,043	120,250	-0,108	0,099
-649,028	-200,000	-0,009	-0,064
-648,014	121,012	0,109	-0,099
-646,999	-200,000	-0,002	0,163
-645,984	-141,925	-0,141	-0,010
-644,970	33,967	-0,077	-0,049
-643,955	800,000	-0,018	0,053
-642,941	281,874	-0,094	-0,124
-641,926	359,150	-0,073	0,108
-640,911	52,136	0,037	-0,026
-639,897	-200,000	-0,004	0,137
-638,882	-115,493	-0,126	0,017
-637,868	103,034	-0,064	-0,055
-636,853	800,000	-0,027	0,065
-635,838	610,222	0,067	-0,124
-634,824	-142,158	0,035	0,003
-633,809	351,199	0,079	0,115
-632,795	187,276	0,045	-0,050
-631,780	103,052	0,056	0,048
-630,765	41,963	-0,025	0,017
-629,751	-127,834	-0,062	0,006
-628,736	-128,598	-0,111	-0,011
-627,722	800,000	0,009	-0,026
-626,707	34,477	-0,015	-0,010
-625,692	-159,035	-0,091	-0,004
-624,678	800,000	0,041	-0,097
-623,663	800,000	0,012	-0,037
-622,649	-43,825	0,067	0,025
-621,634	-200,000	0,030	-0,159
-620,619	-200,000	-0,006	-0,028
-619,605	-178,831	0,125	0,002
-618,590	112,749	0,061	0,054
-617,576	564,208	0,045	0,081
-616,561	800,000	0,026	-0,078
-615,546	-43,841	-0,049	-0,018
-614,532	-200,000	-0,001	-0,080
-613,517	-77,424	-0,150	-0,038
-612,503	800,000	0,053	-0,159
-611,488	800,000	0,040	-0,087
-610,474	-200,000	0,001	0,031
-609,459	336,004	0,061	-0,086
-608,444	284,390	-0,040	0,053
-607,430	262,078	0,022	-0,027
-606,415	-200,000	-0,020	-0,089
-605,401	156,265	0,030	0,031
-604,386	573,038	0,035	-0,062
-603,371	800,000	0,033	0,073
-602,357	403,307	-0,066	0,102
-601,342	-200,000	0,007	0,071
-600,328	-200,000	-0,036	-0,144
-599,313	-110,996	-0,061	-0,009
-598,298	195,686	-0,080	-0,090
-597,284	-200,000	-0,017	-0,059
-596,269	800,000	0,010	0,022
-595,255	258,507	-0,045	0,057
-594,240	-99,723	-0,054	-0,010
-593,225	53,647	-0,111	-0,078
-592,211	-92,009	-0,112	0,023
-591,196	-200,000	-0,009	0,133
-590,182	800,000	0,051	0,112
-589,167	-200,000	0,064	0,000
-588,152	-124,183	0,046	-0,005
-587,138	-123,194	0,038	-0,004
-586,123	-157,327	0,091	-0,004
-585,109	15,973	-0,102	0,059
-584,094	800,000	-0,046	-0,107
-583,079	-200,000	0,002	-0,048
-582,065	-46,108	0,120	-0,043
-581,050	13,433	0,051	-0,029
-580,036	-42,664	-0,079	-0,029
-579,021	800,000	-0,024	0,053
-578,006	-139,537	-0,123	-0,009
-576,992	-13,775	-0,090	0,043
-575,977	51,555	0,050	-0,034
-574,963	112,992	0,031	0,028
-573,948	36,111	-0,088	0,057
-572,934	-24,030	0,115	-0,050
-571,919	83,497	-0,088	-0,070
-570,904	800,000	0,019	-0,056
-569,890	800,000	-0,020	-0,050
-568,875	111,569	-0,109	-0,096
-567,861	211,526	-0,091	0,105
-566,846	-200,000	0,001	0,067
-565,831	-200,000	0,009	0,057
-564,817	303,519	-0,060	0,081
-563,802	235,497	-0,034	-0,041
-562,788	-200,000	0,004	-0,175
-561,773	-200,000	-0,008	-0,127
-560,758	208,664	0,078	0,089
-559,744	107,420	-0,018	0,015
-558,729	800,000	0,071	0,168
-557,715	350,117	0,032	0,046
-556,700	127,303	-0,055	-0,051
-555,685	320,304	0,042	0,059
-554,671	178,664	0,024	0,025
-553,656	345,682	0,034	-0,049
-552,642	-200,000	-0,026	0,118
-551,627	-48,413	0,048	0,017
-550,612	800,000	-0,015	-0,035
-549,598	-35,645	-0,200	-0,079
-548,583	287,375	-0,113	-0,150
-547,569	-200,000	-0,049	0,168
-546,554	550,480	-0,076	-0,134
-545,539	-157,325	-0,141	0,006
-544,525	800,000	0,022	-0,063
-543,510	-120,380	-0,162	0,020
-542,496	800,000	0,012	-0,026
-541,481	198,139	-0,071	-0,080
-540,466	474,474	0,079	-0,130
-539,452	-200,000	-0,012	-0,064
-538,437	5,118	0,012	0,006
-537,423	-105,342	-0,053	0,009
-536,408	-200,000	0,010	0,051
-535,393	-128,620	-0,102	-0,010
-534,379	217,905	0,101	0,118
-533,364	-129,263	-0,081	0,008
-532,350	-200,000	-0,031	0,123
-531,335	43,995	0,071	0,047
-530,321	-45,861	0,100	0,036
-529,306	484,931	-0,093	0,155
-528,291	-200,000	0,029	0,186
-527,277	-43,113	-0,084	0,031
-526,262	800,000	-0,025	0,074
-525,248	-200,000	0,004	0,063
-524,233	30,335	0,141	0,088
-523,218	-200,000	0,019	-0,104
-522,204	-55,041	0,077	0,025
-521,189	689,386	-0,016	0,030
-520,175	41,393	-0,080	-0,052
-519,160	-200,000	0,026	-0,111
-518,145	-91,972	0,050	-0,010
-517,131	-151,867	0,112	0,006
-516,116	800,000	-0,036	-0,082
-515,102	-90,868	0,031	0,007
-514,087	-40,574	-0,070	0,026
-513,072	317,671	-0,047	-0,065
-512,058	61,855	0,045	-0,033
-511,043	-200,000	0,014	-0,046
-510,029	186,299	-0,095	0,103
-509,014	392,138	0,025	0,038
-507,999	800,000	-0,026	0,059
-506,985	-200,000	0,001	0,007
-505,970	103,319	0,079	0,067
-504,956	-200,000	-0,001	-0,027
-503,941	45,286	0,046	0,031
-502,926	-16,048	0,051	0,024
-501,912	-20,839	-0,067	-0,030
-500,897	-200,000	-0,006	0,162
-499,883	90,202	-0,024	-0,020
-498,868	-21,407	0,082	0,036
-497,853	-165,380	0,125	-0,004
-496,839	800,000	-0,010	0,030
-495,824	-115,114	0,194	-0,026
-494,810	800,000	-0,041	0,118
-493,795	-200,000	-0,020	0,082
-492,781	800,000	-0,024	0,061
-491,766	-200,000	-0,007	0,029
-490,751	-84,282	-0,055	-0,013
-489,737	-200,000	-0,004	0,074
-488,722	112,631	-0,053	-0,047
-487,708	51,550	0,154	0,107
-486,693	32,782	0,161	-0,101
-485,678	-200,000	0,001	-0,049
-484,664	149,219	-0,041	-0,041
-483,649	98,975	-0,037	-0,031
-482,635	-157,510	-0,029	-0,001
-481,620	-9,102	0,032	-0,015
-480,605	59,868	-0,032	0,023
-479,591	55,018	-0,024	0,017
-478,576	-146,005	-0,045	0,003
-477,562	113,764	-0,072	-0,064
-476,547	-200,000	0,003	-0,072
-475,532	800,000	0,048	-0,101
-474,518	800,000	-0,026	0,069
-473,503	710,033	-0,023	-0,045
-472,489	137,082	0,082	-0,078
-471,474	800,000	-0,038	-0,095
-470,459	-200,000	0,011	-0,045
-469,445	-0,399	-0,123	-0,063
-468,430	-76,476	0,014	-0,004
-467,416	562,822	0,024	-0,042
-466,401	800,000	-0,037	-0,107
-465,386	800,000	0,037	0,110
-464,372	2,595	0,142	0,075
-463,357	61,157	-0,060	0,043
-462,343	800,000	-0,028	-0,064
-461,328	-200,000	0,004	-0,059
-460,313	217,425	-0,085	0,098
-459,299	60,794	0,185	0,133
-458,284	-200,000	-0,017	0,095
-457,270	340,385	0,042	-0,060
-456,255	-19,621	-0,033	-0,015
-455,241	53,728	-0,119	-0,083
-454,226	452,582	-0,031	-0,049
-453,211	-94,192	-0,050	0,010
-452,197	-77,187	0,083	0,021
-451,182	-93,641	-0,169	-0,034
-450,168	107,565	-0,105	0,091
-449,153	143,264	0,091	-0,089
-448,138	800,000	-0,013	-0,033
-447,124	-10,820	0,016	0,008
-446,109	-157,316	-0,059	0,003
-445,095	800,000	-0,029	0,075
-444,080	-200,000	-0,004	0,061
-443,065	-200,000	0,003	-0,111
-442,051	104,396	0,026	-0,022
-441,036	800,000	0,040	-0,119
-440,022	800,000	0,028	-0,083
-439,007	800,000	-0,014	0,040
-437,992	624,393	0,069	0,127
-436,978	130,091	0,085	-0,079
-435,963	89,995	0,097	0,079
-434,949	-200,000	0,022	-0,121
-433,934	-200,000	-0,015	-0,107
-432,919	-28,358	0,162	0,068
-431,905	800,000	-0,031	-0,094
-430,890	-200,000	-0,003	0,058
-429,876	-124,464	0,011	0,001
-428,861	-70,366	-0,128	-0,035
-427,846	105,515	0,140	0,120
-426,832	252,102	-0,096	-0,119
-425,817	-200,000	0,037	-0,151
-424,803	-100,878	-0,063	0,011
-423,788	-62,779	0,027	0,008
-422,773	-200,000	-0,020	0,114
-421,759	-6,740	0,059	-0,029
-420,744	218,575	-0,028	0,033
-419,730	-200,000	0,001	0,042
-418,715	800,000	0,023	-0,058
-417,701	800,000	-0,024	-0,073
-416,686	800,000	-0,071	0,152
-415,671	-27,182	-0,040	-0,017
-414,657	800,000	0,088	0,196
-413,642	800,000	-0,015	0,038
-412,628	-200,000	-0,011	-0,128
-411,613	-75,208	0,023	0,006
-410,598	66,147	0,061	-0,045
-409,584	-62,529	0,132	0,039
-408,569	38,812	0,108	0,070
-407,555	800,000	0,031	-0,076
-406,540	275,155	0,066	-0,085
-405,525	68,665	-0,101	0,076
-404,511	355,819	0,081	-0,117
-403,496	800,000	0,056	-0,172
-402,482	800,000	0,027	-0,075
-401,467	328,434	0,060	0,084
-400,452	-29,532	-0,021	0,009
-399,438	-97,177	-0,080	0,015
-398,423	-200,000	0,004	0,018
-397,409	800,000	-0,055	-0,123
-396,394	148,403	-0,111	-0,109
-395,379	-139,537	-0,138	-0,011
-394,365	213,046	-0,032	-0,037
-393,350	800,000	-0,044	-0,109
-392,336	-143,830	0,075	-0,005
-391,321	32,913	0,065	-0,041
-390,306	-200,000	-0,028	0,137
-389,292	41,490	0,110	-0,072
-388,277	349,418	0,040	0,058
-387,263	165,662	-0,043	-0,044
-386,248	-117,482	0,140	0,018
-385,233	-200,000	-0,013	0,122
-384,219	516,352	-0,074	-0,126
-383,204	-200,000	0,023	-0,094
-382,190	-200,000	0,000	-0,182
-381,175	346,775	-0,026	-0,038
-380,160	-200,000	0,002	-0,152
-379,146	126,812	0,022	0,021
-378,131	800,000	0,029	0,092
-377,117	-52,904	0,080	0,027
-376,102	84,092	0,012	-0,010
-375,088	-200,000	0,034	-0,122
-374,073	-200,000	0,013	0,059
-373,058	132,936	-0,065	0,061
-372,044	70,792	0,080	-0,060
-371,029	474,142	0,049	-0,081
-370,015	71,341	0,113	-0,085
-369,000	-13,298	0,069	-0,033
-367,985	53,477	-0,050	-0,035
-366,971	30,683	-0,072	-0,044
-365,956	-200,000	-0,007	0,054
-364,942	-200,000	-0,006	-0,148
-363,927	-200,000	0,003	-0,074
-362,912	471,651	0,016	0,026
-361,898	800,000	0,050	0,144
-360,883	216,515	-0,078	0,090
-359,869	-200,000	0,001	-0,005
-358,854	-200,000	-0,032	0,109
-357,839	101,305	-0,095	-0,080
-356,825	31,135	0,113	-0,070
-355,810	-200,000	0,025	0,175
-354,796	-200,000	0,003	0,044
-353,781	-200,000	-0,022	-0,136
-352,766	800,000	0,004	-0,009
-351,752	667,925	-0,037	-0,069
-350,737	-21,822	0,070	0,031
-349,723	-58,038	-0,043	0,013
-348,708	-32,930	-0,134	0,054
-347,693	43,042	-0,040	-0,026
-346,679	144,177	-0,086	-0,083
-345,664	-200,000	-0,016	-0,120
-344,650	-200,000	0,008	0,183
-343,635	-200,000	0,005	0,055
-342,620	-97,912	0,164	0,030
-341,606	800,000	0,020	0,059
-340,591	-200,000	-0,014	0,064
-339,577	-27,706	-0,102	0,043
-338,562	223,123	0,077	-0,090
-337,548	-6,067	-0,156	0,077
-336,533	21,826	-0,091	0,054
-335,518	-149,497	-0,000	0,000
-334,504	742,184	-0,068	0,133
-333,489	140,930	0,077	0,073
-332,475	-8,751	-0,193	-0,094
-331,460	-200,000	0,015	0,091
-330,445	-200,000	-0,022	0,101
-329,431	800,000	0,029	-0,065
-328,416	54,110	-0,078	-0,054
-327,402	-89,122	0,018	0,004
-326,387	5,749	0,018	-0,009
-325,372	249,037	-0,014	-0,017
-324,358	-46,179	0,039	-0,014
-323,343	159,444	0,040	0,040
-322,329	-50,074	0,066	0,023
-321,314	304,713	-0,058	-0,078
-320,299	-14,124	-0,070	0,032
-319,285	-200,000	0,019	-0,110
-318,270	-33,134	0,156	-0,062
-317,256	435,695	-0,039	0,062
-316,241	-148,953	0,067	0,004
-315,226	-61,799	0,112	-0,034
-314,212	180,940	0,085	0,090
-313,197	-53,555	0,061	0,020
-312,183	-103,658	0,059	0,010
-311,168	61,997	-0,105	-0,076
-310,153	518,200	0,022	0,037
-309,139	122,629	0,048	0,043
-308,124	-200,000	0,008	-0,072
-307,110	-200,000	0,031	0,134
-306,095	-17,105	-0,166	0,076
-305,080	-71,931	0,081	-0,022
-304,066	-200,000	-0,018	-0,078
-303,051	374,305	-0,066	-0,097
-302,037	233,036	0,063	0,075
-301,022	390,156	-0,029	0,043
-300,008	756,562	0,042	0,082
-298,993	115,420	-0,034	-0,030
-297,978	-88,336	0,069	-0,015
-296,964	-75,912	-0,037	-0,009
-295,949	-4,713	0,077	-0,038
-294,935	275,802	-0,099	-0,127
-293,920	166,175	-0,025	-0,026
-292,905	-200,000	0,034	0,132
-291,891	273,458	0,069	0,089
-290,876	-109,963	-0,128	0,019
-289,862	-44,045	0,061	0,022
-288,847	80,174	-0,060	-0,047
-287,832	800,000	-0,069	-0,152
-286,818	28,166	-0,029	0,018
-285,803	198,351	-0,066	0,073
-284,789	-200,000	0,011	0,061
-283,774	312,560	0,085	0,115
-282,759	800,000	0,076	0,172
-281,745	-179,412	-0,045	0,001
-280,730	38,892	0,089	-0,057
-279,716	800,000	-0,019	-0,053
-278,701	29,478	0,102	-0,063
-277,686	76,480	0,134	0,103
-276,672	-200,000	-0,017	0,078
-275,657	281,689	-0,035	0,045
-274,643	39,950	-0,066	0,043
-273,628	684,199	-0,009	0,018
-272,613	-200,000	-0,003	-0,077
-271,599	-200,000	0,018	0,062
-270,584	2,563	0,072	0,037
-269,570	160,271	0,059	-0,059
-268,555	11,081	0,103	-0,057
-267,540	95,107	-0,060	0,049
-266,526	-75,860	-0,162	-0,041
-265,511	-200,000	0,028	-0,169
-264,497	800,000	-0,035	-0,079
-263,482	-200,000	-0,028	0,153
-262,467	496,365	-0,015	0,026
-261,453	-200,000	0,021	-0,075
-260,438	-200,000	-0,011	-0,094
-259,424	800,000	-0,024	0,049
-258,409	28,299	-0,100	-0,061
-257,395	-37,205	-0,031	0,012
-256,380	-71,761	0,062	-0,017
-255,365	-200,000	-0,011	0,164
-254,351	-200,000	-0,008	0,048
-253,336	40,968	-0,079	-0,052
-252,322	-200,000	0,008	0,042
-251,307	-3,494	0,109	-0,055
-250,292	-40,529	-0,116	0,043
-249,278	-130,708	0,051	0,005
-248,263	800,000	-0,029	-0,088
-247,249	2,116	-0,074	0,039
-246,234	-200,000	-0,001	0,031
-245,219	-101,123	-0,071	-0,012
-244,205	-6,811	0,045	0,022
-243,190	-200,000	0,044	-0,154
-242,176	767,520	0,006	-0,012
-241,161	64,251	-0,030	0,022
-240,146	232,379	-0,054	-0,065
-239,132	-200,000	0,011	0,115
-238,117	-83,790	-0,126	0,029
-237,103	-38,746	0,155	0,059
-236,088	132,724	-0,055	-0,051
-235,073	800,000	0,018	-0,055
-234,059	-147,230	-0,102	0,006
-233,044	-200,000	0,005	0,055
-232,030	-200,000	-0,010	0,171
-231,015	-200,000	0,019	-0,093
-230,000	-56,835	0,201	-0,064
-228,986	46,609	0,073	-0,049
-227,971	-200,000	-0,011	0,054
-226,957	791,956	0,072	0,143
-225,942	-46,653	0,137	-0,048
-224,927	800,000	0,021	-0,044
-223,913	-79,233	0,039	0,009
-222,898	-77,483	-0,032	0,008
-221,884	-200,000	-0,029	0,174
-220,869	800,000	0,039	0,101
-219,855	236,452	-0,094	0,112
-218,840	-56,487	0,119	-0,038
-217,825	800,000	0,007	0,020
-216,811	-105,083	-0,080	-0,013
-215,796	-88,843	0,056	0,012
-214,782	-200,000	0,009	-0,048
-213,767	113,374	0,029	-0,025
-212,752	800,000	0,072	0,150
-211,738	800,000	-0,053	0,108
-210,723	42,432	0,016	-0,011
-209,709	-86,127	-0,167	0,037
-208,694	-23,864	0,040	-0,017
-207,679	-3,603	0,038	-0,019
-206,665	-121,715	0,046	0,005
-205,650	800,000	0,044	0,137
-204,636	99,384	-0,100	0,084
-203,621	279,745	-0,029	-0,038
-202,606	-200,000	-0,001	-0,023
-201,592	-183,652	0,020	-0,000
-200,577	158,805	0,028	-0,028
-199,563	800,000	0,013	0,036
-198,548	206,098	0,110	0,123
-197,533	-200,000	0,011	0,042
-196,519	-161,427	-0,052	0,002
-195,504	-92,904	0,100	-0,020
-194,490	616,107	-0,110	-0,199
-193,475	-110,919	0,143	-0,021
-192,460	183,467	-0,019	0,020
-191,446	316,175	-0,033	0,045
-190,431	-59,976	0,119	-0,036
-189,417	-200,000	0,017	-0,085
-188,402	-200,000	0,000	-0,120
-187,387	-77,874	-0,148	-0,036
-186,373	-200,000	0,002	-0,110
-185,358	-82,747	-0,035	-0,008
-184,344	15,395	-0,093	-0,052
-183,329	-42,200	0,035	-0,013
-182,315	-200,000	-0,022	0,101
-181,300	-30,105	-0,071	0,029
-180,285	395,678	0,045	-0,068
-179,271	-31,593	0,037	-0,015
-178,256	683,548	0,058	0,109
-177,242	800,000	0,051	0,133
-176,227	800,000	0,059	0,141
-175,212	23,911	-0,052	-0,031
-174,198	47,508	0,061	-0,041
-173,183	-59,300	-0,178	-0,055
-172,169	10,965	0,105	0,057
-171,154	167,172	-0,024	-0,025
-170,139	92,204	-0,085	0,069
-169,125	-200,000	0,026	-0,146
-168,110	653,684	0,008	-0,015
-167,096	346,773	-0,036	-0,052
-166,081	-200,000	-0,001	-0,041
-165,066	69,339	-0,092	0,068
-164,052	-88,913	0,091	0,019
-163,037	-2,562	-0,127	0,064
-162,023	-66,544	0,065	-0,018
-161,008	800,000	0,024	0,049
-159,993	200,669	0,085	0,094
-158,979	141,806	0,046	-0,044
-157,964	-0,772	-0,143	0,073
-156,950	331,866	0,043	-0,060
-155,935	5,765	0,042	0,022
-154,920	-200,000	0,018	0,065
-153,906	-83,623	0,009	0,002
-152,891	-122,628	0,223	-0,026
-151,877	179,637	0,076	0,080
-150,862	103,547	-0,046	0,039
-149,847	30,779	-0,054	-0,033
-148,833	-3,562	0,138	-0,069
-147,818	-134,231	0,122	-0,011
-146,804	-200,000	0,003	-0,112
-145,789	-67,286	0,093	-0,026
-144,775	335,056	-0,057	-0,079
-143,760	-44,424	-0,047	-0,017
-142,745	536,393	-0,041	-0,071
-141,731	-50,393	-0,052	-0,017
-140,716	548,621	0,019	0,032
-139,702	106,669	0,031	0,026
-138,687	-200,000	0,006	0,120
-137,672	176,833	0,040	0,042
-136,658	317,787	-0,121	-0,165
-135,643	-135,199	-0,098	-0,008
-134,629	686,697	0,056	-0,106
-133,614	-200,000	-0,002	-0,081
-132,599	-105,321	-0,063	0,010
-131,585	131,230	-0,142	0,131
-130,570	-22,474	0,203	-0,088
-129,556	29,613	-0,133	-0,081
-128,541	-200,000	0,001	-0,124
-127,526	680,577	-0,044	-0,082
-126,512	800,000	-0,045	0,125
-125,497	227,661	0,034	-0,040
-124,483	800,000	-0,054	-0,114
-123,468	-73,833	0,028	0,007
-122,453	487,462	0,020	0,032
-121,439	-79,343	0,045	0,011
-120,424	-200,000	-0,006	-0,033
-119,410	-200,000	-0,001	0,033
-118,395	-38,408	0,102	0,039
-117,380	-101,372	-0,056	0,010
-116,366	-200,000	-0,018	0,069
-115,351	-200,000	-0,023	0,099
-114,337	-200,000	-0,018	-0,063
-113,322	144,771	-0,028	-0,026
-112,307	-106,246	0,041	-0,006
-111,293	-170,137	-0,085	-0,002
-110,278	0,571	0,053	-0,027
-109,264	-56,904	0,095	-0,030
-108,249	226,593	-0,098	0,114
-107,234	174,866	-0,081	-0,084
-106,220	-114,597	0,172	-0,023
-105,205	-179,094	0,044	0,001
-104,191	58,644	0,071	0,050
-103,176	192,042	-0,133	0,144
-102,162	-200,000	0,010	0,102
-101,147	-200,000	0,011	-0,120
-100,132	242,364	-0,091	-0,110
-99,118	391,187	0,061	-0,091
-98,103	-110,701	-0,119	-0,018
-97,089	-78,237	-0,055	0,014
-96,074	-200,000	-0,017	-0,071
-95,059	244,755	-0,076	-0,091
-94,045	-50,273	-0,114	0,038
-93,030	43,559	0,073	0,048
-92,016	-84,602	0,027	0,006
-91,001	800,000	0,051	0,120
-89,986	650,159	-0,066	0,122
-88,972	-200,000	-0,033	0,204
-87,957	-200,000	0,008	0,036
-86,943	-119,724	0,080	0,010
-85,928	-36,280	-0,102	-0,039
-84,913	800,000	0,032	0,084
-83,899	-139,514	0,170	0,013
-82,884	-83,235	-0,148	-0,034
-81,870	-91,516	-0,062	-0,013
-80,855	735,109	0,073	0,142
-79,840	-200,000	-0,020	0,098
-78,826	40,113	-0,110	-0,071
-77,811	800,000	0,091	-0,245
-76,797	789,939	-0,046	-0,091
-75,782	77,936	-0,037	-0,028
-74,767	-77,045	0,135	-0,034
-73,753	-25,230	-0,122	0,051
-72,738	-106,050	-0,092	0,015
-71,724	800,000	-0,028	-0,069
-70,709	422,293	-0,100	-0,154
-69,694	51,602	-0,104	-0,071
-68,680	800,000	-0,087	-0,179
-67,665	800,000	0,087	-0,211
-66,651	-200,000	0,018	-0,120
-65,636	-200,000	0,008	0,062
-64,622	-26,075	0,061	0,025
-63,607	238,161	-0,159	0,190
-62,592	283,358	0,088	0,113
-61,578	800,000	-0,028	-0,079
-60,563	800,000	-0,005	0,011
-59,549	-200,000	0,001	-0,011
-58,534	9,903	-2,172	-1,178
-57,519	-200,000	-0,144	-0,742
-56,505	-200,000	-1,259	-5,183
-55,490	61,074	0,923	0,656
-54,476	800,000	5,307	12,059
-53,461	-200,000	18,392	301,808
-52,446	800,000	735,233	2256,000
-51,432	531,787	1647,913	2802,502
-50,417	107,677	1634,571	1393,333
-49,403	71,578	1285,491	955,189
-48,388	29,964	1026,240	625,048
-47,373	19,697	988,704	568,377
-46,359	17,496	976,363	554,064
-45,344	14,295	972,347	541,309
-44,330	14,525	970,854	541,207
-43,315	13,971	969,207	538,461
-42,300	13,965	967,801	537,639
-41,286	13,934	967,016	537,082
-40,271	13,944	966,184	536,629
-39,257	13,925	965,304	536,058
-38,242	13,929	964,389	535,542
-37,227	13,923	963,588	535,057
-36,213	13,906	962,765	534,523
-35,198	13,941	961,831	534,098
-34,184	13,961	960,990	533,673
-33,169	13,926	960,204	533,101
-32,154	13,931	959,103	532,487
-31,140	14,016	958,027	532,140
-30,125	13,972	957,587	531,733
-29,111	13,881	956,887	531,030
-28,096	13,983	956,002	530,848
-27,082	13,928	955,332	530,278
-26,067	13,917	954,808	529,932
-25,052	13,952	954,013	529,582
-24,038	13,960	953,160	529,112
-23,023	13,939	952,542	528,681
-22,009	14,037	951,860	528,595
-20,994	13,998	951,261	528,116
-19,979	13,958	950,793	527,707
-18,965	14,003	949,781	527,267
-17,950	13,983	949,360	526,951
-16,936	13,948	948,675	526,438
-15,921	13,951	947,993	526,047
-14,906	13,894	947,328	525,477
-13,892	13,842	946,837	525,016
-12,877	13,781	946,090	524,389
-11,863	13,832	945,647	524,285
-10,848	13,861	945,013	524,004
-9,833	13,949	944,369	523,906
-8,819	13,894	943,811	523,401
-7,804	13,875	943,147	522,951
-6,790	13,855	942,628	522,579
-5,775	13,944	941,951	522,466
-4,760	13,933	941,238	522,014
-3,746	13,823	940,704	521,351
-2,731	13,693	939,990	520,523
-1,717	13,722	939,438	520,289
-0,702	13,648	938,885	519,728
0,313	13,543	938,010	519,695
1,327	16,798	936,000	528,773
2,342	25,744	787,956	468,635
3,356	21,776	443,264	257,750
4,371	-7,180	295,928	143,105
5,386	-11,222	277,785	130,485
6,400	-12,425	271,862	126,573
7,415	-12,498	269,648	125,464
8,429	-12,404	268,059	124,800
9,444	-12,606	267,402	124,298
10,459	-12,562	266,584	123,947
11,473	-12,703	266,079	123,573
12,488	-12,818	265,471	123,175
13,502	-13,080	264,982	122,700
14,517	-12,823	264,510	122,702
15,531	-12,875	264,029	122,421
16,546	-12,695	263,812	122,472
17,561	-12,808	263,325	122,134
18,575	-12,545	263,046	122,230
19,590	-12,816	262,527	121,735
20,604	-12,731	262,507	121,791
21,619	-12,844	261,967	121,428
22,634	-12,620	261,689	121,489
23,648	-12,797	261,452	121,210
24,663	-12,906	261,067	120,923
25,677	-12,911	260,748	120,761
26,692	-12,618	260,398	120,848
27,707	-12,832	260,146	120,530
28,721	-12,752	260,133	120,584
29,736	-12,853	259,693	120,281
30,750	-12,733	259,408	120,244
31,765	-12,842	259,270	120,073
32,780	-12,999	259,202	119,892
33,794	-12,954	258,697	119,687
34,809	-12,891	258,547	119,662
35,823	-12,870	258,160	119,491
36,838	-12,935	258,085	119,389
37,853	-12,934	257,770	119,234
38,867	-12,883	257,523	119,154
39,882	-13,015	257,344	118,944
40,896	-12,867	256,995	118,902
41,911	-12,741	256,805	118,913
42,926	-12,982	256,625	118,609
43,940	-12,754	256,239	118,619
44,955	-12,975	256,095	118,349
45,969	-13,236	255,980	118,058
46,984	-13,069	255,584	118,010
47,999	-13,282	255,451	117,752
49,013	-13,357	255,004	117,470
50,028	-13,477	254,813	117,268
51,042	-13,515	254,607	117,130
52,057	-13,559	254,286	116,934
53,071	-13,717	254,252	116,770
54,086	-13,492	254,083	116,877
55,101	-13,463	253,981	116,845
56,115	-13,332	253,833	116,880
57,130	-12,905	253,624	117,142
58,144	-12,794	253,399	117,123
59,159	-12,594	253,222	117,203
60,174	-12,845	253,006	116,877
61,188	-12,700	252,730	116,863
62,203	-12,681	252,619	116,818
63,217	-12,743	252,375	116,641
64,232	-12,662	252,068	116,559
65,247	-12,850	251,968	116,341
66,261	-12,662	251,644	116,342
67,276	-12,795	251,224	116,024
68,290	-13,060	251,172	115,763
69,305	-13,153	250,980	115,585
70,320	-13,269	250,698	115,346
71,334	-12,897	250,479	115,552
72,349	-12,419	250,385	115,905
73,363	-12,621	250,067	115,576
74,378	-12,777	249,998	115,401
75,393	-12,715	249,733	115,321
76,407	-12,892	249,667	115,130
77,422	-12,698	249,361	115,143
78,436	-12,843	249,186	114,929
79,451	-12,843	248,879	114,777
80,466	-12,815	248,681	114,700
81,480	-12,941	248,468	114,484
82,495	-12,908	248,293	114,421
83,509	-12,867	248,090	114,352
84,524	-13,013	247,840	114,104
85,539	-13,104	247,631	113,921
86,553	-13,317	247,509	113,676
87,568	-12,957	247,252	113,849
88,582	-13,220	247,186	113,588
89,597	-12,999	246,851	113,610
90,611	-13,011	246,844	113,586
91,626	-12,904	246,743	113,620
92,641	-12,762	246,414	113,576
93,655	-12,735	246,243	113,510
94,670	-12,747	245,934	113,348
95,684	-12,907	245,846	113,163
96,699	-12,635	245,527	113,233
97,714	-12,817	245,301	112,967
98,728	-13,059	245,129	112,676
99,743	-13,109	245,006	112,568
100,757	-13,226	244,848	112,388
101,772	-12,936	244,630	112,519
102,787	-12,917	244,435	112,435
103,801	-12,766	244,358	112,515
104,816	-12,798	244,099	112,360
105,830	-12,753	244,074	112,375
106,845	-12,766	243,837	112,245
107,860	-12,765	243,627	112,139
108,874	-12,753	243,324	112,000
109,889	-12,773	243,194	111,913
110,903	-12,900	242,891	111,660
111,918	-12,874	242,600	111,537
112,933	-13,125	242,778	111,403
113,947	-12,804	242,310	111,441
114,962	-12,672	242,163	111,472
115,976	-12,709	242,110	111,407
116,991	-12,992	241,859	111,051
118,006	-12,808	241,743	111,137
119,020	-12,863	241,567	111,002
120,035	-12,793	241,390	110,968
121,049	-12,839	241,278	110,869
122,064	-12,602	241,161	110,998
123,079	-12,645	240,905	110,836
124,093	-12,849	240,511	110,479
125,108	-13,131	240,448	110,210
126,122	-13,307	240,133	109,913
127,137	-13,418	240,193	109,841
128,151	-13,241	239,890	109,836
129,166	-13,190	239,779	109,817
130,181	-13,259	239,415	109,584
131,195	-13,359	239,286	109,435
132,210	-12,985	239,254	109,713
133,224	-12,945	238,970	109,605
134,239	-12,985	238,955	109,556
135,254	-12,890	238,569	109,446
136,268	-12,970	238,427	109,307
137,283	-13,194	238,187	109,007
138,297	-13,290	237,952	108,812
139,312	-13,415	237,844	108,652
140,327	-13,076	237,766	108,880
141,341	-12,718	237,703	109,128
142,356	-12,370	237,515	109,312
143,370	-12,631	237,402	109,040
144,385	-12,624	237,097	108,897
145,400	-12,581	237,119	108,931
146,414	-12,632	236,843	108,754
147,429	-12,784	236,712	108,563
148,443	-12,819	236,421	108,392
149,458	-12,850	236,367	108,332
150,473	-12,563	236,104	108,431
151,487	-12,724	235,889	108,194
152,502	-12,760	235,789	108,110
153,516	-12,568	235,616	108,174
154,531	-12,675	235,393	107,977
155,546	-12,561	235,082	107,915
156,560	-12,667	235,115	107,837
157,575	-12,651	234,839	107,713
158,589	-12,703	234,642	107,572
159,604	-12,771	234,584	107,482
160,619	-12,416	234,415	107,676
161,633	-12,427	234,125	107,524
162,648	-12,527	234,158	107,451
163,662	-12,592	234,013	107,323
164,677	-12,826	234,009	107,127
165,692	-12,664	233,700	107,104
166,706	-12,473	233,472	107,140
167,721	-12,452	233,385	107,107
168,735	-12,415	233,224	107,053
169,750	-12,557	233,019	106,838
170,764	-12,777	232,937	106,617
171,779	-12,438	232,731	106,779
172,794	-12,534	232,527	106,602
173,808	-12,700	232,397	106,402
174,823	-13,034	232,061	105,978
175,837	-13,201	231,907	105,767
176,852	-12,806	231,862	106,046
177,867	-12,587	231,745	106,154
178,881	-12,767	231,637	105,955
179,896	-12,525	231,444	106,045
180,910	-12,505	231,275	105,974
181,925	-12,672	231,148	105,777
182,940	-12,470	230,985	105,850
183,954	-12,524	230,844	105,733
184,969	-12,285	230,666	105,828
185,983	-12,359	230,577	105,721
186,998	-12,462	230,349	105,527
188,013	-12,528	230,275	105,432
189,027	-12,461	230,046	105,370
190,042	-12,573	230,007	105,256
191,056	-12,314	229,659	105,287
192,071	-12,385	229,499	105,149
193,086	-12,591	229,340	104,909
194,100	-12,323	229,264	105,072
195,115	-12,820	228,865	104,496
196,129	-12,680	228,944	104,631
197,144	-7,213	230,816	109,716
198,159	-1,584	232,362	114,823
199,173	1,802	233,290	117,910
200,188	2,356	233,449	118,411
201,202	2,142	233,095	118,055
202,217	2,191	233,041	118,055
203,232	2,503	232,910	118,220
204,246	2,350	232,903	118,088
205,261	2,584	232,567	118,089
206,275	2,941	232,407	118,273
207,290	2,706	232,362	118,058
208,304	2,568	232,241	117,879
209,319	2,761	231,992	117,891
210,334	2,648	231,862	117,727
211,348	2,268	231,587	117,284
212,363	1,991	231,367	116,949
213,377	1,944	231,127	116,780
214,392	1,868	231,046	116,671
215,407	1,980	230,990	116,719
216,421	2,121	230,799	116,720
217,436	1,793	230,495	116,303
218,450	1,685	230,343	116,133
219,465	1,927	230,180	116,227
220,480	1,763	230,059	116,030
221,494	1,656	229,957	115,886
222,509	2,089	229,910	116,183
223,523	2,164	229,780	116,165
224,538	2,143	229,530	116,012
225,553	2,006	229,348	115,805
226,567	2,015	229,178	115,715
227,582	2,108	229,326	115,851
228,596	2,382	229,153	115,962
229,611	2,313	228,853	115,747
230,626	1,692	228,552	115,113
231,640	1,810	228,456	115,144
232,655	2,186	228,352	115,367
233,669	2,471	228,338	115,566
234,684	2,690	228,250	115,677
235,699	2,416	228,047	115,357
236,713	2,205	227,784	115,053
237,728	2,151	227,677	114,948
238,742	1,908	227,351	114,589
239,757	2,155	227,377	114,779
240,772	1,906	227,152	114,467
241,786	1,954	226,766	114,298
242,801	2,308	226,876	114,611
243,815	2,350	226,844	114,616
244,830	2,610	226,702	114,730
245,844	2,057	226,382	114,142
246,859	1,954	226,235	113,980
247,874	2,157	226,116	114,062
248,888	2,138	226,029	113,994
249,903	2,094	225,870	113,871
250,917	2,077	225,758	113,791
251,932	2,071	225,478	113,636
252,947	1,776	225,443	113,387
253,961	1,964	225,126	113,358
254,976	1,647	225,167	113,132
255,990	2,222	225,003	113,469
257,005	2,202	224,942	113,413
258,020	2,201	224,780	113,320
259,034	2,093	224,597	113,137
260,049	2,467	224,291	113,252
261,063	2,311	224,284	113,122
262,078	2,619	224,070	113,232
263,093	2,582	224,016	113,168
264,107	2,395	223,834	112,927
265,122	2,358	223,690	112,817
266,136	2,569	223,663	112,950
267,151	2,514	223,505	112,819
268,166	2,288	223,179	112,477
269,180	1,806	223,032	112,037
270,195	2,085	222,811	112,121
271,209	2,142	222,613	112,054
272,224	2,051	222,649	111,995
273,239	2,242	222,418	112,009
274,253	2,031	222,311	111,790
275,268	1,845	221,962	111,467
276,282	1,916	221,914	111,487
277,297	1,696	221,823	111,269
278,312	2,104	221,600	111,447
279,326	1,935	221,691	111,358
280,341	2,085	221,414	111,319
281,355	2,240	221,354	111,393
282,370	1,992	221,414	111,231
283,384	2,132	220,972	111,102
284,399	1,880	220,713	110,777
285,414	1,954	220,619	110,774
286,428	2,000	220,686	110,832
287,443	2,423	220,608	111,091
288,457	2,567	220,430	111,097
289,472	2,297	220,148	110,748
290,487	1,783	219,855	110,217
291,501	1,529	219,768	109,979
292,516	1,523	219,687	109,924
293,530	1,618	219,584	109,932
294,545	1,804	219,566	110,048
295,560	2,076	219,329	110,117
296,574	2,112	219,098	110,017
297,589	1,891	218,953	109,775
298,603	2,375	218,958	110,118
299,618	2,110	218,756	109,814
300,633	2,167	218,786	109,862
301,647	2,294	218,731	109,916
302,662	2,129	218,576	109,709
303,676	2,311	218,328	109,706
304,691	2,093	218,247	109,498
305,706	2,112	218,053	109,405
306,720	2,417	217,949	109,562
307,735	2,011	217,678	109,124
308,749	2,114	217,518	109,108
309,764	2,266	217,494	109,195
310,779	2,290	217,362	109,137
311,793	2,092	217,159	108,883
312,808	2,058	216,976	108,757
313,822	2,304	216,890	108,881
314,837	2,165	216,702	108,678
315,852	1,962	216,583	108,463
316,866	1,889	216,478	108,349
317,881	2,474	216,311	108,673
318,895	2,235	216,071	108,372
319,910	2,077	215,900	108,164
320,925	1,818	215,718	107,879
321,939	1,215	215,665	107,413
322,954	1,761	215,474	107,697
323,968	2,061	215,568	107,948
324,983	2,550	215,308	108,155
325,997	2,357	215,402	108,056
327,012	2,226	215,071	107,787
328,027	2,201	214,957	107,703
329,041	2,754	214,862	108,037
330,056	2,701	214,843	107,981
331,070	2,132	214,637	107,465
332,085	1,985	214,333	107,199
333,100	1,777	214,355	107,053
334,114	2,325	214,161	107,334
335,129	2,069	214,023	107,075
336,143	2,179	213,760	107,011
337,158	2,272	213,657	107,015
338,173	2,260	213,444	106,891
339,187	1,955	213,376	106,633
340,202	1,684	213,312	106,401
341,216	1,841	213,033	106,363
342,231	2,143	212,976	106,536
343,246	2,380	212,883	106,646
344,260	2,248	212,925	106,565
345,275	2,441	212,846	106,651
346,289	2,452	212,606	106,529
347,304	2,010	212,466	106,141
348,319	1,981	212,331	106,044
349,333	2,365	211,876	106,075
350,348	2,133	211,830	105,880
351,362	2,479	211,857	106,126
352,377	2,408	211,854	106,065
353,392	2,170	211,533	105,729
354,406	2,004	211,487	105,581
355,421	196,181	1315,442	1390,973
356,435	156,852	1449,907	1390,913
