DTS Sentinel unit serial number:	SN410029Multiplexer serial number:	ORYXHardware model number:	OX2-SRSoftware version number:	ORYX F/W v4,00 Oryx Data Collector v3.7.2.0data status	okinstallation	B6 Nyhavnadifferential loss correction	single-endedforward channel	channel 2reverse channel	N/Adate	2023/12/09time	08:35:08forward acquisition time	300,00reverse acquisition time	0,00gamma	499,1914k internal	0,3139k external	0,3139temperature offset calibration	1,0000default loss term (dB/km)	0,3820temperature slope calibration	1,0000multiplexer offset coefficient	1,0000multiplexer slope coefficient	1,0000fibre end	0,00T internal ref (°C)	18,47T ext. ref 1 (°C)	1,93T ext. ref 2 (°C)	1,95length (m)	temperature (°C)	Stokes	anti-Stokes-744,400	-168,562	0,163	-0,005
-743,385	-104,216	-0,289	0,049
-742,371	86,055	0,110	-0,089
-741,356	14,925	-0,308	0,179
-740,342	-88,543	0,136	-0,030
-739,327	-100,951	-0,183	-0,033
-738,312	185,233	0,072	-0,080
-737,298	-69,968	-0,172	-0,048
-736,283	-200,000	0,015	0,065
-735,269	-118,893	-0,139	-0,018
-734,254	34,645	0,221	-0,143
-733,239	-78,187	-0,534	-0,135
-732,225	-68,683	0,072	0,020
-731,210	-200,000	-0,004	0,112
-730,196	-200,000	0,002	-0,084
-729,181	-200,000	0,024	-0,143
-728,167	-200,000	-0,014	0,116
-727,152	800,000	0,026	-0,083
-726,137	583,357	-0,094	0,172
-725,123	-66,760	-0,036	0,010
-724,108	-200,000	0,012	-0,044
-723,094	-39,194	-0,158	0,061
-722,079	-200,000	-0,016	-0,075
-721,064	-200,000	-0,017	-0,068
-720,050	707,709	0,014	-0,027
-719,035	-114,567	-0,081	0,011
-718,021	-67,939	-0,079	0,023
-717,006	84,844	-0,005	-0,004
-715,991	239,063	-0,066	-0,081
-714,977	-156,384	-0,085	0,004
-713,962	-106,969	-0,153	0,025
-712,948	-200,000	-0,017	0,119
-711,933	79,855	-0,076	-0,061
-710,918	-172,075	0,032	0,001
-709,904	-24,383	-0,065	-0,029
-708,889	346,779	0,046	-0,067
-707,875	129,537	-0,006	-0,005
-706,860	-200,000	0,018	0,164
-705,845	-146,137	0,077	-0,005
-704,831	-32,061	-0,068	0,028
-703,816	39,960	-0,040	-0,026
-702,802	-200,000	-0,011	0,090
-701,787	-35,723	0,186	0,074
-700,772	-79,023	0,105	-0,026
-699,758	-116,238	0,088	0,012
-698,743	-103,409	-0,028	-0,005
-697,729	90,938	-0,084	-0,070
-696,714	-66,759	0,156	0,045
-695,699	313,489	-0,079	0,110
-694,685	116,662	-0,059	0,054
-693,670	-1,159	-0,060	-0,031
-692,656	-200,000	-0,016	0,062
-691,641	-24,927	0,151	0,066
-690,627	61,453	0,126	0,093
-689,612	-200,000	0,007	0,026
-688,597	800,000	-0,039	0,087
-687,583	309,165	-0,039	0,054
-686,568	-200,000	-0,017	-0,114
-685,554	432,279	0,040	-0,064
-684,539	-69,646	0,218	-0,061
-683,524	-200,000	0,009	-0,056
-682,510	11,103	-0,041	0,023
-681,495	708,201	0,043	-0,085
-680,481	-90,657	-0,113	-0,024
-679,466	-200,000	-0,021	-0,159
-678,451	-2,997	-0,167	0,086
-677,437	-98,767	0,076	-0,014
-676,422	800,000	-0,006	0,014
-675,408	-200,000	-0,007	0,032
-674,393	-136,475	-0,138	0,012
-673,378	-200,000	0,009	0,098
-672,364	-55,721	-0,114	0,038
-671,349	138,159	-0,088	0,085
-670,335	-200,000	0,019	-0,165
-669,320	129,054	0,045	0,042
-668,305	-200,000	0,020	0,142
-667,291	-12,673	-0,047	0,022
-666,276	177,733	0,036	0,039
-665,262	-25,340	-0,078	-0,034
-664,247	-53,910	-0,076	-0,025
-663,232	43,978	0,052	0,035
-662,218	-10,200	0,076	-0,037
-661,203	-200,000	0,019	0,099
-660,189	-129,665	0,153	-0,015
-659,174	663,679	0,039	0,075
-658,159	705,272	0,013	0,026
-657,145	-200,000	0,005	-0,052
-656,130	230,022	0,091	-0,110
-655,116	-66,862	0,144	0,042
-654,101	433,025	-0,082	0,132
-653,086	-200,000	-0,001	-0,065
-652,072	800,000	-0,023	-0,049
-651,057	800,000	-0,020	-0,059
-650,043	-200,000	-0,015	0,058
-649,028	800,000	-0,028	-0,063
-648,014	-14,350	-0,162	-0,077
-646,999	800,000	0,005	-0,016
-645,984	800,000	0,021	0,064
-644,970	-200,000	0,022	0,167
-643,955	-60,305	-0,067	0,021
-642,941	164,696	-0,131	-0,136
-641,926	-90,940	-0,088	-0,018
-640,911	7,938	0,081	-0,045
-639,897	-200,000	0,004	0,044
-638,882	31,138	0,056	0,035
-637,868	800,000	-0,091	0,210
-636,853	159,504	-0,091	-0,093
-635,838	198,569	-0,027	0,030
-634,824	-69,116	-0,092	0,026
-633,809	671,741	-0,057	-0,110
-632,795	789,348	-0,024	-0,049
-631,780	228,924	0,111	-0,134
-630,765	-115,814	-0,036	-0,005
-629,751	-200,000	-0,012	0,081
-628,736	-200,000	-0,050	-0,220
-627,722	800,000	0,038	-0,083
-626,707	74,825	-0,071	0,055
-625,692	-84,860	0,071	0,016
-624,678	19,461	-0,032	0,019
-623,663	800,000	-0,025	0,078
-622,649	-67,462	0,109	-0,031
-621,634	-66,045	-0,161	0,047
-620,619	262,764	0,063	0,081
-619,605	-200,000	0,025	-0,164
-618,590	-200,000	0,018	-0,068
-617,576	152,527	-0,080	-0,081
-616,561	148,396	0,029	-0,029
-615,546	-200,000	0,007	-0,099
-614,532	1,780	-0,050	0,027
-613,517	-137,593	-0,075	0,006
-612,503	-61,005	-0,071	0,022
-611,488	-21,573	-0,035	0,016
-610,474	165,426	0,133	0,139
-609,459	-58,627	-0,076	-0,024
-608,444	-200,000	0,019	0,083
-607,430	-200,000	0,019	-0,188
-606,415	-200,000	-0,017	-0,187
-605,401	800,000	0,030	-0,066
-604,386	697,978	-0,044	-0,087
-603,371	-200,000	0,043	0,180
-602,357	-108,511	-0,096	-0,015
-601,342	800,000	0,024	-0,063
-600,328	207,849	-0,035	-0,041
-599,313	71,940	-0,032	-0,024
-598,298	606,484	0,038	-0,070
-597,284	-200,000	-0,003	-0,134
-596,269	-12,153	-0,059	0,028
-595,255	398,173	-0,010	0,015
-594,240	644,237	-0,061	-0,115
-593,225	225,087	-0,100	-0,119
-592,211	137,295	-0,107	-0,103
-591,196	-200,000	0,039	0,164
-590,182	-200,000	0,007	0,038
-589,167	500,485	-0,054	0,093
-588,152	-200,000	-0,009	0,040
-587,138	-29,558	-0,114	0,048
-586,123	-142,323	-0,126	-0,009
-585,109	18,849	-0,108	-0,064
-584,094	-200,000	0,008	0,039
-583,079	780,752	0,094	0,190
-582,065	-200,000	-0,005	-0,112
-581,050	800,000	-0,038	0,106
-580,036	-200,000	0,014	-0,050
-579,021	188,290	-0,026	-0,028
-578,006	224,628	-0,100	-0,120
-576,992	704,261	0,027	-0,053
-575,977	71,593	0,107	-0,082
-574,963	281,602	0,079	0,105
-573,948	14,813	0,038	-0,022
-572,934	92,178	0,031	-0,026
-571,919	-67,997	-0,112	0,032
-570,904	800,000	-0,021	-0,062
-569,890	-115,902	-0,066	0,009
-568,875	-200,000	0,004	0,128
-567,861	560,740	0,046	-0,082
-566,846	279,759	-0,090	-0,119
-565,831	57,369	-0,071	-0,051
-564,817	177,202	-0,052	0,056
-563,802	-200,000	-0,012	-0,183
-562,788	800,000	-0,040	-0,126
-561,773	-30,999	0,062	0,026
-560,758	800,000	-0,032	0,084
-559,744	111,346	0,103	0,091
-558,729	-171,105	0,027	0,001
-557,715	-200,000	-0,020	0,091
-556,700	-68,152	0,014	0,004
-555,685	-200,000	-0,006	0,123
-554,671	230,505	0,066	-0,080
-553,656	800,000	0,027	-0,075
-552,642	-146,678	-0,043	0,003
-551,627	800,000	0,032	0,087
-550,612	274,636	-0,070	-0,092
-549,598	800,000	-0,017	-0,046
-548,583	-200,000	-0,033	-0,199
-547,569	0,500	-0,033	-0,017
-546,554	-200,000	-0,009	0,103
-545,539	800,000	0,018	-0,045
-544,525	9,825	0,194	0,108
-543,510	-200,000	0,015	-0,081
-542,496	-92,211	-0,046	0,010
-541,481	-200,000	-0,008	-0,069
-540,466	-28,208	-0,013	0,006
-539,452	-200,000	-0,014	0,052
-538,437	210,008	-0,045	0,052
-537,423	-62,839	-0,109	-0,033
-536,408	-150,410	0,089	-0,005
-535,393	685,351	0,053	-0,101
-534,379	800,000	0,024	-0,056
-533,364	-161,301	-0,108	0,004
-532,350	-200,000	0,041	0,136
-531,335	800,000	-0,020	-0,060
-530,321	124,297	-0,050	0,046
-529,306	-200,000	-0,005	-0,031
-528,291	70,363	0,080	-0,060
-527,277	-200,000	-0,000	0,012
-526,262	-200,000	0,003	0,039
-525,248	345,675	-0,042	0,060
-524,233	-200,000	0,009	0,079
-523,218	-200,000	-0,012	0,115
-522,204	153,738	-0,111	0,112
-521,189	2,634	-0,191	-0,102
-520,175	800,000	-0,046	-0,111
-519,160	400,510	-0,061	0,094
-518,145	800,000	0,045	-0,146
-517,131	-116,137	0,150	-0,020
-516,116	193,040	0,143	0,159
-515,102	562,898	-0,076	0,135
-514,087	340,784	0,053	-0,076
-513,072	-15,572	0,079	-0,037
-512,058	-30,976	0,109	0,045
-511,043	800,000	-0,032	-0,098
-510,029	800,000	0,062	-0,142
-509,014	-200,000	0,002	-0,030
-507,999	2,327	0,012	0,006
-506,985	-103,811	-0,160	0,027
-505,970	800,000	0,027	-0,060
-504,956	-200,000	0,025	-0,183
-503,941	-100,714	0,042	-0,007
-502,926	-104,171	-0,123	-0,021
-501,912	-132,652	0,139	-0,013
-500,897	41,482	0,023	-0,015
-499,883	-111,584	0,099	0,015
-498,868	-56,924	-0,061	-0,020
-497,853	-95,994	-0,023	-0,004
-496,839	459,478	-0,023	-0,038
-495,824	563,584	-0,055	0,098
-494,810	-200,000	-0,002	0,020
-493,795	402,867	-0,048	-0,075
-492,781	197,186	0,057	-0,064
-491,766	200,545	-0,115	-0,130
-490,751	174,639	-0,044	0,047
-489,737	220,887	0,074	0,087
-488,722	-174,415	0,111	0,002
-487,708	-170,132	-0,114	-0,003
-486,693	-125,020	0,041	0,005
-485,678	800,000	0,043	0,129
-484,664	-41,073	0,055	-0,021
-483,649	58,147	-0,060	-0,043
-482,635	-200,000	-0,015	-0,062
-481,620	44,747	0,130	0,087
-480,605	119,913	-0,018	-0,016
-479,591	241,851	0,102	-0,126
-478,576	214,365	0,052	0,060
-477,562	55,349	-0,068	-0,048
-476,547	-200,000	-0,018	-0,146
-475,532	377,745	0,048	-0,072
-474,518	123,330	0,101	-0,093
-473,503	-200,000	-0,007	-0,033
-472,489	800,000	-0,003	-0,008
-471,474	73,805	-0,111	0,085
-470,459	-200,000	-0,014	-0,163
-469,445	-141,419	-0,027	-0,002
-468,430	-200,000	-0,002	0,129
-467,416	186,303	0,091	-0,100
-466,401	713,905	-0,041	0,081
-465,386	47,747	-0,097	0,066
-464,372	-77,239	0,113	-0,029
-463,357	800,000	0,020	0,056
-462,343	-120,588	0,088	-0,011
-461,328	-56,483	-0,126	-0,041
-460,313	-105,270	0,121	-0,020
-459,299	-88,127	-0,114	-0,025
-458,284	478,176	0,065	0,109
-457,270	124,187	-0,052	0,048
-456,255	516,861	0,012	0,021
-455,241	41,324	0,054	0,036
-454,226	-60,128	-0,110	-0,034
-453,211	335,021	0,038	-0,054
-452,197	-200,000	-0,002	0,070
-451,182	-39,784	0,073	0,028
-450,168	800,000	0,049	0,125
-449,153	533,277	0,049	0,086
-448,138	113,581	-0,093	-0,083
-447,124	-166,394	-0,046	-0,001
-446,109	-200,000	0,007	0,063
-445,095	-200,000	0,009	0,047
-444,080	342,877	0,012	0,018
-443,065	800,000	0,050	-0,122
-442,051	-200,000	-0,006	0,095
-441,036	-72,232	-0,029	-0,008
-440,022	28,320	0,131	-0,081
-439,007	-200,000	0,002	-0,079
-437,992	564,418	0,015	0,026
-436,978	343,031	-0,037	-0,053
-435,963	-95,514	0,111	0,022
-434,949	271,373	0,038	-0,049
-433,934	346,232	0,048	0,069
-432,919	195,223	-0,100	-0,112
-431,905	165,410	0,045	-0,047
-430,890	-32,550	0,186	0,076
-429,876	-200,000	0,035	0,177
-428,861	-86,127	0,072	-0,016
-427,846	237,001	0,008	0,010
-426,832	12,643	-0,159	-0,090
-425,817	-51,360	0,082	-0,028
-424,803	-200,000	0,035	-0,142
-423,788	-200,000	-0,017	0,073
-422,773	101,235	0,055	0,047
-421,759	-76,861	0,100	0,026
-420,744	45,810	0,118	-0,080
-419,730	609,758	-0,057	-0,105
-418,715	-0,732	0,005	0,002
-417,701	800,000	0,010	0,022
-416,686	426,753	0,036	-0,057
-415,671	-40,384	0,056	-0,021
-414,657	-101,117	0,007	-0,001
-413,642	-200,000	0,018	0,133
-412,628	-134,343	-0,029	-0,003
-411,613	391,854	-0,112	-0,170
-410,598	-78,076	-0,105	0,026
-409,584	800,000	0,050	0,122
-408,569	-200,000	-0,002	-0,013
-407,555	-47,964	0,110	0,039
-406,540	-200,000	0,010	-0,117
-405,525	-200,000	-0,018	0,126
-404,511	800,000	-0,015	-0,040
-403,496	-35,092	-0,111	-0,044
-402,482	-200,000	0,008	0,100
-401,467	-76,107	0,100	-0,026
-400,452	111,525	0,046	0,040
-399,438	-134,828	-0,009	0,001
-398,423	-79,020	0,127	0,031
-397,409	-9,225	0,094	0,046
-396,394	800,000	-0,005	-0,013
-395,379	75,509	0,139	-0,108
-394,365	269,311	-0,173	0,222
-393,350	47,917	0,110	0,075
-392,336	-200,000	0,023	0,153
-391,321	690,528	0,057	-0,110
-390,306	36,242	0,050	-0,032
-389,292	92,220	0,032	-0,027
-388,277	290,133	0,053	-0,071
-387,263	-86,876	0,011	-0,002
-386,248	78,525	0,107	0,083
-385,233	343,931	-0,076	0,109
-384,219	-135,066	0,034	-0,003
-383,204	13,879	-0,060	-0,034
-382,190	-13,956	0,074	-0,035
-381,175	-40,213	-0,115	-0,044
-380,160	-12,355	-0,051	-0,024
-379,146	-154,107	0,097	-0,005
-378,131	87,468	0,030	-0,024
-377,117	527,923	0,037	0,064
-376,102	-200,000	0,009	-0,109
-375,088	-53,396	0,134	-0,045
-374,073	-148,942	-0,127	0,007
-373,058	1,646	-0,046	0,024
-372,044	-75,093	-0,074	-0,019
-371,029	485,226	-0,034	0,057
-370,015	11,536	0,075	0,042
-369,000	-200,000	-0,002	0,173
-367,985	-140,231	0,076	0,006
-366,971	800,000	0,037	-0,085
-365,956	800,000	-0,021	-0,063
-364,942	800,000	-0,045	-0,113
-363,927	309,631	0,083	-0,114
-362,912	800,000	-0,013	-0,028
-361,898	251,067	-0,030	-0,038
-360,883	-47,360	0,019	-0,007
-359,869	73,269	-0,096	-0,073
-358,854	-112,204	-0,094	0,014
-357,839	167,343	0,194	0,202
-356,825	-200,000	-0,011	-0,240
-355,810	52,002	-0,092	0,064
-354,796	-144,515	0,056	0,004
-353,781	-74,483	-0,100	-0,026
-352,766	800,000	0,071	0,158
-351,752	-200,000	-0,004	0,114
-350,737	-54,418	0,123	-0,041
-349,723	800,000	0,061	-0,180
-348,708	181,772	0,071	0,076
-347,693	43,340	-0,058	-0,038
-346,679	-200,000	-0,000	-0,003
-345,664	-200,000	0,007	-0,056
-344,650	128,425	-0,062	-0,057
-343,635	-200,000	-0,019	-0,119
-342,620	125,756	-0,112	0,103
-341,606	390,655	0,048	0,073
-340,591	-116,484	0,074	0,010
-339,577	800,000	-0,032	0,067
-338,562	190,725	0,058	0,063
-337,548	174,034	-0,088	0,093
-336,533	383,139	0,036	0,054
-335,518	98,985	0,055	-0,046
-334,504	112,532	0,034	0,030
-333,489	251,587	-0,019	-0,023
-332,475	-59,858	-0,159	-0,049
-331,460	19,878	0,078	-0,046
-330,445	-35,944	-0,080	0,031
-329,431	253,521	0,036	-0,045
-328,416	345,486	-0,033	0,047
-327,402	176,716	0,022	0,023
-326,387	-20,341	0,066	-0,029
-325,372	-14,769	-0,155	0,072
-324,358	-200,000	-0,016	-0,076
-323,343	-49,301	0,128	-0,044
-322,329	0,004	-0,074	-0,039
-321,314	-100,630	-0,111	0,020
-320,299	671,962	-0,076	0,144
-319,285	-200,000	0,004	0,064
-318,270	-200,000	0,028	0,104
-317,256	-45,571	-0,104	0,037
-316,241	-200,000	0,004	-0,013
-315,226	-64,458	0,072	-0,021
-314,212	135,908	0,020	0,019
-313,197	106,936	0,041	0,035
-312,183	-200,000	-0,002	0,083
-311,168	800,000	0,043	-0,111
-310,153	-200,000	-0,026	0,109
-309,139	571,474	0,066	0,118
-308,124	800,000	0,018	0,040
-307,110	-35,599	0,061	0,024
-306,095	800,000	0,079	0,166
-305,080	617,177	-0,031	-0,056
-304,066	-177,603	0,077	0,001
-303,051	800,000	-0,062	0,166
-302,037	383,156	-0,012	0,018
-301,022	-95,821	-0,059	-0,011
-300,008	-177,528	-0,139	0,002
-298,993	-89,693	0,039	-0,008
-297,978	-200,000	-0,057	0,189
-296,964	41,510	-0,014	-0,009
-295,949	-153,243	-0,052	0,003
-294,935	-96,636	-0,092	0,017
-293,920	68,474	0,057	-0,042
-292,905	-200,000	-0,018	0,161
-291,891	131,420	0,048	0,045
-290,876	-18,883	0,088	0,040
-289,862	-10,423	-0,127	-0,061
-288,847	-200,000	-0,002	-0,099
-287,832	-94,466	-0,069	0,014
-286,818	74,419	0,114	0,087
-285,803	-33,508	0,022	0,009
-284,789	258,014	-0,049	-0,062
-283,774	365,536	0,039	-0,057
-282,759	28,325	-0,019	0,012
-281,745	69,227	-0,092	0,068
-280,730	-200,000	0,019	-0,065
-279,716	448,536	0,111	0,178
-278,701	-200,000	0,004	0,083
-277,686	496,697	-0,049	0,083
-276,672	-41,826	0,097	-0,036
-275,657	665,189	-0,013	-0,025
-274,643	-70,195	0,079	0,022
-273,628	77,124	-0,083	0,065
-272,613	83,670	0,067	0,053
-271,599	-200,000	-0,002	-0,058
-270,584	-129,634	-0,019	0,002
-269,570	-200,000	0,020	0,074
-268,555	108,619	0,091	-0,079
-267,540	447,975	0,019	-0,031
-266,526	432,764	-0,067	-0,106
-265,511	-108,911	-0,056	0,009
-264,497	800,000	-0,026	-0,067
-263,482	-78,125	0,087	-0,022
-262,467	-200,000	0,026	0,087
-261,453	-200,000	0,050	0,209
-260,438	555,461	0,031	0,054
-259,424	-200,000	-0,013	0,139
-258,409	-167,605	0,091	0,003
-257,395	-200,000	-0,016	-0,134
-256,380	104,812	0,035	0,030
-255,365	800,000	0,037	0,110
-254,351	-200,000	-0,009	0,110
-253,336	800,000	-0,028	0,082
-252,322	721,502	0,027	-0,053
-251,307	511,951	0,049	0,083
-250,292	-200,000	-0,008	0,065
-249,278	800,000	0,025	0,059
-248,263	-200,000	0,042	0,168
-247,249	-200,000	0,026	0,090
-246,234	-29,522	-0,135	-0,056
-245,219	-200,000	0,008	0,099
-244,205	-200,000	-0,025	0,137
-243,190	314,130	-0,126	-0,172
-242,176	-200,000	-0,008	-0,069
-241,161	800,000	-0,041	-0,091
-240,146	-38,175	0,085	0,033
-239,132	3,925	-0,025	-0,013
-238,117	800,000	-0,016	0,047
-237,103	14,975	-0,085	-0,048
-236,088	-200,000	0,008	0,055
-235,073	800,000	-0,024	0,055
-234,059	800,000	-0,128	0,302
-233,044	15,345	-0,111	0,063
-232,030	-85,973	-0,092	-0,021
-231,015	-200,000	0,030	-0,123
-230,000	297,802	0,039	0,053
-228,986	-13,852	0,129	-0,060
-227,971	74,594	-0,073	-0,056
-226,957	800,000	-0,052	0,130
-225,942	-147,833	0,087	0,005
-224,927	800,000	-0,040	-0,121
-223,913	-63,262	0,219	0,065
-222,898	-79,934	-0,167	-0,040
-221,884	-15,802	-0,112	-0,052
-220,869	514,812	-0,025	-0,043
-219,855	10,715	-0,060	-0,033
-218,840	202,187	0,025	-0,028
-217,825	194,653	0,061	-0,067
-216,811	-69,407	0,049	-0,013
-215,796	-200,000	0,003	-0,071
-214,782	-200,000	0,010	-0,100
-213,767	-200,000	-0,024	-0,133
-212,752	-66,911	0,192	0,055
-211,738	4,865	-0,017	0,009
-210,723	437,567	-0,056	-0,089
-209,709	-133,038	-0,068	-0,006
-208,694	-200,000	-0,018	-0,212
-207,679	424,153	0,043	0,067
-206,665	-200,000	0,000	-0,004
-205,650	-200,000	0,022	0,077
-204,636	613,530	-0,030	0,055
-203,621	101,400	-0,085	-0,072
-202,606	254,128	0,016	-0,020
-201,592	3,820	0,100	-0,053
-200,577	800,000	-0,024	0,051
-199,563	-157,552	-0,018	-0,001
-198,548	94,256	0,006	-0,005
-197,533	-200,000	0,005	0,102
-196,519	215,056	-0,041	0,047
-195,504	592,173	-0,030	0,055
-194,490	89,840	-0,009	-0,007
-193,475	148,694	-0,009	0,009
-192,460	200,738	0,035	0,039
-191,446	-137,567	0,098	-0,008
-190,431	4,905	-0,070	0,038
-189,417	-126,272	0,147	0,016
-188,402	800,000	0,076	-0,174
-187,387	800,000	-0,056	-0,162
-186,373	-63,502	-0,059	0,017
-185,358	-200,000	0,029	-0,170
-184,344	-19,908	-0,069	0,031
-183,329	354,765	0,025	0,036
-182,315	178,885	0,120	0,128
-181,300	800,000	-0,032	0,101
-180,285	800,000	0,024	-0,056
-179,271	-200,000	-0,014	-0,139
-178,256	-200,000	0,005	0,023
-177,242	-39,109	0,070	-0,026
-176,227	800,000	0,041	-0,110
-175,212	290,278	0,037	-0,048
-174,198	-130,207	0,031	0,003
-173,183	598,113	-0,008	-0,015
-172,169	-200,000	-0,014	-0,208
-171,154	22,187	-0,043	0,025
-170,139	-200,000	0,006	0,090
-169,125	343,710	0,065	0,092
-168,110	-200,000	0,029	0,155
-167,096	-126,293	-0,039	-0,004
-166,081	-65,779	0,054	0,016
-165,066	-16,186	-0,187	-0,086
-164,052	-147,457	0,079	0,005
-163,037	-200,000	0,011	0,036
-162,023	800,000	0,003	0,005
-161,008	193,171	0,052	0,057
-159,993	97,654	0,052	-0,043
-158,979	127,737	-0,038	-0,035
-157,964	800,000	-0,038	-0,088
-156,950	19,752	-0,163	-0,095
-155,935	47,822	0,107	0,072
-154,920	800,000	-0,068	0,194
-153,906	-200,000	-0,003	-0,020
-152,891	336,084	0,014	0,020
-151,877	250,127	-0,121	-0,149
-150,862	-200,000	-0,038	-0,140
-149,847	800,000	-0,012	0,027
-148,833	239,875	-0,068	0,082
-147,818	-200,000	0,018	0,107
-146,804	-200,000	-0,012	0,083
-145,789	-200,000	0,003	0,079
-144,775	529,598	-0,016	-0,028
-143,760	295,309	-0,073	-0,096
-142,745	800,000	-0,066	-0,146
-141,731	-200,000	-0,037	0,136
-140,716	800,000	0,056	0,125
-139,702	172,545	0,156	0,163
-138,687	-77,999	-0,125	0,031
-137,672	184,414	-0,017	0,018
-136,658	-68,968	0,043	-0,012
-135,643	394,110	0,064	-0,097
-134,629	219,513	-0,084	-0,097
-133,614	-200,000	0,027	-0,088
-132,599	168,184	-0,022	0,023
-131,585	-178,047	-0,082	-0,001
-130,570	-9,452	-0,107	-0,052
-129,556	-13,638	0,103	0,048
-128,541	-28,971	0,141	-0,059
-127,526	-38,918	-0,075	0,029
-126,512	-116,676	0,188	0,025
-125,497	-200,000	-0,011	0,149
-124,483	257,213	0,106	0,132
-123,468	227,436	0,119	-0,141
-122,453	-70,086	-0,129	0,035
-121,439	-200,000	0,011	0,174
-120,424	70,171	-0,094	0,070
-119,410	-200,000	0,012	0,225
-118,395	188,903	-0,086	0,093
-117,380	-185,173	0,125	-0,001
-116,366	15,583	-0,169	0,096
-115,351	-162,574	-0,166	-0,006
-114,337	800,000	-0,040	-0,125
-113,322	800,000	-0,035	0,090
-112,307	-200,000	0,003	-0,009
-111,293	-200,000	-0,006	0,033
-110,278	800,000	0,002	-0,005
-109,264	-115,176	0,067	-0,009
-108,249	672,253	0,015	0,028
-107,234	800,000	0,026	0,069
-106,220	-200,000	0,030	0,114
-105,205	131,994	0,074	0,069
-104,191	-22,775	-0,033	0,014
-103,176	-200,000	0,040	0,129
-102,162	68,259	0,107	0,079
-101,147	230,494	-0,120	0,142
-100,132	-108,683	0,075	-0,011
-99,118	-200,000	0,012	0,063
-98,103	118,313	0,065	0,058
-97,089	-19,957	0,162	0,072
-96,074	-22,796	0,054	0,024
-95,059	-200,000	0,003	0,016
-94,045	800,000	-0,042	-0,100
-93,030	-200,000	0,003	0,021
-92,016	800,000	-0,030	-0,066
-91,001	126,122	0,041	0,037
-89,986	-63,955	0,112	0,033
-88,972	-200,000	-0,025	-0,140
-87,957	-8,594	0,058	0,028
-86,943	-142,816	-0,057	-0,004
-85,928	-200,000	-0,004	-0,089
-84,913	-200,000	-0,044	-0,143
-83,899	229,644	-0,030	-0,035
-82,884	662,825	-0,027	0,050
-81,870	519,137	0,063	0,107
-80,855	14,525	-0,031	-0,017
-79,840	-200,000	-0,009	-0,044
-78,826	-200,000	-0,035	0,139
-77,811	-200,000	-0,008	-0,113
-76,797	-103,876	0,062	-0,010
-75,782	-114,528	-0,085	-0,012
-74,767	-19,339	0,133	0,059
-73,753	201,804	0,032	-0,036
-72,738	25,408	0,026	0,015
-71,724	-87,382	-0,152	-0,033
-70,709	71,018	-0,089	-0,066
-69,694	-200,000	-0,017	-0,138
-68,680	800,000	-0,057	-0,132
-67,665	189,656	0,061	-0,066
-66,651	-31,320	0,048	-0,019
-65,636	-115,028	-0,142	-0,019
-64,622	800,000	0,009	-0,022
-63,607	800,000	-0,052	-0,130
-62,592	602,646	-0,081	-0,146
-61,578	-95,822	-0,042	0,008
-60,563	-200,000	0,004	-0,040
-59,549	435,128	-0,048	0,076
-58,534	-39,953	-1,721	-0,645
-57,519	800,000	-0,416	-1,059
-56,505	-200,000	-1,035	-4,653
-55,490	-102,140	0,682	0,117
-54,476	800,000	5,332	12,303
-53,461	-200,000	15,892	278,854
-52,446	-200,000	702,824	2249,078
-51,432	565,355	1618,924	2845,171
-50,417	122,025	1622,856	1462,473
-49,403	82,776	1284,079	1006,668
-48,388	36,877	1028,460	655,069
-47,373	21,505	990,256	579,895
-46,359	20,433	978,780	569,617
-45,344	18,794	974,636	561,792
-44,330	18,863	973,396	561,284
-43,315	18,603	971,726	559,445
-42,300	18,549	970,556	558,571
-41,286	18,569	969,629	558,084
-40,271	18,527	968,754	557,421
-39,257	18,536	967,893	556,930
-38,242	18,529	967,174	556,472
-37,227	18,500	966,482	555,956
-36,213	18,464	965,670	555,349
-35,198	18,444	964,677	554,691
-34,184	18,581	963,947	554,699
-33,169	18,457	963,061	553,760
-32,154	18,581	962,033	553,552
-31,140	18,528	961,467	553,033
-30,125	18,568	960,589	552,635
-29,111	18,555	959,728	552,077
-28,096	18,551	959,030	551,639
-27,082	18,463	958,351	550,943
-26,067	18,521	957,710	550,740
-25,052	18,485	956,848	550,104
-24,038	18,538	956,066	549,804
-23,023	18,490	955,366	549,227
-22,009	18,491	954,760	548,858
-20,994	18,547	954,176	548,681
-19,979	18,562	953,419	548,273
-18,965	18,482	952,970	547,736
-17,950	18,491	952,357	547,389
-16,936	18,499	951,657	546,993
-15,921	18,443	951,099	546,470
-14,906	18,349	950,383	545,735
-13,892	18,390	949,713	545,460
-12,877	18,400	948,836	544,966
-11,863	18,349	948,376	544,519
-10,848	18,384	947,801	544,278
-9,833	18,493	947,330	544,336
-8,819	18,433	946,843	543,843
-7,804	18,381	945,890	543,105
-6,790	18,402	945,400	542,872
-5,775	18,416	944,935	542,628
-4,760	18,467	944,129	542,305
-3,746	18,390	943,662	541,770
-2,731	18,224	942,987	540,833
-1,717	18,234	942,230	540,410
-0,702	18,214	941,587	539,955
0,313	17,998	940,963	539,725
1,327	21,177	939,163	548,714
2,342	30,214	796,507	489,440
3,356	27,384	449,671	272,042
4,371	-2,500	295,519	148,812
5,386	-6,874	276,833	135,230
6,400	-7,972	271,112	131,399
7,415	-8,257	268,749	129,979
8,429	-8,351	267,600	129,326
9,444	-8,296	266,586	128,874
10,459	-8,272	266,086	128,643
11,473	-8,367	265,443	128,234
12,488	-8,460	264,864	127,858
13,502	-8,561	264,246	127,456
14,517	-8,535	263,878	127,291
15,531	-8,333	263,565	127,312
16,546	-8,321	263,160	127,116
17,561	-8,386	262,847	126,895
18,575	-8,314	262,381	126,723
19,590	-8,411	262,122	126,500
20,604	-8,173	261,752	126,524
21,619	-8,389	261,567	126,229
22,634	-8,388	261,140	126,013
23,648	-8,380	260,758	125,824
24,663	-8,472	260,526	125,619
25,677	-8,562	260,494	125,512
26,692	-8,305	259,984	125,484
27,707	-8,430	259,750	125,248
28,721	-8,501	259,561	125,083
29,736	-8,418	259,259	125,000
30,750	-8,719	258,995	124,594
31,765	-8,596	258,819	124,607
32,780	-8,497	258,487	124,524
33,794	-8,370	258,219	124,496
34,809	-8,519	258,002	124,249
35,823	-8,621	257,861	124,079
36,838	-8,605	257,540	123,928
37,853	-8,641	257,308	123,774
38,867	-8,685	257,094	123,621
39,882	-8,471	256,874	123,692
40,896	-8,648	256,660	123,423
41,911	-8,478	256,434	123,452
42,926	-8,755	256,266	123,118
43,940	-8,858	256,124	122,948
44,955	-8,647	255,780	122,957
45,969	-8,741	255,564	122,760
46,984	-9,047	255,268	122,338
47,999	-9,146	254,881	122,056
49,013	-9,190	254,695	121,917
50,028	-9,512	254,482	121,523
51,042	-9,247	254,126	121,573
52,057	-9,377	253,995	121,386
53,071	-9,393	253,773	121,256
54,086	-9,501	253,610	121,073
55,101	-9,231	253,489	121,239
56,115	-8,826	253,245	121,463
57,130	-8,587	253,242	121,658
58,144	-8,112	252,963	121,925
59,159	-8,329	252,915	121,703
60,174	-8,364	252,703	121,560
61,188	-8,472	252,529	121,373
62,203	-8,333	252,079	121,265
63,217	-8,305	251,920	121,202
64,232	-8,528	251,776	120,929
65,247	-8,586	251,579	120,774
66,261	-8,331	251,333	120,865
67,276	-8,739	251,052	120,368
68,290	-8,794	250,730	120,156
69,305	-8,937	250,497	119,911
70,320	-8,852	250,309	119,882
71,334	-8,846	250,370	119,906
72,349	-8,591	250,149	120,009
73,363	-8,386	249,989	120,096
74,378	-8,358	249,690	119,965
75,393	-8,429	249,524	119,815
76,407	-8,447	249,445	119,751
77,422	-8,594	249,267	119,529
78,436	-8,558	249,003	119,422
79,451	-8,432	248,725	119,386
80,466	-8,600	248,470	119,110
81,480	-8,898	248,259	118,745
82,495	-8,800	248,034	118,710
83,509	-8,682	247,917	118,743
84,524	-8,781	247,760	118,574
85,539	-8,976	247,552	118,299
86,553	-8,690	247,117	118,322
87,568	-8,730	247,111	118,274
88,582	-8,884	246,849	118,009
89,597	-8,732	246,671	118,042
90,611	-8,683	246,529	118,005
91,626	-8,402	246,308	118,125
92,641	-8,472	246,171	117,990
93,655	-8,579	245,994	117,804
94,670	-8,707	245,720	117,555
95,684	-8,662	245,604	117,527
96,699	-8,521	245,537	117,602
97,714	-8,759	245,291	117,275
98,728	-8,925	245,059	117,015
99,743	-8,821	244,738	116,938
100,757	-8,858	244,487	116,776
101,772	-9,055	244,454	116,586
102,787	-8,706	244,298	116,792
103,801	-8,632	244,161	116,778
104,816	-8,658	244,110	116,721
105,830	-8,647	243,755	116,550
106,845	-8,672	243,745	116,515
107,860	-8,464	243,503	116,561
108,874	-8,647	243,311	116,307
109,889	-8,675	243,013	116,130
110,903	-8,783	242,747	115,904
111,918	-8,823	242,498	115,741
112,933	-8,898	242,672	115,752
113,947	-8,549	242,328	115,867
114,962	-8,679	242,274	115,722
115,976	-8,554	241,992	115,680
116,991	-8,433	241,739	115,649
118,006	-8,598	241,599	115,436
119,020	-8,595	241,643	115,450
120,035	-8,504	241,362	115,380
121,049	-8,543	241,226	115,273
122,064	-8,445	240,959	115,215
123,079	-8,566	240,976	115,113
124,093	-8,649	240,698	114,903
125,108	-9,007	240,543	114,525
126,122	-9,175	240,207	114,217
127,137	-9,137	240,010	114,144
128,151	-8,937	239,811	114,202
129,166	-8,902	239,637	114,138
130,181	-9,021	239,470	113,952
131,195	-8,926	239,231	113,905
132,210	-8,996	239,094	113,772
133,224	-8,608	239,058	114,061
134,239	-8,557	238,897	114,015
135,254	-8,584	238,758	113,917
136,268	-8,643	238,305	113,643
137,283	-8,983	238,175	113,296
138,297	-9,187	238,072	113,071
139,312	-8,928	237,693	113,090
140,327	-8,679	237,648	113,261
141,341	-8,153	237,553	113,630
142,356	-8,352	237,558	113,461
143,370	-8,171	237,325	113,486
144,385	-8,210	237,216	113,392
145,400	-8,267	237,152	113,306
146,414	-8,244	236,884	113,186
147,429	-8,203	236,693	113,118
148,443	-8,500	236,560	112,805
149,458	-8,322	236,416	112,869
150,473	-8,152	236,110	112,850
151,487	-8,465	236,012	112,542
152,502	-8,335	235,727	112,500
153,516	-8,393	235,719	112,440
154,531	-8,314	235,494	112,386
155,546	-8,378	235,267	112,216
156,560	-8,376	235,170	112,161
157,575	-8,479	234,901	111,941
158,589	-8,510	234,754	111,836
159,604	-8,419	234,717	111,881
160,619	-8,118	234,570	112,040
161,633	-8,304	234,224	111,718
162,648	-8,319	234,377	111,769
163,662	-8,288	234,130	111,665
164,677	-8,401	233,877	111,445
165,692	-8,282	233,647	111,420
166,706	-8,207	233,615	111,454
167,721	-7,956	233,425	111,553
168,735	-8,034	233,374	111,456
169,750	-8,214	233,148	111,196
170,764	-8,182	233,059	111,169
171,779	-8,085	232,794	111,109
172,794	-8,208	232,819	111,015
173,808	-8,356	232,386	110,681
174,823	-8,773	232,114	110,214
175,837	-8,838	231,938	110,069
176,852	-8,659	232,016	110,237
177,867	-8,318	231,914	110,447
178,881	-8,198	231,707	110,433
179,896	-8,194	231,560	110,356
180,910	-8,004	231,402	110,420
181,925	-8,180	231,284	110,216
182,940	-8,303	231,207	110,073
183,954	-8,260	231,015	110,005
184,969	-8,046	230,837	110,078
185,983	-7,926	230,705	110,099
186,998	-8,039	230,701	109,999
188,013	-7,987	230,525	109,946
189,027	-7,893	230,267	109,886
190,042	-7,711	230,085	109,931
191,056	-8,092	229,890	109,532
192,071	-8,089	229,935	109,546
193,086	-8,158	229,619	109,332
194,100	-8,116	229,549	109,322
195,115	-8,614	229,162	108,741
196,129	-9,184	228,798	108,117
197,144	-4,311	230,315	112,620
198,159	1,099	231,988	117,659
199,173	3,289	232,398	119,569
200,188	3,725	232,287	119,841
201,202	3,481	232,347	119,671
202,217	3,853	232,145	119,846
203,232	3,802	232,079	119,761
204,246	3,838	232,073	119,776
205,261	3,991	231,921	119,806
206,275	4,205	231,750	119,874
207,290	4,269	231,600	119,835
208,304	4,336	231,386	119,766
209,319	4,225	231,220	119,583
210,334	4,295	231,159	119,595
211,348	3,835	230,732	119,007
212,363	3,698	230,453	118,746
213,377	3,430	230,341	118,471
214,392	3,393	230,121	118,318
215,407	3,501	230,106	118,384
216,421	3,589	230,089	118,433
217,436	3,382	229,681	118,052
218,450	3,212	229,498	117,817
219,465	3,062	229,491	117,688
220,480	3,035	229,254	117,535
221,494	3,242	229,260	117,686
222,509	3,312	229,129	117,662
223,523	3,442	228,916	117,642
224,538	3,352	228,760	117,483
225,553	3,352	228,610	117,395
226,567	3,452	228,466	117,387
227,582	3,572	228,334	117,401
228,596	3,819	228,342	117,583
229,611	3,566	228,019	117,214
230,626	3,110	227,864	116,775
231,640	3,231	227,666	116,755
232,655	3,472	227,703	116,948
233,669	4,236	227,578	117,456
234,684	4,101	227,309	117,204
235,699	3,942	227,124	116,976
236,713	3,457	226,931	116,499
237,728	3,268	226,881	116,319
238,742	3,241	226,491	116,088
239,757	3,280	226,565	116,146
240,772	3,435	226,469	116,203
241,786	3,172	226,181	115,846
242,801	3,335	226,214	115,976
243,815	3,642	226,210	116,196
244,830	3,731	225,824	116,054
245,844	3,570	225,577	115,796
246,859	3,557	225,552	115,762
247,874	3,676	225,406	115,767
248,888	3,614	225,224	115,617
249,903	3,558	225,066	115,483
250,917	3,475	224,913	115,332
251,932	3,447	224,826	115,256
252,947	3,256	224,664	115,019
253,961	3,275	224,382	114,879
254,976	3,152	224,304	114,736
255,990	3,367	224,297	114,884
257,005	3,519	224,168	114,921
258,020	3,709	223,938	114,935
259,034	3,953	223,906	115,092
260,049	3,828	223,633	114,848
261,063	3,522	223,495	114,538
262,078	3,744	223,419	114,654
263,093	3,746	223,404	114,637
264,107	3,426	223,224	114,297
265,122	3,793	223,019	114,455
266,136	3,768	223,052	114,443
267,151	3,900	222,753	114,378
268,166	3,516	222,388	113,895
269,180	2,986	222,357	113,475
270,195	3,170	222,214	113,529
271,209	3,240	221,904	113,412
272,224	3,298	221,823	113,403
273,239	3,452	221,807	113,499
274,253	3,397	221,462	113,271
275,268	3,160	221,325	113,016
276,282	3,124	221,218	112,925
277,297	3,098	221,041	112,805
278,312	3,184	220,893	112,783
279,326	3,244	220,764	112,752
280,341	3,383	220,742	112,833
281,355	3,175	220,752	112,674
282,370	3,372	220,462	112,662
283,384	3,437	220,106	112,517
284,399	3,123	220,097	112,272
285,414	3,310	219,864	112,280
286,428	3,308	219,893	112,284
287,443	3,718	219,674	112,462
288,457	3,844	219,559	112,485
289,472	3,354	219,408	112,040
290,487	2,973	219,147	111,618
291,501	3,027	219,033	111,590
292,516	3,137	218,970	111,628
293,530	3,316	218,816	111,670
294,545	3,004	218,673	111,359
295,560	3,454	218,517	111,597
296,574	3,555	218,372	111,587
297,589	3,492	218,384	111,538
298,603	3,395	218,281	111,405
299,618	3,520	218,122	111,404
300,633	3,301	217,922	111,133
301,647	3,545	217,940	111,310
302,662	3,871	217,619	111,372
303,676	3,698	217,615	111,235
304,691	3,637	217,489	111,116
305,706	3,560	217,278	110,942
306,720	3,659	217,137	110,933
307,735	3,323	216,945	110,582
308,749	3,079	216,799	110,321
309,764	3,498	216,684	110,555
310,779	3,673	216,536	110,596
311,793	3,550	216,356	110,405
312,808	3,153	216,328	110,095
313,822	3,320	216,049	110,064
314,837	3,385	216,041	110,097
315,852	3,474	215,838	110,048
316,866	3,465	215,675	109,948
317,881	3,553	215,689	110,008
318,895	3,652	215,530	109,988
319,910	3,482	215,259	109,719
320,925	3,225	215,002	109,394
321,939	3,003	214,938	109,193
322,954	3,189	214,820	109,256
323,968	3,425	214,853	109,432
324,983	3,412	214,666	109,318
325,997	3,871	214,478	109,539
327,012	3,506	214,448	109,254
328,027	3,603	214,256	109,216
329,041	3,675	214,230	109,244
330,056	3,766	214,107	109,236
331,070	3,518	213,665	108,825
332,085	3,199	213,594	108,553
333,100	3,358	213,461	108,588
334,114	3,352	213,386	108,536
335,129	3,474	213,168	108,502
336,143	3,505	213,002	108,429
337,158	3,488	212,894	108,353
338,173	3,207	212,839	108,117
339,187	3,271	212,637	108,049
340,202	3,127	212,430	107,833
341,216	3,054	212,324	107,718
342,231	3,313	212,250	107,853
343,246	3,205	212,147	107,716
344,260	3,149	211,900	107,542
345,275	3,406	211,894	107,710
346,289	3,463	211,758	107,671
347,304	3,369	211,656	107,544
348,319	3,270	211,545	107,408
349,333	3,459	211,237	107,374
350,348	3,519	211,276	107,427
351,362	3,461	211,217	107,346
352,377	3,639	210,952	107,327
353,392	3,331	210,926	107,089
354,406	3,460	210,851	107,131
355,421	195,014	1343,996	1428,834
356,435	155,723	1482,087	1428,873
