DTS Sentinel unit serial number:	SN410029Multiplexer serial number:	ORYXHardware model number:	OX2-SRSoftware version number:	ORYX F/W v4,00 Oryx Data Collector v3.7.2.0data status	okinstallation	B6 Nyhavnadifferential loss correction	single-endedforward channel	channel 2reverse channel	N/Adate	2023/12/09time	16:50:08forward acquisition time	300,00reverse acquisition time	0,00gamma	499,1914k internal	0,3131k external	0,3131temperature offset calibration	1,0000default loss term (dB/km)	0,3820temperature slope calibration	1,0000multiplexer offset coefficient	1,0000multiplexer slope coefficient	1,0000fibre end	0,00T internal ref (°C)	20,93T ext. ref 1 (°C)	4,70T ext. ref 2 (°C)	4,69length (m)	temperature (°C)	Stokes	anti-Stokes-744,400	650,615	-0,064	-0,123
-743,385	131,714	-0,079	0,075
-742,371	-200,000	0,028	0,118
-741,356	265,533	-0,186	0,241
-740,342	-92,846	0,190	0,039
-739,327	-67,816	-0,298	0,086
-738,312	-73,570	0,158	0,043
-737,298	16,704	-0,289	0,170
-736,283	31,468	0,072	-0,046
-735,269	3,489	-0,247	-0,134
-734,254	800,000	0,038	-0,112
-733,239	-91,903	-0,406	-0,085
-732,225	800,000	0,039	0,103
-731,210	-88,056	0,096	-0,021
-730,196	-89,149	-0,057	-0,012
-729,181	-200,000	0,012	0,047
-728,167	800,000	0,098	-0,241
-727,152	39,173	-0,009	-0,006
-726,137	-50,741	-0,134	-0,047
-725,123	388,946	-0,055	-0,085
-724,108	129,346	-0,115	-0,109
-723,094	-132,055	-0,166	-0,016
-722,079	29,292	-0,105	-0,066
-721,064	-200,000	0,025	-0,145
-720,050	168,736	0,060	0,064
-719,035	3,577	-0,176	0,095
-718,021	-200,000	-0,023	-0,113
-717,006	82,211	-0,045	0,036
-715,991	72,596	-0,131	-0,101
-714,977	580,865	-0,029	-0,053
-713,962	91,819	-0,041	-0,034
-712,948	333,186	0,079	0,114
-711,933	17,899	-0,121	-0,071
-710,918	348,478	-0,101	-0,148
-709,904	16,249	-0,127	-0,074
-708,889	-77,021	-0,166	0,043
-707,875	-38,760	-0,112	-0,043
-706,860	-141,367	-0,063	0,005
-705,845	-45,660	0,094	-0,034
-704,831	-200,000	0,008	-0,052
-703,816	444,608	-0,016	-0,027
-702,802	166,622	-0,056	-0,059
-701,787	-145,833	-0,077	0,005
-700,772	800,000	0,115	-0,246
-699,758	800,000	-0,088	-0,269
-698,743	116,770	0,087	-0,079
-697,729	800,000	0,022	0,065
-696,714	-101,175	0,127	-0,023
-695,699	-200,000	-0,001	-0,104
-694,685	93,695	0,086	-0,072
-693,670	77,572	0,019	0,015
-692,656	-200,000	-0,019	-0,072
-691,641	-200,000	-0,004	-0,067
-690,627	800,000	-0,046	-0,112
-689,612	77,525	-0,028	0,022
-688,597	54,839	0,044	-0,031
-687,583	29,746	-0,096	-0,061
-686,568	149,687	-0,087	-0,087
-685,554	500,030	-0,027	-0,046
-684,539	-45,026	0,048	0,018
-683,524	-76,281	-0,063	-0,016
-682,510	-200,000	0,003	0,013
-681,495	0,880	-0,082	0,044
-680,481	-126,096	0,089	-0,010
-679,466	145,248	0,043	0,042
-678,451	218,465	0,012	0,015
-677,437	403,888	-0,046	0,073
-676,422	-114,008	0,102	-0,014
-675,408	-66,493	0,109	0,032
-674,393	208,961	0,020	-0,024
-673,378	-93,651	-0,145	-0,029
-672,364	-200,000	-0,010	-0,049
-671,349	-55,848	-0,106	-0,035
-670,335	511,630	-0,036	0,063
-669,320	54,716	0,119	0,085
-668,305	-200,000	-0,035	0,167
-667,291	800,000	0,022	0,065
-666,276	-47,027	0,062	0,022
-665,262	-149,198	-0,030	-0,002
-664,247	800,000	0,044	-0,142
-663,232	-1,592	0,010	0,005
-662,218	-43,010	0,013	-0,005
-661,203	115,175	0,041	0,037
-660,189	800,000	0,010	-0,028
-659,174	134,420	-0,046	-0,044
-658,159	12,726	-0,182	-0,104
-657,145	800,000	0,034	-0,107
-656,130	-200,000	0,015	-0,061
-655,116	800,000	0,025	0,070
-654,101	800,000	0,040	0,125
-653,086	206,812	-0,117	-0,136
-652,072	-200,000	-0,002	0,022
-651,057	121,349	-0,122	0,113
-650,043	-200,000	-0,061	-0,201
-649,028	192,897	0,047	-0,052
-648,014	27,831	0,090	0,056
-646,999	148,618	-0,056	-0,056
-645,984	221,277	0,126	-0,150
-644,970	-40,741	-0,029	-0,011
-643,955	-200,000	-0,024	-0,148
-642,941	112,684	-0,066	-0,059
-641,926	5,477	-0,102	-0,056
-640,911	-53,102	0,119	0,040
-639,897	-63,175	0,017	-0,005
-638,882	73,532	-0,128	0,099
-637,868	103,135	0,013	-0,012
-636,853	800,000	-0,037	-0,091
-635,838	-124,182	-0,111	-0,013
-634,824	426,089	-0,035	-0,055
-633,809	-67,801	-0,024	-0,007
-632,795	207,443	-0,096	0,111
-631,780	800,000	0,075	0,156
-630,765	-73,586	0,164	0,044
-629,751	800,000	-0,027	-0,078
-628,736	-200,000	0,010	0,040
-627,722	712,813	-0,069	0,137
-626,707	-15,561	-0,062	0,029
-625,692	79,094	0,149	0,118
-624,678	-75,376	0,059	0,016
-623,663	-119,794	0,072	0,009
-622,649	-33,572	-0,050	0,020
-621,634	22,766	-0,145	-0,087
-620,619	372,105	0,038	-0,057
-619,605	-31,715	0,156	0,064
-618,590	85,677	0,069	0,056
-617,576	533,556	-0,032	-0,057
-616,561	250,670	-0,082	-0,104
-615,546	-88,374	0,068	-0,015
-614,532	-43,100	0,129	-0,048
-613,517	167,791	0,060	0,063
-612,503	244,936	-0,034	-0,042
-611,488	115,871	0,030	0,028
-610,474	800,000	-0,055	0,118
-609,459	-10,842	0,094	-0,046
-608,444	-31,585	-0,095	-0,039
-607,430	771,481	-0,060	-0,122
-606,415	-200,000	0,017	-0,084
-605,401	800,000	-0,035	-0,092
-604,386	-85,705	0,063	0,014
-603,371	229,794	0,034	-0,041
-602,357	-96,409	-0,113	0,022
-601,342	800,000	-0,016	0,038
-600,328	-14,008	0,025	0,012
-599,313	355,011	-0,013	0,019
-598,298	222,165	-0,087	-0,103
-597,284	-200,000	-0,012	0,074
-596,269	-44,851	-0,060	-0,022
-595,255	-200,000	0,024	0,082
-594,240	-20,778	-0,142	-0,064
-593,225	472,308	0,096	-0,160
-592,211	-200,000	0,004	-0,026
-591,196	77,994	-0,044	-0,035
-590,182	-85,232	0,055	-0,013
-589,167	800,000	-0,024	0,051
-588,152	91,555	0,051	0,043
-587,138	-200,000	0,023	0,118
-586,123	445,712	0,012	0,020
-585,109	-111,400	0,011	-0,002
-584,094	-200,000	0,020	-0,094
-583,079	36,559	0,062	0,040
-582,065	642,088	-0,037	-0,069
-581,050	122,170	-0,032	-0,030
-580,036	151,380	0,188	0,190
-579,021	-84,620	-0,128	-0,030
-578,006	348,453	-0,071	-0,104
-576,992	-200,000	0,004	0,062
-575,977	-49,324	-0,110	0,039
-574,963	92,202	-0,086	0,071
-573,948	535,545	-0,023	-0,040
-572,934	102,925	0,101	0,088
-571,919	-50,551	0,085	0,029
-570,904	-44,028	0,067	0,025
-569,890	-59,280	-0,032	-0,010
-568,875	-97,342	-0,134	0,026
-567,861	-151,116	0,050	-0,003
-566,846	-143,125	-0,096	0,007
-565,831	-180,175	-0,039	-0,001
-564,817	-13,798	0,028	0,013
-563,802	-21,243	0,010	0,004
-562,788	52,022	0,053	-0,038
-561,773	-200,000	0,010	-0,089
-560,758	800,000	0,029	0,080
-559,744	210,219	-0,010	-0,011
-558,729	183,892	-0,087	0,095
-557,715	172,651	0,038	0,040
-556,700	-200,000	-0,009	-0,181
-555,685	-121,367	-0,063	-0,008
-554,671	-200,000	0,015	-0,083
-553,656	-200,000	0,013	0,075
-552,642	6,893	0,049	0,027
-551,627	-104,094	-0,046	0,008
-550,612	-72,165	0,066	-0,018
-549,598	-127,487	0,032	0,003
-548,583	-200,000	0,027	-0,094
-547,569	-8,918	0,119	-0,059
-546,554	-200,000	0,000	-0,064
-545,539	800,000	0,064	0,156
-544,525	18,431	-0,077	0,045
-543,510	147,693	-0,067	-0,067
-542,496	800,000	0,008	-0,020
-541,481	157,930	0,024	-0,025
-540,466	681,149	0,032	0,062
-539,452	510,732	0,018	0,030
-538,437	800,000	-0,050	0,149
-537,423	-71,642	0,094	-0,026
-536,408	800,000	0,013	0,033
-535,393	133,772	-0,082	-0,078
-534,379	-35,211	-0,005	0,002
-533,364	800,000	0,026	-0,057
-532,350	751,543	0,057	0,115
-531,335	-200,000	-0,017	0,076
-530,321	706,915	0,024	0,048
-529,306	84,115	0,082	-0,066
-528,291	138,845	-0,053	-0,052
-527,277	-200,000	0,005	0,071
-526,262	162,953	-0,116	-0,120
-525,248	231,636	0,030	0,037
-524,233	-200,000	-0,005	-0,065
-523,218	-108,207	0,042	-0,007
-522,204	347,114	0,070	-0,102
-521,189	-200,000	0,000	0,060
-520,175	564,815	0,015	-0,028
-519,160	385,473	0,026	-0,040
-518,145	-200,000	-0,004	0,125
-517,131	-127,524	0,077	-0,008
-516,116	-193,508	-0,152	-0,001
-515,102	-66,050	-0,064	-0,019
-514,087	362,453	-0,072	0,107
-513,072	255,990	0,053	-0,067
-512,058	-56,832	-0,100	0,032
-511,043	-200,000	0,021	-0,103
-510,029	-43,541	0,103	-0,038
-509,014	-200,000	-0,019	0,082
-507,999	28,485	-0,051	0,032
-506,985	-2,720	-0,105	0,054
-505,970	-103,772	-0,054	0,009
-504,956	57,232	-0,112	-0,080
-503,941	746,782	-0,069	-0,138
-502,926	446,406	-0,039	0,063
-501,912	-150,537	-0,066	-0,004
-500,897	-158,538	0,141	0,006
-499,883	-107,583	0,073	-0,012
-498,868	261,896	-0,111	-0,141
-497,853	257,193	-0,046	0,059
-496,839	-57,731	-0,023	-0,007
-495,824	502,365	0,081	0,138
-494,810	25,518	-0,046	0,028
-493,795	-134,703	0,144	-0,013
-492,781	800,000	-0,019	-0,041
-491,766	-146,368	0,011	-0,001
-490,751	-145,226	-0,086	0,006
-489,737	-29,280	-0,084	0,035
-488,722	800,000	-0,066	0,185
-487,708	-80,192	-0,122	0,030
-486,693	21,187	-0,091	0,054
-485,678	800,000	0,033	-0,098
-484,664	113,690	-0,055	0,049
-483,649	142,387	0,114	0,111
-482,635	800,000	0,016	-0,036
-481,620	128,099	-0,120	0,112
-480,605	-143,309	-0,047	0,003
-479,591	62,343	0,063	-0,046
-478,576	-111,418	-0,048	0,007
-477,562	143,626	-0,065	0,064
-476,547	749,472	0,038	-0,076
-475,532	-133,401	-0,090	-0,008
-474,518	623,333	0,058	0,109
-473,503	-200,000	0,007	-0,044
-472,489	272,288	0,125	0,163
-471,474	135,821	-0,056	0,054
-470,459	-21,446	-0,095	0,043
-469,445	-200,000	-0,034	-0,115
-468,430	800,000	-0,025	-0,075
-467,416	97,083	0,060	0,051
-466,401	-200,000	0,024	-0,093
-465,386	60,347	0,073	0,053
-464,372	-20,879	-0,014	-0,006
-463,357	-200,000	-0,016	-0,058
-462,343	800,000	-0,046	-0,150
-461,328	-103,615	-0,099	0,017
-460,313	-200,000	-0,018	0,070
-459,299	-88,724	-0,082	0,018
-458,284	-99,102	0,135	0,025
-457,270	-81,779	-0,023	-0,005
-456,255	800,000	-0,021	-0,063
-455,241	-163,180	-0,145	-0,005
-454,226	-143,927	-0,113	0,008
-453,211	141,450	0,104	-0,102
-452,197	-147,869	-0,135	0,008
-451,182	370,665	0,097	0,146
-450,168	-200,000	-0,000	0,139
-449,153	-121,584	-0,109	-0,013
-448,138	284,805	0,020	-0,026
-447,124	690,665	-0,021	-0,041
-446,109	-24,768	0,113	0,049
-445,095	800,000	0,046	0,114
-444,080	232,582	-0,068	-0,082
-443,065	202,380	0,026	0,030
-442,051	-200,000	-0,002	-0,045
-441,036	-83,018	-0,140	0,033
-440,022	-200,000	0,011	-0,072
-439,007	800,000	-0,031	-0,075
-437,992	330,144	0,063	0,089
-436,978	800,000	0,011	-0,025
-435,963	-200,000	0,017	0,065
-434,949	-200,000	0,002	-0,060
-433,934	154,383	-0,068	-0,069
-432,919	800,000	0,044	-0,118
-431,905	-101,952	0,024	0,004
-430,890	-200,000	0,006	-0,026
-429,876	99,573	-0,046	-0,039
-428,861	-47,609	-0,211	0,075
-427,846	-200,000	-0,001	-0,089
-426,832	-34,106	-0,093	-0,037
-425,817	800,000	0,052	-0,130
-424,803	79,041	0,129	-0,101
-423,788	-56,144	0,013	-0,004
-422,773	-200,000	0,001	-0,091
-421,759	-200,000	0,012	0,069
-420,744	43,587	0,145	0,097
-419,730	-196,349	-0,057	0,000
-418,715	178,516	-0,079	-0,085
-417,701	-123,832	0,101	-0,012
-416,686	-200,000	0,022	-0,086
-415,671	800,000	0,064	0,184
-414,657	800,000	-0,036	0,103
-413,642	20,008	-0,081	-0,048
-412,628	-200,000	0,009	-0,112
-411,613	470,692	0,093	0,155
-410,598	70,863	0,155	-0,118
-409,584	800,000	0,029	0,091
-408,569	800,000	0,016	0,035
-407,555	-146,953	0,046	0,003
-406,540	800,000	-0,050	-0,130
-405,525	-200,000	-0,017	-0,103
-404,511	-100,019	0,068	-0,012
-403,496	77,329	-0,127	-0,099
-402,482	0,294	0,203	0,106
-401,467	-35,490	-0,102	0,040
-400,452	408,591	0,036	0,056
-399,438	800,000	-0,027	-0,062
-398,423	-57,267	0,103	-0,033
-397,409	-13,572	-0,123	-0,058
-396,394	-200,000	-0,009	0,072
-395,379	349,396	-0,078	-0,113
-394,365	-24,373	0,077	0,034
-393,350	800,000	-0,031	0,069
-392,336	800,000	-0,012	0,031
-391,321	428,135	0,050	0,079
-390,306	-200,000	0,016	-0,161
-389,292	-200,000	-0,014	-0,093
-388,277	47,058	0,193	0,131
-387,263	-86,187	0,136	-0,030
-386,248	5,884	0,151	0,082
-385,233	320,158	0,025	0,035
-384,219	-34,223	0,037	-0,015
-383,204	-200,000	0,031	0,180
-382,190	-112,946	-0,041	-0,006
-381,175	137,733	0,021	-0,021
-380,160	-200,000	-0,012	0,097
-379,146	-60,082	0,167	-0,052
-378,131	117,158	-0,007	-0,006
-377,117	164,089	-0,074	0,077
-376,102	-200,000	-0,007	0,053
-375,088	2,921	-0,103	-0,055
-374,073	-110,119	-0,152	0,023
-373,058	-200,000	0,041	-0,137
-372,044	7,784	0,017	0,009
-371,029	91,031	-0,014	0,012
-370,015	-126,539	-0,137	-0,015
-369,000	800,000	0,061	0,165
-367,985	-200,000	0,023	-0,109
-366,971	-130,365	0,042	0,004
-365,956	800,000	0,029	-0,076
-364,942	116,625	0,084	-0,076
-363,927	800,000	0,017	0,052
-362,912	-5,684	-0,076	0,038
-361,898	380,065	-0,014	-0,021
-360,883	94,152	0,178	-0,148
-359,869	9,839	-0,039	0,021
-358,854	381,806	-0,024	0,036
-357,839	425,269	-0,045	0,071
-356,825	197,486	0,089	0,099
-355,810	-15,005	-0,061	-0,028
-354,796	-34,597	-0,180	-0,072
-353,781	-155,393	0,077	0,004
-352,766	800,000	0,031	0,087
-351,752	196,132	0,051	0,056
-350,737	-189,704	0,113	0,001
-349,723	181,542	-0,058	-0,062
-348,708	7,846	-0,087	0,047
-347,693	-200,000	-0,013	0,102
-346,679	800,000	-0,071	-0,166
-345,664	-200,000	0,010	-0,115
-344,650	165,256	-0,098	-0,101
-343,635	-153,617	-0,090	0,004
-342,620	-95,435	0,159	0,031
-341,606	-44,471	0,087	0,032
-340,591	-80,180	-0,071	-0,017
-339,577	35,026	-0,042	-0,027
-338,562	800,000	0,059	0,179
-337,548	-44,839	0,089	0,032
-336,533	-21,495	-0,075	0,034
-335,518	-200,000	0,034	-0,156
-334,504	93,970	0,032	0,027
-333,489	-55,829	-0,063	0,021
-332,475	85,055	-0,086	0,069
-331,460	-28,909	-0,136	0,057
-330,445	96,380	0,054	0,045
-329,431	800,000	-0,036	-0,099
-328,416	-24,166	-0,067	0,029
-327,402	-17,635	0,117	0,054
-326,387	196,468	0,096	0,108
-325,372	509,717	-0,066	-0,112
-324,358	-200,000	0,018	-0,125
-323,343	647,388	0,046	-0,087
-322,329	800,000	-0,033	0,093
-321,314	35,587	0,068	0,043
-320,299	-70,101	0,135	-0,037
-319,285	77,208	0,063	0,049
-318,270	-53,413	-0,042	-0,014
-317,256	194,108	-0,052	0,057
-316,241	-200,000	0,011	-0,141
-315,226	-100,930	-0,090	0,016
-314,212	-20,795	0,131	0,059
-313,197	-95,140	-0,069	-0,014
-312,183	-200,000	0,023	-0,082
-311,168	800,000	-0,067	-0,201
-310,153	337,662	0,113	-0,161
-309,139	203,967	-0,078	-0,089
-308,124	87,862	0,115	0,093
-307,110	-104,982	-0,062	0,010
-306,095	-200,000	0,012	0,152
-305,080	800,000	-0,018	0,050
-304,066	-179,542	-0,108	0,002
-303,051	-63,559	-0,105	0,031
-302,037	-200,000	0,018	-0,104
-301,022	-77,446	0,097	0,024
-300,008	120,371	0,091	0,082
-298,993	-4,926	0,136	-0,068
-297,978	-49,779	0,162	0,056
-296,964	800,000	-0,054	0,138
-295,949	-200,000	0,012	0,067
-294,935	-16,673	-0,053	-0,024
-293,920	332,046	0,024	-0,034
-292,905	43,534	0,189	0,126
-291,891	-66,307	0,028	0,008
-290,876	800,000	-0,029	0,074
-289,862	-50,133	0,046	0,016
-288,847	191,774	-0,019	-0,021
-287,832	54,557	0,107	0,075
-286,818	-15,735	-0,139	0,064
-285,803	230,723	0,088	0,105
-284,789	11,639	0,044	0,024
-283,774	-200,000	-0,020	-0,086
-282,759	-200,000	-0,009	-0,033
-281,745	49,078	0,049	-0,034
-280,730	560,129	-0,042	-0,074
-279,716	-132,731	-0,044	0,004
-278,701	800,000	0,046	-0,100
-277,686	35,060	0,103	-0,065
-276,672	800,000	0,064	0,135
-275,657	-36,137	-0,012	-0,005
-274,643	-200,000	-0,003	-0,015
-273,628	8,178	-0,105	0,057
-272,613	200,490	0,068	0,076
-271,599	-0,241	0,113	-0,059
-270,584	-200,000	-0,004	-0,050
-269,570	-68,925	0,106	-0,030
-268,555	800,000	0,026	-0,055
-267,540	-154,792	-0,165	-0,008
-266,526	-200,000	0,004	0,060
-265,511	419,670	-0,031	-0,049
-264,497	75,189	-0,022	-0,017
-263,482	122,751	-0,085	0,077
-262,467	-200,000	-0,003	0,123
-261,453	-13,931	-0,097	-0,046
-260,438	-148,891	-0,096	-0,006
-259,424	-200,000	0,026	0,114
-258,409	477,845	-0,036	-0,059
-257,395	-200,000	0,026	0,110
-256,380	-83,543	0,135	0,031
-255,365	-200,000	0,004	0,048
-254,351	-82,888	-0,146	0,034
-253,336	309,400	0,026	0,036
-252,322	-77,967	-0,138	-0,035
-251,307	-63,517	-0,090	0,027
-250,292	281,657	0,082	-0,108
-249,278	-47,294	-0,040	0,014
-248,263	-200,000	-0,043	-0,220
-247,249	-200,000	0,000	0,018
-246,234	217,446	0,068	-0,079
-245,219	-71,415	-0,141	-0,038
-244,205	-94,606	-0,121	0,024
-243,190	-129,026	0,058	0,006
-242,176	226,448	-0,061	0,072
-241,161	490,195	0,057	0,095
-240,146	321,480	0,029	0,040
-239,132	43,878	0,091	-0,061
-238,117	-10,095	0,033	-0,016
-237,103	-200,000	-0,043	-0,174
-236,088	-200,000	0,005	-0,067
-235,073	143,810	0,099	0,096
-234,059	-112,571	0,113	0,016
-233,044	-51,836	-0,042	-0,014
-232,030	576,321	-0,041	-0,073
-231,015	108,844	-0,019	-0,016
-230,000	-38,649	0,028	-0,011
-228,986	-200,000	-0,037	-0,156
-227,971	-24,065	0,129	-0,056
-226,957	-81,403	-0,055	-0,013
-225,942	-200,000	0,013	0,190
-224,927	493,786	-0,031	-0,052
-223,913	79,328	0,020	0,015
-222,898	-200,000	-0,017	0,100
-221,884	-200,000	0,002	-0,085
-220,869	75,936	-0,055	0,042
-219,855	800,000	0,058	0,171
-218,840	800,000	-0,029	-0,084
-217,825	336,416	0,016	-0,023
-216,811	153,205	-0,125	0,124
-215,796	-200,000	0,006	0,091
-214,782	149,114	-0,087	-0,085
-213,767	279,450	-0,032	0,041
-212,752	-108,110	0,029	-0,004
-211,738	-157,234	0,150	0,007
-210,723	39,766	-0,070	-0,046
-209,709	-4,820	-0,074	-0,037
-208,694	528,578	0,055	-0,095
-207,679	-125,143	0,112	0,012
-206,665	477,896	-0,026	-0,043
-205,650	4,506	0,031	0,016
-204,636	800,000	0,051	0,132
-203,621	-166,003	0,044	0,001
-202,606	-200,000	-0,011	0,038
-201,592	-155,016	-0,128	-0,006
-200,577	-95,478	-0,067	0,013
-199,563	-200,000	-0,003	0,043
-198,548	-30,488	0,015	0,006
-197,533	-1,941	0,143	0,073
-196,519	-200,000	-0,018	0,102
-195,504	-170,366	-0,066	0,002
-194,490	238,159	0,009	-0,011
-193,475	130,260	-0,091	-0,085
-192,460	-93,431	0,220	-0,044
-191,446	-38,871	-0,053	-0,020
-190,431	487,407	0,022	-0,037
-189,417	195,654	0,079	0,087
-188,402	800,000	-0,041	-0,101
-187,387	591,940	0,020	-0,035
-186,373	-124,000	-0,114	0,013
-185,358	645,286	-0,030	0,056
-184,344	-18,442	0,079	-0,036
-183,329	125,530	-0,047	0,043
-182,315	-144,670	-0,084	0,006
-181,300	312,200	0,036	-0,050
-180,285	-200,000	0,000	-0,175
-179,271	-200,000	-0,013	-0,057
-178,256	-200,000	0,015	0,054
-177,242	-43,978	0,031	-0,011
-176,227	442,659	-0,030	0,047
-175,212	800,000	-0,034	-0,072
-174,198	-200,000	-0,001	0,009
-173,183	-111,718	-0,157	0,023
-172,169	-11,658	0,058	0,028
-171,154	53,431	0,087	-0,060
-170,139	539,591	0,091	-0,158
-169,125	-57,519	0,115	0,036
-168,110	-200,000	0,029	0,114
-167,096	-200,000	0,032	-0,161
-166,081	-200,000	-0,007	0,096
-165,066	-10,446	-0,135	0,065
-164,052	-200,000	-0,013	-0,138
-163,037	-174,116	0,121	0,003
-162,023	-129,650	0,081	0,008
-161,008	129,473	0,072	0,067
-159,993	800,000	-0,051	0,132
-158,979	315,764	-0,047	0,064
-157,964	-1,760	-0,008	0,004
-156,950	-200,000	-0,015	-0,112
-155,935	304,102	-0,039	-0,053
-154,920	304,413	-0,026	0,035
-153,906	239,198	-0,077	0,093
-152,891	-200,000	-0,007	-0,044
-151,877	60,527	-0,109	0,078
-150,862	800,000	0,032	-0,092
-149,847	191,020	0,037	-0,040
-148,833	-102,051	0,048	-0,008
-147,818	682,740	0,030	-0,057
-146,804	54,703	0,115	0,080
-145,789	-200,000	-0,025	0,087
-144,775	151,541	0,040	0,040
-143,760	-200,000	0,003	-0,037
-142,745	-200,000	-0,001	-0,047
-141,731	60,725	0,151	-0,109
-140,716	-52,239	-0,056	0,019
-139,702	-79,356	0,027	0,007
-138,687	-116,827	0,050	-0,007
-137,672	18,753	0,101	0,059
-136,658	559,213	-0,072	-0,127
-135,643	-92,844	-0,120	-0,024
-134,629	-134,866	-0,093	-0,008
-133,614	-200,000	-0,016	-0,094
-132,599	106,183	0,095	0,082
-131,585	-200,000	0,009	-0,063
-130,570	633,363	0,048	0,089
-129,556	209,397	0,058	-0,066
-128,541	275,335	-0,027	0,035
-127,526	800,000	0,060	0,132
-126,512	36,774	0,124	0,079
-125,497	-200,000	-0,043	0,163
-124,483	-100,422	0,147	-0,026
-123,468	-157,726	0,067	-0,003
-122,453	-200,000	0,033	-0,139
-121,439	-151,175	-0,168	-0,009
-120,424	-103,260	0,102	-0,017
-119,410	-6,818	-0,030	0,015
-118,395	95,233	0,159	0,131
-117,380	-200,000	0,032	0,233
-116,366	240,502	0,031	0,037
-115,351	-103,413	-0,049	-0,008
-114,337	-37,117	-0,074	-0,029
-113,322	127,146	0,042	-0,038
-112,307	1,118	0,204	-0,106
-111,293	280,406	0,060	-0,078
-110,278	11,239	-0,021	0,012
-109,264	-200,000	-0,000	0,120
-108,249	265,566	-0,046	-0,058
-107,234	344,570	0,053	-0,075
-106,220	-30,177	-0,110	0,045
-105,205	586,405	0,037	0,066
-104,191	-65,840	-0,054	0,016
-103,176	800,000	-0,034	0,086
-102,162	204,184	-0,042	-0,047
-101,147	-77,630	-0,132	-0,033
-100,132	398,511	-0,041	0,062
-99,118	39,965	0,145	-0,094
-98,103	-65,198	0,175	-0,051
-97,089	-200,000	0,020	-0,064
-96,074	220,457	-0,032	0,037
-95,059	328,964	0,036	0,050
-94,045	-200,000	0,012	-0,087
-93,030	-200,000	-0,018	-0,074
-92,016	144,047	0,016	0,015
-91,001	-148,896	0,093	-0,005
-89,986	-45,210	0,093	-0,033
-88,972	-200,000	0,002	0,006
-87,957	-62,784	-0,008	0,002
-86,943	-200,000	0,005	0,047
-85,928	-86,426	-0,117	0,026
-84,913	-200,000	0,017	-0,062
-83,899	329,835	0,064	0,089
-82,884	-37,168	0,081	-0,031
-81,870	-200,000	0,031	-0,110
-80,855	-51,057	0,160	0,054
-79,840	-48,429	-0,122	0,042
-78,826	467,728	0,080	-0,130
-77,811	15,268	-0,010	0,006
-76,797	-66,204	-0,060	-0,017
-75,782	222,955	-0,019	0,022
-74,767	38,689	0,072	0,046
-73,753	14,739	0,076	0,043
-72,738	-66,792	0,205	-0,058
-71,724	-86,336	-0,133	-0,029
-70,709	-200,000	0,019	0,145
-69,694	800,000	0,023	-0,054
-68,680	-144,192	-0,215	0,014
-67,665	112,523	-0,063	-0,055
-66,651	800,000	0,014	-0,042
-65,636	800,000	0,034	-0,080
-64,622	7,197	-0,065	0,035
-63,607	202,057	-0,056	-0,063
-62,592	26,655	-0,026	0,016
-61,578	-200,000	-0,028	-0,150
-60,563	142,176	0,110	0,105
-59,549	619,957	0,041	-0,075
-58,534	-60,482	-1,427	-0,436
-57,519	800,000	-0,558	-1,397
-56,505	-200,000	-1,045	-4,592
-55,490	-9,679	0,534	-0,257
-54,476	800,000	5,048	11,764
-53,461	-200,000	14,588	260,215
-52,446	-200,000	696,470	2235,621
-51,432	565,010	1622,235	2857,226
-50,417	117,832	1629,743	1452,440
-49,403	74,874	1284,185	977,568
-48,388	37,404	1022,511	654,652
-47,373	23,142	981,804	581,764
-46,359	22,319	971,119	572,715
-45,344	21,162	966,811	566,377
-44,330	21,195	965,471	565,678
-43,315	20,964	963,855	563,957
-42,300	20,951	962,826	563,290
-41,286	20,987	961,757	562,758
-40,271	20,980	960,765	562,134
-39,257	20,923	960,000	561,480
-38,242	20,959	958,854	560,903
-37,227	20,909	958,030	560,236
-36,213	20,945	957,124	559,800
-35,198	20,903	956,256	559,137
-34,184	20,893	955,874	558,858
-33,169	20,860	954,890	558,155
-32,154	20,949	953,889	557,832
-31,140	20,983	953,139	557,481
-30,125	20,964	952,439	556,988
-29,111	20,973	951,243	556,296
-28,096	21,006	950,908	556,185
-27,082	20,955	950,139	555,548
-26,067	20,963	949,385	555,111
-25,052	20,956	948,657	554,642
-24,038	21,068	947,752	554,449
-23,023	20,939	947,286	553,741
-22,009	21,068	946,466	553,653
-20,994	21,028	946,071	553,272
-19,979	21,022	945,274	552,766
-18,965	21,016	944,843	552,473
-17,950	20,993	944,226	552,014
-16,936	20,906	943,526	551,307
-15,921	20,905	942,958	550,951
-14,906	20,829	942,213	550,251
-13,892	20,849	941,458	549,852
-12,877	20,871	940,911	549,581
-11,863	20,804	940,313	548,999
-10,848	20,879	939,682	548,846
-9,833	20,907	939,256	548,663
-8,819	20,873	938,740	548,232
-7,804	20,838	938,104	547,729
-6,790	20,875	937,508	547,478
-5,775	20,902	936,995	547,240
-4,760	20,881	936,215	546,697
-3,746	20,868	935,616	546,284
-2,731	20,767	934,821	545,481
-1,717	20,673	934,308	544,864
-0,702	20,713	933,469	544,477
0,313	20,535	932,816	544,360
1,327	23,470	930,934	552,425
2,342	32,528	793,694	495,025
3,356	29,894	450,506	276,995
4,371	0,025	294,453	151,192
5,386	-4,342	275,518	137,318
6,400	-5,670	269,832	133,239
7,415	-5,875	267,467	131,870
8,429	-5,730	266,250	131,391
9,444	-5,705	265,393	130,979
10,459	-5,695	264,729	130,649
11,473	-5,690	264,160	130,361
12,488	-5,829	263,629	129,962
13,502	-6,049	263,177	129,527
14,517	-6,001	262,713	129,331
15,531	-5,898	262,238	129,179
16,546	-6,009	262,097	128,998
17,561	-5,826	261,579	128,896
18,575	-5,745	261,305	128,823
19,590	-5,996	260,977	128,423
20,604	-5,963	260,634	128,273
21,619	-5,962	260,338	128,117
22,634	-5,823	259,871	128,000
23,648	-5,977	259,661	127,748
24,663	-6,053	259,395	127,537
25,677	-5,943	259,128	127,492
26,692	-5,982	259,010	127,389
27,707	-5,742	258,492	127,336
28,721	-5,982	258,230	126,982
29,736	-6,017	258,140	126,895
30,750	-6,072	257,864	126,700
31,765	-6,021	257,769	126,688
32,780	-5,887	257,307	126,568
33,794	-6,030	257,138	126,347
34,809	-6,083	256,796	126,121
35,823	-6,000	256,741	126,156
36,838	-5,927	256,327	126,005
37,853	-5,909	256,129	125,912
38,867	-6,058	255,896	125,655
39,882	-6,112	255,632	125,467
40,896	-6,072	255,577	125,464
41,911	-6,065	255,190	125,269
42,926	-6,123	255,023	125,125
43,940	-6,061	254,776	125,047
44,955	-6,295	254,660	124,774
45,969	-6,369	254,333	124,539
46,984	-6,452	254,212	124,396
47,999	-6,500	253,727	124,105
49,013	-6,789	253,683	123,821
50,028	-6,536	253,256	123,821
51,042	-6,799	253,118	123,514
52,057	-6,719	252,891	123,463
53,071	-6,715	252,619	123,322
54,086	-6,816	252,572	123,201
55,101	-6,631	252,287	123,211
56,115	-6,317	252,285	123,471
57,130	-6,243	252,242	123,502
58,144	-5,835	251,998	123,725
59,159	-5,830	251,762	123,602
60,174	-5,712	251,386	123,508
61,188	-5,819	251,339	123,382
62,203	-5,656	251,013	123,351
63,217	-5,628	250,792	123,256
64,232	-5,849	250,575	122,948
65,247	-5,910	250,466	122,831
66,261	-5,806	250,095	122,728
67,276	-6,163	249,981	122,355
68,290	-6,426	249,743	122,002
69,305	-6,320	249,383	121,906
70,320	-6,192	249,345	121,986
71,334	-6,127	249,204	121,962
72,349	-5,775	249,033	122,168
73,363	-5,683	248,869	122,155
74,378	-5,791	248,650	121,945
75,393	-5,930	248,401	121,693
76,407	-6,030	248,265	121,530
77,422	-5,996	248,012	121,425
78,436	-5,859	247,682	121,368
79,451	-5,837	247,652	121,361
80,466	-5,982	247,218	121,015
81,480	-6,268	247,134	120,721
82,495	-6,211	246,818	120,604
83,509	-6,275	246,749	120,506
84,524	-6,329	246,635	120,394
85,539	-6,472	246,364	120,131
86,553	-6,171	245,972	120,182
87,568	-6,169	245,877	120,126
88,582	-6,114	245,626	120,039
89,597	-6,197	245,605	119,949
90,611	-6,041	245,444	119,990
91,626	-5,958	245,266	119,962
92,641	-5,975	245,087	119,849
93,655	-6,120	244,943	119,647
94,670	-6,184	244,690	119,459
95,684	-6,043	244,508	119,477
96,699	-6,087	244,257	119,307
97,714	-6,217	244,166	119,144
98,728	-6,297	243,909	118,941
99,743	-6,206	243,690	118,900
100,757	-6,339	243,561	118,715
101,772	-6,299	243,287	118,604
102,787	-6,371	243,085	118,436
103,801	-6,188	242,991	118,532
104,816	-5,978	242,857	118,630
105,830	-5,930	242,751	118,607
106,845	-6,099	242,730	118,446
107,860	-5,898	242,353	118,418
108,874	-5,889	241,949	118,218
109,889	-6,139	242,058	118,054
110,903	-6,192	241,859	117,902
111,918	-6,201	241,718	117,816
112,933	-6,118	241,486	117,760
113,947	-6,021	241,312	117,744
114,962	-6,028	241,029	117,590
115,976	-5,901	240,984	117,662
116,991	-6,149	240,694	117,307
118,006	-6,108	240,698	117,332
119,020	-6,063	240,364	117,196
120,035	-5,922	240,397	117,317
121,049	-5,819	240,136	117,264
122,064	-5,900	240,013	117,127
123,079	-5,719	239,613	117,069
124,093	-6,275	239,746	116,669
125,108	-6,229	239,305	116,481
126,122	-6,527	239,072	116,114
127,137	-6,561	239,022	116,052
128,151	-6,518	238,754	115,946
129,166	-6,253	238,573	116,064
130,181	-6,224	238,317	115,952
131,195	-6,469	238,302	115,736
132,210	-6,223	238,157	115,854
133,224	-5,830	237,894	116,035
134,239	-5,999	237,740	115,813
135,254	-5,944	237,473	115,717
136,268	-6,128	237,487	115,565
137,283	-6,259	237,124	115,272
138,297	-6,700	236,902	114,798
139,312	-6,429	236,738	114,927
140,327	-6,065	236,606	115,145
141,341	-5,775	236,694	115,412
142,356	-5,642	236,491	115,409
143,370	-5,531	236,301	115,396
144,385	-5,584	236,148	115,269
145,400	-5,595	236,013	115,184
146,414	-5,715	235,850	114,997
147,429	-5,825	235,658	114,805
148,443	-5,754	235,512	114,781
149,458	-5,655	235,236	114,716
150,473	-5,713	235,174	114,628
151,487	-5,842	234,991	114,425
152,502	-5,851	235,024	114,424
153,516	-5,883	234,745	114,253
154,531	-5,664	234,430	114,264
155,546	-5,836	234,320	114,063
156,560	-5,764	234,072	113,989
157,575	-5,972	233,854	113,708
158,589	-5,899	233,696	113,679
159,604	-5,695	233,568	113,768
160,619	-5,451	233,556	113,946
161,633	-5,408	233,284	113,837
162,648	-5,609	233,245	113,649
163,662	-5,713	232,980	113,427
164,677	-5,915	232,958	113,246
165,692	-5,826	232,924	113,290
166,706	-5,438	232,634	113,446
167,721	-5,424	232,446	113,355
168,735	-5,735	232,366	113,061
169,750	-5,568	232,057	113,031
170,764	-5,580	231,883	112,927
171,779	-5,568	231,830	112,901
172,794	-5,515	231,652	112,846
173,808	-5,939	231,506	112,431
174,823	-6,228	231,224	112,057
175,837	-6,315	231,005	111,873
176,852	-5,828	231,033	112,259
177,867	-5,805	231,066	112,283
178,881	-5,654	230,695	112,211
179,896	-5,694	230,559	112,103
180,910	-5,588	230,389	112,093
181,925	-5,531	230,303	112,086
182,940	-5,535	230,160	112,003
183,954	-5,607	230,022	111,870
184,969	-5,687	229,855	111,717
185,983	-5,620	229,840	111,752
186,998	-5,494	229,602	111,724
188,013	-5,583	229,284	111,490
189,027	-5,642	229,371	111,476
190,042	-5,513	229,133	111,451
191,056	-5,409	228,769	111,344
192,071	-5,425	228,758	111,317
193,086	-5,534	228,611	111,151
194,100	-5,499	228,372	111,052
195,115	-5,666	228,142	110,801
196,129	-6,234	227,875	110,223
197,144	-3,099	228,881	113,130
198,159	0,884	229,981	116,758
199,173	3,562	230,720	119,206
200,188	3,943	230,492	119,373
201,202	4,015	230,378	119,359
202,217	4,128	230,356	119,425
203,232	4,322	230,194	119,481
204,246	4,359	230,191	119,497
205,261	4,149	230,032	119,241
206,275	4,423	230,058	119,456
207,290	4,443	229,803	119,329
208,304	4,493	229,570	119,236
209,319	4,443	229,408	119,103
210,334	4,490	229,243	119,043
211,348	4,189	228,862	118,602
212,363	3,811	228,686	118,210
213,377	3,745	228,383	117,991
214,392	3,656	228,350	117,896
215,407	3,705	228,200	117,846
216,421	3,812	228,078	117,854
217,436	3,644	227,911	117,629
218,450	3,517	227,535	117,327
219,465	3,443	227,479	117,231
220,480	3,392	227,469	117,176
221,494	3,426	227,272	117,090
222,509	3,527	227,204	117,122
223,523	3,615	227,007	117,077
224,538	3,422	226,869	116,848
225,553	3,755	226,696	117,002
226,567	3,637	226,719	116,914
227,582	4,000	226,490	117,062
228,596	3,850	226,457	116,920
229,611	3,705	226,243	116,689
230,626	3,326	225,998	116,265
231,640	3,441	225,827	116,254
232,655	3,563	225,827	116,336
233,669	4,207	225,739	116,768
234,684	4,447	225,529	116,831
235,699	4,058	225,451	116,485
236,713	3,812	225,189	116,154
237,728	3,720	224,917	115,933
238,742	3,586	224,799	115,761
239,757	3,688	224,675	115,764
240,772	3,481	224,556	115,537
241,786	3,570	224,268	115,445
242,801	3,732	224,277	115,561
243,815	3,968	224,307	115,744
244,830	4,118	224,084	115,732
245,844	3,669	223,937	115,308
246,859	3,596	223,654	115,097
247,874	3,758	223,616	115,189
248,888	3,815	223,526	115,175
249,903	3,878	223,252	115,071
250,917	3,656	223,107	114,820
251,932	3,623	222,993	114,725
252,947	3,500	222,760	114,504
253,961	3,624	222,565	114,486
254,976	3,678	222,494	114,480
255,990	3,703	222,324	114,401
257,005	3,830	222,185	114,413
258,020	4,082	222,035	114,513
259,034	3,880	222,075	114,374
260,049	3,988	221,876	114,341
261,063	3,739	221,739	114,075
262,078	4,166	221,525	114,272
263,093	4,173	221,498	114,253
264,107	4,087	221,331	114,093
265,122	3,620	221,322	113,732
266,136	4,177	221,069	114,004
267,151	4,335	220,933	114,041
268,166	3,818	220,627	113,490
269,180	3,305	220,388	112,980
270,195	3,648	220,279	113,166
271,209	3,464	220,184	112,972
272,224	3,597	220,033	112,982
273,239	3,696	219,966	113,010
274,253	3,495	219,890	112,814
275,268	3,299	219,719	112,572
276,282	3,540	219,373	112,561
277,297	3,327	219,239	112,326
278,312	3,445	219,125	112,344
279,326	3,696	219,033	112,471
280,341	3,449	218,918	112,221
281,355	3,461	218,830	112,175
282,370	3,620	218,594	112,160
283,384	3,405	218,366	111,876
284,399	3,281	218,147	111,663
285,414	3,343	218,096	111,673
286,428	3,779	218,101	111,983
287,443	3,763	217,970	111,894
288,457	3,844	217,832	111,872
289,472	3,600	217,680	111,607
290,487	3,293	217,338	111,198
291,501	3,191	217,217	111,052
292,516	3,388	217,097	111,124
293,530	3,437	216,971	111,085
294,545	3,444	216,956	111,073
295,560	3,362	216,799	110,923
296,574	3,729	216,680	111,118
297,589	3,776	216,371	110,984
298,603	3,736	216,315	110,916
299,618	3,674	216,383	110,897
300,633	3,811	216,158	110,870
301,647	3,834	216,065	110,829
302,662	3,826	215,847	110,701
303,676	3,871	215,764	110,681
304,691	3,765	215,599	110,511
305,706	4,035	215,467	110,627
306,720	4,111	215,419	110,647
307,735	3,795	215,212	110,304
308,749	3,684	215,057	110,135
309,764	3,507	215,081	110,011
310,779	4,005	214,837	110,233
311,793	3,796	214,548	109,925
312,808	4,002	214,389	109,981
313,822	3,715	214,446	109,796
314,837	3,684	214,174	109,624
315,852	3,508	214,035	109,417
316,866	3,608	213,963	109,442
317,881	3,816	213,668	109,430
318,895	4,001	213,744	109,591
319,910	3,575	213,523	109,165
320,925	3,463	213,160	108,890
321,939	2,935	213,147	108,499
322,954	3,431	212,985	108,758
323,968	3,765	213,055	109,021
324,983	3,824	212,863	108,955
325,997	3,716	212,892	108,884
327,012	3,834	212,585	108,801
328,027	3,781	212,568	108,744
329,041	4,128	212,341	108,864
330,056	4,040	212,325	108,785
331,070	3,740	211,982	108,387
332,085	3,668	211,734	108,199
333,100	3,397	211,657	107,959
334,114	3,776	211,561	108,168
335,129	3,821	211,572	108,196
336,143	3,644	211,381	107,964
337,158	3,528	211,326	107,845
338,173	3,683	211,131	107,845
339,187	3,437	210,774	107,480
340,202	3,447	210,716	107,447
341,216	3,323	210,523	107,252
342,231	3,467	210,504	107,335
343,246	3,271	210,434	107,152
344,260	3,512	210,129	107,156
345,275	3,408	210,117	107,067
346,289	3,806	209,897	107,223
347,304	3,754	209,912	107,185
348,319	3,590	209,768	106,988
349,333	3,874	209,650	107,116
350,348	3,890	209,478	107,029
351,362	3,960	209,335	106,996
352,377	3,787	209,413	106,906
353,392	3,647	209,141	106,660
354,406	3,904	208,955	106,734
355,421	194,914	1345,155	1433,219
356,435	155,573	1483,660	1433,289
