DTS Sentinel unit serial number:	SN410029Multiplexer serial number:	ORYXHardware model number:	OX2-SRSoftware version number:	ORYX F/W v4,00 Oryx Data Collector v3.7.2.0data status	okinstallation	B6 Nyhavnadifferential loss correction	single-endedforward channel	channel 2reverse channel	N/Adate	2023/12/09time	12:30:08forward acquisition time	300,00reverse acquisition time	0,00gamma	499,1914k internal	0,3137k external	0,3137temperature offset calibration	1,0000default loss term (dB/km)	0,3820temperature slope calibration	1,0000multiplexer offset coefficient	1,0000multiplexer slope coefficient	1,0000fibre end	0,00T internal ref (°C)	19,31T ext. ref 1 (°C)	3,97T ext. ref 2 (°C)	3,96length (m)	temperature (°C)	Stokes	anti-Stokes-744,400	65,512	0,074	0,056
-743,385	-131,391	-0,131	0,013
-742,371	-66,192	0,066	0,019
-741,356	49,702	-0,102	0,071
-740,342	-60,643	0,163	-0,051
-739,327	-160,150	-0,103	0,004
-738,312	-200,000	-0,012	-0,057
-737,298	-198,715	-0,193	-0,001
-736,283	168,718	0,084	0,089
-735,269	-129,392	-0,377	0,038
-734,254	-200,000	-0,007	-0,056
-733,239	-193,212	-0,422	0,003
-732,225	-105,115	0,168	0,028
-731,210	-54,304	0,060	-0,020
-730,196	694,309	-0,053	-0,104
-729,181	-100,017	0,167	-0,031
-728,167	-10,099	0,072	0,036
-727,152	-15,518	-0,035	-0,017
-726,137	251,089	-0,093	-0,117
-725,123	-91,923	-0,199	0,042
-724,108	286,939	-0,096	-0,128
-723,094	-200,000	0,016	-0,155
-722,079	48,475	-0,087	-0,060
-721,064	800,000	-0,026	-0,058
-720,050	-200,000	0,007	0,048
-719,035	-200,000	0,003	0,106
-718,021	-84,698	-0,044	-0,010
-717,006	-140,847	-0,057	0,004
-715,991	526,909	-0,033	-0,058
-714,977	-200,000	0,006	-0,068
-713,962	294,124	-0,082	0,112
-712,948	68,729	-0,030	-0,023
-711,933	-34,954	-0,122	-0,049
-710,918	0,085	0,055	-0,029
-709,904	247,895	-0,048	-0,061
-708,889	-15,964	-0,103	-0,048
-707,875	-27,385	-0,116	-0,050
-706,860	-103,991	0,187	0,032
-705,845	345,977	-0,059	-0,087
-704,831	-200,000	0,021	-0,143
-703,816	-135,510	0,080	0,007
-702,802	-200,000	0,015	-0,060
-701,787	-200,000	0,066	-0,229
-700,772	-200,000	-0,000	-0,156
-699,758	-200,000	-0,011	-0,099
-698,743	-114,898	0,034	0,005
-697,729	262,538	0,061	0,079
-696,714	-200,000	-0,016	0,139
-695,699	-200,000	-0,004	0,016
-694,685	109,960	-0,107	-0,095
-693,670	-200,000	-0,005	0,080
-692,656	-200,000	0,013	-0,127
-691,641	52,132	-0,059	0,042
-690,627	-172,238	-0,013	0,000
-689,612	-67,685	0,065	-0,019
-688,597	138,700	0,022	0,021
-687,583	53,059	-0,119	-0,084
-686,568	-200,000	-0,011	-0,073
-685,554	243,865	-0,087	-0,108
-684,539	-11,416	0,095	0,046
-683,524	149,850	-0,057	-0,057
-682,510	-0,989	0,066	-0,034
-681,495	800,000	0,010	0,031
-680,481	23,583	-0,055	0,033
-679,466	632,295	-0,054	0,101
-678,451	110,096	0,016	-0,014
-677,437	-136,900	-0,085	-0,007
-676,422	-200,000	-0,006	0,171
-675,408	-200,000	-0,031	-0,121
-674,393	800,000	0,024	0,053
-673,378	-71,397	-0,151	-0,041
-672,364	0,659	-0,069	-0,036
-671,349	-5,916	-0,104	0,052
-670,335	315,165	-0,092	-0,128
-669,320	58,776	0,065	-0,047
-668,305	-50,393	0,090	-0,031
-667,291	197,696	-0,022	-0,025
-666,276	720,068	0,003	0,005
-665,262	-200,000	-0,006	-0,035
-664,247	299,444	0,092	-0,125
-663,232	185,752	-0,103	-0,114
-662,218	-84,231	-0,022	0,005
-661,203	-200,000	-0,006	0,091
-660,189	-175,409	-0,023	-0,000
-659,174	152,787	-0,096	-0,097
-658,159	800,000	-0,024	-0,075
-657,145	800,000	-0,060	-0,131
-656,130	142,301	0,014	0,014
-655,116	-200,000	-0,007	0,065
-654,101	386,393	0,081	-0,123
-653,086	-134,014	0,090	0,008
-652,072	-200,000	-0,014	-0,149
-651,057	-200,000	-0,013	-0,113
-650,043	0,403	-0,093	-0,049
-649,028	800,000	0,031	-0,094
-648,014	-200,000	0,001	-0,048
-646,999	-200,000	-0,021	-0,069
-645,984	800,000	0,046	-0,122
-644,970	35,340	-0,197	-0,127
-643,955	800,000	0,027	-0,086
-642,941	-200,000	-0,015	-0,130
-641,926	-66,224	0,040	0,012
-640,911	-200,000	0,029	0,100
-639,897	192,823	0,058	-0,064
-638,882	-200,000	-0,003	0,060
-637,868	-45,480	-0,054	-0,020
-636,853	-17,242	-0,174	-0,081
-635,838	-0,701	-0,018	-0,010
-634,824	100,683	-0,084	-0,072
-633,809	-31,133	0,042	0,017
-632,795	-200,000	0,004	-0,036
-631,780	-200,000	0,045	0,169
-630,765	-107,765	-0,076	0,012
-629,751	140,796	0,099	0,097
-628,736	-42,166	0,138	0,052
-627,722	71,361	-0,038	-0,029
-626,707	800,000	0,046	-0,114
-625,692	3,100	0,099	-0,053
-624,678	-40,320	-0,045	0,017
-623,663	47,254	-0,140	0,096
-622,649	39,552	-0,102	0,067
-621,634	668,280	-0,062	-0,119
-620,619	593,800	-0,052	0,095
-619,605	-200,000	-0,016	0,062
-618,590	90,782	0,051	0,043
-617,576	-132,114	-0,057	-0,005
-616,561	691,736	-0,056	-0,109
-615,546	388,163	-0,080	0,122
-614,532	-200,000	-0,005	0,029
-613,517	-200,000	0,009	-0,092
-612,503	-140,155	0,113	0,009
-611,488	141,955	0,049	0,048
-610,474	179,698	-0,114	-0,124
-609,459	647,024	0,033	-0,063
-608,444	114,809	-0,071	0,064
-607,430	-200,000	-0,009	0,097
-606,415	139,912	0,034	0,033
-605,401	-136,109	0,191	-0,016
-604,386	199,752	0,121	0,138
-603,371	-14,124	0,048	-0,023
-602,357	800,000	0,016	0,048
-601,342	187,112	0,035	0,038
-600,328	95,877	0,119	-0,100
-599,313	-147,269	0,091	-0,006
-598,298	800,000	-0,005	-0,012
-597,284	-138,528	0,125	-0,010
-596,269	-200,000	0,004	0,091
-595,255	-200,000	0,025	-0,097
-594,240	-55,457	-0,033	-0,011
-593,225	150,011	-0,111	-0,111
-592,211	800,000	0,014	-0,032
-591,196	116,315	-0,146	-0,132
-590,182	-58,276	0,030	0,010
-589,167	-178,142	0,141	-0,002
-588,152	-200,000	0,049	-0,177
-587,138	13,606	-0,066	-0,037
-586,123	-18,670	-0,175	-0,080
-585,109	-102,156	0,090	-0,016
-584,094	-30,556	0,058	0,024
-583,079	47,281	-0,092	-0,063
-582,065	43,990	-0,109	-0,074
-581,050	800,000	0,044	-0,125
-580,036	4,599	0,041	-0,022
-579,021	16,768	-0,101	-0,059
-578,006	-51,441	-0,055	0,019
-576,992	-88,132	0,044	-0,010
-575,977	588,185	-0,068	0,125
-574,963	-200,000	-0,045	0,177
-573,948	-200,000	-0,021	0,077
-572,934	434,371	0,045	0,072
-571,919	-200,000	-0,003	-0,087
-570,904	-200,000	-0,168	0,001
-569,890	800,000	-0,040	-0,089
-568,875	125,842	0,049	0,046
-567,861	-121,888	0,062	0,007
-566,846	-200,000	0,045	0,182
-565,831	-138,823	-0,063	0,005
-564,817	557,704	-0,054	-0,097
-563,802	800,000	-0,048	-0,149
-562,788	-200,000	0,010	-0,051
-561,773	-155,776	0,116	-0,005
-560,758	-75,979	0,187	-0,048
-559,744	800,000	0,033	0,083
-558,729	-200,000	0,015	0,066
-557,715	13,602	0,090	-0,051
-556,700	-18,771	0,052	-0,024
-555,685	-200,000	0,015	-0,073
-554,671	-200,000	-0,006	0,095
-553,656	194,178	0,058	0,064
-552,642	-20,812	0,068	0,031
-551,627	211,203	-0,036	-0,042
-550,612	-24,306	-0,053	-0,023
-549,598	-200,000	-0,018	-0,111
-548,583	605,774	-0,016	0,030
-547,569	154,162	-0,091	-0,092
-546,554	343,953	0,035	0,051
-545,539	224,282	-0,148	0,176
-544,525	-200,000	0,007	-0,050
-543,510	573,913	-0,034	0,061
-542,496	476,667	-0,093	-0,156
-541,481	-147,003	0,087	-0,005
-540,466	-200,000	-0,008	0,094
-539,452	-34,287	0,183	-0,073
-538,437	-200,000	0,031	-0,112
-537,423	549,797	-0,048	0,085
-536,408	-100,550	-0,244	-0,044
-535,393	208,511	-0,037	0,043
-534,379	-200,000	-0,017	-0,099
-533,364	-35,933	-0,144	-0,057
-532,350	-120,191	0,198	-0,025
-531,335	-200,000	0,021	0,124
-530,321	634,402	-0,054	0,101
-529,306	53,473	-0,086	0,061
-528,291	-200,000	0,037	0,176
-527,277	-200,000	-0,016	-0,095
-526,262	-14,258	-0,171	0,081
-525,248	-200,000	-0,044	0,143
-524,233	355,904	0,095	0,139
-523,218	-27,646	-0,108	0,046
-522,204	-47,204	0,146	-0,052
-521,189	225,481	-0,024	-0,028
-520,175	164,615	-0,040	-0,042
-519,160	-200,000	-0,052	0,174
-518,145	667,701	-0,054	0,103
-517,131	-39,913	0,109	-0,042
-516,116	764,880	0,023	-0,047
-515,102	-138,177	-0,209	-0,017
-514,087	-29,746	-0,020	0,009
-513,072	-200,000	-0,014	-0,069
-512,058	-200,000	-0,006	0,041
-511,043	-200,000	-0,007	0,056
-510,029	-103,069	0,005	-0,001
-509,014	29,849	0,097	0,061
-507,999	-125,191	0,115	-0,013
-506,985	-10,721	-0,146	-0,071
-505,970	-200,000	0,012	0,043
-504,956	800,000	-0,018	-0,041
-503,941	-56,919	-0,062	-0,020
-502,926	-144,470	0,092	0,006
-501,912	-111,416	0,060	-0,009
-500,897	-87,257	-0,032	0,007
-499,883	-105,292	-0,111	-0,018
-498,868	0,281	-0,088	-0,046
-497,853	800,000	0,022	0,066
-496,839	-124,889	0,074	0,008
-495,824	38,165	0,157	-0,103
-494,810	226,639	-0,095	-0,113
-493,795	-6,159	0,091	0,046
-492,781	769,948	-0,042	0,085
-491,766	-171,246	0,098	0,002
-490,751	-200,000	0,005	-0,139
-489,737	-200,000	-0,034	-0,134
-488,722	63,776	-0,008	0,006
-487,708	182,264	0,133	0,144
-486,693	800,000	0,029	0,075
-485,678	-122,260	-0,037	-0,004
-484,664	-200,000	0,012	0,156
-483,649	-200,000	0,016	-0,053
-482,635	94,559	-0,056	0,046
-481,620	214,364	0,047	0,055
-480,605	-200,000	0,005	0,108
-479,591	172,674	0,069	0,074
-478,576	116,016	0,053	0,048
-477,562	231,836	0,035	0,042
-476,547	-129,742	0,036	0,004
-475,532	29,326	-0,066	0,041
-474,518	405,576	-0,066	0,102
-473,503	-55,263	0,154	-0,050
-472,489	488,611	-0,013	-0,021
-471,474	14,300	0,103	0,059
-470,459	25,539	0,114	0,070
-469,445	42,294	0,062	-0,041
-468,430	580,465	0,035	0,063
-467,416	336,199	-0,016	-0,023
-466,401	-150,847	0,092	-0,005
-465,386	-46,426	0,095	-0,034
-464,372	800,000	-0,009	0,023
-463,357	63,736	0,070	-0,052
-462,343	21,670	-0,047	-0,028
-461,328	-175,968	0,052	-0,001
-460,313	122,619	-0,061	-0,056
-459,299	-164,677	-0,093	0,003
-458,284	421,134	0,085	-0,134
-457,270	-111,826	0,027	-0,004
-456,255	115,867	0,107	0,096
-455,241	-4,426	-0,034	-0,017
-454,226	-200,000	0,008	-0,047
-453,211	53,956	-0,063	0,044
-452,197	258,998	-0,047	0,060
-451,182	147,683	-0,006	-0,006
-450,168	117,221	-0,122	0,110
-449,153	12,844	-0,047	0,027
-448,138	302,590	0,029	0,040
-447,124	-66,591	-0,125	-0,036
-446,109	80,368	-0,065	-0,052
-445,095	-122,298	-0,114	0,013
-444,080	800,000	-0,018	0,051
-443,065	267,573	-0,116	0,149
-442,051	-67,453	0,035	-0,010
-441,036	63,204	-0,061	-0,045
-440,022	-200,000	-0,018	-0,072
-439,007	-1,647	-0,042	-0,021
-437,992	187,211	0,106	0,116
-436,978	-200,000	0,027	0,097
-435,963	8,746	-0,081	0,045
-434,949	-43,886	-0,064	-0,023
-433,934	-200,000	0,005	-0,027
-432,919	61,924	0,095	-0,069
-431,905	-200,000	-0,009	-0,037
-430,890	-23,562	-0,108	-0,048
-429,876	-135,396	0,090	-0,008
-428,861	46,413	-0,083	-0,056
-427,846	103,785	-0,073	-0,063
-426,832	800,000	-0,036	-0,085
-425,817	-125,199	-0,054	-0,006
-424,803	-200,000	-0,033	-0,127
-423,788	250,843	0,042	0,053
-422,773	-200,000	0,003	-0,082
-421,759	800,000	-0,046	-0,114
-420,744	800,000	0,024	-0,060
-419,730	388,214	-0,056	0,085
-418,715	-38,917	-0,086	-0,033
-417,701	32,447	0,069	-0,043
-416,686	-70,942	0,036	0,010
-415,671	5,128	0,184	0,099
-414,657	-32,437	0,045	0,018
-413,642	327,264	-0,039	-0,056
-412,628	800,000	-0,027	0,061
-411,613	459,757	-0,022	-0,036
-410,598	-31,580	-0,076	0,031
-409,584	-33,614	0,158	0,064
-408,569	-200,000	-0,003	-0,017
-407,555	-22,181	0,115	-0,051
-406,540	-77,241	0,083	0,021
-405,525	-200,000	0,000	0,091
-404,511	11,493	0,012	-0,007
-403,496	800,000	-0,020	-0,063
-402,482	-101,793	0,095	0,017
-401,467	35,441	0,063	-0,041
-400,452	542,002	0,083	0,146
-399,438	-94,163	0,063	0,013
-398,423	-200,000	0,017	-0,076
-397,409	148,951	-0,043	-0,043
-396,394	-143,280	0,078	0,005
-395,379	800,000	0,035	0,096
-394,365	-13,748	0,128	-0,060
-393,350	-109,740	-0,085	-0,013
-392,336	265,462	-0,026	-0,034
-391,321	800,000	0,027	-0,078
-390,306	-200,000	0,003	0,099
-389,292	8,564	0,025	0,014
-388,277	-200,000	-0,004	-0,097
-387,263	-200,000	-0,002	0,088
-386,248	-23,075	-0,085	-0,037
-385,233	-200,000	0,020	-0,163
-384,219	-130,401	0,130	0,013
-383,204	-30,846	-0,037	0,015
-382,190	-40,442	-0,104	0,039
-381,175	800,000	-0,029	0,079
-380,160	177,137	-0,051	0,054
-379,146	25,841	-0,037	0,023
-378,131	800,000	0,079	0,174
-377,117	360,535	-0,037	-0,054
-376,102	-200,000	0,014	-0,052
-375,088	-32,530	0,102	0,041
-374,073	100,993	0,020	0,017
-373,058	800,000	-0,020	0,052
-372,044	252,188	0,057	0,071
-371,029	-200,000	0,003	0,018
-370,015	338,184	-0,030	-0,043
-369,000	800,000	0,030	-0,078
-367,985	-133,613	-0,123	0,011
-366,971	168,227	0,098	-0,103
-365,956	800,000	-0,028	0,062
-364,942	800,000	0,030	0,088
-363,927	-101,518	0,023	0,004
-362,912	800,000	0,054	0,166
-361,898	23,291	-0,094	0,056
-360,883	23,203	0,118	0,071
-359,869	-61,233	-0,032	0,010
-358,854	227,177	0,046	-0,055
-357,839	-17,728	0,129	0,059
-356,825	701,435	0,013	0,025
-355,810	702,396	-0,072	-0,139
-354,796	26,885	0,100	0,061
-353,781	-64,281	-0,105	0,031
-352,766	800,000	-0,022	-0,051
-351,752	290,152	-0,053	0,070
-350,737	-30,789	0,042	0,017
-349,723	-91,799	0,057	0,012
-348,708	800,000	0,030	0,067
-347,693	-62,174	-0,063	0,019
-346,679	-200,000	0,010	-0,043
-345,664	176,043	-0,070	-0,075
-344,650	-200,000	-0,004	-0,081
-343,635	408,365	0,021	0,033
-342,620	800,000	0,019	0,049
-341,606	-143,702	0,073	0,005
-340,591	-59,277	-0,057	-0,018
-339,577	-60,885	0,038	0,012
-338,562	36,554	0,079	-0,051
-337,548	800,000	0,043	-0,088
-336,533	-200,000	-0,004	-0,019
-335,518	-200,000	0,047	0,169
-334,504	294,656	0,124	0,165
-333,489	-200,000	0,021	0,090
-332,475	202,095	0,009	-0,010
-331,460	7,899	-0,098	-0,054
-330,445	152,927	-0,037	0,037
-329,431	-118,261	-0,016	0,002
-328,416	800,000	0,031	-0,067
-327,402	-200,000	0,013	0,053
-326,387	463,489	0,069	0,113
-325,372	800,000	0,022	-0,049
-324,358	-200,000	0,001	-0,059
-323,343	279,064	-0,029	-0,038
-322,329	482,185	0,035	-0,058
-321,314	-146,425	0,060	-0,004
-320,299	-200,000	-0,005	0,041
-319,285	239,672	0,129	-0,158
-318,270	-200,000	0,016	0,068
-317,256	111,118	0,058	-0,051
-316,241	-200,000	-0,025	-0,146
-315,226	32,662	0,050	-0,031
-314,212	-125,586	0,131	0,014
-313,197	64,877	-0,021	0,015
-312,183	90,815	0,063	0,051
-311,168	-200,000	-0,002	-0,110
-310,153	-200,000	-0,004	-0,166
-309,139	-97,703	-0,103	-0,019
-308,124	29,208	-0,017	-0,011
-307,110	-200,000	0,003	0,170
-306,095	279,373	-0,090	0,117
-305,080	66,841	-0,063	0,047
-304,066	-138,019	-0,097	-0,008
-303,051	-200,000	0,022	-0,105
-302,037	61,632	-0,125	-0,090
-301,022	221,876	-0,051	-0,060
-300,008	529,123	0,033	0,056
-298,993	-200,000	-0,020	-0,068
-297,978	-13,189	0,031	-0,014
-296,964	2,601	-0,094	0,050
-295,949	800,000	0,043	-0,108
-294,935	-103,400	-0,060	0,010
-293,920	-200,000	-0,012	-0,058
-292,905	60,675	-0,065	-0,047
-291,891	64,779	-0,016	0,011
-290,876	-95,608	-0,070	-0,014
-289,862	-200,000	-0,131	-0,000
-288,847	261,218	0,043	-0,054
-287,832	800,000	-0,012	-0,029
-286,818	-168,919	0,021	-0,001
-285,803	6,221	-0,120	-0,065
-284,789	800,000	-0,066	0,168
-283,774	800,000	0,043	-0,112
-282,759	-200,000	0,004	-0,030
-281,745	-44,572	-0,209	-0,076
-280,730	11,057	0,035	-0,019
-279,716	-117,471	-0,031	-0,004
-278,701	425,164	0,029	0,046
-277,686	196,211	0,058	0,065
-276,672	27,601	-0,083	0,051
-275,657	-57,602	-0,032	-0,010
-274,643	-200,000	0,000	-0,074
-273,628	343,386	-0,044	-0,063
-272,613	-37,002	0,130	0,051
-271,599	-58,506	0,042	-0,013
-270,584	-52,254	-0,102	0,034
-269,570	212,845	0,076	0,087
-268,555	301,574	-0,052	-0,070
-267,540	-200,000	0,008	0,086
-266,526	-200,000	0,014	0,060
-265,511	736,740	-0,046	-0,090
-264,497	33,784	0,094	0,060
-263,482	393,967	0,044	0,068
-262,467	778,845	0,056	0,111
-261,453	211,867	-0,058	-0,067
-260,438	-200,000	0,001	0,017
-259,424	71,661	-0,067	-0,051
-258,409	-200,000	0,037	-0,159
-257,395	-109,989	0,087	0,013
-256,380	213,079	0,057	0,065
-255,365	800,000	-0,019	0,057
-254,351	236,845	-0,059	0,071
-253,336	-74,653	-0,075	-0,020
-252,322	150,865	0,046	-0,045
-251,307	-200,000	-0,022	-0,097
-250,292	311,641	0,019	0,026
-249,278	-101,181	0,127	0,022
-248,263	-200,000	0,003	0,144
-247,249	-200,000	0,004	0,026
-246,234	158,727	-0,038	0,038
-245,219	60,683	-0,081	-0,059
-244,205	-24,751	0,103	0,044
-243,190	-200,000	0,001	-0,048
-242,176	-200,000	-0,003	0,053
-241,161	97,467	0,093	-0,078
-240,146	29,523	0,095	-0,059
-239,132	-85,745	-0,019	0,004
-238,117	41,279	0,022	-0,014
-237,103	163,138	-0,062	-0,064
-236,088	521,256	-0,058	-0,099
-235,073	-13,763	0,101	0,047
-234,059	336,398	0,041	-0,059
-233,044	800,000	0,034	0,098
-232,030	-13,440	-0,190	0,089
-231,015	-200,000	0,015	0,078
-230,000	-110,113	-0,166	-0,025
-228,986	-200,000	-0,009	-0,055
-227,971	-200,000	0,006	0,020
-226,957	800,000	0,039	0,097
-225,942	637,430	0,026	0,048
-224,927	116,847	-0,061	0,054
-223,913	379,803	-0,017	0,025
-222,898	-112,009	-0,009	-0,001
-221,884	-200,000	-0,021	0,092
-220,869	644,774	0,043	0,081
-219,855	-200,000	-0,007	0,092
-218,840	46,577	0,095	0,064
-217,825	316,177	0,065	0,090
-216,811	364,849	0,052	-0,076
-215,796	800,000	-0,051	-0,158
-214,782	-124,515	0,039	-0,004
-213,767	643,300	0,062	0,116
-212,752	-114,999	0,162	0,022
-211,738	-200,000	0,009	-0,044
-210,723	237,216	0,035	0,042
-209,709	-200,000	-0,031	-0,118
-208,694	28,181	-0,240	-0,147
-207,679	-200,000	0,009	0,040
-206,665	133,190	-0,093	0,087
-205,650	-200,000	-0,026	0,000
-204,636	-200,000	0,012	0,053
-203,621	-200,000	0,077	-0,000
-202,606	-162,109	0,057	-0,002
-201,592	51,839	-0,119	-0,082
-200,577	-200,000	-0,020	-0,110
-199,563	-200,000	0,029	-0,128
-198,548	800,000	0,028	0,085
-197,533	-200,000	-0,007	-0,121
-196,519	-160,253	-0,092	-0,004
-195,504	182,816	-0,116	-0,124
-194,490	800,000	-0,050	-0,157
-193,475	-200,000	0,011	-0,099
-192,460	65,412	0,012	0,008
-191,446	158,641	-0,071	0,072
-190,431	508,349	0,041	0,070
-189,417	213,337	-0,075	0,086
-188,402	-200,000	-0,022	-0,164
-187,387	-63,052	0,027	-0,008
-186,373	800,000	-0,037	0,086
-185,358	-154,311	0,092	0,004
-184,344	-200,000	0,007	-0,111
-183,329	180,859	0,009	0,010
-182,315	-32,876	0,075	-0,030
-181,300	-200,000	-0,031	-0,150
-180,285	-36,638	0,126	-0,049
-179,271	131,047	-0,149	-0,139
-178,256	-97,088	0,058	0,011
-177,242	-67,716	-0,059	0,017
-176,227	-55,501	0,189	-0,061
-175,212	524,815	0,038	0,065
-174,198	-83,816	0,083	-0,019
-173,183	203,053	-0,122	0,137
-172,169	234,015	-0,051	-0,061
-171,154	-91,651	-0,152	0,031
-170,139	800,000	-0,071	0,164
-169,125	-20,843	0,167	-0,074
-168,110	-200,000	0,005	0,074
-167,096	-145,525	-0,070	0,005
-166,081	-200,000	0,008	0,049
-165,066	-120,660	-0,033	0,004
-164,052	-200,000	-0,002	0,044
-163,037	-200,000	-0,014	-0,049
-162,023	800,000	0,037	0,114
-161,008	372,083	0,043	0,064
-159,993	34,060	-0,057	-0,036
-158,979	5,698	0,136	-0,073
-157,964	109,940	-0,089	-0,077
-156,950	-81,320	-0,098	-0,023
-155,935	265,181	-0,042	0,053
-154,920	269,674	0,036	0,046
-153,906	-200,000	-0,002	0,098
-152,891	157,453	-0,074	0,074
-151,877	36,134	-0,068	-0,044
-150,862	-200,000	-0,022	-0,092
-149,847	44,909	-0,077	-0,051
-148,833	800,000	-0,049	0,101
-147,818	651,075	-0,019	-0,036
-146,804	-97,516	0,245	0,046
-145,789	54,824	0,086	-0,060
-144,775	800,000	0,039	0,120
-143,760	96,600	-0,076	0,063
-142,745	316,908	0,057	-0,078
-141,731	517,509	0,049	-0,084
-140,716	-168,385	-0,111	-0,003
-139,702	-200,000	-0,007	0,057
-138,687	-69,114	0,146	-0,040
-137,672	-200,000	-0,004	0,046
-136,658	-52,004	-0,113	-0,038
-135,643	12,084	-0,024	-0,013
-134,629	-163,359	0,070	0,002
-133,614	-200,000	0,029	0,182
-132,599	800,000	-0,061	0,137
-131,585	-18,619	-0,019	0,008
-130,570	800,000	-0,022	0,061
-129,556	-143,146	0,105	-0,007
-128,541	41,438	0,050	-0,033
-127,526	92,880	0,121	0,099
-126,512	104,408	-0,047	-0,040
-125,497	19,351	0,064	0,037
-124,483	-74,192	0,032	0,008
-123,468	466,958	0,028	-0,046
-122,453	356,446	0,077	-0,112
-121,439	-55,364	-0,053	0,017
-120,424	-200,000	0,022	0,093
-119,410	-62,946	-0,093	0,028
-118,395	59,073	0,042	-0,030
-117,380	52,618	0,022	-0,015
-116,366	-200,000	0,007	-0,052
-115,351	652,070	-0,043	-0,080
-114,337	123,178	-0,039	-0,036
-113,322	-64,940	-0,131	-0,038
-112,307	654,740	-0,047	-0,087
-111,293	-116,974	0,037	0,005
-110,278	563,148	0,025	-0,044
-109,264	81,760	-0,045	-0,035
-108,249	145,201	-0,030	-0,029
-107,234	717,530	-0,107	-0,206
-106,220	800,000	-0,058	0,155
-105,205	743,967	-0,015	-0,030
-104,191	250,277	-0,019	-0,024
-103,176	572,699	0,016	-0,029
-102,162	34,754	0,079	0,050
-101,147	-112,271	-0,109	0,016
-100,132	53,639	-0,052	0,036
-99,118	-21,738	-0,141	0,062
-98,103	-165,938	0,193	-0,006
-97,089	112,892	-0,054	-0,047
-96,074	184,958	-0,041	-0,044
-95,059	1,115	0,043	-0,022
-94,045	-13,442	-0,066	0,031
-93,030	6,116	-0,066	-0,035
-92,016	84,557	0,072	-0,057
-91,001	-200,000	0,011	0,061
-89,986	66,409	-0,063	-0,046
-88,972	104,769	0,087	-0,074
-87,957	-21,430	-0,074	-0,032
-86,943	82,655	0,050	-0,039
-85,928	174,982	-0,098	0,103
-84,913	25,449	-0,137	-0,082
-83,899	-145,280	-0,027	-0,002
-82,884	13,869	0,041	0,023
-81,870	365,546	-0,046	0,067
-80,855	-143,329	0,061	-0,004
-79,840	800,000	-0,011	-0,023
-78,826	-31,861	-0,006	0,003
-77,811	-174,823	-0,174	-0,003
-76,797	-9,163	0,110	-0,053
-75,782	-200,000	-0,006	0,037
-74,767	38,114	-0,087	0,056
-73,753	-65,850	0,046	-0,013
-72,738	3,838	0,053	-0,028
-71,724	-200,000	-0,013	-0,078
-70,709	-117,612	-0,115	0,015
-69,694	-48,098	0,019	0,007
-68,680	-31,298	0,080	0,032
-67,665	-54,019	0,091	-0,030
-66,651	-29,999	0,183	-0,075
-65,636	-200,000	-0,033	0,000
-64,622	224,259	-0,021	-0,024
-63,607	112,115	-0,167	0,146
-62,592	177,462	0,087	-0,092
-61,578	86,099	0,020	0,016
-60,563	-200,000	0,013	0,096
-59,549	202,769	-0,138	0,154
-58,534	-49,861	-1,727	-0,589
-57,519	679,263	-0,651	-1,229
-56,505	-200,000	-1,052	-4,788
-55,490	-188,556	0,608	-0,005
-54,476	800,000	5,233	12,180
-53,461	-200,000	15,328	263,572
-52,446	800,000	698,258	2194,303
-51,432	544,919	1618,813	2804,663
-50,417	118,894	1626,912	1452,282
-49,403	79,050	1284,780	992,977
-48,388	36,877	1025,694	653,701
-47,373	21,954	986,645	579,618
-46,359	21,068	975,237	569,983
-45,344	19,554	971,381	562,746
-44,330	19,573	969,915	561,937
-43,315	19,389	968,264	560,358
-42,300	19,356	967,331	559,688
-41,286	19,360	966,262	559,061
-40,271	19,377	965,348	558,563
-39,257	19,357	964,536	558,007
-38,242	19,402	963,620	557,602
-37,227	19,330	963,005	556,989
-36,213	19,331	962,005	556,392
-35,198	19,345	960,935	555,795
-34,184	19,414	960,188	555,567
-33,169	19,305	959,363	554,714
-32,154	19,391	958,548	554,498
-31,140	19,412	957,575	553,982
-30,125	19,348	956,966	553,402
-29,111	19,345	956,128	552,886
-28,096	19,341	955,433	552,448
-27,082	19,359	954,646	552,030
-26,067	19,316	954,028	551,511
-25,052	19,283	953,372	551,004
-24,038	19,369	952,457	550,729
-23,023	19,344	951,765	550,228
-22,009	19,398	951,076	549,981
-20,994	19,342	950,664	549,542
-19,979	19,399	949,830	549,220
-18,965	19,333	949,248	548,649
-17,950	19,316	948,711	548,263
-16,936	19,297	947,992	547,764
-15,921	19,263	947,444	547,316
-14,906	19,248	946,478	546,691
-13,892	19,199	946,115	546,301
-12,877	19,184	945,448	545,848
-11,863	19,149	944,964	545,434
-10,848	19,166	944,342	545,107
-9,833	19,307	943,933	545,300
-8,819	19,332	943,178	544,922
-7,804	19,292	942,481	544,371
-6,790	19,214	942,131	543,898
-5,775	19,234	941,496	543,575
-4,760	19,255	940,866	543,256
-3,746	19,203	940,181	542,673
-2,731	19,087	939,296	541,774
-1,717	19,025	938,671	541,196
-0,702	19,098	937,930	540,976
0,313	18,880	937,417	540,810
1,327	22,036	935,832	549,804
2,342	31,292	795,051	491,694
3,356	28,713	450,472	274,691
4,371	-0,730	296,315	151,102
5,386	-5,062	277,675	137,453
6,400	-6,035	271,904	133,674
7,415	-6,508	269,741	132,161
8,429	-6,451	268,461	131,575
9,444	-6,586	267,643	131,037
10,459	-6,485	266,674	130,644
11,473	-6,740	266,139	130,137
12,488	-6,825	265,713	129,839
13,502	-7,129	265,240	129,319
14,517	-6,863	264,602	129,239
15,531	-7,019	264,183	128,881
16,546	-7,180	263,862	128,567
17,561	-7,269	263,517	128,307
18,575	-7,123	263,077	128,213
19,590	-7,204	262,829	128,008
20,604	-7,107	262,405	127,877
21,619	-7,348	262,133	127,516
22,634	-7,200	261,770	127,461
23,648	-7,294	261,541	127,254
24,663	-7,238	261,197	127,125
25,677	-7,326	261,011	126,945
26,692	-7,284	260,786	126,862
27,707	-7,153	260,425	126,792
28,721	-7,278	260,235	126,577
29,736	-7,419	260,031	126,339
30,750	-7,399	259,606	126,140
31,765	-7,385	259,439	126,060
32,780	-7,496	259,242	125,854
33,794	-7,396	259,003	125,816
34,809	-7,308	258,706	125,739
35,823	-7,438	258,430	125,478
36,838	-7,447	258,175	125,335
37,853	-7,604	258,072	125,135
38,867	-7,505	257,779	125,069
39,882	-7,458	257,597	125,011
40,896	-7,486	257,442	124,900
41,911	-7,358	257,050	124,812
42,926	-7,546	256,965	124,594
43,940	-7,591	256,557	124,345
44,955	-7,728	256,511	124,191
45,969	-7,444	256,224	124,290
46,984	-7,858	255,967	123,792
47,999	-8,177	255,580	123,313
49,013	-8,131	255,324	123,219
50,028	-8,176	255,088	123,055
51,042	-8,288	254,838	122,826
52,057	-8,251	254,649	122,756
53,071	-8,319	254,412	122,571
54,086	-8,113	254,237	122,656
55,101	-8,164	254,131	122,549
56,115	-7,523	253,927	122,998
57,130	-7,305	253,973	123,198
58,144	-7,118	253,992	123,360
59,159	-6,982	253,640	123,296
60,174	-6,937	253,309	123,163
61,188	-6,943	253,055	123,024
62,203	-7,130	252,968	122,808
63,217	-7,283	252,564	122,469
64,232	-7,146	252,474	122,532
65,247	-7,096	252,315	122,488
66,261	-7,066	252,061	122,379
67,276	-7,462	251,646	121,825
68,290	-7,782	251,604	121,519
69,305	-7,891	251,336	121,285
70,320	-7,906	251,163	121,178
71,334	-7,300	251,129	121,671
72,349	-7,122	250,869	121,687
73,363	-6,999	250,791	121,744
74,378	-7,001	250,556	121,617
75,393	-7,197	250,214	121,273
76,407	-7,232	250,006	121,132
77,422	-7,324	249,834	120,959
78,436	-7,373	249,763	120,872
79,451	-7,242	249,311	120,754
80,466	-7,498	249,247	120,494
81,480	-7,599	248,874	120,217
82,495	-7,605	248,680	120,107
83,509	-7,593	248,627	120,081
84,524	-7,682	248,282	119,828
85,539	-7,912	248,079	119,524
86,553	-7,800	247,989	119,565
87,568	-7,709	247,605	119,447
88,582	-7,644	247,601	119,489
89,597	-7,544	247,199	119,369
90,611	-7,411	247,185	119,464
91,626	-7,397	247,245	119,494
92,641	-7,507	246,963	119,254
93,655	-7,506	246,768	119,150
94,670	-7,493	246,564	119,052
95,684	-7,599	246,390	118,869
96,699	-7,468	246,156	118,855
97,714	-7,587	245,935	118,638
98,728	-7,699	245,791	118,464
99,743	-7,782	245,484	118,236
100,757	-7,822	245,378	118,141
101,772	-7,885	245,141	117,963
102,787	-7,611	244,954	118,092
103,801	-7,682	244,933	118,011
104,816	-7,478	244,546	117,985
105,830	-7,314	244,576	118,126
106,845	-7,251	244,420	118,093
107,860	-7,409	244,167	117,828
108,874	-7,319	244,010	117,817
109,889	-7,402	243,699	117,587
110,903	-7,446	243,591	117,487
111,918	-7,456	243,353	117,354
112,933	-7,492	243,427	117,349
113,947	-7,182	242,941	117,361
114,962	-7,260	242,923	117,278
115,976	-7,388	242,778	117,091
116,991	-7,457	242,588	116,933
118,006	-7,558	242,285	116,693
119,020	-7,459	242,258	116,751
120,035	-7,189	242,087	116,881
121,049	-7,145	241,936	116,834
122,064	-6,965	241,594	116,806
123,079	-7,266	241,528	116,516
124,093	-7,549	241,469	116,245
125,108	-7,614	241,117	116,012
126,122	-7,599	240,949	115,932
127,137	-7,896	240,724	115,571
128,151	-7,780	240,488	115,542
129,166	-7,672	240,490	115,621
130,181	-7,661	240,281	115,519
131,195	-7,902	239,976	115,165
132,210	-7,662	239,884	115,307
133,224	-7,448	239,734	115,399
134,239	-7,195	239,595	115,528
135,254	-7,276	239,317	115,318
136,268	-7,693	239,192	114,908
137,283	-7,722	238,916	114,742
138,297	-7,899	238,625	114,448
139,312	-7,831	238,454	114,410
140,327	-7,548	238,563	114,683
141,341	-7,103	238,566	115,035
142,356	-6,876	238,432	115,145
143,370	-6,858	237,988	114,934
144,385	-6,954	238,043	114,873
145,400	-6,906	237,723	114,747
146,414	-6,921	237,622	114,676
147,429	-7,006	237,385	114,482
148,443	-7,124	237,320	114,346
149,458	-6,873	237,017	114,391
150,473	-7,021	236,760	114,138
151,487	-7,153	236,731	114,008
152,502	-7,154	236,585	113,927
153,516	-7,014	236,433	113,956
154,531	-6,813	236,205	113,997
155,546	-7,317	236,177	113,569
156,560	-7,059	235,815	113,592
157,575	-7,342	235,770	113,333
158,589	-7,059	235,536	113,437
159,604	-6,989	235,417	113,426
160,619	-6,979	235,278	113,356
161,633	-6,656	235,113	113,524
162,648	-6,742	234,903	113,344
163,662	-7,018	234,901	113,113
164,677	-6,979	234,591	112,985
165,692	-7,025	234,426	112,858
166,706	-6,835	234,324	112,950
167,721	-6,706	234,133	112,952
168,735	-6,678	234,007	112,902
169,750	-6,841	234,008	112,764
170,764	-7,029	233,895	112,550
171,779	-6,930	233,621	112,486
172,794	-6,638	233,305	112,555
173,808	-7,016	233,199	112,195
174,823	-7,465	232,952	111,712
175,837	-7,547	232,627	111,481
176,852	-7,085	232,555	111,801
177,867	-6,801	232,553	112,013
178,881	-6,876	232,479	111,909
179,896	-6,772	232,208	111,851
180,910	-6,880	232,243	111,773
181,925	-6,854	232,000	111,666
182,940	-6,769	231,794	111,623
183,954	-6,705	231,695	111,616
184,969	-6,660	231,604	111,598
185,983	-6,577	231,495	111,600
186,998	-6,640	231,249	111,423
188,013	-6,682	231,081	111,299
189,027	-6,657	230,915	111,228
190,042	-6,461	230,785	111,309
191,056	-6,809	230,663	110,968
192,071	-6,471	230,573	111,179
193,086	-6,409	230,334	111,102
194,100	-6,265	230,050	111,067
195,115	-6,311	230,010	111,002
196,129	-6,501	230,089	110,883
197,144	-2,376	231,186	114,624
198,159	1,684	232,397	118,395
199,173	3,354	232,826	119,912
200,188	3,761	232,522	120,062
201,202	3,339	232,557	119,740
202,217	3,722	232,492	119,995
203,232	4,059	232,265	120,130
204,246	4,126	232,296	120,188
205,261	4,358	231,923	120,165
206,275	4,255	231,921	120,073
207,290	4,358	231,772	120,065
208,304	4,129	231,776	119,878
209,319	4,204	231,532	119,800
210,334	4,246	231,300	119,702
211,348	3,993	231,003	119,341
212,363	3,635	230,850	118,974
213,377	3,367	230,667	118,662
214,392	3,455	230,511	118,639
215,407	3,345	230,309	118,439
216,421	3,816	230,130	118,700
217,436	3,384	230,025	118,302
218,450	3,362	229,688	118,101
219,465	3,121	229,641	117,881
220,480	3,299	229,534	117,952
221,494	3,362	229,301	117,871
222,509	3,493	229,315	117,968
223,523	3,355	229,147	117,765
224,538	3,388	228,889	117,647
225,553	3,306	228,829	117,543
226,567	3,479	228,740	117,620
227,582	3,528	228,598	117,573
228,596	3,885	228,396	117,733
229,611	3,628	228,299	117,476
230,626	3,282	228,013	117,053
231,640	3,393	227,879	117,059
232,655	3,680	227,792	117,222
233,669	4,139	227,885	117,611
234,684	4,180	227,654	117,512
235,699	3,747	227,492	117,088
236,713	3,355	227,285	116,673
237,728	3,499	226,885	116,566
238,742	3,375	226,697	116,365
239,757	3,408	226,628	116,345
240,772	3,450	226,523	116,312
241,786	3,166	226,409	116,028
242,801	3,413	226,508	116,256
243,815	3,914	226,142	116,436
244,830	3,856	226,235	116,430
245,844	3,439	225,999	115,983
246,859	3,453	225,847	115,905
247,874	3,551	225,640	115,863
248,888	3,853	225,523	116,020
249,903	3,534	225,245	115,626
250,917	3,689	225,059	115,637
251,932	3,362	225,120	115,412
252,947	3,546	224,802	115,378
253,961	3,550	224,603	115,267
254,976	3,339	224,538	115,066
255,990	3,759	224,465	115,333
257,005	3,600	224,367	115,154
258,020	3,747	224,265	115,201
259,034	3,744	224,140	115,124
260,049	3,845	224,012	115,123
261,063	3,733	223,846	114,944
262,078	3,718	223,695	114,845
263,093	4,127	223,506	115,043
264,107	3,869	223,441	114,807
265,122	3,641	223,316	114,563
266,136	3,796	223,225	114,622
267,151	3,823	222,933	114,481
268,166	3,651	222,648	114,197
269,180	3,572	222,407	114,004
270,195	3,272	222,326	113,730
271,209	3,683	222,164	113,942
272,224	3,436	222,201	113,767
273,239	3,548	222,044	113,760
274,253	3,333	221,864	113,498
275,268	3,329	221,613	113,357
276,282	3,100	221,349	113,042
277,297	3,215	221,197	113,039
278,312	3,547	221,158	113,254
279,326	3,604	221,079	113,246
280,341	3,421	220,934	113,027
281,355	3,646	220,796	113,112
282,370	3,345	220,699	112,831
283,384	3,226	220,412	112,586
284,399	3,030	220,244	112,346
285,414	3,211	220,079	112,385
286,428	3,245	220,030	112,375
287,443	3,520	219,988	112,546
288,457	3,697	219,903	112,621
289,472	3,522	219,563	112,309
290,487	3,109	219,388	111,908
291,501	3,054	219,201	111,762
292,516	3,055	219,264	111,785
293,530	3,270	218,958	111,775
294,545	3,147	218,962	111,678
295,560	3,249	218,921	111,722
296,574	3,353	218,651	111,650
297,589	3,550	218,509	111,710
298,603	3,486	218,385	111,591
299,618	3,652	218,253	111,634
300,633	3,366	218,246	111,412
301,647	3,769	218,091	111,616
302,662	3,586	218,123	111,490
303,676	3,543	217,784	111,275
304,691	3,612	217,600	111,222
305,706	3,818	217,542	111,331
306,720	3,667	217,414	111,146
307,735	3,405	217,186	110,830
308,749	3,285	217,065	110,672
309,764	3,704	216,929	110,895
310,779	4,116	216,902	111,169
311,793	3,640	216,762	110,744
312,808	3,586	216,466	110,544
313,822	3,571	216,335	110,456
314,837	3,243	216,272	110,178
315,852	3,240	215,995	110,025
316,866	3,407	215,907	110,090
317,881	3,725	215,932	110,322
318,895	3,451	215,706	110,000
319,910	3,383	215,488	109,830
320,925	3,073	215,272	109,488
321,939	3,044	215,195	109,419
322,954	2,967	215,036	109,273
323,968	3,407	215,061	109,591
324,983	3,667	214,888	109,678
325,997	3,612	214,959	109,666
327,012	3,928	214,575	109,686
328,027	3,455	214,454	109,277
329,041	3,836	214,484	109,554
330,056	4,304	214,223	109,744
331,070	3,745	214,042	109,244
332,085	3,367	213,739	108,811
333,100	3,312	213,719	108,752
334,114	3,480	213,515	108,758
335,129	3,432	213,526	108,719
336,143	3,404	213,282	108,566
337,158	3,420	213,246	108,549
338,173	3,300	213,124	108,392
339,187	3,184	212,891	108,182
340,202	3,192	212,668	108,065
341,216	3,090	212,586	107,942
342,231	3,330	212,474	108,045
343,246	2,911	212,445	107,725
344,260	3,059	212,213	107,701
345,275	3,233	212,036	107,724
346,289	3,641	211,995	107,981
347,304	3,393	211,873	107,735
348,319	3,347	211,725	107,618
349,333	3,435	211,520	107,566
350,348	3,621	211,522	107,688
351,362	3,496	211,496	107,578
352,377	3,663	211,217	107,543
353,392	3,636	211,008	107,408
354,406	3,636	210,828	107,307
355,421	196,062	1340,216	1429,071
356,435	156,620	1477,876	1429,139
