DTS Sentinel unit serial number:	SN410029Multiplexer serial number:	ORYXHardware model number:	OX2-SRSoftware version number:	ORYX F/W v4,00 Oryx Data Collector v3.7.2.0data status	okinstallation	B6 Nyhavnadifferential loss correction	single-endedforward channel	channel 2reverse channel	N/Adate	2023/12/10time	14:45:08forward acquisition time	300,00reverse acquisition time	0,00gamma	499,1914k internal	0,3122k external	0,3122temperature offset calibration	1,0000default loss term (dB/km)	0,3820temperature slope calibration	1,0000multiplexer offset coefficient	1,0000multiplexer slope coefficient	1,0000fibre end	0,00T internal ref (°C)	22,56T ext. ref 1 (°C)	6,03T ext. ref 2 (°C)	6,03length (m)	temperature (°C)	Stokes	anti-Stokes-744,400	-200,000	0,000	-0,046
-743,385	-49,307	-0,196	0,069
-742,371	-121,718	0,137	-0,017
-741,356	-40,156	-0,214	0,083
-740,342	-147,426	0,221	-0,014
-739,327	-130,761	-0,208	-0,021
-738,312	800,000	0,051	-0,107
-737,298	-134,785	-0,278	0,025
-736,283	22,920	0,079	-0,048
-735,269	20,837	-0,275	0,166
-734,254	-148,487	0,121	0,007
-733,239	-102,076	-0,364	-0,065
-732,225	60,595	0,179	-0,132
-731,210	-52,217	0,185	-0,064
-730,196	-45,978	0,093	0,034
-729,181	800,000	-0,038	-0,095
-728,167	128,156	-0,134	0,127
-727,152	-146,233	0,094	-0,006
-726,137	211,331	0,040	0,047
-725,123	-41,749	-0,102	-0,039
-724,108	-80,477	-0,113	-0,028
-723,094	103,026	-0,021	-0,018
-722,079	530,808	0,058	-0,102
-721,064	51,296	-0,112	0,079
-720,050	174,272	-0,045	-0,049
-719,035	26,427	-0,080	0,050
-718,021	-200,000	0,015	-0,055
-717,006	38,713	-0,077	-0,051
-715,991	54,760	-0,051	-0,036
-714,977	-200,000	-0,006	-0,087
-713,962	108,542	-0,083	-0,074
-712,948	-200,000	-0,003	0,042
-711,933	196,829	-0,146	-0,166
-710,918	-21,778	-0,037	0,017
-709,904	90,803	-0,106	-0,088
-708,889	-75,656	-0,089	0,023
-707,875	27,033	-0,095	-0,059
-706,860	120,327	-0,062	-0,057
-705,845	-200,000	-0,076	-0,000
-704,831	-38,539	-0,121	0,047
-703,816	800,000	0,055	-0,123
-702,802	33,216	-0,162	0,104
-701,787	308,136	0,054	0,075
-700,772	800,000	-0,073	-0,156
-699,758	-56,237	-0,144	0,048
-698,743	69,485	0,120	0,092
-697,729	-200,000	-0,007	-0,059
-696,714	-200,000	0,131	0,000
-695,699	-119,179	-0,166	0,021
-694,685	-200,000	0,016	0,119
-693,670	-157,348	-0,091	-0,004
-692,656	39,714	0,087	-0,058
-691,641	1,888	0,077	-0,041
-690,627	800,000	-0,035	-0,080
-689,612	-47,851	0,104	0,037
-688,597	678,455	0,047	0,091
-687,583	-200,000	0,010	-0,112
-686,568	-74,208	-0,121	-0,032
-685,554	167,157	-0,090	-0,095
-684,539	632,785	0,049	0,092
-683,524	318,037	-0,051	-0,071
-682,510	-11,637	-0,073	0,035
-681,495	126,784	0,011	0,010
-680,481	341,330	-0,094	-0,137
-679,466	21,447	-0,161	-0,097
-678,451	305,597	-0,071	-0,099
-677,437	265,538	0,107	-0,139
-676,422	-12,279	0,047	-0,023
-675,408	-162,835	0,070	-0,002
-674,393	212,691	-0,013	0,016
-673,378	-200,000	0,004	0,049
-672,364	349,340	0,044	-0,064
-671,349	-41,510	-0,114	-0,043
-670,335	800,000	0,028	-0,076
-669,320	-166,467	0,074	0,002
-668,305	-198,322	0,054	-0,000
-667,291	234,298	-0,028	0,035
-666,276	159,198	-0,121	-0,125
-665,262	-133,820	-0,243	0,022
-664,247	-200,000	0,000	-0,118
-663,232	270,394	0,009	0,012
-662,218	99,633	0,049	-0,042
-661,203	-53,389	-0,199	-0,067
-660,189	-69,748	-0,084	-0,024
-659,174	-64,520	-0,173	0,052
-658,159	379,871	-0,075	0,114
-657,145	609,454	0,085	-0,158
-656,130	-20,450	-0,065	-0,030
-655,116	776,370	0,051	0,104
-654,101	800,000	0,040	0,093
-653,086	5,984	0,105	-0,057
-652,072	800,000	-0,025	-0,076
-651,057	-200,000	0,006	-0,115
-650,043	-106,100	0,013	-0,002
-649,028	-200,000	-0,020	0,100
-648,014	-43,303	-0,114	0,043
-646,999	-200,000	0,007	0,030
-645,984	95,189	-0,046	-0,039
-644,970	31,674	-0,149	0,095
-643,955	800,000	0,032	0,074
-642,941	800,000	0,023	-0,058
-641,926	-200,000	0,025	0,135
-640,911	800,000	-0,004	-0,013
-639,897	-39,717	0,181	0,070
-638,882	-200,000	-0,004	-0,077
-637,868	21,737	-0,054	0,033
-636,853	800,000	0,014	-0,039
-635,838	49,235	-0,079	-0,055
-634,824	92,723	0,028	-0,023
-633,809	-200,000	0,022	-0,125
-632,795	26,601	0,069	0,043
-631,780	-64,678	-0,103	-0,031
-630,765	-200,000	0,032	-0,230
-629,751	-97,634	0,116	0,022
-628,736	-151,747	-0,143	-0,008
-627,722	-200,000	-0,006	0,033
-626,707	-94,032	-0,067	0,014
-625,692	199,180	0,014	-0,016
-624,678	-72,580	0,110	0,030
-623,663	800,000	-0,041	0,116
-622,649	-23,895	0,035	-0,016
-621,634	-200,000	-0,004	-0,088
-620,619	77,029	-0,125	-0,099
-619,605	-137,838	-0,028	0,002
-618,590	538,118	-0,040	0,071
-617,576	-200,000	0,008	0,031
-616,561	363,791	0,090	-0,135
-615,546	-113,861	0,085	0,012
-614,532	-10,291	-0,131	-0,064
-613,517	-200,000	0,046	-0,190
-612,503	-107,653	-0,069	0,011
-611,488	800,000	0,025	0,068
-610,474	800,000	-0,068	0,189
-609,459	-200,000	0,002	0,038
-608,444	-200,000	0,004	-0,040
-607,430	-200,000	-0,012	0,067
-606,415	57,032	-0,139	-0,100
-605,401	87,214	0,100	0,082
-604,386	-200,000	0,011	0,135
-603,371	-200,000	-0,016	-0,128
-602,357	326,163	-0,043	-0,061
-601,342	317,924	0,067	-0,094
-600,328	-200,000	-0,034	-0,196
-599,313	-107,562	0,027	0,004
-598,298	197,599	-0,048	-0,055
-597,284	444,467	0,046	0,076
-596,269	-49,186	0,059	-0,021
-595,255	51,510	0,112	0,079
-594,240	122,309	-0,131	-0,121
-593,225	-200,000	0,002	-0,087
-592,211	234,855	0,050	-0,061
-591,196	34,262	-0,083	-0,054
-590,182	-108,571	-0,165	0,026
-589,167	219,894	0,039	-0,046
-588,152	52,897	-0,050	0,035
-587,138	667,861	-0,022	0,042
-586,123	-168,949	0,099	0,003
-585,109	800,000	-0,011	-0,029
-584,094	81,186	0,030	-0,024
-583,079	-200,000	-0,003	0,035
-582,065	590,000	-0,089	0,163
-581,050	800,000	0,043	0,109
-580,036	262,099	0,054	-0,070
-579,021	800,000	-0,033	-0,079
-578,006	43,151	-0,015	-0,010
-576,992	11,629	-0,123	-0,070
-575,977	430,314	0,053	-0,086
-574,963	133,753	0,070	0,067
-573,948	237,350	0,031	0,038
-572,934	800,000	-0,042	-0,126
-571,919	-10,364	-0,046	0,023
-570,904	13,897	0,177	0,102
-569,890	66,723	0,150	-0,113
-568,875	-200,000	0,019	-0,087
-567,861	29,090	0,139	-0,087
-566,846	-200,000	-0,012	0,120
-565,831	228,762	0,065	-0,079
-564,817	-200,000	0,024	-0,114
-563,802	-129,468	-0,193	0,020
-562,788	-30,804	0,060	0,025
-561,773	133,216	-0,056	0,053
-560,758	-86,119	-0,054	-0,012
-559,744	800,000	0,045	0,109
-558,729	-24,893	-0,162	0,071
-557,715	-200,000	-0,015	0,068
-556,700	-200,000	0,005	0,036
-555,685	-200,000	-0,002	0,066
-554,671	800,000	0,039	0,101
-553,656	193,993	0,187	0,210
-552,642	-155,553	-0,012	-0,001
-551,627	-1,441	0,035	0,018
-550,612	-28,080	0,085	0,036
-549,598	-169,674	-0,045	0,001
-548,583	-200,000	0,014	-0,102
-547,569	42,854	0,069	0,047
-546,554	101,792	0,039	-0,034
-545,539	-130,897	0,070	0,007
-544,525	326,944	0,047	-0,067
-543,510	246,503	-0,060	-0,075
-542,496	-31,449	-0,082	0,034
-541,481	-200,000	0,020	-0,083
-540,466	-47,857	-0,151	0,054
-539,452	-200,000	0,013	0,102
-538,437	-200,000	-0,019	0,105
-537,423	498,388	-0,051	0,087
-536,408	-57,435	-0,056	-0,018
-535,393	800,000	-0,005	-0,013
-534,379	-200,000	-0,030	-0,109
-533,364	-99,275	-0,056	0,010
-532,350	776,933	-0,025	0,051
-531,335	265,856	0,101	0,130
-530,321	277,265	0,087	0,114
-529,306	-200,000	-0,025	-0,125
-528,291	184,650	-0,058	-0,064
-527,277	48,893	-0,042	0,029
-526,262	111,285	0,046	0,041
-525,248	800,000	-0,020	0,045
-524,233	644,311	-0,053	0,101
-523,218	800,000	0,037	0,087
-522,204	54,649	0,095	0,067
-521,189	762,335	0,052	-0,104
-520,175	-52,752	-0,161	-0,055
-519,160	65,028	0,021	0,016
-518,145	-104,664	-0,065	0,011
-517,131	16,033	0,031	-0,018
-516,116	76,516	0,057	0,045
-515,102	175,419	0,094	0,101
-514,087	790,178	-0,024	0,049
-513,072	-30,907	-0,260	-0,108
-512,058	-200,000	-0,002	-0,057
-511,043	-60,262	-0,042	0,013
-510,029	-200,000	-0,010	0,086
-509,014	123,383	0,108	0,100
-507,999	800,000	0,050	-0,128
-506,985	800,000	0,054	-0,144
-505,970	294,402	0,023	-0,032
-504,956	220,450	-0,049	0,058
-503,941	-200,000	-0,035	-0,188
-502,926	490,708	-0,064	0,108
-501,912	487,564	0,094	0,159
-500,897	-200,000	-0,004	-0,051
-499,883	-139,204	-0,046	-0,004
-498,868	523,667	-0,085	-0,147
-497,853	8,229	0,131	0,073
-496,839	-91,414	-0,106	-0,022
-495,824	-200,000	-0,005	-0,024
-494,810	-55,486	0,090	0,030
-493,795	446,699	0,014	-0,023
-492,781	-200,000	0,002	0,111
-491,766	69,861	0,157	-0,119
-490,751	-95,701	0,114	-0,022
-489,737	24,902	-0,116	0,071
-488,722	-200,000	-0,018	-0,086
-487,708	800,000	0,053	0,138
-486,693	127,895	0,061	0,058
-485,678	-200,000	0,016	-0,110
-484,664	25,971	-0,084	-0,052
-483,649	289,607	-0,112	0,151
-482,635	74,748	0,027	-0,021
-481,620	508,518	-0,053	-0,092
-480,605	-200,000	0,011	-0,086
-479,591	800,000	-0,042	-0,132
-478,576	-200,000	0,000	-0,189
-477,562	-200,000	-0,039	0,143
-476,547	381,905	0,070	-0,106
-475,532	-7,307	0,082	0,041
-474,518	322,993	0,046	0,065
-473,503	800,000	0,014	0,040
-472,489	-200,000	0,028	0,125
-471,474	182,422	0,045	0,049
-470,459	-94,598	-0,120	0,024
-469,445	-200,000	-0,046	0,169
-468,430	800,000	-0,018	-0,039
-467,416	-200,000	0,001	0,108
-466,401	66,691	0,113	-0,085
-465,386	655,216	-0,042	0,080
-464,372	-9,038	0,199	0,098
-463,357	-200,000	-0,023	-0,113
-462,343	520,952	-0,124	-0,215
-461,328	153,955	-0,015	-0,015
-460,313	800,000	0,021	-0,045
-459,299	800,000	0,013	-0,027
-458,284	-200,000	-0,005	0,126
-457,270	93,041	-0,035	0,029
-456,255	-19,239	-0,060	-0,027
-455,241	245,309	-0,065	-0,080
-454,226	-55,316	-0,062	-0,020
-453,211	317,846	0,072	-0,100
-452,197	275,192	0,110	0,144
-451,182	162,295	0,070	0,073
-450,168	-200,000	0,008	-0,071
-449,153	-200,000	-0,017	-0,060
-448,138	27,819	-0,094	-0,058
-447,124	-48,206	0,146	-0,052
-446,109	385,749	-0,041	0,063
-445,095	-200,000	0,001	-0,014
-444,080	229,430	0,056	0,067
-443,065	116,708	-0,068	0,062
-442,051	-36,926	-0,046	-0,018
-441,036	800,000	-0,061	0,145
-440,022	800,000	0,015	0,047
-439,007	-51,843	-0,124	0,042
-437,992	800,000	-0,003	-0,008
-436,978	800,000	0,046	-0,126
-435,963	686,628	-0,018	0,036
-434,949	800,000	-0,011	0,029
-433,934	-69,208	0,087	-0,025
-432,919	-200,000	-0,031	-0,103
-431,905	-200,000	-0,032	0,154
-430,890	67,111	0,136	-0,102
-429,876	-124,575	0,170	0,019
-428,861	105,100	0,041	0,036
-427,846	348,472	0,036	-0,052
-426,832	-119,924	-0,174	-0,022
-425,817	-63,937	-0,109	-0,032
-424,803	83,298	-0,102	0,082
-423,788	464,141	-0,076	0,125
-422,773	800,000	-0,017	0,054
-421,759	95,578	-0,087	0,073
-420,744	-22,007	0,026	0,012
-419,730	-53,085	0,037	-0,012
-418,715	800,000	0,084	-0,260
-417,701	-200,000	-0,064	-0,223
-416,686	277,236	-0,020	-0,026
-415,671	-200,000	0,008	-0,128
-414,657	-52,403	-0,069	0,023
-413,642	-125,781	-0,089	-0,010
-412,628	-10,612	0,138	-0,067
-411,613	95,717	-0,051	-0,043
-410,598	800,000	0,032	-0,066
-409,584	-200,000	-0,015	0,105
-408,569	800,000	0,028	0,075
-407,555	141,771	-0,120	0,117
-406,540	-200,000	0,017	0,055
-405,525	-200,000	-0,037	-0,158
-404,511	130,236	-0,033	-0,031
-403,496	800,000	-0,034	0,085
-402,482	-127,479	-0,012	-0,001
-401,467	18,245	0,102	-0,060
-400,452	-53,805	0,026	0,009
-399,438	-200,000	-0,015	0,136
-398,423	800,000	-0,034	-0,103
-397,409	-200,000	0,013	0,108
-396,394	3,722	0,080	0,043
-395,379	178,830	0,058	-0,063
-394,365	-22,246	-0,042	-0,019
-393,350	-22,558	0,054	-0,024
-392,336	800,000	-0,018	0,038
-391,321	-34,199	0,089	-0,036
-390,306	-47,705	-0,038	-0,014
-389,292	-40,806	0,019	-0,007
-388,277	82,382	0,188	-0,150
-387,263	6,066	0,038	0,021
-386,248	-31,247	-0,040	0,016
-385,233	561,721	-0,095	0,170
-384,219	-98,379	-0,156	0,029
-383,204	159,080	-0,037	-0,038
-382,190	800,000	0,033	0,095
-381,175	110,163	0,071	0,062
-380,160	-139,498	0,096	-0,007
-379,146	800,000	-0,022	0,060
-378,131	-200,000	-0,016	0,055
-377,117	800,000	-0,021	0,062
-376,102	2,278	-0,130	-0,069
-375,088	-97,841	0,060	0,011
-374,073	84,401	0,094	-0,075
-373,058	505,185	-0,066	0,113
-372,044	-200,000	0,007	0,132
-371,029	-77,256	0,102	0,026
-370,015	-200,000	0,016	-0,093
-369,000	169,842	-0,092	0,097
-367,985	-86,994	0,113	-0,025
-366,971	228,547	0,026	0,031
-365,956	-200,000	0,035	0,130
-364,942	-200,000	0,003	0,089
-363,927	539,796	0,061	0,106
-362,912	-77,227	0,080	0,020
-361,898	-200,000	0,026	-0,096
-360,883	-200,000	-0,024	-0,086
-359,869	800,000	-0,068	-0,148
-358,854	369,271	0,069	-0,103
-357,839	-200,000	0,023	0,103
-356,825	452,554	0,055	-0,090
-355,810	30,201	0,080	-0,050
-354,796	-200,000	0,015	-0,051
-353,781	-147,076	-0,063	-0,004
-352,766	-63,140	0,136	-0,041
-351,752	427,500	0,054	0,085
-350,737	533,630	-0,010	-0,018
-349,723	475,773	-0,046	0,077
-348,708	-59,061	0,226	-0,071
-347,693	-89,204	-0,019	0,004
-346,679	214,209	-0,074	-0,086
-345,664	800,000	-0,016	-0,038
-344,650	-200,000	-0,006	0,063
-343,635	32,512	-0,078	-0,049
-342,620	800,000	0,014	-0,043
-341,606	15,708	0,064	0,037
-340,591	-200,000	-0,019	0,080
-339,577	69,283	0,017	-0,013
-338,562	-17,164	-0,039	-0,018
-337,548	-200,000	0,008	-0,025
-336,533	-200,000	-0,059	0,198
-335,518	-200,000	-0,017	0,070
-334,504	34,556	-0,064	0,041
-333,489	-35,235	0,089	0,035
-332,475	85,157	-0,086	0,069
-331,460	800,000	0,026	-0,078
-330,445	44,380	0,045	-0,030
-329,431	-13,148	-0,061	-0,029
-328,416	293,609	0,062	-0,083
-327,402	-16,556	-0,097	-0,045
-326,387	800,000	-0,021	-0,049
-325,372	-93,660	-0,029	-0,006
-324,358	-7,745	-0,019	-0,010
-323,343	-200,000	0,012	0,059
-322,329	218,855	-0,064	-0,076
-321,314	-200,000	-0,007	-0,041
-320,299	800,000	0,016	0,041
-319,285	85,221	-0,035	0,028
-318,270	112,401	0,054	0,048
-317,256	118,894	0,043	-0,039
-316,241	68,041	-0,045	-0,033
-315,226	-200,000	-0,003	0,034
-314,212	800,000	0,014	0,032
-313,197	800,000	0,043	-0,104
-312,183	383,751	-0,071	0,108
-311,168	46,913	-0,099	0,067
-310,153	442,605	-0,059	-0,095
-309,139	800,000	0,017	-0,045
-308,124	-200,000	0,003	0,027
-307,110	147,370	-0,057	0,056
-306,095	223,087	-0,097	0,115
-305,080	100,159	-0,036	0,031
-304,066	-200,000	0,022	-0,132
-303,051	151,124	-0,075	0,074
-302,037	-200,000	0,040	0,251
-301,022	-200,000	0,027	-0,153
-300,008	31,124	-0,041	-0,025
-298,993	-200,000	0,019	0,099
-297,978	-200,000	-0,009	0,073
-296,964	-173,342	0,064	0,001
-295,949	800,000	-0,019	-0,041
-294,935	186,828	0,054	-0,059
-293,920	-200,000	-0,018	-0,160
-292,905	-122,770	0,024	0,003
-291,891	-73,701	0,051	-0,014
-290,876	-97,089	0,045	-0,009
-289,862	101,870	-0,117	-0,100
-288,847	-43,776	-0,030	-0,011
-287,832	22,855	-0,105	0,063
-286,818	-200,000	0,031	0,110
-285,803	-64,069	-0,047	-0,014
-284,789	19,097	0,066	0,039
-283,774	126,239	-0,056	-0,052
-282,759	534,439	0,019	0,032
-281,745	267,828	-0,011	0,014
-280,730	800,000	0,049	-0,106
-279,716	-200,000	-0,042	0,150
-278,701	537,524	0,011	-0,019
-277,686	-200,000	0,003	-0,044
-276,672	492,571	-0,019	0,032
-275,657	342,435	0,092	0,132
-274,643	-58,856	-0,087	-0,027
-273,628	-200,000	0,008	-0,133
-272,613	156,072	-0,090	0,091
-271,599	14,874	-0,095	0,055
-270,584	246,551	0,048	-0,059
-269,570	99,766	0,079	-0,067
-268,555	-200,000	0,020	0,154
-267,540	-156,394	-0,036	-0,002
-266,526	100,702	-0,016	0,014
-265,511	-200,000	0,029	-0,146
-264,497	-200,000	0,040	0,199
-263,482	329,985	0,083	0,117
-262,467	-139,295	-0,137	-0,011
-261,453	15,255	0,104	-0,059
-260,438	28,685	-0,176	-0,109
-259,424	-42,459	-0,081	0,030
-258,409	154,471	-0,095	-0,096
-257,395	-200,000	-0,002	-0,025
-256,380	-77,218	-0,090	0,023
-255,365	256,400	0,081	0,102
-254,351	-200,000	-0,010	-0,121
-253,336	-6,958	0,130	0,065
-252,322	-200,000	-0,029	-0,123
-251,307	-200,000	-0,005	-0,147
-250,292	800,000	0,009	-0,020
-249,278	-28,345	0,085	-0,036
-248,263	-159,284	0,083	0,003
-247,249	123,845	-0,060	-0,055
-246,234	37,317	-0,143	0,093
-245,219	-81,859	-0,056	0,013
-244,205	800,000	0,010	-0,026
-243,190	-200,000	-0,012	-0,065
-242,176	-65,350	0,096	0,028
-241,161	472,425	0,061	0,102
-240,146	-65,524	0,096	0,028
-239,132	800,000	-0,009	-0,020
-238,117	339,260	-0,093	-0,133
-237,103	654,544	0,068	-0,128
-236,088	39,512	0,095	-0,062
-235,073	-146,495	0,208	0,013
-234,059	-31,481	-0,002	0,001
-233,044	201,011	-0,048	-0,054
-232,030	11,264	0,070	0,039
-231,015	-62,670	0,188	0,056
-230,000	-110,715	-0,077	-0,011
-228,986	151,194	0,062	-0,062
-227,971	800,000	0,006	0,013
-226,957	-200,000	0,006	0,044
-225,942	-44,413	0,050	0,018
-224,927	-68,761	0,099	0,028
-223,913	-70,511	-0,075	0,021
-222,898	611,370	-0,081	-0,149
-221,884	-130,072	-0,138	0,014
-220,869	800,000	0,036	-0,113
-219,855	-59,059	-0,062	0,020
-218,840	-200,000	-0,029	0,103
-217,825	-3,807	0,106	-0,054
-216,811	92,569	-0,145	-0,120
-215,796	-200,000	0,042	-0,179
-214,782	539,047	0,036	-0,062
-213,767	249,022	-0,085	0,106
-212,752	-200,000	0,000	-0,030
-211,738	800,000	0,035	-0,103
-210,723	-100,371	0,029	0,005
-209,709	-200,000	-0,001	0,029
-208,694	310,339	0,039	-0,053
-207,679	-200,000	-0,023	-0,091
-206,665	-200,000	0,023	-0,078
-205,650	-200,000	-0,004	-0,079
-204,636	423,802	-0,057	0,090
-203,621	53,275	-0,053	-0,037
-202,606	-200,000	-0,002	-0,010
-201,592	-100,973	-0,090	0,016
-200,577	206,973	0,095	-0,109
-199,563	324,299	0,028	0,039
-198,548	193,726	0,047	0,052
-197,533	-200,000	0,000	-0,031
-196,519	-112,651	0,092	-0,013
-195,504	-62,092	-0,207	-0,063
-194,490	32,726	-0,123	0,078
-193,475	-200,000	-0,001	0,033
-192,460	-81,084	0,084	0,020
-191,446	50,070	-0,156	0,107
-190,431	800,000	0,097	0,201
-189,417	-200,000	-0,016	0,138
-188,402	-109,155	0,023	-0,004
-187,387	136,375	-0,055	-0,052
-186,373	-193,162	-0,086	-0,001
-185,358	176,269	-0,053	-0,056
-184,344	-200,000	0,064	0,208
-183,329	-108,026	0,175	0,027
-182,315	2,347	-0,134	0,071
-181,300	-200,000	0,012	0,064
-180,285	55,652	-0,185	0,130
-179,271	-36,038	0,069	-0,027
-178,256	350,036	0,039	-0,056
-177,242	-11,119	0,144	0,069
-176,227	-200,000	0,050	-0,229
-175,212	-151,689	-0,086	-0,005
-174,198	159,818	-0,045	0,046
-173,183	800,000	-0,009	-0,026
-172,169	-85,760	-0,094	-0,021
-171,154	-200,000	0,012	-0,042
-170,139	-200,000	-0,001	0,057
-169,125	-200,000	-0,014	0,134
-168,110	800,000	0,067	0,144
-167,096	9,198	0,080	0,044
-166,081	-10,853	-0,108	0,052
-165,066	406,298	0,041	-0,064
-164,052	607,850	0,066	-0,121
-163,037	233,592	0,078	-0,094
-162,023	235,509	0,074	-0,089
-161,008	-134,799	0,142	-0,012
-159,993	33,708	-0,117	0,074
-158,979	260,499	0,091	-0,114
-157,964	-200,000	0,009	-0,163
-156,950	60,143	-0,051	-0,036
-155,935	765,104	0,046	0,092
-154,920	-102,988	0,108	0,018
-153,906	-200,000	0,013	0,096
-152,891	-8,973	-0,073	0,035
-151,877	-97,484	-0,158	-0,030
-150,862	78,822	-0,081	-0,063
-149,847	156,131	-0,055	-0,055
-148,833	312,694	-0,030	0,041
-147,818	-200,000	-0,024	0,137
-146,804	800,000	0,046	-0,102
-145,789	288,741	0,015	-0,020
-144,775	-200,000	-0,011	-0,063
-143,760	-28,047	-0,095	0,040
-142,745	-136,818	0,107	0,009
-141,731	-94,658	-0,053	-0,010
-140,716	53,595	0,027	0,019
-139,702	-40,876	0,113	0,042
-138,687	-154,414	0,049	0,002
-137,672	-88,424	-0,047	0,010
-136,658	209,885	0,051	0,059
-135,643	441,936	0,057	0,091
-134,629	-92,266	0,091	-0,019
-133,614	-127,730	0,044	0,005
-132,599	-37,013	0,027	-0,010
-131,585	0,477	-0,177	0,092
-130,570	-73,347	0,056	-0,015
-129,556	-13,265	-0,137	-0,065
-128,541	84,617	0,056	-0,045
-127,526	88,287	-0,148	-0,119
-126,512	269,477	0,095	0,121
-125,497	-7,591	-0,154	-0,076
-124,483	-45,893	-0,030	0,011
-123,468	-200,000	0,018	-0,065
-122,453	-40,011	-0,036	0,014
-121,439	-135,875	0,033	-0,003
-120,424	46,363	0,035	0,024
-119,410	-75,176	0,031	0,008
-118,395	-136,167	0,020	0,002
-117,380	36,458	0,118	0,076
-116,366	-13,205	-0,125	0,059
-115,351	675,986	-0,048	-0,092
-114,337	34,911	-0,086	-0,055
-113,322	89,461	0,129	-0,105
-112,307	800,000	0,017	0,042
-111,293	-129,680	0,038	0,004
-110,278	-200,000	0,002	0,122
-109,264	-114,881	0,233	0,032
-108,249	-200,000	0,031	0,103
-107,234	105,610	-0,026	0,022
-106,220	405,612	0,100	0,154
-105,205	800,000	0,041	0,101
-104,191	-69,194	0,061	-0,017
-103,176	-200,000	-0,033	0,216
-102,162	800,000	-0,041	0,097
-101,147	751,138	0,056	0,111
-100,132	-200,000	-0,046	-0,186
-99,118	-73,110	-0,122	-0,032
-98,103	749,669	0,066	0,131
-97,089	102,468	0,101	0,085
-96,074	800,000	0,006	-0,014
-95,059	753,344	-0,030	-0,060
-94,045	574,438	0,071	-0,126
-93,030	-137,938	-0,066	-0,005
-92,016	75,236	-0,099	0,076
-91,001	-196,627	0,114	-0,001
-89,986	488,465	0,032	-0,053
-88,972	-200,000	-0,014	0,080
-87,957	-142,475	0,089	-0,006
-86,943	7,499	-0,147	-0,080
-85,928	-55,958	-0,020	-0,006
-84,913	-12,138	-0,095	0,045
-83,899	169,728	-0,015	0,016
-82,884	-38,550	0,064	-0,024
-81,870	47,448	0,111	-0,075
-80,855	-200,000	-0,022	0,093
-79,840	-55,108	0,032	-0,010
-78,826	-84,237	-0,145	0,033
-77,811	-200,000	-0,028	0,134
-76,797	138,601	-0,130	0,124
-75,782	-200,000	0,008	-0,169
-74,767	309,915	0,109	0,148
-73,753	-200,000	0,000	0,023
-72,738	465,975	-0,014	0,024
-71,724	217,181	0,072	0,083
-70,709	346,577	-0,022	0,032
-69,694	800,000	0,035	0,087
-68,680	67,566	0,024	0,018
-67,665	41,786	-0,087	0,057
-66,651	-72,951	-0,037	-0,010
-65,636	-28,973	0,048	0,020
-64,622	109,034	0,030	-0,026
-63,607	-71,728	-0,134	0,036
-62,592	-98,544	-0,062	-0,011
-61,578	33,756	0,080	-0,050
-60,563	-63,616	0,102	0,030
-59,549	-39,597	0,100	-0,038
-58,534	-128,307	-1,310	-0,134
-57,519	557,971	-0,846	-1,487
-56,505	-200,000	-0,938	-4,382
-55,490	103,434	0,525	-0,447
-54,476	800,000	5,037	11,826
-53,461	-200,000	13,467	253,226
-52,446	-200,000	688,659	2267,358
-51,432	596,289	1622,293	2927,550
-50,417	120,536	1635,753	1474,839
-49,403	73,714	1289,682	979,843
-48,388	38,422	1024,727	661,408
-47,373	24,578	982,029	588,321
-46,359	23,761	971,974	579,594
-45,344	22,846	967,661	574,008
-44,330	22,720	966,215	572,716
-43,315	22,616	964,706	571,461
-42,300	22,577	963,868	570,814
-41,286	22,567	962,825	570,139
-40,271	22,548	962,000	569,567
-39,257	22,522	961,085	568,919
-38,242	22,541	960,206	568,436
-37,227	22,568	959,150	567,878
-36,213	22,536	958,319	567,258
-35,198	22,550	957,378	566,723
-34,184	22,577	956,848	566,474
-33,169	22,552	955,756	565,726
-32,154	22,595	955,129	565,470
-31,140	22,664	953,974	564,986
-30,125	22,621	953,336	564,447
-29,111	22,624	952,521	563,953
-28,096	22,583	951,879	563,418
-27,082	22,609	951,155	563,052
-26,067	22,589	950,521	562,588
-25,052	22,598	949,644	562,078
-24,038	22,649	948,940	561,800
-23,023	22,572	948,494	561,267
-22,009	22,705	947,793	561,256
-20,994	22,615	947,040	560,501
-19,979	22,650	946,313	560,159
-18,965	22,578	945,985	559,714
-17,950	22,600	945,175	559,282
-16,936	22,555	944,556	558,752
-15,921	22,587	943,796	558,382
-14,906	22,496	943,120	557,668
-13,892	22,499	942,469	557,271
-12,877	22,483	941,860	556,840
-11,863	22,453	941,223	556,344
-10,848	22,490	940,861	556,226
-9,833	22,603	940,080	556,102
-8,819	22,540	939,704	555,656
-7,804	22,504	938,879	555,031
-6,790	22,474	938,485	554,681
-5,775	22,500	937,816	554,347
-4,760	22,507	937,164	553,963
-3,746	22,471	936,459	553,409
-2,731	22,341	935,873	552,631
-1,717	22,276	935,298	552,065
-0,702	22,320	934,528	551,725
0,313	22,095	933,921	551,492
1,327	25,185	931,703	559,852
2,342	34,705	796,616	504,054
3,356	32,670	452,175	283,015
4,371	1,617	294,006	153,004
5,386	-2,895	274,931	138,790
6,400	-4,323	269,067	134,492
7,415	-4,913	266,733	132,770
8,429	-4,670	265,576	132,405
9,444	-4,552	264,617	132,023
10,459	-4,355	263,990	131,878
11,473	-4,613	263,527	131,400
12,488	-4,529	262,883	131,143
13,502	-4,989	262,486	130,517
14,517	-4,629	262,025	130,602
15,531	-4,514	261,697	130,531
16,546	-4,522	261,338	130,332
17,561	-4,468	260,784	130,093
18,575	-4,446	260,589	130,004
19,590	-4,779	260,284	129,542
20,604	-4,411	259,920	129,678
21,619	-4,581	259,630	129,370
22,634	-4,595	259,252	129,158
23,648	-4,609	258,875	128,946
24,663	-4,497	258,706	128,950
25,677	-4,543	258,475	128,783
26,692	-4,650	258,287	128,582
27,707	-4,564	258,055	128,532
28,721	-4,534	257,633	128,337
29,736	-4,548	257,433	128,213
30,750	-4,707	257,124	127,907
31,765	-4,684	257,041	127,875
32,780	-4,657	256,847	127,791
33,794	-4,590	256,494	127,663
34,809	-4,601	256,282	127,537
35,823	-4,696	256,030	127,316
36,838	-4,666	255,727	127,180
37,853	-4,739	255,617	127,050
38,867	-4,753	255,367	126,902
39,882	-4,811	255,138	126,726
40,896	-4,715	255,051	126,756
41,911	-4,839	254,692	126,457
42,926	-4,771	254,598	126,459
43,940	-4,773	254,210	126,253
44,955	-4,653	254,028	126,257
45,969	-4,901	253,755	125,893
46,984	-4,972	253,424	125,655
47,999	-5,352	253,270	125,237
49,013	-5,464	253,158	125,073
50,028	-5,420	252,820	124,933
51,042	-5,506	252,400	124,639
52,057	-5,431	252,190	124,590
53,071	-5,553	252,086	124,421
54,086	-5,382	251,890	124,462
55,101	-5,453	251,858	124,373
56,115	-4,948	251,620	124,682
57,130	-4,544	251,489	124,955
58,144	-4,480	251,319	124,915
59,159	-4,469	251,273	124,890
60,174	-4,663	251,088	124,620
61,188	-4,645	250,780	124,471
62,203	-4,461	250,562	124,511
63,217	-4,594	250,265	124,238
64,232	-4,479	250,092	124,240
65,247	-4,810	249,972	123,884
66,261	-4,526	249,649	123,957
67,276	-4,711	249,439	123,683
68,290	-4,918	249,157	123,355
69,305	-5,067	249,047	123,162
70,320	-5,075	248,859	123,051
71,334	-4,858	248,702	123,147
72,349	-4,378	248,481	123,437
73,363	-4,393	248,434	123,389
74,378	-4,351	248,042	123,220
75,393	-4,425	248,023	123,136
76,407	-4,588	247,811	122,881
77,422	-4,613	247,555	122,723
78,436	-4,476	247,256	122,680
79,451	-4,553	247,115	122,533
80,466	-4,700	247,004	122,343
81,480	-4,761	246,692	122,125
82,495	-4,790	246,376	121,934
83,509	-4,833	246,293	121,846
84,524	-4,851	246,005	121,677
85,539	-4,979	245,911	121,512
86,553	-4,825	245,652	121,502
87,568	-5,071	245,665	121,291
88,582	-4,748	245,417	121,429
89,597	-4,713	244,978	121,230
90,611	-4,788	245,027	121,181
91,626	-4,827	244,991	121,120
92,641	-4,840	244,798	121,003
93,655	-4,906	244,598	120,838
94,670	-4,805	244,218	120,724
95,684	-4,821	244,045	120,615
96,699	-4,725	243,885	120,605
97,714	-4,801	243,676	120,427
98,728	-4,752	243,447	120,344
99,743	-4,922	243,302	120,120
100,757	-5,086	243,001	119,824
101,772	-5,032	242,972	119,844
102,787	-5,131	242,783	119,658
103,801	-4,900	242,580	119,739
104,816	-4,868	242,531	119,731
105,830	-4,675	242,400	119,816
106,845	-4,721	242,244	119,689
107,860	-4,498	241,914	119,700
108,874	-4,706	241,780	119,451
109,889	-4,817	241,476	119,198
110,903	-4,802	241,328	119,128
111,918	-4,879	241,254	119,016
112,933	-4,834	241,037	118,936
113,947	-4,500	240,775	119,071
114,962	-4,666	240,747	118,911
115,976	-4,558	240,522	118,877
116,991	-4,704	240,513	118,742
118,006	-4,761	240,201	118,531
119,020	-4,766	240,019	118,427
120,035	-4,728	240,016	118,445
121,049	-4,518	239,748	118,475
122,064	-4,604	239,556	118,299
123,079	-4,741	239,432	118,115
124,093	-4,821	239,053	117,853
125,108	-4,899	238,917	117,711
126,122	-5,121	238,765	117,445
127,137	-5,218	238,585	117,266
128,151	-5,036	238,469	117,347
129,166	-5,073	238,263	117,205
130,181	-5,031	238,037	117,118
131,195	-5,231	237,844	116,849
132,210	-5,056	237,728	116,924
133,224	-4,847	237,546	116,994
134,239	-4,893	237,431	116,890
135,254	-4,871	237,328	116,846
136,268	-5,006	236,945	116,538
137,283	-5,165	236,775	116,316
138,297	-5,244	236,568	116,140
139,312	-5,304	236,464	116,030
140,327	-4,935	236,293	116,234
141,341	-4,217	236,352	116,831
142,356	-4,478	236,317	116,593
143,370	-4,427	236,061	116,497
144,385	-4,253	235,818	116,507
145,400	-4,290	235,699	116,408
146,414	-4,520	235,571	116,149
147,429	-4,319	235,268	116,151
148,443	-4,516	235,189	115,944
149,458	-4,505	234,983	115,841
150,473	-4,580	234,836	115,697
151,487	-4,331	234,634	115,787
152,502	-4,465	234,522	115,615
153,516	-4,370	234,308	115,574
154,531	-4,494	234,199	115,412
155,546	-4,473	233,963	115,301
156,560	-4,515	233,804	115,179
157,575	-4,804	233,655	114,866
158,589	-4,788	233,387	114,737
159,604	-4,328	233,256	115,028
160,619	-4,253	233,221	115,059
161,633	-4,302	232,974	114,888
162,648	-4,349	232,845	114,778
163,662	-4,493	232,765	114,614
164,677	-4,473	232,506	114,491
165,692	-4,416	232,495	114,521
166,706	-4,185	232,175	114,536
167,721	-4,163	232,086	114,499
168,735	-4,247	231,978	114,369
169,750	-4,254	231,776	114,253
170,764	-4,233	231,727	114,236
171,779	-4,511	231,598	113,943
172,794	-4,284	231,473	114,050
173,808	-4,627	231,155	113,614
174,823	-5,019	230,716	113,081
175,837	-5,156	230,617	112,914
176,852	-4,772	230,523	113,159
177,867	-4,419	230,625	113,476
178,881	-4,299	230,342	113,421
179,896	-4,421	230,330	113,309
180,910	-4,326	230,065	113,243
181,925	-3,915	229,765	113,406
182,940	-4,318	229,733	113,065
183,954	-4,388	229,696	112,983
184,969	-4,011	229,399	113,121
185,983	-4,214	229,344	112,925
186,998	-4,269	229,289	112,845
188,013	-4,288	229,146	112,749
189,027	-4,385	228,896	112,541
190,042	-4,158	228,613	112,569
191,056	-4,402	228,644	112,384
192,071	-4,123	228,387	112,464
193,086	-4,243	228,153	112,246
194,100	-4,364	228,033	112,083
195,115	-4,761	227,711	111,608
196,129	-5,402	227,412	110,957
197,144	-2,394	228,562	113,841
198,159	1,705	229,629	117,550
199,173	4,156	229,997	119,633
200,188	3,928	230,116	119,508
201,202	4,267	229,970	119,684
202,217	4,405	229,805	119,694
203,232	4,558	229,623	119,708
204,246	4,420	229,622	119,590
205,261	4,639	229,528	119,700
206,275	5,053	229,191	119,833
207,290	5,070	229,124	119,801
208,304	4,868	229,088	119,615
209,319	4,745	228,897	119,410
210,334	4,894	228,597	119,358
211,348	4,513	228,398	118,950
212,363	4,424	228,113	118,722
213,377	3,887	227,907	118,192
214,392	3,945	227,759	118,149
215,407	4,001	227,603	118,100
216,421	4,052	227,588	118,121
217,436	4,068	227,323	117,985
218,450	3,913	226,988	117,683
219,465	3,802	226,940	117,562
220,480	3,858	226,890	117,568
221,494	3,973	226,694	117,544
222,509	3,976	226,648	117,512
223,523	3,964	226,378	117,353
224,538	4,068	226,073	117,263
225,553	4,045	225,972	117,183
226,567	3,786	226,207	117,097
227,582	3,980	226,044	117,150
228,596	4,180	225,926	117,230
229,611	4,140	225,601	117,021
230,626	4,111	225,287	116,826
231,640	3,951	225,137	116,616
232,655	4,064	225,137	116,691
233,669	4,575	225,158	117,079
234,684	4,607	225,022	117,022
235,699	4,371	224,744	116,689
236,713	4,272	224,589	116,523
237,728	4,195	224,308	116,309
238,742	3,726	224,153	115,865
239,757	3,909	224,106	115,968
240,772	3,947	223,943	115,901
241,786	3,774	223,750	115,661
242,801	4,221	223,683	115,953
243,815	4,318	223,649	115,997
244,830	4,372	223,489	115,944
245,844	4,095	223,206	115,580
246,859	4,050	223,110	115,486
247,874	4,380	222,913	115,621
248,888	4,397	222,874	115,603
249,903	4,118	222,650	115,268
250,917	4,012	222,557	115,130
251,932	3,988	222,525	115,085
252,947	3,745	222,206	114,728
253,961	3,895	221,920	114,683
254,976	4,003	221,883	114,734
255,990	4,217	221,899	114,891
257,005	4,299	221,597	114,786
258,020	4,429	221,602	114,875
259,034	4,610	221,455	114,923
260,049	4,235	221,322	114,565
261,063	4,309	221,153	114,522
262,078	4,314	221,079	114,478
263,093	4,450	220,867	114,459
264,107	4,237	220,769	114,239
265,122	4,304	220,604	114,193
266,136	4,502	220,514	114,283
267,151	4,610	220,310	114,248
268,166	4,189	220,087	113,810
269,180	3,791	219,928	113,424
270,195	3,951	219,820	113,477
271,209	4,059	219,561	113,413
272,224	3,989	219,450	113,293
273,239	4,204	219,274	113,350
274,253	4,064	219,108	113,152
275,268	3,943	218,829	112,909
276,282	3,833	218,742	112,773
277,297	3,702	218,697	112,644
278,312	3,691	218,575	112,563
279,326	3,976	218,414	112,678
280,341	3,820	218,389	112,542
281,355	4,059	218,359	112,691
282,370	3,994	218,125	112,512
283,384	3,765	217,861	112,199
284,399	3,638	217,755	112,042
285,414	3,856	217,605	112,114
286,428	3,988	217,515	112,153
287,443	4,103	217,407	112,172
288,457	4,003	217,300	112,034
289,472	4,117	217,088	111,997
290,487	3,756	216,642	111,495
291,501	3,595	216,671	111,383
292,516	3,510	216,617	111,284
293,530	3,551	216,545	111,267
294,545	3,574	216,347	111,172
295,560	3,670	216,290	111,202
296,574	4,030	216,072	111,340
297,589	3,814	216,017	111,146
298,603	3,885	215,879	111,116
299,618	4,070	215,711	111,154
300,633	3,889	215,699	111,007
301,647	4,170	215,611	111,154
302,662	4,463	215,249	111,168
303,676	4,281	215,268	111,038
304,691	4,243	214,996	110,860
305,706	4,283	214,979	110,870
306,720	4,320	214,804	110,797
307,735	4,115	214,580	110,524
308,749	3,720	214,544	110,213
309,764	4,166	214,444	110,471
310,779	4,215	214,291	110,417
311,793	4,298	213,981	110,307
312,808	4,150	214,010	110,207
313,822	4,064	213,769	110,011
314,837	4,042	213,702	109,951
315,852	3,974	213,455	109,765
316,866	3,875	213,312	109,611
317,881	4,236	213,346	109,876
318,895	4,154	213,162	109,713
319,910	4,072	212,969	109,546
320,925	3,741	212,895	109,263
321,939	3,459	212,663	108,934
322,954	3,606	212,580	108,986
323,968	4,055	212,539	109,274
324,983	4,106	212,549	109,305
325,997	4,300	212,216	109,262
327,012	4,071	212,032	108,996
328,027	3,985	211,953	108,884
329,041	4,491	211,893	109,202
330,056	4,649	211,745	109,227
331,070	4,031	211,604	108,709
332,085	3,661	211,285	108,274
333,100	3,963	211,087	108,375
334,114	3,918	211,119	108,351
335,129	4,150	210,902	108,392
336,143	4,088	210,760	108,267
337,158	3,757	210,706	107,997
338,173	3,965	210,495	108,025
339,187	3,791	210,378	107,833
340,202	3,451	210,290	107,540
341,216	3,513	210,068	107,460
342,231	3,948	210,015	107,728
343,246	3,780	209,797	107,489
344,260	3,896	209,703	107,512
345,275	3,737	209,536	107,307
346,289	3,907	209,539	107,417
347,304	3,981	209,348	107,361
348,319	4,147	209,328	107,457
349,333	3,954	209,202	107,248
350,348	4,101	208,980	107,227
351,362	4,332	208,875	107,325
352,377	4,138	208,752	107,117
353,392	4,331	208,554	107,140
354,406	4,041	208,508	106,905
355,421	193,885	1345,244	1434,036
356,435	154,703	1483,847	1434,165
