DTS Sentinel unit serial number:	SN410029Multiplexer serial number:	ORYXHardware model number:	OX2-SRSoftware version number:	ORYX F/W v4,00 Oryx Data Collector v3.7.2.0data status	okinstallation	B6 Nyhavnadifferential loss correction	single-endedforward channel	channel 2reverse channel	N/Adate	2023/12/09time	00:55:08forward acquisition time	300,00reverse acquisition time	0,00gamma	499,1914k internal	0,3157k external	0,3157temperature offset calibration	1,0000default loss term (dB/km)	0,3820temperature slope calibration	1,0000multiplexer offset coefficient	1,0000multiplexer slope coefficient	1,0000fibre end	0,00T internal ref (°C)	15,67T ext. ref 1 (°C)	-0,70T ext. ref 2 (°C)	-0,69length (m)	temperature (°C)	Stokes	anti-Stokes-744,400	-112,828	0,059	0,008
-743,385	-132,172	-0,243	-0,023
-742,371	-115,923	0,132	0,018
-741,356	43,665	-0,161	0,108
-740,342	135,460	0,096	0,092
-739,327	-92,298	-0,221	0,046
-738,312	-116,908	0,046	-0,006
-737,298	-90,193	-0,378	-0,080
-736,283	800,000	0,038	0,106
-735,269	-40,440	-0,298	0,114
-734,254	-20,500	0,132	0,060
-733,239	-54,027	-0,467	-0,156
-732,225	37,304	0,152	0,099
-731,210	-68,141	0,077	0,022
-730,196	-39,863	-0,026	0,010
-729,181	449,299	-0,066	0,108
-728,167	466,862	-0,034	-0,057
-727,152	762,264	0,032	0,065
-726,137	185,877	-0,104	-0,114
-725,123	-200,000	0,013	-0,175
-724,108	160,711	-0,073	0,075
-723,094	111,629	-0,071	0,063
-722,079	-200,000	0,025	-0,082
-721,064	-15,791	-0,137	-0,064
-720,050	-200,000	-0,013	-0,094
-719,035	800,000	0,015	0,038
-718,021	470,435	-0,073	-0,121
-717,006	366,465	-0,093	-0,139
-715,991	54,811	-0,146	-0,104
-714,977	334,424	0,093	-0,134
-713,962	215,605	-0,068	-0,080
-712,948	-200,000	0,001	-0,086
-711,933	-200,000	-0,005	-0,088
-710,918	291,217	-0,076	-0,102
-709,904	800,000	-0,068	0,188
-708,889	744,594	-0,010	-0,020
-707,875	-16,523	-0,066	-0,031
-706,860	159,490	-0,086	-0,088
-705,845	5,931	-0,021	0,011
-704,831	-117,796	-0,056	-0,007
-703,816	-154,313	0,066	0,003
-702,802	23,483	-0,138	-0,084
-701,787	800,000	0,035	0,073
-700,772	-23,987	0,141	-0,062
-699,758	-43,318	-0,137	0,051
-698,743	800,000	-0,002	-0,005
-697,729	73,081	0,080	-0,062
-696,714	-200,000	0,012	0,048
-695,699	-165,661	-0,071	0,002
-694,685	-200,000	0,022	-0,145
-693,670	316,821	-0,045	0,062
-692,656	-165,730	0,080	0,003
-691,641	309,557	-0,046	-0,063
-690,627	206,151	0,023	-0,026
-689,612	-29,859	-0,102	0,043
-688,597	-200,000	0,019	-0,178
-687,583	43,565	0,049	-0,033
-686,568	-134,997	-0,106	-0,009
-685,554	16,027	0,015	0,009
-684,539	-200,000	0,001	-0,035
-683,524	657,399	-0,062	0,118
-682,510	44,594	-0,109	-0,074
-681,495	800,000	0,056	-0,135
-680,481	-11,226	-0,025	0,012
-679,466	221,938	-0,045	-0,054
-678,451	444,602	0,068	-0,109
-677,437	-40,811	-0,022	-0,008
-676,422	319,087	0,067	-0,094
-675,408	800,000	0,024	0,052
-674,393	-13,763	-0,024	-0,012
-673,378	-26,189	-0,009	0,004
-672,364	13,283	-0,075	0,043
-671,349	38,623	0,134	-0,088
-670,335	800,000	-0,050	-0,147
-669,320	94,777	0,103	-0,086
-668,305	-83,988	-0,013	0,003
-667,291	78,900	-0,096	-0,075
-666,276	-94,623	-0,122	0,024
-665,262	21,465	-0,086	0,051
-664,247	-57,800	-0,158	-0,050
-663,232	-200,000	0,007	-0,028
-662,218	-76,819	0,093	-0,024
-661,203	-179,939	-0,068	0,001
-660,189	-11,217	0,110	0,053
-659,174	-200,000	0,023	-0,199
-658,159	800,000	-0,021	0,047
-657,145	-176,710	-0,169	0,003
-656,130	-146,180	0,080	0,005
-655,116	37,404	-0,084	-0,054
-654,101	-200,000	-0,018	0,116
-653,086	-200,000	-0,003	0,070
-652,072	-200,000	-0,019	-0,180
-651,057	-200,000	-0,010	-0,111
-650,043	-200,000	-0,008	-0,159
-649,028	800,000	-0,022	-0,057
-648,014	-71,913	-0,030	0,008
-646,999	800,000	-0,043	0,110
-645,984	-200,000	0,002	0,022
-644,970	-113,859	-0,049	-0,007
-643,955	-11,241	0,067	-0,032
-642,941	-200,000	0,001	-0,048
-641,926	-200,000	0,004	-0,099
-640,911	-200,000	0,002	-0,073
-639,897	-200,000	-0,006	0,124
-638,882	728,981	0,024	-0,048
-637,868	365,154	-0,027	-0,041
-636,853	193,609	0,089	-0,099
-635,838	800,000	0,048	-0,101
-634,824	-79,846	-0,072	-0,018
-633,809	316,173	0,039	-0,054
-632,795	-200,000	0,003	-0,021
-631,780	422,936	0,037	0,058
-630,765	463,272	-0,093	-0,153
-629,751	-200,000	-0,031	-0,118
-628,736	-115,786	-0,181	0,025
-627,722	-65,455	0,036	-0,011
-626,707	-70,275	0,101	0,028
-625,692	-120,018	0,082	-0,010
-624,678	-200,000	-0,024	-0,084
-623,663	114,519	-0,065	0,059
-622,649	-6,096	-0,113	0,057
-621,634	-184,544	0,138	-0,002
-620,619	211,896	0,081	-0,094
-619,605	57,472	-0,045	-0,032
-618,590	-55,754	0,038	0,012
-617,576	-200,000	0,010	0,034
-616,561	312,967	-0,115	0,158
-615,546	311,371	0,037	0,052
-614,532	-131,297	0,119	-0,011
-613,517	-200,000	-0,004	-0,102
-612,503	800,000	-0,087	0,180
-611,488	-200,000	-0,011	0,052
-610,474	-200,000	-0,011	-0,061
-609,459	-1,064	0,052	0,027
-608,444	-200,000	-0,028	-0,235
-607,430	-200,000	-0,035	-0,124
-606,415	-142,389	0,046	0,003
-605,401	143,834	0,057	0,056
-604,386	91,097	0,088	-0,072
-603,371	-200,000	-0,024	0,226
-602,357	800,000	-0,034	0,070
-601,342	-200,000	-0,012	-0,058
-600,328	57,390	0,051	-0,037
-599,313	110,210	-0,047	0,041
-598,298	-200,000	0,002	-0,020
-597,284	-200,000	0,080	-0,000
-596,269	484,656	0,051	0,085
-595,255	800,000	0,014	0,044
-594,240	-200,000	0,015	0,060
-593,225	82,653	0,062	0,049
-592,211	70,154	0,039	0,030
-591,196	-63,454	0,114	0,034
-590,182	-200,000	-0,007	0,034
-589,167	711,166	0,028	0,055
-588,152	-200,000	-0,011	0,079
-587,138	-200,000	0,001	0,049
-586,123	8,115	0,041	0,022
-585,109	-200,000	-0,007	-0,044
-584,094	425,682	-0,037	-0,059
-583,079	-58,151	0,127	0,040
-582,065	65,347	0,039	0,029
-581,050	188,438	0,065	0,071
-580,036	177,034	-0,037	0,039
-579,021	-200,000	0,009	-0,045
-578,006	800,000	0,035	0,089
-576,992	280,140	-0,011	0,015
-575,977	74,255	-0,060	0,046
-574,963	-146,504	-0,094	-0,006
-573,948	-200,000	0,017	0,056
-572,934	-200,000	-0,003	-0,055
-571,919	-200,000	0,014	-0,202
-570,904	-96,352	-0,091	0,018
-569,890	-200,000	-0,007	0,219
-568,875	514,247	0,089	0,153
-567,861	109,956	-0,114	0,100
-566,846	-40,631	0,132	-0,050
-565,831	-200,000	0,005	0,041
-564,817	153,752	-0,137	-0,138
-563,802	-200,000	-0,004	-0,150
-562,788	43,363	-0,138	-0,092
-561,773	27,227	-0,126	-0,077
-560,758	193,504	0,101	0,112
-559,744	-66,005	0,162	-0,047
-558,729	551,424	-0,048	-0,084
-557,715	-126,149	-0,062	-0,007
-556,700	800,000	-0,018	-0,039
-555,685	-71,579	-0,061	-0,017
-554,671	-65,218	0,017	0,005
-553,656	-53,035	-0,094	0,031
-552,642	-89,930	-0,079	-0,017
-551,627	-200,000	0,027	-0,113
-550,612	371,617	-0,057	-0,084
-549,598	-123,263	-0,041	0,005
-548,583	-200,000	0,003	0,009
-547,569	72,610	0,103	-0,079
-546,554	-90,245	0,135	0,029
-545,539	-152,895	0,064	-0,003
-544,525	34,724	0,047	0,030
-543,510	-53,597	-0,022	-0,007
-542,496	-200,000	0,011	-0,100
-541,481	-118,441	0,091	0,012
-540,466	85,613	-0,097	0,078
-539,452	-20,473	0,101	0,045
-538,437	-200,000	0,017	-0,105
-537,423	-200,000	-0,011	0,170
-536,408	-191,043	-0,120	0,001
-535,393	800,000	-0,052	-0,123
-534,379	123,469	-0,130	-0,119
-533,364	501,914	0,030	-0,051
-532,350	432,124	-0,044	-0,069
-531,335	-200,000	0,013	0,137
-530,321	221,552	-0,019	0,022
-529,306	-23,836	0,083	-0,036
-528,291	45,115	-0,004	-0,003
-527,277	800,000	-0,064	-0,197
-526,262	171,982	0,096	-0,101
-525,248	317,232	-0,061	-0,084
-524,233	-107,105	0,149	0,024
-523,218	749,895	-0,044	0,087
-522,204	-150,396	0,075	0,004
-521,189	800,000	0,015	0,043
-520,175	-200,000	-0,009	-0,039
-519,160	-101,897	0,049	-0,009
-518,145	278,845	-0,044	0,057
-517,131	-200,000	-0,018	-0,078
-516,116	165,283	0,109	-0,113
-515,102	145,750	-0,055	-0,054
-514,087	382,377	-0,104	0,156
-513,072	31,019	-0,060	-0,038
-512,058	302,135	-0,091	-0,124
-511,043	254,068	-0,070	0,088
-510,029	-53,473	-0,032	0,011
-509,014	800,000	-0,078	0,172
-507,999	75,141	-0,068	-0,052
-506,985	-113,728	0,062	0,009
-505,970	-130,253	-0,130	0,013
-504,956	-200,000	-0,021	-0,073
-503,941	-48,396	-0,022	0,008
-502,926	800,000	-0,065	0,146
-501,912	110,213	-0,051	0,045
-500,897	100,566	-0,048	0,040
-499,883	800,000	-0,024	-0,071
-498,868	800,000	-0,025	0,060
-497,853	-71,044	-0,083	-0,023
-496,839	-43,231	0,038	0,014
-495,824	12,606	-0,028	0,016
-494,810	295,797	0,102	-0,137
-493,795	-9,929	0,048	-0,023
-492,781	470,148	0,053	-0,088
-491,766	-115,224	-0,087	-0,012
-490,751	308,688	0,029	-0,039
-489,737	78,629	-0,061	0,048
-488,722	202,835	0,010	-0,011
-487,708	-200,000	0,010	-0,049
-486,693	-200,000	0,003	-0,076
-485,678	-13,040	-0,057	-0,027
-484,664	-72,418	0,113	0,030
-483,649	-24,971	-0,038	-0,016
-482,635	485,580	0,071	0,119
-481,620	-104,182	0,070	-0,012
-480,605	-113,576	0,100	-0,014
-479,591	800,000	0,033	0,104
-478,576	-29,637	-0,086	0,036
-477,562	-200,000	0,000	0,085
-476,547	-63,181	-0,088	-0,026
-475,532	-77,794	0,139	-0,035
-474,518	-200,000	-0,005	0,055
-473,503	-6,924	0,177	0,087
-472,489	-59,691	-0,121	0,038
-471,474	-200,000	-0,035	0,179
-470,459	-200,000	-0,018	-0,096
-469,445	-200,000	-0,018	0,076
-468,430	-200,000	0,010	0,087
-467,416	-200,000	0,031	0,104
-466,401	-150,540	0,060	-0,003
-465,386	800,000	0,068	0,165
-464,372	151,291	-0,087	-0,087
-463,357	32,484	-0,048	0,030
-462,343	-200,000	-0,006	0,107
-461,328	213,961	-0,088	-0,102
-460,313	800,000	-0,021	-0,058
-459,299	312,153	-0,031	0,042
-458,284	-71,242	0,056	-0,015
-457,270	-7,807	0,012	-0,006
-456,255	662,480	-0,024	-0,045
-455,241	3,041	-0,076	0,040
-454,226	800,000	-0,030	0,086
-453,211	-165,492	-0,098	0,003
-452,197	46,609	0,131	-0,088
-451,182	-200,000	-0,016	-0,053
-450,168	1,574	0,105	0,055
-449,153	387,503	0,015	0,022
-448,138	-42,931	0,037	-0,014
-447,124	-200,000	0,007	-0,050
-446,109	2,960	-0,075	0,040
-445,095	293,683	-0,063	0,084
-444,080	-70,814	0,126	0,034
-443,065	112,591	-0,104	-0,092
-442,051	-126,312	-0,110	0,012
-441,036	-19,720	0,160	-0,072
-440,022	-25,035	-0,052	-0,022
-439,007	800,000	-0,008	-0,018
-437,992	-114,658	-0,094	-0,013
-436,978	161,954	0,086	-0,087
-435,963	14,730	0,100	-0,057
-434,949	-200,000	0,004	-0,151
-433,934	276,004	-0,061	0,079
-432,919	193,916	-0,125	0,138
-431,905	-17,230	-0,110	-0,050
-430,890	-111,177	0,124	-0,018
-429,876	305,484	0,034	-0,047
-428,861	-200,000	-0,017	0,125
-427,846	-121,561	-0,070	-0,008
-426,832	-109,037	0,085	0,013
-425,817	265,047	-0,083	-0,105
-424,803	12,526	-0,075	-0,042
-423,788	-92,625	0,142	-0,029
-422,773	430,471	0,066	-0,105
-421,759	88,317	0,083	0,067
-420,744	-79,308	0,083	0,020
-419,730	134,396	0,026	-0,024
-418,715	-9,435	-0,061	-0,030
-417,701	3,156	-0,076	-0,040
-416,686	529,517	-0,019	-0,033
-415,671	691,016	0,053	-0,102
-414,657	-200,000	0,029	-0,095
-413,642	-200,000	-0,015	0,074
-412,628	800,000	-0,027	0,075
-411,613	-200,000	0,001	0,120
-410,598	-119,074	-0,081	0,010
-409,584	800,000	-0,024	-0,059
-408,569	546,582	-0,029	-0,050
-407,555	-200,000	0,001	0,017
-406,540	800,000	-0,040	-0,116
-405,525	252,252	-0,029	0,037
-404,511	-81,457	-0,054	0,013
-403,496	2,940	-0,055	-0,029
-402,482	-127,350	-0,027	-0,003
-401,467	800,000	0,055	-0,167
-400,452	32,572	0,104	0,065
-399,438	-45,765	-0,069	0,025
-398,423	-30,415	-0,108	-0,044
-397,409	-67,378	-0,085	-0,024
-396,394	-125,742	-0,096	0,010
-395,379	-138,083	-0,100	0,008
-394,365	800,000	-0,039	-0,107
-393,350	-200,000	-0,050	0,164
-392,336	19,506	0,167	-0,097
-391,321	-88,310	0,063	0,014
-390,306	135,169	-0,070	0,066
-389,292	66,864	0,069	-0,051
-388,277	-200,000	0,001	-0,022
-387,263	-200,000	0,012	-0,044
-386,248	-200,000	-0,001	0,049
-385,233	-37,293	0,230	0,089
-384,219	162,410	-0,046	0,047
-383,204	-148,776	0,105	0,006
-382,190	10,453	-0,060	-0,033
-381,175	-20,504	-0,049	0,022
-380,160	-75,328	0,044	0,011
-379,146	-200,000	0,011	0,044
-378,131	524,689	-0,031	0,054
-377,117	92,834	0,015	0,012
-376,102	-38,741	-0,169	0,064
-375,088	-157,768	-0,059	-0,003
-374,073	800,000	0,017	-0,042
-373,058	-200,000	0,018	0,080
-372,044	-200,000	0,001	0,052
-371,029	-200,000	-0,001	0,078
-370,015	197,438	-0,015	0,017
-369,000	-51,403	0,052	0,017
-367,985	130,747	-0,024	0,022
-366,971	300,759	0,080	0,108
-365,956	89,450	0,035	0,029
-364,942	358,471	-0,077	0,112
-363,927	511,210	0,023	0,040
-362,912	-200,000	-0,016	-0,065
-361,898	-200,000	0,002	-0,059
-360,883	-35,381	0,036	0,014
-359,869	-200,000	-0,004	0,140
-358,854	152,319	0,016	-0,016
-357,839	-200,000	0,007	-0,063
-356,825	566,920	0,059	0,105
-355,810	-200,000	-0,006	-0,044
-354,796	-107,629	-0,056	0,009
-353,781	800,000	-0,034	-0,081
-352,766	-170,784	-0,140	0,003
-351,752	-200,000	-0,009	0,082
-350,737	-200,000	-0,003	0,082
-349,723	727,221	-0,048	0,093
-348,708	-141,688	-0,055	0,004
-347,693	800,000	0,044	0,134
-346,679	-67,040	-0,073	-0,021
-345,664	-152,838	-0,082	0,004
-344,650	144,927	0,110	-0,107
-343,635	800,000	-0,041	0,095
-342,620	-200,000	-0,006	0,118
-341,606	303,606	-0,095	0,128
-340,591	12,748	0,113	-0,063
-339,577	800,000	-0,014	0,041
-338,562	800,000	0,030	-0,095
-337,548	302,800	0,046	-0,062
-336,533	294,468	-0,034	0,046
-335,518	359,098	-0,055	0,080
-334,504	-44,892	0,046	-0,016
-333,489	394,140	0,095	0,144
-332,475	-200,000	-0,015	-0,157
-331,460	660,410	-0,060	-0,112
-330,445	-161,795	-0,106	0,004
-329,431	-200,000	-0,009	0,056
-328,416	-39,046	0,026	-0,010
-327,402	800,000	-0,038	0,110
-326,387	-18,360	0,042	-0,019
-325,372	470,620	-0,079	-0,129
-324,358	-200,000	0,007	-0,128
-323,343	-200,000	0,002	-0,020
-322,329	-79,722	-0,130	0,031
-321,314	-7,832	0,136	-0,066
-320,299	5,850	0,033	-0,017
-319,285	-107,050	0,079	0,013
-318,270	29,313	-0,051	-0,032
-317,256	25,428	-0,076	-0,045
-316,241	800,000	0,033	0,072
-315,226	-103,621	-0,063	-0,011
-314,212	-141,281	-0,182	0,013
-313,197	208,521	0,080	0,091
-312,183	-200,000	0,025	-0,104
-311,168	-95,249	-0,078	-0,015
-310,153	800,000	0,043	0,117
-309,139	-200,000	-0,001	-0,078
-308,124	-13,804	0,089	0,042
-307,110	800,000	0,015	0,035
-306,095	-122,452	0,090	0,011
-305,080	800,000	-0,030	-0,063
-304,066	302,526	-0,031	-0,042
-303,051	-200,000	-0,003	-0,063
-302,037	307,373	0,027	0,037
-301,022	800,000	0,039	0,099
-300,008	-88,530	-0,094	0,020
-298,993	72,704	0,032	0,024
-297,978	111,297	-0,104	-0,091
-296,964	-56,202	-0,053	-0,017
-295,949	-200,000	0,023	-0,072
-294,935	378,290	0,040	0,060
-293,920	400,820	0,064	-0,097
-292,905	-99,929	-0,162	-0,029
-291,891	-200,000	-0,001	-0,080
-290,876	800,000	0,017	0,035
-289,862	-4,077	-0,026	-0,013
-288,847	-200,000	-0,063	-0,205
-287,832	30,048	0,134	-0,082
-286,818	659,599	0,042	-0,079
-285,803	33,056	0,021	-0,013
-284,789	-73,351	0,096	0,025
-283,774	59,091	0,096	-0,068
-282,759	73,549	0,031	-0,024
-281,745	-146,181	-0,064	-0,004
-280,730	24,923	-0,127	0,076
-279,716	40,816	0,089	0,058
-278,701	-200,000	0,025	0,118
-277,686	128,159	-0,139	0,128
-276,672	-45,133	0,091	0,033
-275,657	-200,000	0,000	-0,070
-274,643	-200,000	0,003	-0,116
-273,628	-200,000	-0,017	-0,170
-272,613	-77,626	-0,129	0,032
-271,599	87,158	0,035	-0,028
-270,584	207,097	0,163	0,184
-269,570	-153,845	-0,085	-0,004
-268,555	-123,564	-0,022	0,003
-267,540	443,811	-0,084	-0,133
-266,526	-92,883	-0,133	0,027
-265,511	-200,000	-0,032	0,132
-264,497	-11,270	0,089	0,042
-263,482	800,000	-0,060	0,152
-262,467	-186,575	-0,095	-0,001
-261,453	45,529	0,135	0,090
-260,438	-200,000	-0,018	-0,067
-259,424	-117,998	-0,091	-0,012
-258,409	-14,295	-0,060	-0,028
-257,395	-200,000	-0,022	0,150
-256,380	-65,084	0,121	0,035
-255,365	52,818	-0,034	0,024
-254,351	592,790	0,031	0,056
-253,336	-200,000	-0,005	0,068
-252,322	-200,000	0,015	-0,079
-251,307	-200,000	0,002	-0,056
-250,292	800,000	0,063	-0,130
-249,278	-74,138	0,135	0,035
-248,263	56,515	0,138	-0,097
-247,249	64,380	-0,111	-0,081
-246,234	122,865	-0,086	-0,078
-245,219	350,038	-0,042	-0,060
-244,205	-200,000	-0,016	-0,088
-243,190	-43,284	0,141	0,051
-242,176	800,000	0,081	0,235
-241,161	800,000	-0,028	0,061
-240,146	-147,287	0,102	0,006
-239,132	-141,650	-0,040	-0,003
-238,117	327,491	0,041	-0,057
-237,103	420,167	0,035	-0,055
-236,088	-200,000	0,005	0,049
-235,073	-200,000	0,005	0,159
-234,059	74,257	0,108	0,082
-233,044	170,181	-0,089	0,092
-232,030	-200,000	0,016	-0,065
-231,015	79,881	0,045	-0,035
-230,000	56,286	-0,048	0,033
-228,986	-43,515	0,059	0,021
-227,971	127,546	0,017	-0,016
-226,957	-126,156	0,084	-0,009
-225,942	423,987	0,066	0,103
-224,927	75,152	-0,082	0,063
-223,913	201,305	-0,058	-0,065
-222,898	485,645	-0,086	-0,142
-221,884	615,072	0,027	-0,049
-220,869	800,000	0,021	0,059
-219,855	-71,004	0,046	0,012
-218,840	369,225	0,102	0,150
-217,825	-12,132	-0,020	-0,009
-216,811	-200,000	-0,031	-0,169
-215,796	163,453	0,023	0,023
-214,782	172,080	0,039	0,040
-213,767	-48,872	0,120	0,041
-212,752	800,000	0,025	-0,051
-211,738	178,590	0,053	0,056
-210,723	-117,099	0,057	0,007
-209,709	800,000	0,032	-0,090
-208,694	115,473	-0,048	-0,042
-207,679	-123,597	0,047	-0,005
-206,665	-134,710	0,027	-0,002
-205,650	-76,860	-0,060	0,015
-204,636	-200,000	0,023	-0,138
-203,621	29,894	0,122	-0,075
-202,606	800,000	0,032	-0,071
-201,592	-129,314	0,172	0,017
-200,577	-19,798	0,081	0,036
-199,563	-31,352	0,100	0,040
-198,548	-38,122	0,088	0,033
-197,533	800,000	0,059	0,182
-196,519	101,918	-0,025	-0,021
-195,504	-148,233	0,118	0,007
-194,490	-145,394	-0,043	0,003
-193,475	219,441	0,099	-0,115
-192,460	-19,873	-0,092	0,041
-191,446	111,298	-0,052	-0,045
-190,431	-200,000	0,012	-0,107
-189,417	-44,845	-0,132	-0,047
-188,402	-54,395	0,150	0,049
-187,387	437,779	0,043	-0,069
-186,373	-200,000	0,019	0,092
-185,358	537,147	-0,017	-0,028
-184,344	276,669	-0,050	0,064
-183,329	-13,308	0,039	0,018
-182,315	215,438	0,116	0,133
-181,300	-83,853	-0,144	0,033
-180,285	800,000	0,017	0,045
-179,271	248,334	-0,059	-0,073
-178,256	-20,071	0,061	-0,027
-177,242	-151,365	-0,127	0,007
-176,227	800,000	-0,020	-0,050
-175,212	125,550	-0,083	-0,075
-174,198	-200,000	-0,025	-0,141
-173,183	274,579	0,054	0,069
-172,169	-39,096	-0,087	-0,033
-171,154	-154,648	-0,110	0,005
-170,139	6,191	0,038	-0,020
-169,125	400,175	0,049	-0,074
-168,110	27,925	0,042	0,025
-167,096	-200,000	-0,005	-0,046
-166,081	-29,114	0,096	-0,039
-165,066	-71,234	-0,078	-0,021
-164,052	-84,757	-0,053	-0,012
-163,037	-128,808	-0,091	0,009
-162,023	277,178	0,066	0,084
-161,008	4,330	0,067	-0,035
-159,993	410,660	-0,078	-0,120
-158,979	-200,000	-0,010	-0,066
-157,964	120,291	-0,110	0,098
-156,950	-93,026	0,042	0,008
-155,935	-200,000	0,005	0,047
-154,920	-184,231	0,095	0,001
-153,906	-200,000	0,019	0,107
-152,891	-22,911	-0,074	0,032
-151,877	-68,449	-0,022	-0,006
-150,862	269,963	0,015	0,019
-149,847	120,468	0,068	-0,061
-148,833	-18,756	-0,061	0,027
-147,818	-200,000	0,003	0,162
-146,804	800,000	0,026	-0,080
-145,789	-34,191	0,034	0,013
-144,775	17,497	-0,026	-0,015
-143,760	707,309	-0,030	-0,058
-142,745	-200,000	-0,003	-0,024
-141,731	-200,000	0,000	0,171
-140,716	-21,823	-0,005	0,002
-139,702	-200,000	-0,011	-0,076
-138,687	85,408	-0,041	0,032
-137,672	34,337	0,042	0,026
-136,658	800,000	-0,018	-0,042
-135,643	-200,000	-0,022	-0,105
-134,629	-57,791	-0,128	0,040
-133,614	800,000	0,043	0,125
-132,599	-27,397	-0,094	-0,039
-131,585	-45,288	0,046	-0,016
-130,570	800,000	-0,031	-0,093
-129,556	-86,131	0,058	0,013
-128,541	-200,000	-0,005	0,113
-127,526	-5,099	-0,036	0,018
-126,512	-94,561	0,130	-0,025
-125,497	-56,039	0,151	0,048
-124,483	-200,000	0,002	0,014
-123,468	-200,000	0,032	0,137
-122,453	116,909	-0,046	-0,041
-121,439	76,039	0,022	-0,017
-120,424	800,000	0,022	-0,055
-119,410	-0,954	0,175	-0,089
-118,395	518,852	-0,067	0,114
-117,380	-175,426	0,240	0,005
-116,366	96,057	-0,046	-0,038
-115,351	181,938	-0,112	0,119
-114,337	-200,000	0,030	-0,177
-113,322	241,233	-0,069	0,083
-112,307	-200,000	0,003	-0,089
-111,293	175,334	0,072	0,075
-110,278	-200,000	0,021	0,152
-109,264	-164,124	-0,131	0,004
-108,249	-200,000	0,019	-0,153
-107,234	16,593	-0,114	-0,064
-106,220	800,000	-0,032	0,075
-105,205	-200,000	-0,016	0,094
-104,191	197,398	0,063	-0,069
-103,176	-149,000	0,012	-0,001
-102,162	800,000	0,054	-0,135
-101,147	-200,000	-0,023	0,076
-100,132	-200,000	-0,038	-0,141
-99,118	283,073	0,052	-0,068
-98,103	718,613	0,012	-0,022
-97,089	249,283	-0,074	-0,091
-96,074	-200,000	-0,002	0,050
-95,059	-87,458	0,104	-0,022
-94,045	336,655	-0,099	-0,138
-93,030	-200,000	0,006	-0,122
-92,016	-4,416	-0,032	-0,016
-91,001	-157,100	-0,084	-0,004
-89,986	-111,229	0,070	-0,010
-88,972	334,921	0,036	-0,051
-87,957	-73,168	-0,135	0,035
-86,943	-86,470	0,116	0,025
-85,928	-55,097	-0,116	-0,037
-84,913	349,963	-0,043	-0,061
-83,899	91,722	0,140	-0,113
-82,884	32,762	0,131	-0,081
-81,870	800,000	0,018	0,053
-80,855	666,946	-0,034	-0,063
-79,840	85,009	-0,075	-0,059
-78,826	-200,000	0,020	0,067
-77,811	-20,308	-0,043	-0,019
-76,797	42,929	-0,085	0,055
-75,782	346,352	0,011	-0,016
-74,767	-2,649	-0,039	0,020
-73,753	-5,488	0,132	-0,065
-72,738	-55,541	-0,066	0,021
-71,724	79,036	0,071	-0,055
-70,709	800,000	-0,010	0,030
-69,694	-82,941	-0,087	0,020
-68,680	-200,000	-0,011	-0,126
-67,665	800,000	0,083	-0,213
-66,651	800,000	0,077	0,171
-65,636	62,840	0,049	-0,035
-64,622	65,044	-0,053	0,039
-63,607	302,081	-0,089	-0,118
-62,592	381,848	-0,041	0,060
-61,578	675,663	0,055	-0,103
-60,563	3,224	-0,052	-0,027
-59,549	494,360	-0,023	0,038
-58,534	2,812	-1,936	-1,005
-57,519	-200,000	-0,045	-0,804
-56,505	-200,000	-1,296	-4,977
-55,490	30,135	0,825	0,505
-54,476	800,000	5,320	12,158
-53,461	-200,000	17,649	287,768
-52,446	800,000	723,337	2230,118
-51,432	540,330	1636,405	2807,778
-50,417	111,211	1627,894	1407,804
-49,403	74,486	1284,137	968,109
-48,388	32,336	1027,928	635,641
-47,373	20,094	989,938	571,757
-46,359	18,559	978,285	559,966
-45,344	15,977	974,265	549,185
-44,330	16,186	972,819	549,035
-43,315	15,736	971,077	546,557
-42,300	15,686	969,879	545,699
-41,286	15,657	968,971	545,073
-40,271	15,654	968,009	544,499
-39,257	15,720	966,957	544,100
-38,242	15,780	966,059	543,768
-37,227	15,734	965,376	543,215
-36,213	15,734	964,441	542,665
-35,198	15,697	963,636	542,071
-34,184	15,768	962,748	541,782
-33,169	15,688	961,838	540,987
-32,154	15,747	960,818	540,583
-31,140	15,757	959,968	540,117
-30,125	15,716	959,461	539,676
-29,111	15,732	958,422	539,122
-28,096	15,724	957,905	538,786
-27,082	15,745	957,330	538,509
-26,067	15,704	956,513	537,893
-25,052	15,688	955,616	537,319
-24,038	15,649	955,070	536,865
-23,023	15,660	954,296	536,442
-22,009	15,687	953,672	536,156
-20,994	15,723	953,001	535,876
-19,979	15,682	952,516	535,449
-18,965	15,636	952,026	535,004
-17,950	15,681	951,239	534,686
-16,936	15,643	950,687	534,233
-15,921	15,653	950,146	533,939
-14,906	15,566	949,312	533,172
-13,892	15,512	948,757	532,668
-12,877	15,593	947,744	532,334
-11,863	15,533	947,475	531,971
-10,848	15,615	946,881	531,878
-9,833	15,691	946,368	531,809
-8,819	15,658	945,656	531,285
-7,804	15,617	944,965	530,744
-6,790	15,562	944,580	530,333
-5,775	15,588	943,831	529,974
-4,760	15,640	943,102	529,709
-3,746	15,572	942,775	529,288
-2,731	15,444	941,882	528,362
-1,717	15,469	941,324	528,106
-0,702	15,419	940,642	527,542
0,313	15,241	940,067	527,455
1,327	18,505	937,983	536,531
2,342	27,572	792,149	477,068
3,356	24,387	445,573	263,594
4,371	-4,983	295,465	145,440
5,386	-8,908	277,137	132,686
6,400	-9,878	271,331	128,994
7,415	-10,333	269,187	127,543
8,429	-10,392	267,679	126,764
9,444	-10,340	266,797	126,383
10,459	-10,340	266,149	126,064
11,473	-10,429	265,495	125,662
12,488	-10,571	265,077	125,325
13,502	-10,806	264,474	124,816
14,517	-10,861	264,163	124,608
15,531	-10,782	263,618	124,410
16,546	-10,608	263,199	124,359
17,561	-10,690	262,953	124,158
18,575	-10,638	262,788	124,116
19,590	-10,469	262,265	124,009
20,604	-10,526	261,944	123,795
21,619	-10,657	261,690	123,547
22,634	-10,839	261,311	123,194
23,648	-10,889	260,905	122,947
24,663	-10,887	260,726	122,854
25,677	-10,805	260,527	122,822
26,692	-10,614	260,149	122,803
27,707	-10,896	260,030	122,484
28,721	-10,693	259,799	122,545
29,736	-10,808	259,424	122,256
30,750	-10,930	259,257	122,058
31,765	-10,820	258,853	121,954
32,780	-10,949	258,697	121,756
33,794	-10,976	258,296	121,533
34,809	-10,978	258,247	121,497
35,823	-10,843	257,919	121,451
36,838	-10,762	257,768	121,440
37,853	-11,049	257,525	121,062
38,867	-10,970	257,250	120,992
39,882	-10,972	257,002	120,863
40,896	-11,004	256,940	120,794
41,911	-10,835	256,426	120,690
42,926	-10,875	256,297	120,583
43,940	-11,118	255,945	120,195
44,955	-11,127	255,861	120,136
45,969	-11,086	255,578	120,029
46,984	-11,327	255,171	119,617
47,999	-11,729	255,123	119,234
49,013	-11,700	254,698	119,050
50,028	-11,742	254,573	118,945
51,042	-11,873	254,307	118,695
52,057	-11,673	253,919	118,677
53,071	-11,859	253,966	118,527
54,086	-11,697	253,643	118,507
55,101	-11,587	253,572	118,558
56,115	-11,351	253,329	118,638
57,130	-10,784	253,252	119,080
58,144	-10,585	253,156	119,197
59,159	-10,538	252,742	119,031
60,174	-10,514	252,627	118,987
61,188	-10,761	252,604	118,753
62,203	-10,644	252,250	118,676
63,217	-10,780	252,068	118,463
64,232	-10,946	251,861	118,213
65,247	-10,927	251,686	118,137
66,261	-10,862	251,477	118,084
67,276	-11,131	251,160	117,695
68,290	-11,318	250,811	117,361
69,305	-11,362	250,558	117,194
70,320	-11,300	250,322	117,127
71,334	-10,946	250,245	117,381
72,349	-10,688	250,200	117,570
73,363	-10,594	250,034	117,561
74,378	-10,500	249,675	117,462
75,393	-10,817	249,635	117,163
76,407	-10,865	249,477	117,038
77,422	-10,983	249,102	116,752
78,436	-10,673	248,909	116,914
79,451	-10,944	248,763	116,605
80,466	-10,798	248,491	116,590
81,480	-10,905	248,295	116,398
82,495	-11,341	248,056	115,907
83,509	-11,337	247,813	115,787
84,524	-11,332	247,617	115,689
85,539	-11,292	247,203	115,519
86,553	-11,274	247,090	115,471
87,568	-11,208	247,032	115,489
88,582	-11,185	246,748	115,366
89,597	-11,161	246,588	115,300
90,611	-10,996	246,549	115,411
91,626	-10,817	246,311	115,438
92,641	-10,885	246,178	115,309
93,655	-11,145	245,911	114,956
94,670	-11,153	245,756	114,867
95,684	-10,990	245,626	114,932
96,699	-11,163	245,408	114,675
97,714	-10,968	245,099	114,683
98,728	-11,298	245,081	114,390
99,743	-11,328	244,790	114,218
100,757	-11,420	244,567	114,028
101,772	-11,181	244,326	114,104
102,787	-11,214	244,065	113,945
103,801	-11,063	243,956	114,009
104,816	-11,061	243,838	113,945
105,830	-10,725	243,659	114,129
106,845	-10,712	243,521	114,065
107,860	-10,823	243,300	113,860
108,874	-10,988	243,116	113,627
109,889	-11,015	242,844	113,468
110,903	-11,150	242,712	113,284
111,918	-11,054	242,489	113,249
112,933	-11,130	242,360	113,117
113,947	-11,108	242,235	113,066
114,962	-10,878	242,190	113,225
115,976	-10,901	241,961	113,088
116,991	-10,986	241,693	112,883
118,006	-10,982	241,638	112,851
119,020	-10,887	241,337	112,777
120,035	-10,734	241,263	112,858
121,049	-10,778	241,086	112,729
122,064	-10,922	240,977	112,551
123,079	-11,039	240,730	112,330
124,093	-11,114	240,351	112,082
125,108	-11,178	240,360	112,024
126,122	-11,160	239,975	111,849
127,137	-11,558	239,958	111,508
128,151	-11,486	239,784	111,475
129,166	-11,368	239,431	111,397
130,181	-11,349	239,311	111,347
131,195	-11,255	239,094	111,312
132,210	-11,002	238,905	111,418
133,224	-11,177	238,854	111,243
134,239	-10,979	238,609	111,279
135,254	-10,832	238,465	111,321
136,268	-11,085	238,204	110,985
137,283	-11,146	237,977	110,820
138,297	-11,537	237,871	110,446
139,312	-11,349	237,535	110,432
140,327	-10,994	237,521	110,700
141,341	-10,717	237,567	110,935
142,356	-10,433	237,331	111,042
143,370	-10,568	237,233	110,879
144,385	-10,531	237,052	110,814
145,400	-10,462	236,992	110,831
146,414	-10,439	236,724	110,715
147,429	-10,503	236,433	110,517
148,443	-10,605	236,542	110,477
149,458	-10,693	236,118	110,198
150,473	-10,884	236,043	110,001
151,487	-10,741	235,937	110,057
152,502	-10,434	235,605	110,136
153,516	-10,365	235,342	110,058
154,531	-10,500	235,388	109,963
155,546	-10,517	235,086	109,799
156,560	-10,637	234,896	109,604
157,575	-10,757	234,675	109,396
158,589	-10,897	234,677	109,276
159,604	-10,500	234,599	109,545
160,619	-10,411	234,363	109,496
161,633	-10,456	234,189	109,369
162,648	-10,578	234,063	109,204
163,662	-10,458	233,740	109,138
164,677	-10,737	233,587	108,837
165,692	-10,632	233,644	108,937
166,706	-10,344	233,365	109,024
167,721	-10,334	233,217	108,952
168,735	-10,472	233,244	108,847
169,750	-10,499	233,013	108,708
170,764	-10,612	232,853	108,535
171,779	-10,504	232,666	108,523
172,794	-10,402	232,484	108,509
173,808	-10,850	232,210	108,020
174,823	-11,246	231,940	107,575
175,837	-11,469	231,796	107,324
176,852	-10,922	231,823	107,754
177,867	-10,630	231,649	107,893
178,881	-10,508	231,563	107,938
179,896	-10,370	231,464	107,990
180,910	-10,354	231,298	107,915
181,925	-10,475	231,018	107,681
182,940	-10,534	230,767	107,508
183,954	-10,476	230,824	107,570
184,969	-10,318	230,669	107,611
185,983	-10,228	230,461	107,574
186,998	-10,280	230,303	107,452
188,013	-10,030	230,158	107,568
189,027	-10,175	230,029	107,386
190,042	-10,249	229,862	107,241
191,056	-10,370	229,633	107,031
192,071	-10,192	229,517	107,105
193,086	-10,239	229,319	106,967
194,100	-10,407	229,359	106,845
195,115	-10,406	228,942	106,642
196,129	-10,305	229,128	106,798
197,144	-5,020	230,652	111,599
198,159	0,231	232,279	116,467
199,173	3,215	233,109	119,200
200,188	3,409	233,133	119,353
201,202	3,511	232,822	119,262
202,217	3,810	232,628	119,385
203,232	3,797	232,577	119,338
204,246	4,114	232,443	119,505
205,261	4,166	232,388	119,505
206,275	4,113	232,316	119,417
207,290	4,307	232,080	119,436
208,304	4,346	231,818	119,319
209,319	4,297	231,679	119,200
210,334	3,981	231,743	118,978
211,348	3,864	231,385	118,693
212,363	3,700	231,064	118,391
213,377	3,295	230,880	117,975
214,392	3,387	230,718	117,952
215,407	3,581	230,619	118,040
216,421	3,566	230,460	117,937
217,436	3,433	230,256	117,720
218,450	3,234	229,956	117,403
219,465	3,042	229,968	117,252
220,480	3,070	229,878	117,217
221,494	3,213	229,714	117,233
222,509	3,252	229,652	117,220
223,523	3,211	229,492	117,097
224,538	3,091	229,222	116,857
225,553	3,505	229,020	117,060
226,567	3,352	229,025	116,935
227,582	3,508	229,074	117,068
228,596	3,723	228,784	117,073
229,611	3,712	228,580	116,950
230,626	3,419	228,314	116,581
231,640	3,151	228,176	116,297
232,655	3,472	228,069	116,475
233,669	3,898	228,115	116,812
234,684	4,020	227,911	116,790
235,699	3,747	227,779	116,505
236,713	3,560	227,514	116,217
237,728	3,394	227,275	115,959
238,742	3,175	227,248	115,769
239,757	3,584	226,932	115,907
240,772	3,375	226,793	115,668
241,786	3,363	226,741	115,622
242,801	3,432	226,502	115,542
243,815	3,786	226,557	115,826
244,830	3,806	226,453	115,778
245,844	3,563	226,317	115,515
246,859	3,643	226,020	115,413
247,874	3,555	225,915	115,283
248,888	3,657	225,756	115,269
249,903	3,535	225,521	115,046
250,917	3,374	225,451	114,880
251,932	3,374	225,273	114,779
252,947	3,283	225,051	114,587
253,961	3,274	224,970	114,530
254,976	3,267	224,801	114,428
255,990	3,621	224,667	114,614
257,005	3,632	224,594	114,575
258,020	3,788	224,455	114,610
259,034	3,733	224,408	114,535
260,049	3,565	224,325	114,357
261,063	3,513	224,240	114,265
262,078	3,762	223,865	114,248
263,093	3,729	223,824	114,193
264,107	3,549	223,725	113,999
265,122	3,643	223,509	113,948
266,136	3,711	223,326	113,895
267,151	3,801	223,149	113,861
268,166	3,554	223,008	113,596
269,180	3,143	222,746	113,149
270,195	3,270	222,509	113,112
271,209	3,155	222,532	113,029
272,224	3,265	222,419	113,042
273,239	3,426	222,207	113,043
274,253	3,456	221,943	112,921
275,268	3,140	221,751	112,581
276,282	3,236	221,732	112,631
277,297	3,073	221,562	112,416
278,312	3,162	221,563	112,471
279,326	3,523	221,318	112,602
280,341	3,511	221,210	112,528
281,355	3,623	221,007	112,497
282,370	3,445	221,014	112,360
283,384	3,158	220,613	111,936
284,399	3,038	220,495	111,779
285,414	3,265	220,310	111,841
286,428	3,414	220,351	111,961
287,443	3,625	220,381	112,120
288,457	3,680	220,106	112,010
289,472	3,215	220,012	111,613
290,487	3,043	219,720	111,329
291,501	2,621	219,462	110,882
292,516	2,837	219,487	111,042
293,530	3,146	219,296	111,160
294,545	3,094	219,045	110,985
295,560	3,325	219,116	111,179
296,574	3,513	219,003	111,248
297,589	3,334	218,692	110,950
298,603	3,481	218,566	110,983
299,618	3,491	218,563	110,979
300,633	3,361	218,583	110,885
301,647	3,515	218,410	110,899
302,662	3,679	218,187	110,894
303,676	3,623	218,045	110,771
304,691	3,571	217,975	110,689
305,706	3,698	217,794	110,679
306,720	3,537	217,575	110,442
307,735	3,355	217,427	110,225
308,749	3,292	217,225	110,068
309,764	3,559	217,172	110,223
310,779	3,695	217,076	110,262
311,793	3,542	217,032	110,121
312,808	3,355	216,744	109,830
313,822	3,431	216,572	109,787
314,837	3,470	216,431	109,735
315,852	3,506	216,135	109,600
316,866	3,378	216,204	109,533
317,881	3,560	216,141	109,622
318,895	3,450	216,006	109,465
319,910	3,374	215,719	109,256
320,925	3,228	215,464	109,013
321,939	2,757	215,289	108,580
322,954	3,041	215,333	108,794
323,968	3,510	215,355	109,129
324,983	3,571	215,275	109,123
325,997	3,350	215,116	108,875
327,012	3,746	214,847	109,011
328,027	3,493	214,668	108,731
329,041	3,826	214,859	109,054
330,056	3,918	214,610	108,983
331,070	3,564	214,203	108,516
332,085	3,065	214,199	108,151
333,100	3,149	213,957	108,079
334,114	3,523	213,781	108,244
335,129	3,654	213,709	108,291
336,143	3,573	213,568	108,153
337,158	3,339	213,578	107,983
338,173	3,496	213,376	107,982
339,187	3,266	213,174	107,708
340,202	3,035	213,083	107,490
341,216	3,189	212,782	107,437
342,231	3,292	212,694	107,455
343,246	3,001	212,566	107,177
344,260	2,961	212,518	107,115
345,275	3,518	212,384	107,428
346,289	3,756	212,166	107,475
347,304	3,446	212,231	107,281
348,319	3,369	212,031	107,117
349,333	3,454	211,968	107,134
350,348	3,520	211,699	107,035
351,362	3,912	211,606	107,252
352,377	3,503	211,659	106,984
353,392	3,505	211,478	106,885
354,406	3,546	211,160	106,743
355,421	197,029	1340,457	1423,524
356,435	157,436	1478,021	1423,494
