DTS Sentinel unit serial number:	SN410029Multiplexer serial number:	ORYXHardware model number:	OX2-SRSoftware version number:	ORYX F/W v4,00 Oryx Data Collector v3.7.2.0data status	okinstallation	B6 Nyhavnadifferential loss correction	single-endedforward channel	channel 2reverse channel	N/Adate	2023/12/07time	21:40:08forward acquisition time	300,00reverse acquisition time	0,00gamma	499,1914k internal	0,3165k external	0,3165temperature offset calibration	1,0000default loss term (dB/km)	0,3820temperature slope calibration	1,0000multiplexer offset coefficient	1,0000multiplexer slope coefficient	1,0000fibre end	0,00T internal ref (°C)	13,68T ext. ref 1 (°C)	-3,23T ext. ref 2 (°C)	-3,23length (m)	temperature (°C)	Stokes	anti-Stokes-744,400	183,899	0,039	-0,042
-743,385	-194,251	-0,263	0,002
-742,371	-24,650	0,098	-0,043
-741,356	-20,441	-0,316	0,142
-740,342	165,842	0,132	0,137
-739,327	-51,391	-0,328	0,112
-738,312	90,580	0,027	0,022
-737,298	1,044	-0,305	0,161
-736,283	-148,642	0,078	-0,005
-735,269	-163,669	-0,267	0,009
-734,254	-20,965	0,118	0,053
-733,239	-122,720	-0,582	-0,068
-732,225	-200,000	0,352	0,001
-731,210	326,538	0,020	-0,029
-730,196	-89,692	-0,142	-0,030
-729,181	-51,025	-0,146	-0,050
-728,167	-200,000	-0,013	-0,120
-727,152	32,970	-0,160	-0,102
-726,137	7,996	-0,057	-0,031
-725,123	-200,000	-0,033	-0,107
-724,108	800,000	-0,029	-0,089
-723,094	775,292	0,017	-0,034
-722,079	422,185	-0,110	-0,173
-721,064	800,000	0,051	-0,146
-720,050	-200,000	-0,015	0,070
-719,035	-200,000	-0,035	0,147
-718,021	-46,014	0,073	0,026
-717,006	667,034	-0,052	-0,100
-715,991	800,000	-0,025	-0,059
-714,977	-200,000	-0,035	-0,161
-713,962	-200,000	-0,013	0,116
-712,948	-48,905	-0,050	-0,017
-711,933	272,739	-0,050	-0,065
-710,918	-114,935	0,037	0,005
-709,904	38,683	-0,101	-0,066
-708,889	-78,536	-0,090	-0,022
-707,875	53,430	-0,161	-0,114
-706,860	-200,000	0,027	-0,172
-705,845	173,854	-0,034	-0,036
-704,831	350,964	-0,028	-0,041
-703,816	174,820	-0,049	-0,053
-702,802	-98,185	0,092	-0,017
-701,787	-200,000	-0,035	-0,204
-700,772	381,453	-0,108	-0,163
-699,758	-94,424	-0,110	-0,022
-698,743	-200,000	-0,020	0,081
-697,729	-110,030	0,087	-0,013
-696,714	-62,123	-0,024	-0,007
-695,699	81,089	-0,098	0,078
-694,685	428,602	0,021	0,033
-693,670	740,747	-0,087	-0,173
-692,656	157,988	0,026	0,026
-691,641	311,843	-0,014	-0,019
-690,627	-200,000	0,020	0,069
-689,612	-85,906	-0,237	0,053
-688,597	52,144	-0,061	-0,043
-687,583	130,381	-0,119	-0,112
-686,568	174,693	-0,056	-0,059
-685,554	800,000	-0,018	-0,048
-684,539	800,000	-0,049	-0,112
-683,524	800,000	0,031	-0,084
-682,510	477,809	0,084	-0,140
-681,495	-13,923	-0,132	-0,062
-680,481	146,902	0,058	-0,057
-679,466	303,470	-0,102	-0,139
-678,451	800,000	-0,075	0,172
-677,437	800,000	-0,058	0,120
-676,422	800,000	-0,035	0,082
-675,408	159,332	-0,113	-0,116
-674,393	-177,668	-0,175	0,003
-673,378	800,000	-0,084	-0,188
-672,364	204,845	-0,082	-0,093
-671,349	-155,993	-0,097	0,004
-670,335	-137,363	0,041	-0,003
-669,320	21,811	-0,036	-0,021
-668,305	800,000	0,045	0,123
-667,291	43,996	-0,087	-0,058
-666,276	8,499	-0,107	-0,059
-665,262	-169,167	-0,064	-0,002
-664,247	725,481	0,065	-0,127
-663,232	-200,000	0,004	0,070
-662,218	219,189	0,034	0,040
-661,203	-200,000	0,032	-0,139
-660,189	754,592	0,020	-0,040
-659,174	32,512	-0,049	0,031
-658,159	9,867	-0,085	-0,047
-657,145	800,000	0,019	-0,058
-656,130	221,783	0,064	-0,076
-655,116	-115,840	0,130	-0,018
-654,101	464,931	-0,120	-0,197
-653,086	-200,000	0,005	0,044
-652,072	-200,000	-0,014	-0,090
-651,057	800,000	-0,045	-0,111
-650,043	-200,000	-0,009	-0,037
-649,028	175,723	-0,103	-0,110
-648,014	372,363	0,082	-0,123
-646,999	285,336	-0,105	0,139
-645,984	800,000	-0,092	0,193
-644,970	-177,193	-0,098	0,002
-643,955	623,273	-0,076	-0,141
-642,941	114,320	-0,036	-0,032
-641,926	800,000	0,024	0,070
-640,911	573,830	0,039	-0,071
-639,897	409,881	0,056	0,088
-638,882	4,592	0,119	0,064
-637,868	-200,000	-0,012	0,066
-636,853	90,923	0,062	-0,051
-635,838	-20,690	0,150	-0,067
-634,824	-200,000	-0,003	-0,042
-633,809	-200,000	-0,004	0,020
-632,795	460,300	0,033	0,054
-631,780	173,480	-0,026	-0,027
-630,765	-20,519	-0,023	-0,010
-629,751	38,742	-0,063	-0,041
-628,736	-15,758	-0,063	-0,029
-627,722	-129,739	-0,032	-0,003
-626,707	-21,850	0,049	-0,022
-625,692	-146,242	0,107	-0,007
-624,678	144,320	-0,013	-0,013
-623,663	-115,351	-0,106	0,014
-622,649	97,107	-0,177	-0,148
-621,634	173,354	0,017	-0,018
-620,619	-18,563	-0,138	-0,063
-619,605	114,593	-0,087	-0,078
-618,590	4,272	-0,087	0,047
-617,576	172,868	-0,062	0,066
-616,561	-152,350	0,089	-0,005
-615,546	453,345	-0,127	-0,206
-614,532	187,292	-0,065	-0,072
-613,517	800,000	-0,043	-0,118
-612,503	655,622	-0,118	-0,222
-611,488	-68,801	-0,074	-0,021
-610,474	-200,000	-0,005	0,091
-609,459	79,845	0,051	-0,040
-608,444	193,151	-0,111	-0,123
-607,430	197,528	-0,069	0,077
-606,415	800,000	-0,018	-0,056
-605,401	-200,000	0,006	0,098
-604,386	141,249	-0,061	-0,059
-603,371	217,841	0,060	-0,070
-602,357	250,947	-0,050	-0,062
-601,342	-200,000	-0,002	-0,062
-600,328	-200,000	0,011	0,040
-599,313	325,278	0,077	-0,108
-598,298	666,040	-0,040	0,076
-597,284	-200,000	0,023	0,113
-596,269	703,893	-0,046	0,089
-595,255	-200,000	-0,010	0,084
-594,240	800,000	-0,023	-0,047
-593,225	-116,672	-0,209	-0,028
-592,211	-29,568	-0,045	-0,019
-591,196	-200,000	-0,002	-0,127
-590,182	-191,112	0,071	-0,001
-589,167	659,469	-0,073	0,138
-588,152	738,602	0,036	0,072
-587,138	266,060	-0,040	-0,051
-586,123	-200,000	-0,026	-0,133
-585,109	-200,000	-0,042	-0,147
-584,094	145,276	0,053	0,052
-583,079	-108,508	0,126	-0,020
-582,065	197,852	0,117	-0,131
-581,050	98,810	-0,072	-0,061
-580,036	15,858	0,098	0,056
-579,021	105,940	0,090	0,078
-578,006	68,095	-0,081	-0,061
-576,992	-116,105	-0,116	-0,016
-575,977	355,566	0,036	-0,053
-574,963	-188,866	0,099	-0,001
-573,948	122,572	0,054	0,050
-572,934	800,000	-0,017	0,036
-571,919	800,000	0,090	-0,192
-570,904	134,440	-0,038	-0,036
-569,890	-96,284	-0,080	-0,015
-568,875	-113,458	0,182	0,026
-567,861	800,000	-0,049	0,109
-566,846	-67,478	0,092	0,026
-565,831	274,797	-0,005	0,007
-564,817	-200,000	0,015	0,106
-563,802	800,000	0,043	-0,127
-562,788	800,000	-0,024	-0,053
-561,773	-200,000	-0,004	-0,116
-560,758	75,323	-0,072	0,055
-559,744	-7,668	-0,052	-0,026
-558,729	386,062	0,039	-0,058
-557,715	800,000	-0,082	-0,220
-556,700	626,773	0,042	0,077
-555,685	45,066	0,063	0,042
-554,671	407,828	-0,024	0,037
-553,656	-200,000	-0,052	0,227
-552,642	510,823	0,052	-0,089
-551,627	242,394	-0,034	0,042
-550,612	-129,031	-0,091	0,009
-549,598	800,000	-0,027	-0,074
-548,583	537,071	-0,053	0,093
-547,569	-200,000	-0,004	0,066
-546,554	-97,213	0,066	0,012
-545,539	-23,262	-0,095	-0,042
-544,525	-73,768	0,081	0,021
-543,510	-148,619	-0,121	-0,007
-542,496	-2,547	0,119	0,060
-541,481	671,271	0,041	-0,078
-540,466	26,177	0,064	0,039
-539,452	164,731	-0,040	-0,041
-538,437	800,000	0,046	0,101
-537,423	89,423	0,048	-0,039
-536,408	44,705	-0,101	-0,068
-535,393	-200,000	0,001	0,050
-534,379	19,373	0,077	0,045
-533,364	24,750	-0,210	-0,127
-532,350	-75,034	-0,045	-0,012
-531,335	60,996	0,063	-0,046
-530,321	130,235	-0,118	-0,110
-529,306	68,108	-0,077	0,057
-528,291	229,827	0,026	0,032
-527,277	333,462	-0,104	-0,147
-526,262	-75,328	-0,073	0,019
-525,248	-86,418	-0,063	-0,014
-524,233	-102,691	0,152	-0,026
-523,218	-200,000	-0,038	-0,153
-522,204	106,067	-0,140	-0,121
-521,189	-19,509	-0,091	-0,041
-520,175	87,858	-0,093	0,075
-519,160	289,248	0,029	-0,039
-518,145	127,674	-0,059	0,055
-517,131	-200,000	0,014	0,094
-516,116	418,590	0,021	-0,032
-515,102	-20,880	-0,018	0,008
-514,087	-71,162	0,114	0,031
-513,072	-200,000	-0,012	-0,040
-512,058	14,569	0,038	0,021
-511,043	800,000	-0,062	-0,127
-510,029	-200,000	0,007	-0,045
-509,014	-200,000	0,014	0,083
-507,999	212,858	0,030	0,035
-506,985	-200,000	0,007	0,026
-505,970	198,815	-0,038	-0,043
-504,956	406,806	0,075	-0,115
-503,941	-21,943	-0,072	0,032
-502,926	-176,145	-0,122	0,002
-501,912	800,000	0,070	0,158
-500,897	421,005	-0,071	0,112
-499,883	-154,950	-0,144	-0,007
-498,868	-54,255	-0,152	0,050
-497,853	378,497	-0,053	0,080
-496,839	70,406	0,080	-0,061
-495,824	-65,766	-0,048	-0,014
-494,810	-51,816	-0,111	-0,038
-493,795	403,918	0,053	-0,081
-492,781	-67,095	-0,141	-0,040
-491,766	235,956	-0,114	-0,138
-490,751	-98,161	-0,087	-0,016
-489,737	-200,000	0,001	-0,035
-488,722	50,054	0,095	0,065
-487,708	136,003	-0,056	-0,053
-486,693	180,155	0,031	0,033
-485,678	117,402	0,108	0,097
-484,664	302,812	-0,049	-0,066
-483,649	48,776	0,040	0,027
-482,635	-200,000	0,013	-0,110
-481,620	294,333	0,036	0,048
-480,605	800,000	0,033	0,085
-479,591	-117,201	0,097	0,013
-478,576	-39,244	0,083	0,031
-477,562	800,000	0,013	-0,033
-476,547	-200,000	-0,008	-0,119
-475,532	-88,814	-0,153	-0,033
-474,518	-22,038	0,103	0,045
-473,503	-50,976	0,054	0,018
-472,489	800,000	-0,062	0,194
-471,474	-200,000	0,024	0,093
-470,459	-200,000	0,006	-0,048
-469,445	-37,527	0,155	-0,060
-468,430	131,180	-0,092	0,086
-467,416	775,244	-0,063	0,126
-466,401	452,593	0,097	-0,156
-465,386	32,300	-0,011	0,007
-464,372	130,408	0,034	0,032
-463,357	-128,736	-0,063	-0,006
-462,343	800,000	-0,015	-0,043
-461,328	98,300	-0,101	0,085
-460,313	800,000	-0,003	0,006
-459,299	264,885	0,105	0,133
-458,284	-200,000	-0,005	0,083
-457,270	333,117	0,044	0,061
-456,255	-85,885	-0,113	0,025
-455,241	800,000	0,036	0,075
-454,226	-39,167	-0,110	0,042
-453,211	595,993	0,030	-0,053
-452,197	-172,798	0,218	-0,005
-451,182	26,026	-0,035	0,021
-450,168	-69,234	-0,035	0,010
-449,153	31,052	0,112	-0,070
-448,138	-121,556	0,073	0,009
-447,124	-95,409	0,048	-0,009
-446,109	-72,283	0,110	0,029
-445,095	800,000	0,037	0,087
-444,080	669,709	0,013	-0,025
-443,065	-200,000	0,020	-0,092
-442,051	-147,784	0,121	0,007
-441,036	-200,000	-0,008	-0,102
-440,022	407,303	0,030	0,046
-439,007	355,585	0,022	-0,032
-437,992	800,000	0,033	-0,091
-436,978	259,261	0,070	0,087
-435,963	4,323	0,024	0,013
-434,949	800,000	0,013	-0,027
-433,934	-72,743	-0,049	-0,013
-432,919	449,638	-0,042	-0,067
-431,905	-103,750	0,067	0,011
-430,890	-34,558	0,106	-0,042
-429,876	18,175	0,037	0,022
-428,861	15,944	-0,081	0,046
-427,846	800,000	0,039	0,122
-426,832	-141,703	-0,048	-0,003
-425,817	-1,044	-0,053	-0,027
-424,803	-20,874	0,033	-0,015
-423,788	-200,000	-0,029	-0,174
-422,773	55,090	-0,061	0,043
-421,759	117,943	0,125	0,112
-420,744	270,332	-0,058	-0,074
-419,730	-200,000	-0,007	0,084
-418,715	-89,964	0,016	-0,003
-417,701	800,000	-0,051	-0,111
-416,686	192,064	0,123	0,135
-415,671	21,834	-0,050	0,030
-414,657	210,591	-0,058	0,067
-413,642	-12,954	-0,098	0,046
-412,628	-200,000	0,034	-0,131
-411,613	-200,000	0,005	0,088
-410,598	-1,006	-0,123	-0,063
-409,584	-200,000	-0,020	0,069
-408,569	800,000	0,029	-0,072
-407,555	250,403	0,071	0,088
-406,540	-200,000	0,030	0,147
-405,525	187,378	0,042	0,045
-404,511	-200,000	0,021	-0,134
-403,496	324,627	0,071	-0,099
-402,482	-145,429	0,052	0,003
-401,467	53,658	0,124	0,086
-400,452	-97,892	0,045	0,008
-399,438	-200,000	0,027	0,275
-398,423	129,194	-0,064	0,059
-397,409	-4,679	0,127	0,063
-396,394	-90,975	-0,079	-0,016
-395,379	-200,000	0,025	-0,086
-394,365	-113,390	0,045	0,006
-393,350	215,899	-0,100	0,115
-392,336	800,000	-0,075	0,159
-391,321	-200,000	0,002	0,115
-390,306	-200,000	0,022	-0,093
-389,292	-113,074	0,092	0,013
-388,277	-46,142	-0,086	-0,031
-387,263	-200,000	0,004	0,134
-386,248	332,778	0,035	-0,050
-385,233	-200,000	-0,023	-0,082
-384,219	234,000	-0,028	0,033
-383,204	800,000	-0,061	-0,127
-382,190	-200,000	-0,056	-0,192
-381,175	-52,764	0,125	-0,042
-380,160	-87,500	0,043	-0,009
-379,146	250,006	0,087	0,108
-378,131	-200,000	-0,000	0,001
-377,117	-200,000	0,041	-0,151
-376,102	800,000	0,060	-0,137
-375,088	800,000	-0,022	-0,064
-374,073	-18,401	0,130	0,059
-373,058	128,934	0,034	0,031
-372,044	-178,536	0,166	0,003
-371,029	630,721	0,054	-0,099
-370,015	-200,000	-0,014	0,052
-369,000	573,760	-0,013	-0,022
-367,985	800,000	-0,017	0,054
-366,971	800,000	0,012	0,031
-365,956	99,375	-0,095	0,079
-364,942	-200,000	-0,014	0,051
-363,927	-200,000	-0,005	-0,039
-362,912	-200,000	-0,002	-0,038
-361,898	-200,000	-0,002	0,038
-360,883	-22,861	-0,108	0,047
-359,869	-143,987	-0,042	0,003
-358,854	-200,000	0,002	0,116
-357,839	245,237	0,023	0,028
-356,825	-92,063	-0,120	-0,024
-355,810	-200,000	-0,022	-0,162
-354,796	-51,108	0,097	-0,033
-353,781	-200,000	-0,007	-0,195
-352,766	146,815	0,058	-0,056
-351,752	188,131	0,043	0,047
-350,737	33,510	0,085	-0,054
-349,723	-117,484	0,107	-0,014
-348,708	37,699	0,233	0,149
-347,693	142,906	-0,045	0,043
-346,679	-110,171	-0,146	0,022
-345,664	800,000	-0,015	-0,041
-344,650	800,000	0,054	0,134
-343,635	41,935	0,102	0,067
-342,620	800,000	-0,079	0,200
-341,606	-119,371	-0,106	0,013
-340,591	-200,000	-0,011	0,076
-339,577	156,819	-0,054	-0,054
-338,562	-200,000	0,000	-0,044
-337,548	-200,000	0,005	-0,046
-336,533	147,867	-0,036	-0,035
-335,518	-200,000	-0,011	-0,042
-334,504	358,794	-0,051	-0,074
-333,489	37,206	-0,116	0,074
-332,475	101,133	-0,124	-0,104
-331,460	337,842	0,007	0,009
-330,445	-200,000	-0,017	0,056
-329,431	164,591	0,071	-0,072
-328,416	307,296	-0,043	0,058
-327,402	-89,216	0,047	0,010
-326,387	95,508	-0,042	0,034
-325,372	641,305	0,030	-0,056
-324,358	-85,670	-0,076	-0,017
-323,343	9,386	-0,053	0,029
-322,329	167,939	0,024	0,025
-321,314	800,000	0,030	0,081
-320,299	-51,758	0,207	0,069
-319,285	204,247	-0,068	0,077
-318,270	-103,902	-0,050	0,008
-317,256	116,521	-0,085	-0,075
-316,241	800,000	0,062	-0,131
-315,226	800,000	0,020	0,043
-314,212	-200,000	0,002	-0,077
-313,197	-148,512	0,178	-0,010
-312,183	392,092	0,047	0,071
-311,168	279,293	-0,072	0,094
-310,153	-114,828	-0,067	0,009
-309,139	31,316	-0,107	-0,066
-308,124	-70,558	0,089	0,024
-307,110	-200,000	-0,015	0,087
-306,095	-48,849	0,103	-0,036
-305,080	527,737	0,047	0,080
-304,066	-200,000	0,006	-0,035
-303,051	-200,000	-0,019	-0,095
-302,037	-38,481	-0,018	0,007
-301,022	800,000	0,028	0,085
-300,008	123,472	-0,072	0,065
-298,993	608,674	0,029	0,052
-297,978	56,180	0,155	0,108
-296,964	-200,000	0,010	-0,057
-295,949	-200,000	0,016	-0,090
-294,935	-200,000	0,001	-0,073
-293,920	-200,000	-0,015	0,070
-292,905	800,000	0,034	-0,093
-291,891	103,169	0,080	-0,068
-290,876	10,934	0,027	0,015
-289,862	789,142	-0,042	-0,083
-288,847	-110,960	-0,011	-0,002
-287,832	-118,616	0,080	-0,010
-286,818	800,000	-0,022	-0,058
-285,803	800,000	-0,032	-0,065
-284,789	59,186	-0,076	0,054
-283,774	-112,841	0,096	0,014
-282,759	-128,863	0,055	0,006
-281,745	-200,000	0,006	0,072
-280,730	11,505	-0,052	-0,029
-279,716	-200,000	-0,023	-0,130
-278,701	-19,612	0,122	0,054
-277,686	-118,174	-0,141	-0,018
-276,672	-200,000	-0,003	0,019
-275,657	157,721	0,029	-0,029
-274,643	228,559	-0,033	0,039
-273,628	-200,000	0,003	0,049
-272,613	800,000	0,070	0,190
-271,599	-200,000	-0,003	0,077
-270,584	61,309	0,023	-0,017
-269,570	287,913	0,070	0,092
-268,555	800,000	0,044	-0,098
-267,540	335,995	-0,030	0,041
-266,526	201,607	0,034	-0,038
-265,511	-151,927	0,113	0,006
-264,497	800,000	-0,045	0,110
-263,482	800,000	0,026	0,082
-262,467	-200,000	-0,009	0,118
-261,453	-200,000	0,005	0,022
-260,438	116,300	-0,119	-0,105
-259,424	800,000	0,053	0,111
-258,409	517,552	-0,041	0,069
-257,395	424,605	-0,051	-0,080
-256,380	-68,836	0,175	0,048
-255,365	800,000	-0,035	0,088
-254,351	-200,000	0,002	-0,089
-253,336	-175,480	0,035	0,001
-252,322	215,664	0,089	-0,103
-251,307	-141,894	0,256	0,018
-250,292	148,594	0,046	0,045
-249,278	168,684	0,054	0,056
-248,263	228,719	0,045	0,053
-247,249	89,843	0,083	0,067
-246,234	-200,000	-0,105	0,000
-245,219	101,825	-0,084	-0,071
-244,205	800,000	-0,026	-0,062
-243,190	-75,262	-0,088	0,023
-242,176	499,673	-0,056	-0,094
-241,161	55,264	0,063	0,044
-240,146	-200,000	0,022	0,132
-239,132	-200,000	0,020	-0,099
-238,117	25,055	-0,054	-0,032
-237,103	-83,860	-0,148	0,034
-236,088	317,702	0,047	-0,064
-235,073	-200,000	-0,018	0,066
-234,059	800,000	0,041	0,122
-233,044	50,075	-0,071	-0,048
-232,030	-200,000	0,029	0,094
-231,015	238,191	-0,140	-0,168
-230,000	230,827	-0,049	-0,058
-228,986	90,126	0,086	-0,070
-227,971	6,723	-0,031	0,017
-226,957	66,937	0,048	0,035
-225,942	181,899	0,056	0,059
-224,927	800,000	0,022	-0,062
-223,913	-200,000	-0,014	-0,084
-222,898	270,083	0,043	0,055
-221,884	800,000	-0,050	-0,136
-220,869	-200,000	-0,004	-0,078
-219,855	-200,000	0,011	0,164
-218,840	-72,978	-0,028	0,007
-217,825	-13,461	0,106	-0,049
-216,811	-86,084	-0,151	-0,033
-215,796	203,281	-0,046	0,052
-214,782	307,772	-0,054	0,072
-213,767	800,000	0,001	-0,003
-212,752	597,008	0,027	0,048
-211,738	-184,541	-0,096	0,001
-210,723	800,000	0,008	0,023
-209,709	99,662	0,091	-0,076
-208,694	368,746	0,050	-0,073
-207,679	3,578	-0,133	-0,070
-206,665	-200,000	-0,005	0,092
-205,650	-200,000	-0,006	-0,069
-204,636	271,932	0,083	0,105
-203,621	302,286	0,154	0,206
-202,606	-18,925	-0,109	0,049
-201,592	149,145	-0,062	-0,061
-200,577	-200,000	-0,040	-0,174
-199,563	-200,000	-0,006	-0,076
-198,548	-123,584	0,035	0,004
-197,533	-200,000	0,016	0,053
-196,519	800,000	0,034	-0,096
-195,504	302,482	0,008	0,011
-194,490	-14,707	0,112	-0,052
-193,475	-43,638	-0,041	-0,015
-192,460	64,478	0,048	0,034
-191,446	-99,227	-0,074	0,013
-190,431	16,127	0,142	0,080
-189,417	132,815	-0,028	-0,026
-188,402	262,643	0,071	-0,089
-187,387	246,075	-0,014	-0,017
-186,373	-96,304	-0,052	0,010
-185,358	-200,000	0,045	-0,203
-184,344	-91,926	-0,074	-0,015
-183,329	-143,845	0,110	-0,007
-182,315	184,704	-0,079	0,084
-181,300	-73,735	-0,093	-0,024
-180,285	413,410	0,052	-0,080
-179,271	439,153	-0,047	-0,075
-178,256	220,642	-0,008	-0,009
-177,242	38,004	0,099	0,063
-176,227	-98,781	0,120	-0,022
-175,212	169,473	-0,072	0,074
-174,198	-200,000	-0,024	0,080
-173,183	-165,392	-0,133	0,004
-172,169	259,769	0,027	-0,034
-171,154	-69,886	-0,112	-0,031
-170,139	39,913	-0,065	0,042
-169,125	438,013	-0,035	0,054
-168,110	63,503	0,056	0,041
-167,096	-200,000	-0,009	0,084
-166,081	-200,000	-0,053	0,172
-165,066	257,336	0,049	0,061
-164,052	-200,000	-0,019	0,067
-163,037	800,000	0,022	-0,047
-162,023	70,775	0,117	0,087
-161,008	-200,000	-0,015	-0,119
-159,993	222,131	0,116	-0,134
-158,979	318,200	0,038	-0,051
-157,964	-123,976	-0,077	0,009
-156,950	-165,290	0,060	0,002
-155,935	-132,237	0,048	0,004
-154,920	271,003	-0,053	0,068
-153,906	-200,000	0,025	0,205
-152,891	159,284	0,090	0,090
-151,877	-200,000	0,033	0,109
-150,862	-200,000	-0,004	0,041
-149,847	800,000	-0,005	0,012
-148,833	-200,000	0,013	-0,072
-147,818	800,000	-0,022	0,065
-146,804	112,571	0,013	0,011
-145,789	-44,252	0,072	0,026
-144,775	-200,000	0,005	0,021
-143,760	596,670	-0,013	0,022
-142,745	-7,871	-0,021	-0,010
-141,731	103,855	0,030	0,025
-140,716	-66,801	0,096	-0,027
-139,702	800,000	0,030	-0,066
-138,687	800,000	-0,071	-0,177
-137,672	58,304	-0,068	-0,048
-136,658	152,228	-0,070	-0,069
-135,643	385,596	-0,083	-0,124
-134,629	800,000	-0,041	-0,091
-133,614	29,235	-0,090	-0,055
-132,599	-32,507	0,120	-0,048
-131,585	198,647	0,081	0,089
-130,570	-48,315	-0,109	0,037
-129,556	-200,000	0,033	0,171
-128,541	-200,000	-0,009	0,117
-127,526	-200,000	0,012	-0,068
-126,512	600,310	0,096	0,173
-125,497	-52,874	-0,079	-0,026
-124,483	800,000	-0,021	-0,045
-123,468	281,326	0,046	-0,059
-122,453	121,582	-0,092	-0,082
-121,439	800,000	0,042	-0,106
-120,424	129,061	-0,093	0,085
-119,410	425,213	0,093	0,145
-118,395	13,744	-0,107	0,060
-117,380	788,360	0,034	-0,067
-116,366	-200,000	-0,000	-0,073
-115,351	800,000	-0,013	-0,040
-114,337	170,548	-0,037	0,038
-113,322	-200,000	-0,011	0,086
-112,307	-108,913	0,030	0,005
-111,293	529,822	0,017	0,028
-110,278	-200,000	0,008	-0,045
-109,264	-55,424	0,097	0,031
-108,249	167,771	0,038	0,039
-107,234	-32,407	-0,077	-0,031
-106,220	595,188	-0,044	-0,079
-105,205	-200,000	-0,005	-0,094
-104,191	800,000	0,053	0,114
-103,176	-6,711	0,164	0,080
-102,162	203,653	-0,097	0,108
-101,147	141,780	-0,104	0,099
-100,132	-71,015	0,057	-0,015
-99,118	-131,057	0,132	0,012
-98,103	-53,990	0,021	-0,007
-97,089	-87,340	0,100	0,022
-96,074	-10,294	-0,104	0,049
-95,059	701,042	0,036	-0,068
-94,045	-200,000	-0,003	-0,067
-93,030	-136,646	-0,090	0,007
-92,016	-200,000	0,028	-0,112
-91,001	409,065	-0,054	0,082
-89,986	-43,367	0,103	-0,037
-88,972	-200,000	-0,011	0,102
-87,957	132,917	0,068	-0,063
-86,943	20,601	-0,113	-0,065
-85,928	-161,980	0,046	0,002
-84,913	-78,304	0,071	-0,017
-83,899	-200,000	-0,010	-0,086
-82,884	360,612	0,016	-0,023
-81,870	800,000	0,015	-0,041
-80,855	-62,064	-0,039	0,012
-79,840	214,196	-0,092	0,104
-78,826	-149,657	0,031	0,002
-77,811	-8,782	-0,095	0,045
-76,797	233,198	0,078	-0,092
-75,782	-200,000	-0,023	-0,074
-74,767	186,389	0,048	-0,052
-73,753	800,000	-0,020	0,043
-72,738	17,827	-0,182	-0,103
-71,724	-174,774	-0,010	-0,000
-70,709	-185,991	0,159	0,002
-69,694	-200,000	0,031	-0,161
-68,680	-200,000	0,039	-0,136
-67,665	28,177	-0,092	0,056
-66,651	95,587	-0,091	0,074
-65,636	-143,877	0,076	-0,005
-64,622	-43,009	-0,041	-0,015
-63,607	800,000	-0,034	-0,068
-62,592	800,000	0,059	0,147
-61,578	226,816	-0,063	0,074
-60,563	37,516	0,109	0,069
-59,549	800,000	-0,060	-0,131
-58,534	43,838	-2,126	-1,392
-57,519	-200,000	0,104	-0,540
-56,505	-200,000	-1,364	-5,163
-55,490	82,843	0,935	0,727
-54,476	800,000	5,394	12,072
-53,461	-200,000	18,628	307,268
-52,446	800,000	738,544	2281,375
-51,432	539,628	1651,367	2824,462
-50,417	108,643	1635,769	1398,605
-49,403	72,147	1286,603	958,036
-48,388	29,808	1027,848	625,325
-47,373	19,715	990,387	569,249
-46,359	17,367	977,992	554,412
-45,344	14,060	974,155	541,398
-44,330	14,330	972,789	541,501
-43,315	13,762	970,762	538,496
-42,300	13,680	969,738	537,638
-41,286	13,700	968,936	537,237
-40,271	13,670	967,924	536,559
-39,257	13,712	966,970	536,144
-38,242	13,665	966,319	535,612
-37,227	13,771	965,154	535,288
-36,213	13,751	964,344	534,754
-35,198	13,669	963,581	534,043
-34,184	13,771	962,972	534,013
-33,169	13,650	961,969	533,046
-32,154	13,659	961,097	532,568
-31,140	13,618	960,228	531,933
-30,125	13,738	959,401	531,843
-29,111	13,713	958,634	531,316
-28,096	13,702	957,960	530,885
-27,082	13,757	957,066	530,546
-26,067	13,742	956,464	530,143
-25,052	13,754	955,546	529,651
-24,038	13,717	955,023	529,223
-23,023	13,676	954,506	528,783
-22,009	13,747	953,615	528,497
-20,994	13,724	953,071	528,100
-19,979	13,696	952,514	527,680
-18,965	13,732	951,911	527,439
-17,950	13,715	951,197	526,970
-16,936	13,658	950,744	526,515
-15,921	13,636	949,975	526,000
-14,906	13,564	949,189	525,314
-13,892	13,617	948,581	525,124
-12,877	13,646	947,755	524,739
-11,863	13,556	947,403	524,237
-10,848	13,665	946,703	524,176
-9,833	13,684	946,400	524,048
-8,819	13,711	945,452	523,587
-7,804	13,644	944,916	523,058
-6,790	13,555	944,581	522,567
-5,775	13,584	943,949	522,288
-4,760	13,631	943,254	522,034
-3,746	13,691	942,569	521,823
-2,731	13,475	942,010	520,810
-1,717	13,418	941,273	520,201
-0,702	13,504	940,469	520,007
0,313	13,263	939,850	519,691
1,327	16,681	937,699	529,220
2,342	25,796	789,050	469,295
3,356	21,903	443,980	258,284
4,371	-7,553	296,666	143,046
5,386	-11,385	278,657	130,704
6,400	-12,680	272,837	126,755
7,415	-12,719	270,458	125,603
8,429	-12,835	269,046	124,829
9,444	-12,949	268,080	124,265
10,459	-12,833	267,603	124,139
11,473	-13,051	266,846	123,578
12,488	-13,018	266,264	123,328
13,502	-13,295	265,745	122,825
14,517	-13,096	265,318	122,797
15,531	-13,048	265,007	122,685
16,546	-12,937	264,563	122,570
17,561	-13,101	264,111	122,201
18,575	-13,120	264,045	122,142
19,590	-13,069	263,541	121,944
20,604	-13,056	263,394	121,877
21,619	-13,006	262,802	121,637
22,634	-13,182	262,558	121,356
23,648	-13,156	262,181	121,194
24,663	-12,944	261,949	121,265
25,677	-13,131	261,749	120,995
26,692	-12,937	261,380	120,986
27,707	-13,309	261,106	120,518
28,721	-13,147	260,807	120,513
29,736	-13,022	260,552	120,496
30,750	-13,183	260,392	120,268
31,765	-13,147	259,903	120,063
32,780	-13,070	259,843	120,093
33,794	-13,128	259,523	119,883
34,809	-13,445	259,493	119,577
35,823	-13,324	259,161	119,521
36,838	-13,221	258,736	119,405
37,853	-13,282	258,509	119,236
38,867	-13,140	258,216	119,215
39,882	-13,288	258,178	119,057
40,896	-13,277	257,948	118,950
41,911	-13,039	257,433	118,911
42,926	-13,197	257,492	118,788
43,940	-13,333	257,306	118,573
44,955	-13,316	256,970	118,422
45,969	-13,378	256,689	118,229
46,984	-13,604	256,329	117,854
47,999	-13,749	256,065	117,596
49,013	-13,730	255,961	117,554
50,028	-13,878	255,653	117,274
51,042	-13,980	255,434	117,074
52,057	-14,035	255,195	116,906
53,071	-13,610	254,928	117,142
54,086	-13,900	254,753	116,799
55,101	-13,843	254,660	116,796
56,115	-13,596	254,646	116,993
57,130	-12,855	254,346	117,487
58,144	-12,848	254,169	117,401
59,159	-13,035	254,050	117,174
60,174	-12,817	253,628	117,156
61,188	-13,096	253,574	116,880
62,203	-13,017	253,268	116,797
63,217	-12,858	253,058	116,826
64,232	-13,168	252,972	116,510
65,247	-13,063	252,731	116,479
66,261	-13,092	252,372	116,278
67,276	-13,037	252,022	116,153
68,290	-13,448	251,857	115,715
69,305	-13,601	251,733	115,517
70,320	-13,426	251,445	115,524
71,334	-13,079	251,294	115,741
72,349	-12,993	251,148	115,736
73,363	-12,803	251,013	115,826
74,378	-12,980	250,882	115,604
75,393	-13,039	250,554	115,393
76,407	-13,343	250,422	115,063
77,422	-13,026	250,068	115,159
78,436	-12,973	249,900	115,117
79,451	-13,060	249,783	114,979
80,466	-13,114	249,449	114,769
81,480	-13,161	249,249	114,627
82,495	-13,320	249,012	114,373
83,509	-13,471	248,989	114,225
84,524	-13,332	248,681	114,191
85,539	-13,346	248,421	114,049
86,553	-13,370	248,243	113,938
87,568	-13,453	248,132	113,806
88,582	-13,312	247,738	113,734
89,597	-13,190	247,545	113,738
90,611	-13,129	247,471	113,745
91,626	-13,111	247,425	113,729
92,641	-13,167	247,108	113,526
93,655	-13,065	246,904	113,507
94,670	-13,184	246,741	113,322
95,684	-13,348	246,716	113,164
96,699	-13,414	246,494	112,997
97,714	-13,251	246,202	112,989
98,728	-13,373	245,936	112,755
99,743	-13,545	245,798	112,538
100,757	-13,489	245,557	112,465
101,772	-13,578	245,440	112,327
102,787	-13,374	245,153	112,356
103,801	-13,378	245,111	112,322
104,816	-13,270	244,853	112,284
105,830	-13,213	244,687	112,245
106,845	-13,192	244,536	112,183
107,860	-13,013	244,236	112,184
108,874	-13,257	244,147	111,931
109,889	-13,234	243,911	111,832
110,903	-13,139	243,711	111,808
111,918	-13,155	243,549	111,711
112,933	-13,267	243,477	111,575
113,947	-13,136	243,253	111,571
114,962	-13,125	243,029	111,467
115,976	-13,298	242,829	111,224
116,991	-13,125	242,575	111,240
118,006	-13,262	242,506	111,085
119,020	-13,092	242,311	111,126
120,035	-13,066	242,178	111,076
121,049	-13,060	241,981	110,981
122,064	-12,930	241,790	110,989
123,079	-13,083	241,700	110,814
124,093	-13,363	241,526	110,495
125,108	-13,431	241,067	110,219
126,122	-13,604	240,994	110,035
127,137	-13,619	240,779	109,915
128,151	-13,462	240,663	109,980
129,166	-13,524	240,402	109,801
130,181	-13,492	240,201	109,725
131,195	-13,573	240,018	109,566
132,210	-13,270	239,946	109,769
133,224	-13,276	239,737	109,658
134,239	-13,233	239,598	109,620
135,254	-13,056	239,423	109,674
136,268	-13,182	239,193	109,457
137,283	-13,428	238,744	109,043
138,297	-13,626	238,669	108,839
139,312	-13,638	238,476	108,732
140,327	-13,552	238,454	108,782
141,341	-12,797	238,293	109,306
142,356	-12,849	238,301	109,258
143,370	-12,921	238,018	109,060
144,385	-12,768	237,904	109,122
145,400	-13,064	237,820	108,836
146,414	-12,682	237,378	108,930
147,429	-12,917	237,380	108,733
148,443	-12,792	237,169	108,726
149,458	-13,016	236,983	108,453
150,473	-13,108	236,752	108,263
151,487	-13,056	236,664	108,255
152,502	-13,050	236,584	108,213
153,516	-12,814	236,267	108,247
154,531	-12,787	236,199	108,227
155,546	-12,811	235,917	108,070
156,560	-12,969	235,759	107,863
157,575	-12,883	235,459	107,784
158,589	-12,936	235,366	107,690
159,604	-12,813	235,264	107,731
160,619	-12,732	235,190	107,752
161,633	-12,772	234,877	107,567
162,648	-12,808	234,998	107,583
163,662	-12,831	234,704	107,422
164,677	-13,081	234,367	107,060
165,692	-13,000	234,344	107,104
166,706	-12,869	234,177	107,122
167,721	-12,825	234,114	107,118
168,735	-12,642	234,053	107,225
169,750	-12,683	233,624	106,986
170,764	-12,731	233,496	106,880
171,779	-12,809	233,484	106,804
172,794	-12,624	233,251	106,833
173,808	-13,026	233,065	106,424
174,823	-13,404	232,708	105,954
175,837	-13,459	232,597	105,852
176,852	-13,044	232,578	106,159
177,867	-12,935	232,446	106,174
178,881	-12,905	232,265	106,105
179,896	-12,750	232,208	106,191
180,910	-12,814	231,883	105,983
181,925	-12,624	231,698	106,037
182,940	-12,769	231,637	105,886
183,954	-12,829	231,469	105,754
184,969	-12,570	231,325	105,880
185,983	-12,710	231,266	105,734
186,998	-12,615	231,090	105,719
188,013	-12,548	230,804	105,630
189,027	-12,704	230,746	105,473
190,042	-12,721	230,530	105,352
191,056	-12,742	230,312	105,227
192,071	-12,833	230,190	105,091
193,086	-12,685	230,079	105,146
194,100	-12,608	229,922	105,124
195,115	-13,436	229,616	104,336
196,129	-13,850	229,454	103,933
197,144	-8,017	231,357	109,319
198,159	-1,832	233,146	114,985
199,173	1,668	234,033	118,149
200,188	2,253	234,182	118,671
201,202	1,997	234,060	118,398
202,217	2,197	233,726	118,375
203,232	2,318	233,717	118,454
204,246	2,550	233,504	118,516
205,261	2,704	233,364	118,555
206,275	2,856	233,223	118,590
207,290	2,724	233,227	118,479
208,304	2,826	232,951	118,407
209,319	2,753	232,717	118,221
210,334	2,610	232,552	118,016
211,348	2,426	232,378	117,774
212,363	2,093	232,132	117,382
213,377	2,061	231,888	117,223
214,392	2,215	231,760	117,267
215,407	1,983	231,735	117,065
216,421	2,135	231,609	117,108
217,436	1,958	231,300	116,805
218,450	1,882	230,986	116,577
219,465	1,816	230,885	116,466
220,480	1,739	230,840	116,373
221,494	1,783	230,673	116,312
222,509	2,315	230,676	116,712
223,523	2,132	230,505	116,475
224,538	2,224	230,223	116,393
225,553	1,784	230,091	115,979
226,567	2,074	229,973	116,131
227,582	2,438	229,890	116,357
228,596	2,401	229,839	116,292
229,611	2,291	229,610	116,082
230,626	1,642	229,406	115,473
231,640	2,109	229,062	115,646
232,655	2,305	229,119	115,813
233,669	2,489	229,049	115,908
234,684	2,546	229,017	115,925
235,699	2,522	228,779	115,776
236,713	2,370	228,528	115,523
237,728	2,118	228,196	115,153
238,742	2,044	228,086	115,031
239,757	2,249	228,084	115,176
240,772	2,082	227,705	114,848
241,786	2,064	227,829	114,887
242,801	2,198	227,623	114,873
243,815	2,642	227,688	115,232
244,830	2,554	227,479	115,050
245,844	1,988	227,238	114,490
246,859	1,966	226,939	114,313
247,874	2,409	226,898	114,616
248,888	2,258	226,841	114,463
249,903	2,217	226,689	114,345
250,917	2,082	226,502	114,139
251,932	2,209	226,121	114,032
252,947	1,918	226,153	113,820
253,961	1,886	225,830	113,623
254,976	1,942	225,778	113,629
255,990	2,031	225,861	113,727
257,005	2,301	225,549	113,762
258,020	2,132	225,416	113,558
259,034	2,265	225,396	113,638
260,049	2,435	225,111	113,611
261,063	2,178	225,129	113,418
262,078	2,262	224,994	113,402
263,093	2,590	224,778	113,528
264,107	2,395	224,657	113,311
265,122	2,328	224,403	113,123
266,136	2,645	224,390	113,342
267,151	2,456	224,184	113,088
268,166	2,251	223,859	112,762
269,180	1,796	223,701	112,334
270,195	1,952	223,630	112,404
271,209	1,994	223,423	112,322
272,224	2,040	223,294	112,281
273,239	2,303	223,261	112,449
274,253	2,022	223,130	112,165
275,268	2,001	222,795	111,972
276,282	2,004	222,706	111,918
277,297	1,649	222,643	111,615
278,312	1,856	222,466	111,669
279,326	2,050	222,475	111,807
280,341	2,130	222,311	111,773
281,355	2,314	222,027	111,755
282,370	2,172	222,048	111,652
283,384	1,913	221,755	111,304
284,399	1,580	221,690	111,018
285,414	1,690	221,489	110,988
286,428	2,251	221,381	111,334
287,443	2,296	221,280	111,307
288,457	2,166	221,239	111,181
289,472	2,091	221,010	111,001
290,487	1,430	220,755	110,380
291,501	1,600	220,512	110,373
292,516	1,832	220,376	110,465
293,530	1,923	220,105	110,385
294,545	1,832	220,035	110,274
295,560	2,029	220,038	110,409
296,574	2,116	219,992	110,439
297,589	1,920	219,823	110,202
298,603	2,143	219,615	110,250
299,618	1,951	219,446	110,016
300,633	2,182	219,476	110,188
301,647	2,428	219,322	110,280
302,662	2,244	219,128	110,039
303,676	2,478	219,057	110,163
304,691	2,416	218,969	110,064
305,706	2,516	218,657	109,970
306,720	2,439	218,636	109,894
307,735	2,083	218,433	109,525
308,749	1,815	218,253	109,231
309,764	2,366	218,172	109,579
310,779	2,439	217,980	109,525
311,793	2,272	217,866	109,337
312,808	2,278	217,740	109,269
313,822	2,170	217,586	109,104
314,837	2,195	217,421	109,030
315,852	1,820	217,271	108,676
316,866	1,938	217,113	108,672
317,881	2,368	216,990	108,908
318,895	2,196	216,951	108,756
319,910	2,019	216,685	108,486
320,925	1,760	216,413	108,156
321,939	1,674	216,197	107,977
322,954	1,536	216,285	107,912
323,968	1,980	216,223	108,189
324,983	2,168	216,148	108,276
325,997	2,474	216,046	108,433
327,012	2,395	215,963	108,325
328,027	2,289	215,695	108,106
329,041	2,686	215,623	108,343
330,056	2,662	215,374	108,190
331,070	2,067	215,265	107,704
332,085	1,958	215,098	107,533
333,100	2,453	214,746	107,698
334,114	2,415	214,668	107,622
335,129	1,944	214,707	107,300
336,143	1,813	214,405	107,046
337,158	2,227	214,322	107,288
338,173	2,032	214,299	107,129
339,187	1,848	213,950	106,815
340,202	1,998	213,734	106,803
341,216	2,150	213,804	106,936
342,231	2,352	213,876	107,104
343,246	2,185	213,602	106,840
344,260	2,283	213,427	106,812
345,275	2,501	213,337	106,910
346,289	2,585	213,313	106,948
347,304	2,338	212,951	106,584
348,319	2,213	212,746	106,385
349,333	2,158	212,763	106,345
350,348	2,292	212,588	106,342
351,362	2,204	212,568	106,260
352,377	2,206	212,452	106,195
353,392	2,266	212,314	106,158
354,406	2,327	212,144	106,106
355,421	196,051	1316,615	1391,426
356,435	156,765	1451,127	1391,377
