DTS Sentinel unit serial number:	SN410029Multiplexer serial number:	ORYXHardware model number:	OX2-SRSoftware version number:	ORYX F/W v4,00 Oryx Data Collector v3.7.2.0data status	okinstallation	B6 Nyhavnadifferential loss correction	single-endedforward channel	channel 2reverse channel	N/Adate	2023/12/08time	11:45:08forward acquisition time	300,00reverse acquisition time	0,00gamma	499,1914k internal	0,3160k external	0,3160temperature offset calibration	1,0000default loss term (dB/km)	0,3820temperature slope calibration	1,0000multiplexer offset coefficient	1,0000multiplexer slope coefficient	1,0000fibre end	0,00T internal ref (°C)	14,99T ext. ref 1 (°C)	-1,47T ext. ref 2 (°C)	-1,47length (m)	temperature (°C)	Stokes	anti-Stokes-744,400	-28,711	0,205	-0,086
-743,385	-175,188	-0,275	-0,005
-742,371	316,935	0,148	0,207
-741,356	-143,914	-0,368	-0,025
-740,342	-21,084	0,229	0,103
-739,327	-197,011	-0,273	-0,001
-738,312	-200,000	0,007	-0,037
-737,298	-107,108	-0,277	0,045
-736,283	-82,701	0,100	-0,024
-735,269	-131,537	-0,326	0,031
-734,254	20,757	0,137	-0,082
-733,239	-106,071	-0,623	-0,102
-732,225	-145,049	0,142	-0,009
-731,210	-41,715	0,113	0,042
-730,196	-200,000	0,006	0,061
-729,181	-200,000	0,003	0,048
-728,167	134,124	0,097	0,093
-727,152	-200,000	-0,011	-0,060
-726,137	-94,090	-0,065	-0,013
-725,123	-200,000	0,028	0,149
-724,108	-200,000	0,001	-0,018
-723,094	512,415	-0,093	-0,160
-722,079	-9,333	-0,113	-0,055
-721,064	800,000	0,022	-0,049
-720,050	1,734	0,061	-0,032
-719,035	-200,000	-0,029	-0,132
-718,021	615,959	-0,040	0,074
-717,006	800,000	-0,060	-0,140
-715,991	211,938	-0,089	-0,104
-714,977	-22,273	0,095	0,042
-713,962	395,693	0,033	0,050
-712,948	379,863	-0,072	0,109
-711,933	-90,644	-0,095	-0,020
-710,918	-200,000	0,035	-0,171
-709,904	-0,206	-0,082	0,043
-708,889	352,164	-0,040	0,059
-707,875	-7,915	-0,191	-0,095
-706,860	-54,447	-0,145	-0,048
-705,845	-167,588	-0,054	0,002
-704,831	124,935	0,017	0,016
-703,816	220,712	0,042	0,050
-702,802	83,777	-0,031	0,025
-701,787	-200,000	-0,016	0,099
-700,772	91,057	-0,063	-0,052
-699,758	103,563	0,079	-0,068
-698,743	-48,663	-0,038	-0,013
-697,729	150,005	-0,076	0,076
-696,714	279,423	0,049	-0,065
-695,699	89,789	-0,103	-0,085
-694,685	11,184	-0,047	0,026
-693,670	127,739	0,046	0,043
-692,656	22,033	-0,042	0,025
-691,641	-74,336	0,045	0,012
-690,627	213,957	-0,042	-0,049
-689,612	800,000	0,045	-0,129
-688,597	-10,926	-0,064	0,031
-687,583	496,684	0,021	-0,035
-686,568	242,691	-0,083	-0,102
-685,554	-194,158	-0,181	-0,001
-684,539	43,551	0,031	0,021
-683,524	546,225	-0,105	0,185
-682,510	29,949	0,025	-0,016
-681,495	-200,000	-0,017	0,060
-680,481	800,000	0,013	-0,040
-679,466	98,587	-0,091	0,077
-678,451	114,991	0,034	0,031
-677,437	17,271	0,054	-0,032
-676,422	-200,000	-0,007	0,026
-675,408	13,234	-0,160	-0,091
-674,393	-112,085	-0,033	0,005
-673,378	-200,000	-0,025	-0,153
-672,364	204,544	0,028	-0,032
-671,349	-165,637	-0,131	-0,004
-670,335	-80,942	0,106	0,026
-669,320	-69,010	-0,095	-0,027
-668,305	6,365	0,055	-0,030
-667,291	-63,471	0,056	-0,017
-666,276	40,801	-0,193	-0,127
-665,262	-35,694	0,009	0,004
-664,247	-144,060	-0,206	0,014
-663,232	-18,630	0,096	-0,044
-662,218	-97,078	0,071	-0,013
-661,203	417,230	0,051	0,080
-660,189	-29,817	0,091	-0,038
-659,174	-143,724	-0,121	-0,008
-658,159	-21,470	-0,044	0,020
-657,145	-200,000	-0,005	-0,032
-656,130	800,000	-0,037	-0,105
-655,116	-63,501	-0,071	-0,021
-654,101	-36,792	0,032	0,013
-653,086	-200,000	-0,001	0,060
-652,072	4,244	-0,052	0,028
-651,057	650,885	-0,068	-0,129
-650,043	68,535	-0,099	-0,075
-649,028	7,319	0,079	0,043
-648,014	-200,000	-0,004	0,095
-646,999	345,151	-0,064	-0,092
-645,984	-200,000	0,002	-0,059
-644,970	800,000	0,036	0,080
-643,955	-70,879	-0,147	0,040
-642,941	-36,601	-0,012	0,005
-641,926	-200,000	0,015	0,066
-640,911	-49,829	0,107	0,037
-639,897	541,016	0,030	-0,052
-638,882	-200,000	0,005	-0,046
-637,868	-137,821	-0,263	0,021
-636,853	-51,207	-0,106	-0,036
-635,838	382,156	-0,083	-0,126
-634,824	-109,457	-0,093	0,014
-633,809	-200,000	0,008	-0,141
-632,795	800,000	0,022	-0,062
-631,780	-3,862	0,033	0,017
-630,765	-200,000	-0,003	0,033
-629,751	-200,000	0,000	-0,109
-628,736	800,000	-0,056	-0,128
-627,722	43,922	-0,074	-0,049
-626,707	445,071	0,095	0,154
-625,692	-200,000	0,004	-0,042
-624,678	-200,000	-0,006	-0,059
-623,663	800,000	-0,050	0,155
-622,649	182,682	-0,093	0,101
-621,634	125,613	-0,025	-0,023
-620,619	800,000	0,061	-0,173
-619,605	-103,519	0,075	0,013
-618,590	800,000	0,053	-0,116
-617,576	800,000	0,029	0,095
-616,561	-200,000	0,029	0,228
-615,546	800,000	0,034	-0,084
-614,532	224,682	-0,063	-0,075
-613,517	-29,164	0,011	-0,005
-612,503	-200,000	-0,039	0,159
-611,488	-177,630	0,076	0,001
-610,474	-4,689	-0,134	-0,067
-609,459	800,000	0,021	-0,048
-608,444	35,687	-0,145	-0,093
-607,430	171,939	0,055	-0,058
-606,415	-170,619	0,064	-0,002
-605,401	47,310	-0,047	0,032
-604,386	-200,000	0,040	0,223
-603,371	-61,698	-0,133	0,041
-602,357	-55,245	-0,115	-0,038
-601,342	463,574	-0,051	0,083
-600,328	291,025	-0,061	0,082
-599,313	-200,000	-0,007	-0,028
-598,298	-168,549	-0,084	0,002
-597,284	-200,000	0,004	-0,016
-596,269	-200,000	-0,006	0,113
-595,255	79,934	-0,100	-0,078
-594,240	-120,131	-0,158	-0,020
-593,225	321,899	-0,061	0,085
-592,211	-147,031	-0,046	0,003
-591,196	-57,147	0,034	-0,011
-590,182	-105,113	0,173	-0,029
-589,167	800,000	0,057	0,128
-588,152	-95,585	0,086	0,017
-587,138	-109,486	-0,140	-0,021
-586,123	-50,160	-0,032	0,011
-585,109	139,631	-0,083	-0,080
-584,094	-200,000	0,009	-0,100
-583,079	-200,000	-0,021	-0,098
-582,065	-200,000	-0,008	0,090
-581,050	18,502	0,084	0,049
-580,036	-200,000	-0,003	-0,107
-579,021	-200,000	-0,010	0,067
-578,006	-200,000	-0,020	-0,129
-576,992	2,580	-0,076	-0,040
-575,977	800,000	0,047	-0,127
-574,963	800,000	-0,045	-0,129
-573,948	-200,000	-0,003	-0,070
-572,934	-140,440	0,038	0,003
-571,919	179,479	0,056	-0,060
-570,904	-200,000	-0,025	-0,094
-569,890	-200,000	-0,018	0,100
-568,875	-11,608	0,012	0,006
-567,861	-200,000	-0,008	-0,150
-566,846	-200,000	-0,004	0,093
-565,831	800,000	0,031	0,070
-564,817	-55,011	0,057	-0,019
-563,802	-200,000	-0,006	-0,091
-562,788	-200,000	0,014	-0,141
-561,773	605,703	0,025	-0,047
-560,758	104,636	-0,082	0,071
-559,744	800,000	-0,037	-0,078
-558,729	-200,000	0,013	-0,064
-557,715	-72,051	-0,102	-0,027
-556,700	24,242	-0,167	-0,101
-555,685	-200,000	-0,023	0,091
-554,671	800,000	0,048	-0,122
-553,656	800,000	0,029	0,090
-552,642	800,000	-0,014	0,044
-551,627	-200,000	-0,032	-0,140
-550,612	-44,355	0,037	-0,014
-549,598	-10,735	0,035	0,017
-548,583	-66,033	-0,023	0,007
-547,569	353,975	0,008	0,012
-546,554	86,692	-0,020	0,016
-545,539	-200,000	0,003	0,149
-544,525	430,655	-0,036	0,056
-543,510	309,605	-0,005	-0,006
-542,496	31,590	0,060	0,038
-541,481	-200,000	0,002	0,009
-540,466	164,757	0,096	-0,099
-539,452	-200,000	-0,014	0,081
-538,437	58,926	0,017	0,012
-537,423	376,328	-0,060	0,090
-536,408	-200,000	0,003	0,051
-535,393	800,000	0,039	-0,094
-534,379	-86,018	-0,065	-0,015
-533,364	95,861	0,020	-0,017
-532,350	17,003	0,038	0,022
-531,335	-200,000	0,019	-0,104
-530,321	800,000	0,010	-0,028
-529,306	656,120	-0,113	-0,213
-528,291	800,000	-0,016	0,037
-527,277	672,491	0,048	0,092
-526,262	48,934	0,007	0,005
-525,248	97,453	-0,073	-0,062
-524,233	-39,376	0,033	0,013
-523,218	-167,044	0,118	-0,003
-522,204	-112,156	0,305	-0,044
-521,189	-200,000	-0,026	0,156
-520,175	800,000	0,045	-0,098
-519,160	800,000	-0,068	-0,208
-518,145	-189,516	0,101	-0,001
-517,131	-40,172	0,100	0,038
-516,116	-200,000	0,004	-0,094
-515,102	131,738	-0,024	0,022
-514,087	420,516	0,052	0,082
-513,072	73,691	0,062	-0,047
-512,058	800,000	-0,027	0,059
-511,043	-15,087	0,093	-0,043
-510,029	195,291	0,071	0,078
-509,014	-170,252	0,063	-0,002
-507,999	800,000	0,052	0,109
-506,985	-32,460	0,073	-0,030
-505,970	-111,483	0,109	0,016
-504,956	15,328	-0,127	-0,072
-503,941	62,742	-0,111	0,081
-502,926	-87,530	0,143	0,031
-501,912	205,989	0,052	0,059
-500,897	-200,000	0,001	0,087
-499,883	13,624	0,082	-0,046
-498,868	800,000	-0,039	0,080
-497,853	-178,773	-0,064	-0,001
-496,839	-34,541	-0,031	-0,012
-495,824	-159,384	0,193	-0,008
-494,810	-200,000	-0,011	0,038
-493,795	-200,000	-0,016	0,124
-492,781	278,832	-0,075	-0,097
-491,766	15,626	0,155	-0,089
-490,751	-200,000	0,029	-0,095
-489,737	-200,000	0,014	0,066
-488,722	-200,000	-0,015	0,092
-487,708	-61,129	0,048	-0,015
-486,693	102,390	0,028	-0,024
-485,678	-37,601	0,021	0,008
-484,664	800,000	-0,090	0,198
-483,649	-100,167	0,113	-0,020
-482,635	46,279	-0,054	-0,036
-481,620	119,816	-0,036	0,032
-480,605	800,000	-0,049	0,136
-479,591	-46,110	0,088	-0,031
-478,576	197,350	-0,049	-0,055
-477,562	690,529	0,043	0,083
-476,547	-122,109	-0,130	-0,015
-475,532	-151,036	0,105	-0,006
-474,518	15,516	0,079	-0,045
-473,503	338,067	0,065	0,092
-472,489	-25,830	-0,021	0,009
-471,474	-142,998	-0,170	0,012
-470,459	-54,944	0,058	0,019
-469,445	747,959	-0,050	-0,098
-468,430	-91,210	0,039	0,008
-467,416	800,000	0,048	0,123
-466,401	-200,000	0,021	0,131
-465,386	65,425	0,017	-0,012
-464,372	50,942	0,004	-0,003
-463,357	-125,248	0,132	0,015
-462,343	151,188	-0,080	-0,080
-461,328	16,204	-0,079	0,045
-460,313	-6,067	0,055	-0,028
-459,299	-200,000	0,010	-0,050
-458,284	-29,120	-0,112	0,047
-457,270	-200,000	-0,009	-0,042
-456,255	800,000	-0,020	-0,043
-455,241	50,497	-0,051	0,035
-454,226	60,309	0,063	-0,046
-453,211	-200,000	0,017	-0,080
-452,197	-65,209	0,002	-0,001
-451,182	-28,058	0,099	0,041
-450,168	-200,000	0,005	0,059
-449,153	39,730	0,022	-0,015
-448,138	-136,426	-0,103	-0,009
-447,124	256,499	0,070	-0,088
-446,109	800,000	-0,047	-0,112
-445,095	348,685	0,018	-0,026
-444,080	-129,969	0,160	-0,016
-443,065	706,738	0,075	0,146
-442,051	34,521	0,062	0,039
-441,036	403,527	-0,053	-0,082
-440,022	702,672	-0,078	-0,150
-439,007	-110,372	-0,230	-0,034
-437,992	290,753	0,055	0,072
-436,978	-200,000	0,003	0,111
-435,963	135,512	-0,091	0,086
-434,949	800,000	0,066	0,170
-433,934	281,780	0,122	-0,160
-432,919	-50,669	0,143	0,049
-431,905	-59,280	0,015	-0,005
-430,890	-200,000	0,011	0,114
-429,876	-200,000	0,015	0,095
-428,861	-200,000	-0,030	0,133
-427,846	65,589	-0,050	0,037
-426,832	-13,666	0,059	0,028
-425,817	-200,000	0,020	-0,100
-424,803	124,470	0,058	0,053
-423,788	457,079	-0,075	0,122
-422,773	-200,000	-0,003	-0,043
-421,759	27,429	0,122	0,074
-420,744	-33,548	-0,070	0,028
-419,730	-200,000	0,000	-0,018
-418,715	800,000	-0,044	-0,128
-417,701	591,444	0,065	0,118
-416,686	63,774	-0,074	-0,054
-415,671	800,000	0,044	0,132
-414,657	-200,000	0,000	0,089
-413,642	-53,607	0,110	0,036
-412,628	-77,522	-0,087	-0,022
-411,613	800,000	-0,016	-0,043
-410,598	45,588	0,055	-0,037
-409,584	316,797	0,049	-0,067
-408,569	-73,653	-0,031	-0,008
-407,555	32,308	0,030	0,018
-406,540	-200,000	0,201	-0,001
-405,525	-7,258	0,024	0,012
-404,511	-164,336	-0,075	-0,002
-403,496	62,279	-0,017	0,012
-402,482	146,887	0,119	-0,117
-401,467	-97,368	0,065	0,012
-400,452	-113,093	-0,219	0,031
-399,438	-140,068	0,128	0,010
-398,423	-105,776	-0,085	0,014
-397,409	-43,192	-0,052	0,019
-396,394	166,647	-0,078	-0,081
-395,379	-200,000	-0,037	0,166
-394,365	275,986	0,108	0,139
-393,350	173,674	0,121	0,127
-392,336	99,161	-0,089	0,075
-391,321	444,472	0,012	0,019
-390,306	69,621	-0,048	-0,036
-389,292	-200,000	0,004	-0,116
-388,277	783,241	-0,075	-0,150
-387,263	153,156	0,043	0,043
-386,248	-88,278	0,159	-0,034
-385,233	-93,294	0,093	-0,019
-384,219	437,022	-0,025	0,040
-383,204	800,000	-0,041	-0,127
-382,190	-200,000	0,010	-0,078
-381,175	44,157	-0,057	0,038
-380,160	-200,000	0,005	0,098
-379,146	-200,000	0,018	0,068
-378,131	-90,915	-0,158	-0,033
-377,117	49,728	-0,099	0,067
-376,102	474,492	-0,034	0,055
-375,088	-200,000	-0,007	-0,036
-374,073	-33,783	-0,162	0,064
-373,058	330,849	-0,066	0,092
-372,044	-200,000	0,006	0,029
-371,029	37,230	0,155	0,100
-370,015	-200,000	0,004	-0,132
-369,000	49,005	-0,077	-0,053
-367,985	200,840	0,089	0,099
-366,971	-200,000	-0,009	0,055
-365,956	13,556	0,197	0,110
-364,942	402,182	-0,014	-0,021
-363,927	-10,304	-0,023	-0,011
-362,912	232,888	-0,123	0,147
-361,898	800,000	0,012	0,030
-360,883	800,000	-0,054	-0,119
-359,869	-200,000	0,018	-0,105
-358,854	555,152	-0,069	-0,122
-357,839	-95,612	0,103	0,020
-356,825	11,778	0,147	0,081
-355,810	-83,959	-0,131	-0,030
-354,796	-1,911	-0,119	-0,061
-353,781	670,941	-0,042	-0,078
-352,766	347,911	-0,021	-0,030
-351,752	-200,000	-0,026	0,100
-350,737	348,868	0,030	-0,043
-349,723	562,052	0,044	0,078
-348,708	183,238	0,059	0,063
-347,693	167,815	-0,061	0,063
-346,679	18,043	-0,107	-0,062
-345,664	784,054	0,096	-0,191
-344,650	-129,561	0,050	-0,005
-343,635	-194,337	0,082	0,000
-342,620	-95,721	0,103	-0,020
-341,606	800,000	-0,084	0,198
-340,591	-200,000	0,036	-0,129
-339,577	-200,000	-0,005	-0,110
-338,562	-200,000	0,049	-0,159
-337,548	-200,000	0,014	-0,063
-336,533	-190,517	0,046	0,000
-335,518	89,583	-0,051	-0,041
-334,504	559,881	0,074	0,130
-333,489	-25,587	-0,081	0,034
-332,475	-200,000	0,028	-0,090
-331,460	563,338	-0,082	-0,145
-330,445	147,584	0,069	-0,067
-329,431	800,000	-0,022	0,066
-328,416	441,562	0,010	0,016
-327,402	800,000	-0,055	0,142
-326,387	202,314	0,017	-0,019
-325,372	800,000	0,038	-0,094
-324,358	-52,481	0,164	0,055
-323,343	-27,919	0,029	-0,012
-322,329	101,406	-0,011	0,009
-321,314	-95,889	0,039	-0,008
-320,299	-200,000	0,027	0,189
-319,285	-44,579	0,055	0,020
-318,270	-139,572	0,062	-0,005
-317,256	-200,000	0,043	-0,177
-316,241	158,543	0,074	-0,074
-315,226	273,226	0,150	0,193
-314,212	19,946	-0,112	0,065
-313,197	490,563	0,052	-0,086
-312,183	110,818	-0,107	-0,093
-311,168	64,830	0,033	-0,024
-310,153	35,865	-0,014	-0,009
-309,139	-200,000	0,005	-0,062
-308,124	-200,000	0,012	0,101
-307,110	-3,203	-0,025	-0,013
-306,095	132,003	0,063	0,059
-305,080	219,421	0,061	0,071
-304,066	65,131	-0,118	0,086
-303,051	-200,000	-0,037	-0,147
-302,037	-200,000	-0,029	-0,146
-301,022	-15,428	0,051	-0,023
-300,008	800,000	-0,032	0,093
-298,993	-200,000	-0,014	-0,055
-297,978	275,484	-0,069	0,088
-296,964	45,229	-0,119	0,080
-295,949	-200,000	0,001	-0,214
-294,935	40,538	0,066	-0,043
-293,920	-200,000	0,032	-0,177
-292,905	44,545	-0,024	-0,016
-291,891	-148,913	-0,035	-0,002
-290,876	-79,311	0,074	-0,018
-289,862	-200,000	0,001	0,056
-288,847	-27,838	-0,056	-0,023
-287,832	398,259	0,105	-0,160
-286,818	800,000	-0,063	-0,128
-285,803	-108,207	-0,107	-0,017
-284,789	150,855	0,081	0,080
-283,774	-200,000	0,013	0,048
-282,759	67,448	-0,130	-0,096
-281,745	-4,701	0,149	-0,074
-280,730	475,976	0,040	-0,066
-279,716	-200,000	-0,008	-0,127
-278,701	-49,129	0,114	0,039
-277,686	-6,639	0,104	-0,051
-276,672	-200,000	0,019	-0,085
-275,657	22,198	0,066	0,039
-274,643	800,000	0,017	0,050
-273,628	189,097	-0,048	0,052
-272,613	-111,205	0,030	0,004
-271,599	-200,000	0,018	-0,080
-270,584	-119,528	-0,054	0,007
-269,570	-124,270	-0,091	0,010
-268,555	-81,434	-0,069	-0,016
-267,540	64,573	0,094	-0,068
-266,526	-200,000	-0,034	0,147
-265,511	-91,676	-0,018	-0,004
-264,497	-200,000	-0,016	-0,060
-263,482	86,486	0,054	0,043
-262,467	-195,822	-0,015	0,000
-261,453	-176,896	-0,026	0,000
-260,438	153,835	-0,092	-0,091
-259,424	156,116	0,074	-0,074
-258,409	-200,000	0,007	-0,084
-257,395	-200,000	-0,010	-0,075
-256,380	426,803	-0,071	0,111
-255,365	299,633	-0,042	-0,056
-254,351	800,000	-0,014	-0,029
-253,336	-186,296	0,019	-0,000
-252,322	-83,095	-0,081	0,019
-251,307	8,554	-0,112	-0,061
-250,292	107,880	0,091	0,079
-249,278	-200,000	0,034	-0,116
-248,263	738,021	0,041	0,079
-247,249	800,000	-0,026	0,060
-246,234	-200,000	0,006	-0,084
-245,219	-200,000	-0,035	-0,214
-244,205	406,437	-0,057	-0,087
-243,190	703,394	-0,030	-0,058
-242,176	214,868	-0,010	-0,012
-241,161	62,756	0,058	0,042
-240,146	-19,758	0,286	0,127
-239,132	515,203	-0,035	0,059
-238,117	28,818	-0,081	0,050
-237,103	90,259	0,084	0,068
-236,088	146,687	0,029	0,028
-235,073	325,202	0,108	-0,150
-234,059	-8,899	0,023	-0,011
-233,044	140,122	-0,108	0,103
-232,030	603,499	0,052	-0,093
-231,015	800,000	0,022	-0,058
-230,000	-200,000	-0,050	-0,236
-228,986	446,920	-0,055	0,088
-227,971	404,001	0,086	0,132
-226,957	785,569	0,066	0,131
-225,942	-62,266	-0,090	0,027
-224,927	410,671	-0,080	0,123
-223,913	-103,732	0,041	0,007
-222,898	-44,560	0,052	-0,019
-221,884	-24,062	-0,114	0,049
-220,869	-200,000	0,058	0,294
-219,855	-104,039	-0,112	0,019
-218,840	-200,000	0,103	0,000
-217,825	-103,101	0,079	-0,013
-216,811	281,297	-0,117	0,152
-215,796	120,179	0,102	-0,091
-214,782	800,000	-0,051	0,147
-213,767	800,000	0,080	0,189
-212,752	59,179	-0,077	0,055
-211,738	68,713	0,106	-0,078
-210,723	-130,877	0,102	-0,010
-209,709	-84,125	-0,098	0,022
-208,694	108,780	-0,131	-0,113
-207,679	800,000	-0,039	-0,088
-206,665	-86,216	0,137	-0,030
-205,650	-200,000	-0,017	0,103
-204,636	-85,433	0,037	-0,008
-203,621	800,000	0,059	0,135
-202,606	-44,823	-0,105	0,037
-201,592	390,335	-0,053	-0,080
-200,577	618,198	-0,045	-0,082
-199,563	445,884	0,023	-0,036
-198,548	-200,000	-0,009	-0,083
-197,533	-200,000	-0,015	0,056
-196,519	-129,650	-0,066	-0,006
-195,504	-200,000	-0,042	0,000
-194,490	4,087	-0,066	-0,035
-193,475	800,000	0,010	-0,027
-192,460	-67,761	0,034	0,009
-191,446	337,369	-0,090	0,127
-190,431	247,556	0,099	0,121
-189,417	-139,309	-0,074	-0,006
-188,402	752,258	-0,023	-0,046
-187,387	-75,263	-0,169	-0,043
-186,373	-54,908	-0,096	-0,031
-185,358	318,686	-0,022	0,031
-184,344	800,000	0,094	0,191
-183,329	652,089	0,051	0,094
-182,315	800,000	-0,037	0,093
-181,300	800,000	-0,014	0,040
-180,285	-70,731	-0,028	0,008
-179,271	800,000	-0,022	-0,053
-178,256	-112,087	0,193	-0,028
-177,242	-200,000	-0,002	-0,050
-176,227	-68,489	0,048	-0,013
-175,212	596,579	0,041	0,073
-174,198	-180,147	-0,205	0,003
-173,183	92,042	-0,052	0,042
-172,169	139,319	-0,092	-0,087
-171,154	-27,108	0,130	0,054
-170,139	-200,000	-0,001	0,010
-169,125	221,837	-0,036	-0,042
-168,110	-200,000	-0,017	0,082
-167,096	-74,409	-0,172	-0,044
-166,081	-200,000	0,003	-0,109
-165,066	-61,912	-0,042	-0,013
-164,052	-200,000	-0,011	-0,120
-163,037	-151,418	0,132	0,007
-162,023	71,982	-0,073	0,055
-161,008	-48,696	0,030	0,010
-159,993	800,000	-0,076	0,153
-158,979	-13,519	-0,067	0,031
-157,964	30,018	-0,048	0,030
-156,950	-141,449	-0,060	-0,004
-155,935	800,000	0,016	-0,050
-154,920	12,691	-0,063	-0,035
-153,906	800,000	0,039	0,087
-152,891	272,843	-0,057	-0,072
-151,877	800,000	0,031	-0,086
-150,862	12,046	0,090	-0,050
-149,847	-200,000	0,003	-0,010
-148,833	-200,000	-0,010	0,032
-147,818	-83,333	0,079	-0,018
-146,804	-200,000	-0,038	0,149
-145,789	-200,000	0,003	0,051
-144,775	-200,000	-0,008	-0,068
-143,760	14,506	0,054	0,030
-142,745	800,000	0,017	-0,048
-141,731	21,928	0,180	-0,105
-140,716	55,978	-0,062	0,043
-139,702	306,997	-0,074	0,099
-138,687	800,000	-0,035	0,071
-137,672	789,317	-0,090	0,180
-136,658	-35,521	-0,054	-0,021
-135,643	4,761	0,088	-0,047
-134,629	800,000	0,036	0,083
-133,614	-80,334	-0,039	-0,009
-132,599	668,652	0,058	-0,109
-131,585	182,891	0,040	-0,043
-130,570	-182,320	0,155	-0,002
-129,556	-200,000	0,024	0,093
-128,541	143,943	-0,082	0,078
-127,526	90,481	-0,007	-0,005
-126,512	748,200	0,012	0,024
-125,497	5,413	-0,029	0,016
-124,483	-118,603	-0,103	0,013
-123,468	101,857	-0,024	0,020
-122,453	201,222	-0,078	-0,086
-121,439	-200,000	0,005	0,096
-120,424	-26,740	0,109	-0,046
-119,410	49,125	0,063	-0,042
-118,395	-200,000	0,011	0,097
-117,380	-77,972	0,129	-0,032
-116,366	181,118	-0,063	0,066
-115,351	-39,451	-0,080	-0,030
-114,337	367,622	-0,036	-0,053
-113,322	800,000	0,012	0,036
-112,307	-105,942	0,072	0,011
-111,293	15,466	0,096	0,054
-110,278	-200,000	0,005	-0,080
-109,264	321,659	-0,025	-0,034
-108,249	-16,242	-0,159	-0,072
-107,234	-200,000	-0,009	0,051
-106,220	190,023	-0,170	-0,184
-105,205	800,000	-0,045	-0,124
-104,191	-200,000	-0,042	0,000
-103,176	-200,000	0,008	0,057
-102,162	36,225	0,054	-0,034
-101,147	607,680	-0,055	-0,098
-100,132	170,197	-0,138	-0,142
-99,118	-31,609	0,033	0,013
-98,103	75,969	-0,071	-0,054
-97,089	-200,000	-0,012	-0,043
-96,074	800,000	-0,037	0,079
-95,059	63,471	-0,052	-0,037
-94,045	13,331	-0,099	0,055
-93,030	800,000	-0,024	-0,059
-92,016	78,880	-0,073	0,056
-91,001	213,069	-0,059	0,067
-89,986	-2,841	0,106	-0,053
-88,972	-200,000	-0,003	0,021
-87,957	240,178	-0,038	-0,045
-86,943	51,266	0,062	0,042
-85,928	-200,000	0,049	-0,177
-84,913	-200,000	0,009	-0,029
-83,899	-200,000	0,024	-0,152
-82,884	-40,214	0,141	0,052
-81,870	-200,000	-0,004	0,119
-80,855	-95,604	0,113	-0,021
-79,840	58,117	-0,101	-0,071
-78,826	22,347	-0,127	-0,074
-77,811	44,739	-0,137	-0,090
-76,797	78,891	0,086	-0,066
-75,782	311,437	-0,035	0,047
-74,767	-200,000	0,025	0,162
-73,753	31,483	-0,083	-0,051
-72,738	-200,000	0,008	-0,095
-71,724	-200,000	-0,003	-0,040
-70,709	-117,681	-0,126	-0,016
-69,694	160,984	-0,092	-0,092
-68,680	228,595	0,041	0,048
-67,665	-200,000	0,001	0,083
-66,651	-200,000	0,014	-0,105
-65,636	800,000	-0,016	0,032
-64,622	263,633	0,094	-0,118
-63,607	-44,587	0,060	0,021
-62,592	-200,000	-0,010	-0,063
-61,578	62,066	0,088	-0,063
-60,563	144,946	-0,052	0,050
-59,549	-38,982	-0,113	0,042
-58,534	40,522	-2,000	-1,290
-57,519	-200,000	-0,121	-0,751
-56,505	-200,000	-1,365	-5,080
-55,490	23,568	0,828	0,488
-54,476	800,000	5,326	12,168
-53,461	-200,000	17,836	290,511
-52,446	800,000	727,980	2222,397
-51,432	531,400	1640,304	2792,217
-50,417	108,530	1629,411	1394,746
-49,403	72,334	1282,814	957,419
-48,388	31,105	1025,355	629,163
-47,373	19,822	987,820	568,994
-46,359	18,124	975,554	556,351
-45,344	15,278	971,627	544,798
-44,330	15,571	970,207	544,937
-43,315	15,069	968,287	542,202
-42,300	15,014	967,348	541,475
-41,286	14,994	966,306	540,807
-40,271	15,011	965,156	540,195
-39,257	15,063	964,266	539,844
-38,242	15,069	963,495	539,412
-37,227	15,052	962,685	538,883
-36,213	15,019	961,956	538,345
-35,198	14,986	960,926	537,639
-34,184	15,072	960,381	537,593
-33,169	14,970	959,299	536,637
-32,154	15,045	958,338	536,319
-31,140	14,997	957,552	535,704
-30,125	15,054	956,749	535,417
-29,111	15,031	955,792	534,786
-28,096	14,981	955,458	534,418
-27,082	15,044	954,579	534,107
-26,067	15,083	953,708	533,722
-25,052	15,057	953,155	533,310
-24,038	15,045	952,542	532,907
-23,023	14,945	951,861	532,186
-22,009	15,031	951,060	531,990
-20,994	15,080	950,436	531,776
-19,979	15,046	949,971	531,386
-18,965	15,009	949,217	530,826
-17,950	15,017	948,815	530,605
-16,936	14,930	948,176	529,951
-15,921	14,976	947,237	529,549
-14,906	14,954	946,577	529,091
-13,892	14,915	946,069	528,660
-12,877	14,871	945,326	528,084
-11,863	14,859	944,706	527,681
-10,848	14,909	944,308	527,594
-9,833	14,950	943,901	527,479
-8,819	14,961	943,152	527,072
-7,804	14,865	942,666	526,476
-6,790	14,989	941,673	526,294
-5,775	14,960	941,382	526,018
-4,760	14,903	940,808	525,497
-3,746	14,925	940,160	525,183
-2,731	14,797	939,250	524,249
-1,717	14,785	938,617	523,839
-0,702	14,778	938,056	523,482
0,313	14,545	937,604	523,285
1,327	18,074	935,136	532,949
2,342	27,335	788,903	473,959
3,356	23,859	444,247	261,732
4,371	-5,683	295,478	144,577
5,386	-9,562	277,307	131,998
6,400	-10,882	271,607	128,047
7,415	-10,987	269,458	126,925
8,429	-10,898	268,012	126,315
9,444	-11,141	267,029	125,619
10,459	-11,023	266,511	125,471
11,473	-11,117	265,944	125,107
12,488	-11,288	265,359	124,666
13,502	-11,311	264,805	124,373
14,517	-11,436	264,302	124,013
15,531	-11,236	263,919	124,003
16,546	-11,197	263,709	123,929
17,561	-11,390	263,185	123,497
18,575	-10,959	262,754	123,672
19,590	-11,179	262,551	123,368
20,604	-11,181	262,309	123,241
21,619	-11,286	261,904	122,946
22,634	-11,112	261,580	122,938
23,648	-11,218	261,154	122,633
24,663	-11,242	260,976	122,517
25,677	-11,069	260,678	122,520
26,692	-11,190	260,430	122,285
27,707	-11,276	260,195	122,087
28,721	-11,224	259,825	121,949
29,736	-11,088	259,677	121,989
30,750	-11,345	259,339	121,592
31,765	-11,464	259,189	121,405
32,780	-11,224	258,897	121,470
33,794	-11,225	258,580	121,310
34,809	-11,309	258,489	121,182
35,823	-11,463	258,110	120,858
36,838	-11,379	257,960	120,850
37,853	-11,263	257,597	120,772
38,867	-11,442	257,507	120,562
39,882	-11,266	257,101	120,515
40,896	-11,395	257,057	120,370
41,911	-11,323	256,767	120,287
42,926	-11,415	256,370	120,010
43,940	-11,301	256,167	120,004
44,955	-11,560	255,990	119,684
45,969	-11,583	255,768	119,549
46,984	-11,831	255,576	119,233
47,999	-11,969	255,328	118,986
49,013	-11,991	255,007	118,807
50,028	-12,158	254,780	118,545
51,042	-12,165	254,401	118,353
52,057	-11,958	254,090	118,376
53,071	-12,187	254,111	118,177
54,086	-12,110	253,871	118,122
55,101	-12,038	253,871	118,174
56,115	-11,720	253,523	118,276
57,130	-11,257	253,611	118,706
58,144	-11,033	253,216	118,704
59,159	-11,081	253,104	118,600
60,174	-11,195	252,771	118,335
61,188	-11,064	252,676	118,393
62,203	-11,291	252,462	118,087
63,217	-11,372	252,415	117,985
64,232	-11,355	252,094	117,838
65,247	-11,180	252,027	117,947
66,261	-11,294	251,524	117,603
67,276	-11,435	251,190	117,317
68,290	-11,679	250,959	116,990
69,305	-11,862	250,898	116,794
70,320	-11,816	250,579	116,675
71,334	-11,588	250,608	116,872
72,349	-11,219	250,200	116,985
73,363	-11,099	250,164	117,061
74,378	-11,263	249,999	116,834
75,393	-11,161	249,771	116,803
76,407	-11,377	249,657	116,555
77,422	-11,349	249,270	116,388
78,436	-11,215	249,040	116,384
79,451	-11,285	248,943	116,270
80,466	-11,462	248,504	115,904
81,480	-11,379	248,273	115,856
82,495	-11,553	248,203	115,667
83,509	-11,519	248,086	115,630
84,524	-11,633	247,846	115,412
85,539	-11,779	247,605	115,167
86,553	-11,871	247,488	115,025
87,568	-11,465	247,126	115,187
88,582	-11,564	247,038	115,052
89,597	-11,555	246,744	114,913
90,611	-11,531	246,683	114,895
91,626	-11,351	246,544	114,970
92,641	-11,226	246,262	114,933
93,655	-11,242	246,136	114,851
94,670	-11,477	245,925	114,546
95,684	-11,332	245,683	114,543
96,699	-11,512	245,617	114,353
97,714	-11,624	245,402	114,149
98,728	-11,602	245,072	114,003
99,743	-11,812	244,927	113,752
100,757	-11,668	244,569	113,695
101,772	-11,619	244,495	113,690
102,787	-11,499	244,442	113,755
103,801	-11,380	244,134	113,701
104,816	-11,388	243,999	113,621
105,830	-11,387	243,937	113,583
106,845	-11,352	243,641	113,464
107,860	-11,195	243,442	113,490
108,874	-11,217	243,282	113,388
109,889	-11,444	243,059	113,086
110,903	-11,409	242,798	112,984
111,918	-11,587	242,685	112,774
112,933	-11,390	242,485	112,834
113,947	-11,419	242,423	112,771
114,962	-11,427	242,313	112,703
115,976	-11,267	242,018	112,687
116,991	-11,452	241,985	112,510
118,006	-11,285	241,700	112,505
119,020	-11,205	241,553	112,491
120,035	-11,212	241,435	112,421
121,049	-11,130	241,228	112,381
122,064	-11,398	241,016	112,054
123,079	-11,460	240,840	111,911
124,093	-11,689	240,554	111,581
125,108	-11,500	240,282	111,600
126,122	-11,721	240,112	111,331
127,137	-11,830	239,931	111,149
128,151	-11,737	239,727	111,120
129,166	-11,696	239,640	111,103
130,181	-11,571	239,426	111,095
131,195	-11,613	239,182	110,937
132,210	-11,516	239,128	110,981
133,224	-11,371	239,079	111,066
134,239	-11,363	238,768	110,918
135,254	-11,375	238,513	110,780
136,268	-11,403	238,380	110,685
137,283	-11,871	238,109	110,173
138,297	-11,945	237,978	110,043
139,312	-11,948	237,653	109,880
140,327	-11,713	237,735	110,098
141,341	-10,964	237,655	110,652
142,356	-10,939	237,559	110,618
143,370	-11,094	237,365	110,394
144,385	-10,937	237,147	110,408
145,400	-11,035	236,913	110,211
146,414	-11,034	236,866	110,180
147,429	-11,066	236,620	110,031
148,443	-11,088	236,547	109,969
149,458	-11,071	236,253	109,836
150,473	-11,064	236,113	109,767
151,487	-11,292	235,878	109,466
152,502	-11,205	235,821	109,499
153,516	-10,992	235,530	109,524
154,531	-11,280	235,573	109,305
155,546	-11,062	235,197	109,293
156,560	-11,107	235,032	109,171
157,575	-11,339	234,872	108,903
158,589	-11,235	234,565	108,834
159,604	-11,113	234,690	108,979
160,619	-10,919	234,541	109,053
161,633	-10,819	234,285	109,004
162,648	-10,961	234,080	108,787
163,662	-11,063	233,890	108,608
164,677	-11,012	233,839	108,615
165,692	-10,979	233,741	108,586
166,706	-10,926	233,567	108,537
167,721	-10,903	233,452	108,492
168,735	-10,796	233,380	108,533
169,750	-10,903	233,174	108,343
170,764	-10,867	232,901	108,235
171,779	-10,934	232,757	108,106
172,794	-10,881	232,735	108,127
173,808	-11,160	232,445	107,764
174,823	-11,686	232,137	107,200
175,837	-11,728	231,857	107,029
176,852	-11,179	231,979	107,505
177,867	-11,090	231,818	107,490
178,881	-11,178	231,602	107,312
179,896	-10,873	231,636	107,556
180,910	-10,841	231,433	107,477
181,925	-10,813	231,209	107,386
182,940	-11,023	231,125	107,173
183,954	-11,061	230,947	107,052
184,969	-10,952	230,776	107,047
185,983	-11,017	230,690	106,947
186,998	-10,855	230,581	107,013
188,013	-10,790	230,264	106,907
189,027	-10,792	230,173	106,854
190,042	-10,697	230,043	106,857
191,056	-10,831	229,786	106,625
192,071	-10,927	229,734	106,517
193,086	-10,961	229,583	106,411
194,100	-10,774	229,336	106,432
195,115	-10,956	228,830	106,047
196,129	-11,227	228,769	105,800
197,144	-6,388	230,504	110,343
198,159	-0,619	232,298	115,685
199,173	2,869	233,035	118,759
200,188	2,860	233,094	118,772
201,202	2,967	232,928	118,759
202,217	3,141	232,926	118,883
203,232	3,468	232,815	119,069
204,246	3,476	232,594	118,952
205,261	3,444	232,675	118,958
206,275	3,778	232,502	119,119
207,290	3,957	232,262	119,124
208,304	3,779	232,003	118,842
209,319	3,693	231,833	118,678
210,334	3,618	231,850	118,619
211,348	3,225	231,544	118,148
212,363	3,134	231,208	117,896
213,377	2,852	230,943	117,533
214,392	3,046	230,838	117,618
215,407	3,030	230,807	117,579
216,421	3,179	230,612	117,584
217,436	3,007	230,557	117,414
218,450	2,848	230,205	117,102
219,465	2,814	230,065	116,995
220,480	2,747	229,854	116,825
221,494	2,668	229,752	116,702
222,509	3,027	229,698	116,939
223,523	3,082	229,603	116,922
224,538	2,909	229,375	116,664
225,553	2,993	229,209	116,633
226,567	3,250	229,205	116,817
227,582	3,415	229,090	116,874
228,596	3,555	228,881	116,864
229,611	3,243	228,632	116,488
230,626	2,768	228,470	116,034
231,640	2,710	228,357	115,922
232,655	3,009	228,286	116,103
233,669	3,429	228,253	116,395
234,684	3,597	227,897	116,330
235,699	3,231	228,102	116,147
236,713	3,139	227,634	115,828
237,728	3,044	227,612	115,735
238,742	2,933	227,353	115,509
239,757	2,996	227,220	115,479
240,772	2,941	226,957	115,294
241,786	3,000	226,874	115,285
242,801	3,140	226,725	115,305
243,815	3,305	226,820	115,468
244,830	3,435	226,646	115,466
245,844	3,150	226,177	115,003
246,859	2,992	226,100	114,835
247,874	3,041	226,190	114,908
248,888	3,266	225,909	114,923
249,903	3,221	225,732	114,789
250,917	2,849	225,607	114,436
251,932	3,065	225,372	114,469
252,947	2,745	225,334	114,199
253,961	2,688	225,030	113,993
254,976	2,956	224,942	114,138
255,990	3,046	224,954	114,202
257,005	3,095	224,824	114,162
258,020	3,000	224,672	114,003
259,034	3,230	224,484	114,070
260,049	3,335	224,332	114,061
261,063	3,080	224,223	113,805
262,078	3,485	224,065	114,016
263,093	3,494	223,905	113,931
264,107	3,216	223,665	113,593
265,122	3,266	223,657	113,615
266,136	3,492	223,628	113,759
267,151	3,598	223,356	113,688
268,166	2,851	223,242	113,066
269,180	2,826	222,769	112,798
270,195	2,788	222,739	112,745
271,209	2,856	222,605	112,718
272,224	3,087	222,433	112,791
273,239	3,170	222,249	112,749
274,253	2,860	222,258	112,515
275,268	3,087	221,862	112,471
276,282	2,883	221,779	112,269
277,297	2,818	221,612	112,127
278,312	2,763	221,694	112,118
279,326	2,978	221,503	112,170
280,341	3,080	221,342	112,153
281,355	3,384	221,140	112,263
282,370	2,994	221,159	111,976
283,384	2,830	220,851	111,691
284,399	2,755	220,762	111,581
285,414	2,832	220,634	111,563
286,428	3,059	220,419	111,610
287,443	3,336	220,419	111,802
288,457	3,284	220,325	111,706
289,472	3,094	220,090	111,439
290,487	2,767	219,780	111,034
291,501	2,483	219,704	110,779
292,516	2,610	219,649	110,833
293,530	2,805	219,450	110,865
294,545	2,685	219,391	110,738
295,560	3,008	219,232	110,882
296,574	3,077	219,024	110,817
297,589	2,976	218,850	110,646
298,603	2,875	218,787	110,532
299,618	3,228	218,627	110,696
300,633	3,107	218,662	110,616
301,647	3,498	218,581	110,849
302,662	3,217	218,402	110,545
303,676	3,095	218,288	110,389
304,691	3,166	218,174	110,373
305,706	3,299	217,891	110,316
306,720	3,354	217,763	110,281
307,735	2,993	217,467	109,861
308,749	2,584	217,602	109,626
309,764	3,059	217,322	109,816
310,779	3,139	217,246	109,825
311,793	3,117	217,068	109,710
312,808	3,387	216,852	109,784
313,822	3,020	216,759	109,465
314,837	2,961	216,640	109,353
315,852	3,202	216,409	109,398
316,866	2,853	216,392	109,130
317,881	3,163	216,345	109,319
318,895	3,179	216,073	109,183
319,910	3,226	215,762	109,049
320,925	2,930	215,555	108,724
321,939	2,373	215,335	108,207
322,954	2,703	215,455	108,493
323,968	3,273	215,358	108,840
324,983	3,194	215,376	108,783
325,997	3,365	215,315	108,864
327,012	2,960	214,982	108,398
328,027	3,095	214,746	108,365
329,041	3,486	214,775	108,648
330,056	3,351	214,640	108,474
331,070	3,071	214,419	108,155
332,085	2,506	214,096	107,583
333,100	2,655	214,105	107,683
334,114	3,032	213,962	107,868
335,129	3,177	213,797	107,877
336,143	2,969	213,750	107,697
337,158	3,148	213,553	107,714
338,173	2,998	213,623	107,634
339,187	2,860	213,217	107,323
340,202	2,725	213,130	107,175
341,216	2,845	212,970	107,169
342,231	3,039	212,717	107,168
343,246	2,886	212,705	107,046
344,260	3,077	212,582	107,108
345,275	3,123	212,497	107,088
346,289	3,145	212,461	107,076
347,304	3,308	212,208	107,052
348,319	3,126	212,117	106,870
349,333	3,142	211,906	106,765
350,348	2,992	211,937	106,667
351,362	3,318	211,691	106,760
352,377	3,269	211,546	106,643
353,392	2,988	211,479	106,405
354,406	3,230	211,366	106,507
355,421	196,426	1337,494	1416,847
356,435	156,952	1474,664	1416,814
