DTS Sentinel unit serial number:	SN410029Multiplexer serial number:	ORYXHardware model number:	OX2-SRSoftware version number:	ORYX F/W v4,00 Oryx Data Collector v3.7.2.0data status	okinstallation	B6 Nyhavnadifferential loss correction	single-endedforward channel	channel 2reverse channel	N/Adate	2023/12/08time	11:10:08forward acquisition time	300,00reverse acquisition time	0,00gamma	499,1914k internal	0,3161k external	0,3161temperature offset calibration	1,0000default loss term (dB/km)	0,3820temperature slope calibration	1,0000multiplexer offset coefficient	1,0000multiplexer slope coefficient	1,0000fibre end	0,00T internal ref (°C)	14,83T ext. ref 1 (°C)	-1,40T ext. ref 2 (°C)	-1,39length (m)	temperature (°C)	Stokes	anti-Stokes-744,400	-53,135	0,187	0,063
-743,385	-200,000	-0,447	-0,001
-742,371	-76,226	0,114	0,029
-741,356	-130,940	-0,355	-0,034
-740,342	101,116	0,084	0,072
-739,327	-55,465	-0,447	-0,147
-738,312	-200,000	-0,005	-0,103
-737,298	-106,181	-0,239	-0,039
-736,283	423,628	0,088	0,139
-735,269	-124,800	-0,215	-0,024
-734,254	-13,973	0,165	0,078
-733,239	-120,801	-0,511	-0,063
-732,225	-148,314	0,158	-0,009
-731,210	107,304	-0,104	0,091
-730,196	800,000	-0,005	-0,012
-729,181	60,254	0,069	-0,050
-728,167	90,797	-0,120	-0,099
-727,152	-170,713	-0,019	-0,000
-726,137	-87,073	-0,174	-0,039
-725,123	-200,000	-0,013	-0,067
-724,108	-46,251	-0,077	-0,028
-723,094	94,456	-0,026	0,022
-722,079	186,765	-0,087	0,095
-721,064	692,040	-0,050	-0,097
-720,050	800,000	-0,011	0,023
-719,035	-88,774	0,066	-0,014
-718,021	-200,000	-0,005	0,017
-717,006	-200,000	0,019	-0,135
-715,991	444,485	-0,070	-0,113
-714,977	82,601	0,027	0,021
-713,962	84,733	0,065	-0,052
-712,948	-67,185	-0,069	0,020
-711,933	-95,795	-0,083	0,016
-710,918	47,096	0,059	0,040
-709,904	482,887	0,041	0,069
-708,889	49,350	-0,079	-0,054
-707,875	800,000	0,003	-0,006
-706,860	800,000	-0,038	-0,123
-705,845	800,000	0,039	-0,080
-704,831	-33,388	-0,019	-0,008
-703,816	800,000	0,010	0,030
-702,802	307,643	0,033	0,045
-701,787	-152,418	-0,081	0,004
-700,772	-129,186	-0,041	0,004
-699,758	-126,024	-0,105	0,011
-698,743	-200,000	0,010	0,036
-697,729	-200,000	0,006	0,040
-696,714	-200,000	0,030	0,116
-695,699	800,000	-0,022	-0,050
-694,685	-16,530	-0,069	-0,032
-693,670	-40,995	0,017	0,007
-692,656	-29,492	-0,090	-0,038
-691,641	448,316	0,092	0,149
-690,627	-200,000	-0,020	0,089
-689,612	-155,242	0,101	0,005
-688,597	113,149	-0,119	0,106
-687,583	228,418	-0,155	-0,186
-686,568	-129,616	0,079	0,008
-685,554	529,508	0,054	-0,094
-684,539	-200,000	0,006	0,092
-683,524	-106,449	-0,155	-0,025
-682,510	359,703	0,080	0,119
-681,495	-16,986	0,062	-0,029
-680,481	-80,287	-0,019	-0,005
-679,466	10,024	-0,105	0,058
-678,451	-200,000	0,011	0,120
-677,437	800,000	0,103	0,231
-676,422	-147,698	-0,059	-0,004
-675,408	121,306	-0,053	0,048
-674,393	350,837	-0,007	0,011
-673,378	0,292	0,013	0,007
-672,364	23,302	0,030	-0,018
-671,349	389,531	-0,025	-0,038
-670,335	-95,526	-0,044	-0,009
-669,320	-200,000	-0,006	-0,059
-668,305	127,600	0,095	0,088
-667,291	54,587	-0,094	-0,066
-666,276	-101,403	-0,135	0,024
-665,262	-92,364	-0,102	-0,021
-664,247	-200,000	-0,009	-0,034
-663,232	13,374	0,090	0,051
-662,218	-200,000	-0,003	-0,018
-661,203	-81,209	-0,073	0,018
-660,189	-200,000	0,009	0,151
-659,174	800,000	0,037	0,112
-658,159	134,925	-0,085	-0,081
-657,145	800,000	-0,034	0,099
-656,130	-154,368	0,160	0,008
-655,116	-181,543	0,109	0,002
-654,101	741,336	-0,010	0,020
-653,086	800,000	0,013	-0,036
-652,072	200,193	-0,060	-0,068
-651,057	-0,812	-0,040	0,021
-650,043	-200,000	-0,014	-0,124
-649,028	463,250	0,022	0,035
-648,014	189,047	0,019	0,021
-646,999	-157,663	0,015	-0,001
-645,984	800,000	0,028	-0,076
-644,970	104,624	-0,045	-0,039
-643,955	800,000	-0,043	-0,105
-642,941	-200,000	0,000	0,042
-641,926	-200,000	0,062	-0,000
-640,911	800,000	-0,057	-0,128
-639,897	800,000	-0,038	0,092
-638,882	102,038	-0,126	0,108
-637,868	93,965	0,041	-0,034
-636,853	400,609	-0,072	-0,111
-635,838	-124,242	0,030	0,003
-634,824	-200,000	-0,029	-0,111
-633,809	69,201	0,052	-0,039
-632,795	-3,575	0,109	0,056
-631,780	-200,000	-0,000	0,046
-630,765	3,795	-0,074	-0,040
-629,751	114,120	-0,107	-0,096
-628,736	56,473	-0,135	-0,096
-627,722	-200,000	0,043	-0,139
-626,707	-57,344	-0,007	0,002
-625,692	-15,813	0,047	0,022
-624,678	169,743	-0,032	0,034
-623,663	-200,000	-0,036	-0,170
-622,649	74,132	-0,035	0,027
-621,634	156,489	0,012	0,012
-620,619	281,415	-0,100	0,132
-619,605	-200,000	0,011	0,049
-618,590	-90,044	-0,094	0,020
-617,576	-200,000	0,017	-0,103
-616,561	-24,280	0,133	-0,058
-615,546	410,062	-0,022	0,035
-614,532	-49,568	-0,091	0,032
-613,517	15,885	-0,059	-0,034
-612,503	800,000	-0,029	-0,061
-611,488	800,000	0,091	0,219
-610,474	228,438	0,043	0,052
-609,459	-200,000	-0,024	0,080
-608,444	295,500	0,039	-0,053
-607,430	-200,000	0,011	-0,077
-606,415	47,325	-0,064	-0,043
-605,401	343,430	0,052	0,075
-604,386	-200,000	-0,013	0,080
-603,371	315,523	-0,086	0,120
-602,357	75,613	-0,089	0,069
-601,342	422,019	-0,116	-0,183
-600,328	800,000	-0,050	-0,148
-599,313	-200,000	-0,002	-0,084
-598,298	-107,097	-0,058	0,009
-597,284	800,000	0,031	-0,085
-596,269	58,273	0,029	0,021
-595,255	-27,678	0,156	-0,066
-594,240	-200,000	-0,028	0,106
-593,225	444,447	0,049	-0,080
-592,211	-200,000	-0,001	-0,155
-591,196	54,999	0,142	0,100
-590,182	-164,409	-0,053	-0,002
-589,167	120,023	-0,074	0,067
-588,152	59,298	-0,094	0,067
-587,138	-96,395	0,113	-0,022
-586,123	90,186	-0,015	0,012
-585,109	41,944	0,062	-0,041
-584,094	-97,749	-0,050	0,009
-583,079	196,077	0,060	0,067
-582,065	110,551	0,006	-0,005
-581,050	40,633	0,094	0,062
-580,036	7,638	-0,022	-0,012
-579,021	800,000	-0,062	-0,183
-578,006	-200,000	0,006	0,067
-576,992	-17,201	-0,064	-0,029
-575,977	-21,892	0,039	0,017
-574,963	-81,156	0,023	0,006
-573,948	800,000	-0,013	0,027
-572,934	327,264	0,017	0,024
-571,919	46,234	-0,117	-0,079
-570,904	394,554	-0,087	-0,134
-569,890	550,193	-0,019	0,033
-568,875	-5,316	0,063	0,031
-567,861	800,000	0,028	0,079
-566,846	620,952	-0,062	-0,115
-565,831	-200,000	0,016	-0,104
-564,817	800,000	-0,033	0,079
-563,802	160,011	-0,089	-0,091
-562,788	-97,391	-0,039	0,007
-561,773	187,802	0,054	-0,059
-560,758	28,719	-0,078	-0,048
-559,744	-83,049	-0,067	0,016
-558,729	67,526	0,188	0,141
-557,715	155,892	-0,031	0,031
-556,700	-200,000	-0,003	-0,083
-555,685	-10,770	-0,189	-0,091
-554,671	-92,116	-0,085	-0,017
-553,656	378,369	-0,053	-0,079
-552,642	172,823	0,059	0,062
-551,627	-166,296	0,036	0,001
-550,612	83,538	-0,099	-0,079
-549,598	-38,863	-0,103	0,040
-548,583	12,427	0,095	0,053
-547,569	-57,769	-0,157	-0,050
-546,554	412,731	-0,057	0,089
-545,539	105,014	-0,050	0,043
-544,525	49,212	0,040	0,028
-543,510	179,681	-0,050	0,054
-542,496	-91,612	-0,064	0,013
-541,481	-2,391	0,023	-0,012
-540,466	96,940	0,043	-0,036
-539,452	-133,475	0,124	-0,011
-538,437	156,659	-0,051	-0,051
-537,423	91,627	0,033	0,027
-536,408	-35,529	-0,031	-0,012
-535,393	352,976	-0,051	-0,074
-534,379	257,139	-0,066	0,083
-533,364	80,014	0,033	0,026
-532,350	-4,619	0,050	-0,025
-531,335	-144,596	0,171	-0,011
-530,321	800,000	-0,035	0,104
-529,306	-53,619	-0,039	-0,013
-528,291	-4,780	0,094	-0,047
-527,277	-200,000	0,011	-0,039
-526,262	800,000	0,037	-0,090
-525,248	-200,000	0,009	0,052
-524,233	-200,000	0,014	-0,137
-523,218	181,021	-0,078	-0,084
-522,204	623,881	0,056	-0,104
-521,189	800,000	-0,044	0,090
-520,175	229,723	-0,080	0,095
-519,160	284,692	0,033	0,043
-518,145	-128,323	0,074	0,008
-517,131	30,828	-0,072	-0,045
-516,116	800,000	-0,062	0,127
-515,102	-200,000	0,002	0,039
-514,087	-19,424	-0,059	-0,027
-513,072	29,833	-0,126	0,078
-512,058	-85,204	-0,081	-0,018
-511,043	69,679	0,077	-0,058
-510,029	274,003	0,051	-0,067
-509,014	-25,118	-0,032	-0,014
-507,999	121,380	0,049	0,045
-506,985	800,000	0,015	-0,041
-505,970	69,349	-0,073	-0,055
-504,956	-46,320	0,075	-0,027
-503,941	135,301	-0,047	0,044
-502,926	381,470	0,075	-0,113
-501,912	130,496	-0,048	0,045
-500,897	-49,254	-0,097	-0,033
-499,883	800,000	-0,036	0,075
-498,868	-134,052	-0,064	0,006
-497,853	800,000	-0,020	-0,058
-496,839	-128,965	0,114	0,012
-495,824	-50,303	0,075	-0,026
-494,810	190,435	-0,017	-0,019
-493,795	-52,957	-0,029	0,010
-492,781	381,444	-0,032	-0,048
-491,766	181,911	0,108	-0,116
-490,751	-5,381	0,088	-0,044
-489,737	-200,000	-0,046	-0,212
-488,722	35,321	-0,015	0,010
-487,708	-200,000	-0,012	0,070
-486,693	-14,165	0,081	0,038
-485,678	307,718	0,023	0,031
-484,664	-200,000	0,006	-0,023
-483,649	-200,000	0,000	0,019
-482,635	-126,946	-0,045	0,005
-481,620	-200,000	0,018	0,072
-480,605	-89,958	0,170	0,036
-479,591	-98,420	0,050	0,009
-478,576	-200,000	0,016	0,065
-477,562	-118,142	-0,050	-0,006
-476,547	314,495	-0,051	-0,070
-475,532	-200,000	-0,009	-0,089
-474,518	70,753	0,072	-0,054
-473,503	365,617	-0,041	-0,060
-472,489	800,000	-0,029	-0,088
-471,474	-200,000	-0,003	-0,027
-470,459	-200,000	0,021	-0,096
-469,445	-50,025	-0,147	-0,051
-468,430	-150,459	-0,218	-0,012
-467,416	267,764	0,094	0,121
-466,401	59,769	-0,072	0,052
-465,386	-200,000	0,001	0,085
-464,372	-200,000	-0,010	-0,050
-463,357	-200,000	-0,001	-0,064
-462,343	-15,353	0,020	0,009
-461,328	-200,000	-0,007	-0,066
-460,313	-200,000	-0,013	0,048
-459,299	50,876	0,072	-0,049
-458,284	-200,000	-0,004	-0,098
-457,270	624,371	-0,059	-0,108
-456,255	-200,000	-0,023	-0,087
-455,241	292,379	-0,098	-0,130
-454,226	524,140	-0,032	-0,054
-453,211	5,304	0,114	-0,061
-452,197	-200,000	-0,007	0,133
-451,182	-200,000	0,028	0,141
-450,168	-126,637	0,087	0,009
-449,153	-125,280	0,022	-0,002
-448,138	-200,000	0,004	0,015
-447,124	39,706	-0,108	-0,070
-446,109	178,192	0,105	-0,111
-445,095	-95,789	0,096	-0,018
-444,080	25,106	0,068	0,041
-443,065	-155,390	-0,010	-0,000
-442,051	79,852	0,186	-0,146
-441,036	261,367	0,060	-0,076
-440,022	28,080	0,076	0,047
-439,007	-200,000	-0,009	0,140
-437,992	44,655	0,059	0,040
-436,978	20,418	0,034	-0,020
-435,963	-87,862	0,129	-0,028
-434,949	-200,000	-0,017	0,106
-433,934	-113,429	-0,145	0,021
-432,919	800,000	-0,024	-0,053
-431,905	-78,564	0,021	0,005
-430,890	668,712	-0,076	-0,144
-429,876	-200,000	0,008	-0,103
-428,861	800,000	-0,037	-0,092
-427,846	800,000	0,050	-0,103
-426,832	-166,781	0,024	0,001
-425,817	-200,000	0,003	0,088
-424,803	-157,762	0,060	0,003
-423,788	160,633	-0,104	-0,105
-422,773	800,000	0,057	-0,175
-421,759	-200,000	0,008	0,034
-420,744	-200,000	0,018	-0,088
-419,730	-134,978	-0,152	0,013
-418,715	-21,453	-0,037	0,016
-417,701	-60,316	0,156	-0,048
-416,686	375,572	0,056	-0,083
-415,671	200,633	-0,061	-0,068
-414,657	-200,000	0,004	0,085
-413,642	-133,522	0,053	0,005
-412,628	211,246	-0,067	0,077
-411,613	68,975	0,128	-0,095
-410,598	-128,756	-0,054	0,005
-409,584	-200,000	0,021	-0,089
-408,569	800,000	-0,069	-0,217
-407,555	800,000	-0,014	0,038
-406,540	-51,462	0,039	0,013
-405,525	52,374	-0,092	0,064
-404,511	800,000	0,024	-0,066
-403,496	-200,000	-0,018	-0,085
-402,482	219,961	0,053	-0,062
-401,467	-113,112	0,034	0,005
-400,452	-3,503	0,047	-0,024
-399,438	-85,107	0,163	0,037
-398,423	104,972	-0,049	-0,042
-397,409	800,000	-0,054	0,122
-396,394	-200,000	0,007	-0,046
-395,379	112,133	-0,171	0,151
-394,365	-9,490	0,060	0,029
-393,350	-200,000	-0,007	-0,041
-392,336	167,343	0,061	0,062
-391,321	30,093	-0,170	0,105
-390,306	-200,000	0,001	-0,095
-389,292	5,445	0,186	0,099
-388,277	598,348	0,061	-0,109
-387,263	-49,185	0,208	-0,072
-386,248	-200,000	0,007	0,097
-385,233	-110,880	-0,020	0,003
-384,219	558,376	-0,055	0,097
-383,204	-65,974	0,091	0,026
-382,190	-96,225	-0,147	0,028
-381,175	121,645	0,051	0,046
-380,160	-200,000	-0,012	0,045
-379,146	30,288	0,067	-0,041
-378,131	-156,185	0,081	0,004
-377,117	571,569	-0,083	-0,148
-376,102	-60,307	0,040	-0,012
-375,088	-101,126	-0,068	0,012
-374,073	325,667	0,068	-0,095
-373,058	-129,309	0,087	-0,009
-372,044	800,000	0,044	0,100
-371,029	800,000	-0,019	-0,061
-370,015	-47,517	0,053	0,019
-369,000	-200,000	0,000	0,124
-367,985	150,327	0,061	-0,060
-366,971	-62,692	-0,091	0,027
-365,956	-200,000	-0,017	0,108
-364,942	-81,971	0,060	0,014
-363,927	-97,298	0,044	-0,008
-362,912	800,000	-0,044	-0,115
-361,898	-200,000	-0,009	-0,109
-360,883	-200,000	0,007	0,032
-359,869	-65,491	-0,217	-0,063
-358,854	-200,000	-0,010	-0,103
-357,839	333,593	0,013	0,018
-356,825	4,462	-0,049	0,026
-355,810	23,907	-0,080	-0,048
-354,796	800,000	-0,097	0,218
-353,781	82,452	-0,116	-0,091
-352,766	-91,199	-0,066	-0,013
-351,752	-200,000	0,009	0,072
-350,737	439,177	-0,064	0,102
-349,723	-199,746	0,071	-0,000
-348,708	-200,000	-0,028	0,148
-347,693	-200,000	-0,011	-0,055
-346,679	-74,394	0,010	0,003
-345,664	17,101	-0,109	0,062
-344,650	-200,000	-0,002	0,036
-343,635	771,766	0,066	0,132
-342,620	415,006	0,052	0,080
-341,606	-10,969	0,065	0,031
-340,591	27,456	-0,077	0,047
-339,577	-200,000	0,011	-0,064
-338,562	-94,092	0,082	0,016
-337,548	-200,000	-0,031	0,114
-336,533	-200,000	0,009	-0,064
-335,518	-62,627	-0,015	-0,005
-334,504	288,936	-0,059	0,078
-333,489	800,000	0,054	0,116
-332,475	310,503	0,048	-0,065
-331,460	287,895	-0,024	0,032
-330,445	156,455	-0,041	0,041
-329,431	-65,751	0,102	-0,029
-328,416	9,898	-0,034	-0,019
-327,402	-200,000	0,010	0,072
-326,387	388,014	-0,019	0,028
-325,372	-81,377	-0,100	-0,024
-324,358	-200,000	-0,001	0,047
-323,343	444,972	-0,092	-0,146
-322,329	-19,759	0,084	0,038
-321,314	430,072	0,047	-0,073
-320,299	800,000	0,062	0,160
-319,285	221,712	-0,050	-0,059
-318,270	126,498	-0,067	0,062
-317,256	-14,539	-0,027	-0,013
-316,241	628,767	-0,059	-0,109
-315,226	-94,907	-0,036	0,007
-314,212	-85,193	0,182	-0,041
-313,197	198,942	-0,122	0,135
-312,183	32,586	-0,103	0,064
-311,168	551,231	-0,045	0,079
-310,153	-74,740	0,077	0,020
-309,139	445,762	0,026	0,041
-308,124	-180,755	-0,052	-0,001
-307,110	-94,299	-0,017	-0,003
-306,095	3,550	-0,159	0,084
-305,080	88,991	0,080	0,064
-304,066	755,097	-0,017	-0,033
-303,051	800,000	-0,017	-0,044
-302,037	501,941	0,060	-0,101
-301,022	41,773	0,109	0,072
-300,008	800,000	-0,046	0,130
-298,993	74,778	-0,038	0,029
-297,978	800,000	0,028	0,088
-296,964	800,000	0,075	0,177
-295,949	-112,028	-0,164	-0,024
-294,935	-97,977	0,109	-0,020
-293,920	-200,000	0,003	0,071
-292,905	-200,000	0,022	0,125
-291,891	509,482	-0,050	-0,084
-290,876	-65,496	0,051	-0,015
-289,862	-168,575	0,068	-0,002
-288,847	-54,274	-0,120	-0,039
-287,832	214,779	0,081	-0,092
-286,818	800,000	0,038	0,112
-285,803	342,390	0,096	-0,137
-284,789	49,197	0,113	0,077
-283,774	184,159	0,104	-0,112
-282,759	-70,960	0,059	0,016
-281,745	800,000	0,023	0,058
-280,730	500,809	0,043	-0,072
-279,716	-4,493	-0,017	-0,008
-278,701	36,514	-0,076	-0,048
-277,686	-56,813	0,070	-0,022
-276,672	-200,000	0,003	0,082
-275,657	510,778	-0,050	0,085
-274,643	800,000	-0,022	0,056
-273,628	19,205	0,075	-0,043
-272,613	-200,000	-0,004	0,027
-271,599	-200,000	0,014	0,074
-270,584	-38,915	0,060	0,023
-269,570	110,927	-0,037	-0,032
-268,555	274,470	0,054	0,070
-267,540	-46,871	-0,102	-0,036
-266,526	-75,177	0,170	0,043
-265,511	25,868	0,090	0,054
-264,497	63,496	-0,086	-0,063
-263,482	146,484	0,103	0,100
-262,467	-146,446	0,076	0,005
-261,453	-133,936	0,161	-0,014
-260,438	46,479	-0,129	-0,086
-259,424	800,000	-0,072	-0,146
-258,409	-200,000	0,015	-0,162
-257,395	34,399	-0,049	-0,031
-256,380	58,982	0,116	-0,083
-255,365	-129,180	0,129	-0,013
-254,351	-3,297	-0,095	-0,048
-253,336	-53,021	0,041	-0,014
-252,322	800,000	-0,034	-0,105
-251,307	-200,000	-0,003	-0,127
-250,292	800,000	-0,023	0,058
-249,278	-7,129	-0,026	-0,013
-248,263	-130,589	0,104	-0,010
-247,249	-93,146	-0,205	0,041
-246,234	-200,000	-0,008	-0,045
-245,219	-200,000	-0,012	-0,097
-244,205	-76,708	-0,082	-0,021
-243,190	-131,055	-0,141	-0,013
-242,176	-200,000	-0,018	0,072
-241,161	196,356	0,071	0,078
-240,146	-200,000	0,004	0,144
-239,132	-200,000	0,015	0,193
-238,117	779,337	-0,073	0,145
-237,103	284,202	0,110	0,144
-236,088	342,255	-0,079	0,112
-235,073	354,882	0,111	0,160
-234,059	-157,049	-0,018	-0,001
-233,044	342,994	0,007	-0,010
-232,030	-200,000	-0,005	-0,074
-231,015	-142,283	0,109	0,008
-230,000	775,793	-0,070	0,138
-228,986	185,796	-0,021	-0,023
-227,971	-200,000	0,021	-0,175
-226,957	-200,000	-0,016	0,076
-225,942	-200,000	-0,017	0,070
-224,927	-46,880	0,079	0,028
-223,913	63,117	0,048	0,034
-222,898	-71,803	-0,089	-0,024
-221,884	-200,000	-0,005	0,166
-220,869	61,374	0,121	-0,087
-219,855	800,000	0,108	0,241
-218,840	-93,984	0,020	0,004
-217,825	91,751	-0,051	0,042
-216,811	-135,128	-0,105	-0,009
-215,796	499,447	0,072	0,120
-214,782	511,831	0,025	0,043
-213,767	-49,433	-0,125	0,043
-212,752	92,880	0,035	0,029
-211,738	-200,000	0,008	0,136
-210,723	187,126	0,105	0,113
-209,709	800,000	-0,034	0,094
-208,694	800,000	0,035	-0,104
-207,679	71,955	0,035	-0,026
-206,665	-78,634	-0,043	0,010
-205,650	19,733	-0,114	0,066
-204,636	-14,890	-0,097	0,045
-203,621	78,257	0,072	-0,056
-202,606	85,567	-0,043	-0,034
-201,592	-200,000	0,001	0,124
-200,577	152,615	-0,080	0,078
-199,563	800,000	0,023	-0,048
-198,548	-78,683	0,242	0,059
-197,533	-88,549	-0,092	0,020
-196,519	261,108	0,060	-0,075
-195,504	-28,778	0,044	-0,018
-194,490	-163,874	0,049	0,002
-193,475	-200,000	-0,014	-0,071
-192,460	-200,000	-0,007	-0,057
-191,446	800,000	0,083	0,175
-190,431	-61,462	-0,170	-0,051
-189,417	-185,817	0,069	0,001
-188,402	1,863	0,041	0,021
-187,387	-29,108	-0,085	-0,035
-186,373	-189,761	0,081	-0,001
-185,358	158,977	-0,096	0,096
-184,344	-200,000	0,027	0,086
-183,329	-33,508	-0,029	0,012
-182,315	-156,485	0,042	-0,002
-181,300	-90,355	0,087	-0,018
-180,285	-104,808	0,030	-0,005
-179,271	4,100	-0,061	-0,032
-178,256	203,440	0,074	-0,083
-177,242	-200,000	-0,002	0,112
-176,227	-156,148	0,007	0,000
-175,212	800,000	-0,011	0,026
-174,198	-90,610	0,116	0,024
-173,183	194,202	-0,055	0,060
-172,169	-200,000	0,011	-0,117
-171,154	-101,815	-0,104	0,018
-170,139	-14,964	0,075	0,034
-169,125	-60,042	0,118	0,036
-168,110	800,000	-0,029	0,079
-167,096	-5,046	0,041	-0,020
-166,081	-44,190	0,101	0,036
-165,066	-84,798	-0,283	-0,064
-164,052	-143,521	0,027	-0,002
-163,037	-200,000	0,018	-0,176
-162,023	-14,935	0,062	0,029
-161,008	-200,000	0,000	0,062
-159,993	-1,255	0,076	0,038
-158,979	-24,702	0,036	-0,015
-157,964	-92,838	-0,101	0,020
-156,950	-77,694	0,047	-0,012
-155,935	800,000	0,051	-0,113
-154,920	-65,527	-0,025	0,007
-153,906	111,618	-0,073	0,063
-152,891	800,000	-0,025	-0,075
-151,877	158,265	-0,062	0,061
-150,862	-9,645	0,080	-0,038
-149,847	800,000	0,012	-0,027
-148,833	-143,102	-0,035	-0,002
-147,818	4,001	0,026	0,013
-146,804	800,000	-0,022	-0,053
-145,789	721,480	-0,054	0,103
-144,775	232,266	0,034	0,040
-143,760	-200,000	-0,000	-0,010
-142,745	-200,000	0,022	-0,115
-141,731	21,215	-0,043	-0,025
-140,716	304,190	-0,066	0,089
-139,702	-200,000	0,001	0,182
-138,687	-200,000	-0,015	0,085
-137,672	710,205	0,018	0,035
-136,658	800,000	-0,067	-0,158
-135,643	-64,257	-0,098	-0,028
-134,629	-200,000	0,014	0,048
-133,614	485,521	-0,013	0,021
-132,599	-200,000	-0,045	0,158
-131,585	800,000	0,013	0,035
-130,570	337,308	-0,027	-0,037
-129,556	83,952	-0,094	-0,074
-128,541	462,737	-0,042	-0,067
-127,526	101,290	-0,081	-0,067
-126,512	-200,000	0,026	-0,147
-125,497	-22,906	0,065	-0,028
-124,483	-99,269	0,107	-0,019
-123,468	-70,098	-0,023	0,006
-122,453	210,879	-0,065	-0,073
-121,439	31,060	0,060	-0,037
-120,424	102,433	-0,089	0,075
-119,410	-200,000	0,004	0,141
-118,395	42,690	0,037	0,024
-117,380	800,000	-0,048	0,105
-116,366	262,758	0,048	0,060
-115,351	-200,000	-0,019	-0,073
-114,337	800,000	-0,046	0,093
-113,322	-75,382	-0,143	-0,036
-112,307	-200,000	-0,023	-0,136
-111,293	-184,936	-0,127	-0,001
-110,278	53,646	0,092	0,064
-109,264	233,964	-0,120	-0,143
-108,249	-133,060	-0,054	0,005
-107,234	800,000	0,018	-0,040
-106,220	63,573	0,021	0,015
-105,205	255,608	0,035	-0,044
-104,191	49,903	0,146	0,099
-103,176	800,000	0,037	-0,079
-102,162	-144,212	0,037	-0,002
-101,147	-158,442	-0,013	0,001
-100,132	-200,000	-0,003	-0,056
-99,118	-53,175	-0,115	-0,038
-98,103	697,307	0,081	0,153
-97,089	-200,000	-0,021	0,090
-96,074	-200,000	-0,002	-0,081
-95,059	71,561	0,078	0,058
-94,045	-192,790	-0,108	-0,001
-93,030	-99,095	-0,133	-0,024
-92,016	61,814	0,028	-0,020
-91,001	-89,092	-0,137	-0,029
-89,986	-200,000	0,036	-0,198
-88,972	800,000	-0,031	-0,065
-87,957	-75,456	0,044	-0,011
-86,943	800,000	0,035	0,074
-85,928	765,744	0,039	-0,076
-84,913	-200,000	0,012	-0,091
-83,899	43,233	0,036	-0,024
-82,884	-200,000	-0,006	0,022
-81,870	-200,000	0,007	0,026
-80,855	800,000	-0,047	-0,136
-79,840	-29,725	-0,165	-0,067
-78,826	-200,000	-0,008	0,030
-77,811	-141,340	-0,195	-0,014
-76,797	-99,361	-0,023	-0,004
-75,782	319,752	0,077	0,105
-74,767	-200,000	0,021	0,119
-73,753	6,226	0,066	-0,035
-72,738	-200,000	-0,011	0,143
-71,724	-200,000	0,016	0,071
-70,709	-15,287	-0,099	0,045
-69,694	-95,482	-0,057	0,011
-68,680	20,831	0,012	0,007
-67,665	-147,555	0,033	-0,002
-66,651	717,313	0,047	0,090
-65,636	-200,000	-0,002	0,091
-64,622	-200,000	0,061	-0,201
-63,607	-25,206	-0,053	0,022
-62,592	223,057	-0,015	-0,017
-61,578	-61,249	0,081	0,024
-60,563	-200,000	-0,033	0,110
-59,549	408,861	-0,053	0,080
-58,534	28,122	-2,100	-1,268
-57,519	-200,000	-0,069	-0,687
-56,505	-200,000	-1,421	-5,109
-55,490	55,648	0,909	0,631
-54,476	800,000	5,370	12,131
-53,461	-200,000	17,973	289,432
-52,446	800,000	728,469	2217,097
-51,432	529,122	1640,468	2786,849
-50,417	108,286	1629,603	1393,383
-49,403	72,709	1282,448	958,396
-48,388	30,976	1025,186	628,456
-47,373	19,804	987,063	568,348
-46,359	18,068	974,935	555,670
-45,344	15,217	971,225	544,232
-44,330	15,334	969,794	543,788
-43,315	14,876	967,771	541,143
-42,300	14,837	966,842	540,475
-41,286	14,880	965,740	539,978
-40,271	14,861	964,564	539,235
-39,257	14,851	963,977	538,854
-38,242	14,863	963,023	538,337
-37,227	14,898	962,193	537,967
-36,213	14,835	961,385	537,291
-35,198	14,816	960,518	536,722
-34,184	14,864	959,624	536,357
-33,169	14,859	958,791	535,853
-32,154	14,952	957,547	535,436
-31,140	14,866	957,022	534,845
-30,125	14,892	956,187	534,441
-29,111	14,904	955,357	533,995
-28,096	14,886	954,834	533,622
-27,082	14,860	954,042	533,076
-26,067	14,838	953,379	532,614
-25,052	14,836	952,549	532,122
-24,038	14,855	951,987	531,848
-23,023	14,859	951,279	531,445
-22,009	14,879	950,777	531,206
-20,994	14,875	950,177	530,838
-19,979	14,841	949,411	530,281
-18,965	14,937	948,678	530,157
-17,950	14,921	948,023	529,719
-16,936	14,782	947,695	529,071
-15,921	14,795	946,936	528,669
-14,906	14,747	946,196	528,081
-13,892	14,723	945,430	527,555
-12,877	14,740	944,970	527,332
-11,863	14,660	944,259	526,662
-10,848	14,718	943,736	526,533
-9,833	14,887	943,126	526,707
-8,819	14,854	942,609	526,292
-7,804	14,780	942,016	525,705
-6,790	14,732	941,459	525,223
-5,775	14,805	940,793	525,060
-4,760	14,807	940,321	524,784
-3,746	14,782	939,626	524,295
-2,731	14,655	938,879	523,458
-1,717	14,612	938,119	522,876
-0,702	14,657	937,449	522,624
0,313	14,433	936,789	522,341
1,327	17,737	935,047	531,702
2,342	26,929	788,243	472,373
3,356	23,478	443,168	260,466
4,371	-5,648	294,385	144,040
5,386	-9,602	276,156	131,378
6,400	-10,745	270,538	127,636
7,415	-11,052	268,328	126,300
8,429	-11,087	266,919	125,594
9,444	-11,095	266,158	125,218
10,459	-10,942	265,330	124,956
11,473	-11,228	264,776	124,425
12,488	-11,234	264,136	124,108
13,502	-11,263	263,525	123,783
14,517	-11,447	263,323	123,512
15,531	-11,266	262,988	123,507
16,546	-11,293	262,423	123,206
17,561	-11,310	262,191	123,071
18,575	-11,092	261,808	123,075
19,590	-11,462	261,561	122,618
20,604	-11,179	261,155	122,669
21,619	-11,330	260,869	122,389
22,634	-11,197	260,421	122,286
23,648	-11,421	260,135	121,941
24,663	-11,398	259,981	121,879
25,677	-11,324	259,668	121,787
26,692	-11,082	259,255	121,797
27,707	-11,436	259,162	121,428
28,721	-11,454	258,920	121,289
29,736	-11,576	258,660	121,049
30,750	-11,324	258,077	120,987
31,765	-11,557	257,950	120,711
32,780	-11,352	257,935	120,874
33,794	-11,481	257,705	120,642
34,809	-11,486	257,409	120,488
35,823	-11,678	257,129	120,178
36,838	-11,506	256,835	120,181
37,853	-11,360	256,572	120,175
38,867	-11,624	256,416	119,860
39,882	-11,480	256,088	119,821
40,896	-11,539	256,007	119,722
41,911	-11,520	255,605	119,540
42,926	-11,480	255,385	119,461
43,940	-11,516	255,045	119,260
44,955	-11,687	255,000	119,079
45,969	-11,657	254,694	118,952
46,984	-11,846	254,466	118,671
47,999	-12,088	254,146	118,302
49,013	-12,248	254,073	118,118
50,028	-12,265	253,621	117,883
51,042	-12,186	253,389	117,833
52,057	-12,265	253,231	117,681
53,071	-12,330	253,026	117,519
54,086	-12,080	252,937	117,683
55,101	-11,967	252,663	117,642
56,115	-11,830	252,582	117,711
57,130	-11,375	252,488	118,048
58,144	-11,027	252,113	118,162
59,159	-11,006	252,113	118,168
60,174	-11,195	251,875	117,884
61,188	-11,267	251,698	117,730
62,203	-11,193	251,330	117,610
63,217	-11,297	251,140	117,422
64,232	-11,356	250,998	117,295
65,247	-11,293	250,830	117,260
66,261	-11,226	250,439	117,124
67,276	-11,636	250,180	116,643
68,290	-11,636	249,938	116,519
69,305	-11,845	249,648	116,197
70,320	-11,962	249,599	116,064
71,334	-11,611	249,514	116,312
72,349	-11,130	249,246	116,585
73,363	-11,326	249,149	116,363
74,378	-11,274	248,956	116,306
75,393	-11,328	248,625	116,095
76,407	-11,528	248,596	115,903
77,422	-11,396	248,330	115,880
78,436	-11,473	248,053	115,675
79,451	-11,380	247,966	115,703
80,466	-11,545	247,614	115,389
81,480	-11,671	247,521	115,229
82,495	-11,718	247,173	115,018
83,509	-11,572	246,922	115,013
84,524	-11,737	246,764	114,791
85,539	-11,775	246,455	114,605
86,553	-11,769	246,324	114,539
87,568	-11,659	246,148	114,539
88,582	-11,729	245,951	114,379
89,597	-11,715	245,821	114,320
90,611	-11,690	245,796	114,319
91,626	-11,477	245,534	114,364
92,641	-11,478	245,422	114,301
93,655	-11,587	245,171	114,083
94,670	-11,579	244,884	113,946
95,684	-11,538	244,800	113,931
96,699	-11,632	244,585	113,743
97,714	-11,839	244,333	113,444
98,728	-11,851	244,179	113,352
99,743	-11,797	243,862	113,240
100,757	-11,966	243,786	113,055
101,772	-11,791	243,641	113,121
102,787	-11,834	243,623	113,068
103,801	-11,625	243,377	113,116
104,816	-11,491	243,139	113,106
105,830	-11,224	242,825	113,170
106,845	-11,499	242,875	112,956
107,860	-11,526	242,628	112,809
108,874	-11,753	242,274	112,448
109,889	-11,576	242,162	112,531
110,903	-11,733	241,863	112,254
111,918	-11,654	241,738	112,251
112,933	-11,616	241,495	112,158
113,947	-11,563	241,522	112,204
114,962	-11,426	241,213	112,163
115,976	-11,429	241,059	112,079
116,991	-11,479	240,997	111,999
118,006	-11,664	240,744	111,721
119,020	-11,660	240,686	111,687
120,035	-11,468	240,555	111,773
121,049	-11,267	240,406	111,858
122,064	-11,562	240,172	111,499
123,079	-11,517	239,865	111,382
124,093	-11,349	239,585	111,379
125,108	-11,695	239,344	110,977
126,122	-11,832	239,198	110,788
127,137	-11,876	239,147	110,719
128,151	-11,733	238,769	110,650
129,166	-11,633	238,623	110,653
130,181	-11,894	238,565	110,406
131,195	-11,985	238,313	110,205
132,210	-11,761	238,279	110,361
133,224	-11,515	238,070	110,452
134,239	-11,570	237,894	110,317
135,254	-11,336	237,657	110,385
136,268	-11,782	237,520	109,953
137,283	-11,951	237,220	109,669
138,297	-11,933	236,887	109,519
139,312	-12,030	236,909	109,442
140,327	-11,734	236,662	109,555
141,341	-11,207	236,775	110,020
142,356	-11,213	236,646	109,945
143,370	-11,155	236,461	109,895
144,385	-11,088	236,317	109,872
145,400	-11,122	236,040	109,706
146,414	-11,004	235,852	109,704
147,429	-11,282	235,855	109,473
148,443	-11,196	235,588	109,409
149,458	-11,319	235,351	109,191
150,473	-11,224	235,238	109,205
151,487	-11,142	234,862	109,084
152,502	-11,196	234,856	109,029
153,516	-11,195	234,735	108,965
154,531	-11,275	234,560	108,810
155,546	-11,240	234,235	108,677
156,560	-11,283	234,216	108,625
157,575	-11,461	233,998	108,373
158,589	-11,331	233,774	108,363
159,604	-11,036	233,675	108,539
160,619	-11,036	233,561	108,477
161,633	-11,066	233,313	108,329
162,648	-10,968	233,177	108,333
163,662	-11,100	233,068	108,169
164,677	-11,294	232,884	107,922
165,692	-11,233	232,876	107,955
166,706	-11,170	232,608	107,871
167,721	-10,986	232,499	107,955
168,735	-10,834	232,380	108,010
169,750	-10,962	232,151	107,794
170,764	-10,975	232,066	107,734
171,779	-11,013	231,885	107,611
172,794	-10,930	231,810	107,632
173,808	-11,197	231,440	107,241
174,823	-11,699	231,118	106,692
175,837	-11,813	230,983	106,532
176,852	-11,348	231,034	106,908
177,867	-11,105	230,870	107,011
178,881	-10,981	230,753	107,043
179,896	-10,817	230,467	107,029
180,910	-11,033	230,486	106,860
181,925	-11,031	230,196	106,718
182,940	-11,037	230,110	106,664
183,954	-10,783	230,019	106,809
184,969	-11,199	229,926	106,435
185,983	-10,851	229,710	106,594
186,998	-10,790	229,551	106,558
188,013	-10,987	229,454	106,350
189,027	-10,968	229,181	106,230
190,042	-10,739	229,001	106,313
191,056	-10,850	228,931	106,185
192,071	-10,860	228,736	106,078
193,086	-10,928	228,605	105,956
194,100	-10,867	228,446	105,919
195,115	-11,150	228,056	105,512
196,129	-11,327	228,089	105,382
197,144	-6,346	229,681	109,953
198,159	-0,863	231,390	115,014
199,173	2,283	232,175	117,836
200,188	2,697	232,160	118,139
201,202	2,830	232,051	118,176
202,217	2,988	232,021	118,271
203,232	3,483	231,817	118,540
204,246	3,510	231,744	118,513
205,261	3,352	231,622	118,318
206,275	3,839	231,464	118,603
207,290	3,787	231,309	118,473
208,304	3,783	231,189	118,398
209,319	3,446	230,961	118,011
210,334	3,610	230,770	118,029
211,348	3,388	230,560	117,740
212,363	3,071	230,278	117,342
213,377	2,841	230,072	117,051
214,392	2,766	229,932	116,911
215,407	2,924	229,786	116,948
216,421	2,917	229,820	116,950
217,436	2,879	229,487	116,741
218,450	2,769	229,128	116,463
219,465	2,541	229,127	116,278
220,480	2,660	229,012	116,300
221,494	2,657	228,848	116,205
222,509	2,868	228,941	116,403
223,523	2,854	228,718	116,268
224,538	2,823	228,545	116,146
225,553	2,759	228,298	115,962
226,567	2,991	228,174	116,065
227,582	3,303	228,077	116,241
228,596	3,152	227,934	116,044
229,611	2,966	227,897	115,873
230,626	2,724	227,544	115,501
231,640	2,593	227,444	115,340
232,655	3,060	227,363	115,642
233,669	2,927	227,497	115,600
234,684	3,430	227,314	115,877
235,699	3,258	226,983	115,567
236,713	3,256	226,662	115,393
237,728	2,852	226,637	115,064
238,742	2,649	226,302	114,732
239,757	2,810	226,312	114,847
240,772	2,941	225,903	114,728
241,786	2,771	226,023	114,651
242,801	2,742	225,981	114,597
243,815	3,120	225,974	114,868
244,830	3,397	225,670	114,911
245,844	2,915	225,409	114,407
246,859	3,034	225,210	114,385
247,874	3,133	225,067	114,376
248,888	3,199	225,059	114,411
249,903	2,860	224,979	114,107
250,917	2,829	224,837	114,001
251,932	2,679	224,567	113,742
252,947	2,711	224,315	113,628
253,961	2,666	224,093	113,472
254,976	2,777	224,164	113,580
255,990	2,952	224,062	113,649
257,005	3,014	223,820	113,562
258,020	3,064	223,827	113,593
259,034	3,163	223,639	113,561
260,049	3,165	223,415	113,439
261,063	3,190	223,164	113,319
262,078	3,221	223,127	113,314
263,093	3,469	223,002	113,423
264,107	3,128	222,937	113,128
265,122	3,285	222,753	113,141
266,136	3,469	222,708	113,243
267,151	3,311	222,449	112,985
268,166	2,837	222,250	112,525
269,180	2,856	221,946	112,374
270,195	2,647	221,927	112,201
271,209	2,825	221,572	112,143
272,224	3,032	221,563	112,280
273,239	2,994	221,620	112,271
274,253	2,793	221,435	112,019
275,268	2,793	221,018	111,799
276,282	2,598	220,981	111,627
277,297	2,394	220,951	111,453
278,312	2,715	220,795	111,598
279,326	2,881	220,662	111,643
280,341	2,770	220,644	111,542
281,355	2,941	220,328	111,498
282,370	2,877	220,246	111,400
283,384	2,931	219,977	111,293
284,399	2,653	219,728	110,955
285,414	2,768	219,723	111,026
286,428	2,725	219,879	111,064
287,443	3,132	219,735	111,277
288,457	2,867	219,464	110,937
289,472	2,900	219,199	110,818
290,487	2,335	219,042	110,319
291,501	2,383	218,758	110,201
292,516	2,479	218,607	110,184
293,530	2,513	218,695	110,243
294,545	2,638	218,530	110,241
295,560	2,863	218,461	110,359
296,574	2,865	218,266	110,251
297,589	2,795	218,038	110,077
298,603	3,120	217,946	110,255
299,618	2,742	217,939	109,969
300,633	2,891	217,769	109,980
301,647	3,039	217,719	110,052
302,662	3,045	217,449	109,910
303,676	3,135	217,294	109,886
304,691	3,155	217,183	109,835
305,706	3,079	216,981	109,668
306,720	3,140	216,956	109,689
307,735	2,777	216,718	109,300
308,749	2,810	216,688	109,298
309,764	2,951	216,561	109,325
310,779	3,237	216,328	109,402
311,793	3,028	216,210	109,183
312,808	2,953	216,056	109,043
313,822	3,015	215,904	109,000
314,837	2,742	215,761	108,724
315,852	2,757	215,589	108,638
316,866	2,751	215,499	108,579
317,881	2,905	215,427	108,642
318,895	3,143	215,168	108,671
319,910	2,783	214,971	108,307
320,925	2,515	214,821	108,031
321,939	2,503	214,573	107,888
322,954	2,309	214,612	107,761
323,968	2,834	214,554	108,094
324,983	2,950	214,461	108,120
325,997	3,155	214,331	108,189
327,012	2,745	214,147	107,797
328,027	2,876	213,996	107,804
329,041	3,217	213,891	107,982
330,056	3,013	213,883	107,824
331,070	2,762	213,544	107,468
332,085	2,295	213,317	107,015
333,100	2,359	213,084	106,933
334,114	2,740	213,041	107,170
335,129	3,010	213,059	107,359
336,143	2,920	212,958	107,235
337,158	2,909	212,752	107,114
338,173	3,078	212,604	107,149
339,187	2,829	212,389	106,857
340,202	2,790	212,103	106,676
341,216	2,536	212,125	106,499
342,231	2,866	211,994	106,655
343,246	2,586	211,936	106,421
344,260	2,759	211,806	106,467
345,275	3,050	211,656	106,585
346,289	3,157	211,612	106,628
347,304	2,872	211,545	106,386
348,319	2,778	211,344	106,210
349,333	2,999	211,071	106,217
350,348	2,835	211,052	106,084
351,362	3,053	211,031	106,215
352,377	3,150	210,792	106,153
353,392	3,029	210,575	105,950
354,406	3,112	210,509	105,965
355,421	196,668	1337,359	1417,110
356,435	157,127	1474,622	1417,072
