DTS Sentinel unit serial number:	SN410029Multiplexer serial number:	ORYXHardware model number:	OX2-SRSoftware version number:	ORYX F/W v4,00 Oryx Data Collector v3.7.2.0data status	okinstallation	B6 Nyhavnadifferential loss correction	single-endedforward channel	channel 2reverse channel	N/Adate	2023/12/10time	14:10:08forward acquisition time	300,00reverse acquisition time	0,00gamma	499,1914k internal	0,3122k external	0,3122temperature offset calibration	1,0000default loss term (dB/km)	0,3820temperature slope calibration	1,0000multiplexer offset coefficient	1,0000multiplexer slope coefficient	1,0000fibre end	0,00T internal ref (°C)	22,68T ext. ref 1 (°C)	6,17T ext. ref 2 (°C)	6,18length (m)	temperature (°C)	Stokes	anti-Stokes-744,400	605,933	0,040	-0,076
-743,385	103,294	-0,184	0,161
-742,371	-12,893	0,069	0,033
-741,356	229,730	-0,181	0,220
-740,342	-33,887	0,053	-0,022
-739,327	69,815	-0,269	0,207
-738,312	-200,000	0,019	-0,123
-737,298	-33,808	-0,205	0,084
-736,283	634,820	0,049	0,094
-735,269	-200,000	-0,047	0,333
-734,254	653,177	0,034	-0,066
-733,239	-113,866	-0,390	-0,056
-732,225	-200,000	-0,015	-0,125
-731,210	-139,346	-0,072	-0,006
-730,196	-113,220	-0,167	-0,024
-729,181	311,925	-0,014	-0,020
-728,167	-200,000	0,005	-0,049
-727,152	32,303	-0,118	0,076
-726,137	741,909	0,017	0,034
-725,123	-200,000	-0,010	-0,094
-724,108	45,298	-0,093	-0,063
-723,094	31,093	0,077	0,049
-722,079	800,000	-0,089	-0,196
-721,064	-112,782	0,017	0,002
-720,050	468,885	0,021	0,034
-719,035	-131,786	-0,117	0,011
-718,021	-200,000	0,007	-0,174
-717,006	217,422	-0,043	-0,051
-715,991	-200,000	-0,033	-0,175
-714,977	-167,782	-0,095	-0,003
-713,962	-13,982	0,041	0,020
-712,948	30,748	0,117	0,075
-711,933	274,706	0,024	-0,032
-710,918	326,037	0,051	-0,072
-709,904	51,692	-0,081	-0,057
-708,889	41,991	-0,109	0,073
-707,875	85,428	0,046	-0,037
-706,860	-200,000	-0,014	-0,072
-705,845	-200,000	0,006	-0,035
-704,831	243,392	0,024	0,030
-703,816	-200,000	0,019	-0,106
-702,802	34,323	-0,049	0,032
-701,787	-70,725	-0,062	-0,017
-700,772	121,663	0,055	0,051
-699,758	-200,000	0,008	-0,105
-698,743	76,789	-0,039	0,031
-697,729	-45,733	0,087	0,032
-696,714	245,498	0,024	0,030
-695,699	-200,000	0,016	-0,074
-694,685	-124,027	-0,048	-0,006
-693,670	-200,000	0,024	-0,103
-692,656	-200,000	-0,011	-0,049
-691,641	-200,000	0,011	0,095
-690,627	579,246	0,042	0,076
-689,612	800,000	0,023	0,065
-688,597	-109,474	0,053	-0,008
-687,583	107,156	-0,062	-0,055
-686,568	-200,000	0,002	-0,047
-685,554	-78,470	-0,073	-0,018
-684,539	-200,000	-0,018	0,067
-683,524	-58,803	0,122	-0,039
-682,510	800,000	0,024	-0,077
-681,495	-47,508	-0,051	-0,018
-680,481	160,243	-0,085	0,088
-679,466	-47,565	-0,075	-0,027
-678,451	24,562	-0,047	0,029
-677,437	-200,000	0,002	-0,082
-676,422	-115,052	-0,095	-0,013
-675,408	-85,266	0,024	0,006
-674,393	296,489	0,106	-0,145
-673,378	52,624	-0,115	-0,081
-672,364	428,185	-0,095	-0,153
-671,349	800,000	0,083	0,212
-670,335	800,000	0,043	0,108
-669,320	800,000	-0,016	0,035
-668,305	141,358	0,021	-0,020
-667,291	800,000	-0,029	-0,069
-666,276	800,000	-0,026	-0,057
-665,262	-200,000	0,013	-0,141
-664,247	516,236	-0,027	-0,046
-663,232	800,000	0,034	-0,097
-662,218	800,000	-0,012	0,025
-661,203	223,078	-0,036	-0,043
-660,189	61,843	0,017	-0,013
-659,174	-119,067	-0,163	0,021
-658,159	3,326	-0,013	-0,007
-657,145	54,483	-0,080	-0,057
-656,130	-200,000	0,018	-0,133
-655,116	-200,000	0,019	0,064
-654,101	800,000	-0,016	0,048
-653,086	340,170	-0,053	0,077
-652,072	-200,000	-0,021	0,077
-651,057	736,622	-0,013	-0,025
-650,043	-91,498	0,144	-0,030
-649,028	440,447	-0,067	0,110
-648,014	800,000	0,017	0,055
-646,999	38,820	-0,024	-0,016
-645,984	223,630	-0,125	0,150
-644,970	99,856	0,110	0,095
-643,955	800,000	0,027	0,056
-642,941	15,419	-0,078	-0,045
-641,926	447,256	0,056	-0,092
-640,911	13,571	0,093	0,053
-639,897	-18,353	0,067	0,031
-638,882	-121,795	-0,159	0,019
-637,868	-200,000	-0,008	0,029
-636,853	197,542	-0,034	0,038
-635,838	-102,525	0,028	-0,005
-634,824	-49,569	-0,022	0,008
-633,809	-96,659	0,103	-0,020
-632,795	262,688	0,026	-0,034
-631,780	454,163	-0,030	0,049
-630,765	-141,496	-0,041	0,003
-629,751	271,501	-0,051	0,066
-628,736	7,355	-0,102	-0,056
-627,722	-200,000	0,003	-0,053
-626,707	-110,240	-0,097	0,015
-625,692	281,250	0,069	0,092
-624,678	-200,000	-0,028	0,139
-623,663	-73,296	-0,181	-0,049
-622,649	61,378	-0,085	0,063
-621,634	-73,379	-0,106	-0,028
-620,619	800,000	-0,042	-0,133
-619,605	-200,000	0,004	-0,099
-618,590	48,753	0,109	0,075
-617,576	-40,390	-0,082	0,031
-616,561	-200,000	0,009	0,102
-615,546	56,856	0,101	-0,073
-614,532	69,946	0,089	0,068
-613,517	-47,265	0,117	0,042
-612,503	-60,666	-0,077	-0,024
-611,488	-115,244	-0,116	-0,016
-610,474	69,715	-0,027	0,021
-609,459	-200,000	-0,001	0,114
-608,444	-81,406	-0,055	0,013
-607,430	-200,000	0,038	-0,153
-606,415	-200,000	0,009	0,069
-605,401	-200,000	0,004	0,051
-604,386	-82,189	0,050	0,012
-603,371	55,452	0,074	-0,053
-602,357	417,187	-0,026	-0,042
-601,342	-102,417	-0,016	-0,003
-600,328	60,312	-0,086	0,063
-599,313	256,011	-0,031	-0,040
-598,298	-200,000	0,018	0,171
-597,284	800,000	0,051	-0,111
-596,269	-200,000	-0,018	-0,129
-595,255	562,646	-0,015	0,026
-594,240	74,561	-0,093	0,073
-593,225	39,464	-0,092	-0,061
-592,211	139,614	-0,023	-0,022
-591,196	67,430	-0,102	0,077
-590,182	291,196	0,067	-0,090
-589,167	-91,870	-0,007	-0,001
-588,152	-200,000	0,001	0,175
-587,138	-128,701	0,023	0,002
-586,123	207,043	-0,076	-0,088
-585,109	56,646	-0,066	-0,048
-584,094	-72,472	-0,034	0,009
-583,079	366,837	0,044	-0,066
-582,065	800,000	-0,019	0,046
-581,050	507,787	0,032	0,055
-580,036	-200,000	-0,047	-0,164
-579,021	235,836	-0,082	0,101
-578,006	-131,001	-0,045	0,004
-576,992	8,649	-0,059	-0,033
-575,977	212,537	0,044	0,052
-574,963	179,909	0,059	0,064
-573,948	-200,000	-0,022	0,104
-572,934	800,000	0,020	0,046
-571,919	-111,108	-0,029	0,004
-570,904	724,816	-0,109	-0,217
-569,890	800,000	-0,037	-0,103
-568,875	82,876	0,104	-0,084
-567,861	311,504	0,078	0,109
-566,846	95,330	0,051	0,043
-565,831	-154,413	0,093	0,005
-564,817	-200,000	-0,019	0,143
-563,802	37,728	-0,059	-0,039
-562,788	800,000	-0,005	-0,012
-561,773	-200,000	-0,021	-0,102
-560,758	492,332	0,066	-0,113
-559,744	-25,528	0,033	0,014
-558,729	117,337	-0,063	0,057
-557,715	-183,555	-0,043	-0,001
-556,700	-40,203	-0,103	-0,039
-555,685	151,450	0,038	0,038
-554,671	165,464	-0,082	0,086
-553,656	800,000	-0,017	-0,044
-552,642	-200,000	0,014	-0,060
-551,627	-200,000	0,005	-0,040
-550,612	156,644	0,076	-0,078
-549,598	800,000	-0,029	-0,087
-548,583	-200,000	-0,001	-0,089
-547,569	-200,000	0,009	0,115
-546,554	155,029	0,077	-0,079
-545,539	-76,573	-0,013	-0,003
-544,525	-161,468	-0,119	-0,004
-543,510	-200,000	-0,005	0,031
-542,496	161,564	-0,018	0,019
-541,481	-200,000	0,005	0,032
-540,466	447,555	0,095	-0,155
-539,452	680,477	-0,023	-0,045
-538,437	167,632	-0,049	0,052
-537,423	-200,000	0,014	-0,060
-536,408	664,569	-0,013	0,025
-535,393	68,500	-0,052	0,040
-534,379	22,479	0,055	-0,033
-533,364	-200,000	0,013	-0,114
-532,350	231,572	-0,020	0,024
-531,335	-115,689	0,031	0,004
-530,321	-102,409	0,066	0,012
-529,306	-113,999	0,141	-0,020
-528,291	14,200	-0,107	0,061
-527,277	800,000	-0,061	-0,131
-526,262	800,000	0,029	-0,067
-525,248	514,286	-0,086	-0,150
-524,233	-48,010	0,048	-0,017
-523,218	-143,080	0,171	0,012
-522,204	-200,000	0,010	0,235
-521,189	800,000	-0,082	-0,188
-520,175	260,513	-0,055	-0,070
-519,160	-56,490	-0,061	0,020
-518,145	800,000	0,073	0,162
-517,131	572,403	-0,040	-0,073
-516,116	-200,000	0,034	-0,122
-515,102	-148,610	0,147	-0,009
-514,087	-200,000	-0,001	0,035
-513,072	-200,000	-0,000	-0,117
-512,058	800,000	0,024	-0,068
-511,043	153,967	-0,064	0,065
-510,029	-17,344	0,102	0,047
-509,014	354,659	-0,067	0,099
-507,999	-200,000	0,029	0,201
-506,985	-67,517	-0,149	0,043
-505,970	316,873	0,015	0,021
-504,956	79,009	0,040	0,032
-503,941	-182,261	0,150	0,002
-502,926	-200,000	0,039	-0,157
-501,912	87,828	0,063	0,051
-500,897	564,150	-0,055	0,099
-499,883	-200,000	0,015	0,176
-498,868	-200,000	0,021	-0,148
-497,853	105,809	-0,052	-0,045
-496,839	-200,000	0,024	-0,150
-495,824	800,000	0,012	-0,027
-494,810	243,127	0,047	-0,059
-493,795	37,044	0,064	-0,041
-492,781	368,328	0,066	-0,099
-491,766	-172,911	0,098	-0,002
-490,751	-20,733	-0,071	-0,032
-489,737	358,987	-0,012	-0,018
-488,722	-19,209	-0,008	-0,003
-487,708	-200,000	-0,020	-0,071
-486,693	-200,000	-0,016	0,097
-485,678	-56,537	0,068	0,022
-484,664	-38,277	-0,115	-0,045
-483,649	-58,539	-0,076	0,024
-482,635	215,065	-0,023	-0,027
-481,620	-200,000	-0,038	0,130
-480,605	177,111	0,136	0,146
-479,591	-13,440	0,034	0,016
-478,576	-154,388	-0,049	-0,002
-477,562	143,759	-0,084	-0,082
-476,547	152,622	-0,074	-0,075
-475,532	192,145	0,086	-0,096
-474,518	-69,305	0,035	0,010
-473,503	73,770	0,053	0,041
-472,489	26,149	-0,059	0,036
-471,474	800,000	-0,051	0,137
-470,459	27,028	-0,059	0,036
-469,445	29,307	-0,053	0,033
-468,430	148,332	-0,025	0,025
-467,416	-84,075	-0,119	0,028
-466,401	206,580	0,087	0,100
-465,386	-110,748	0,071	-0,011
-464,372	124,904	0,090	-0,084
-463,357	-200,000	-0,003	0,056
-462,343	-200,000	-0,012	-0,070
-461,328	-200,000	0,014	-0,137
-460,313	147,471	0,052	0,051
-459,299	-142,036	-0,064	0,005
-458,284	-67,046	0,065	0,019
-457,270	270,145	-0,060	-0,078
-456,255	-162,641	-0,103	-0,004
-455,241	139,597	-0,069	-0,067
-454,226	-25,907	-0,104	-0,045
-453,211	289,164	0,033	-0,044
-452,197	-77,104	-0,083	-0,021
-451,182	106,755	0,101	0,089
-450,168	-123,544	-0,133	0,015
-449,153	-200,000	0,000	0,060
-448,138	-200,000	0,012	-0,042
-447,124	800,000	0,063	-0,175
-446,109	-200,000	-0,004	-0,033
-445,095	114,858	-0,036	-0,032
-444,080	-200,000	0,021	-0,073
-443,065	20,447	-0,086	-0,051
-442,051	557,915	-0,076	0,136
-441,036	-126,465	0,054	0,006
-440,022	800,000	-0,066	0,212
-439,007	74,881	-0,021	-0,017
-437,992	390,735	0,038	0,059
-436,978	5,724	-0,107	0,058
-435,963	-200,000	-0,032	0,114
-434,949	207,175	0,064	0,074
-433,934	-200,000	0,006	0,066
-432,919	-68,166	-0,096	-0,027
-431,905	157,348	-0,065	-0,066
-430,890	593,980	0,046	0,084
-429,876	19,797	0,078	-0,046
-428,861	20,134	0,055	-0,033
-427,846	-200,000	0,009	-0,081
-426,832	271,844	0,075	0,097
-425,817	235,821	-0,035	0,042
-424,803	-200,000	0,004	-0,109
-423,788	-200,000	0,016	-0,071
-422,773	-42,450	0,064	0,024
-421,759	-76,002	0,133	-0,034
-420,744	95,544	-0,078	0,066
-419,730	-200,000	-0,018	-0,059
-418,715	800,000	-0,011	0,027
-417,701	-111,563	0,115	0,017
-416,686	405,050	-0,034	0,053
-415,671	-190,110	0,096	0,001
-414,657	-200,000	0,008	0,049
-413,642	135,425	-0,056	0,053
-412,628	-200,000	0,004	-0,059
-411,613	-200,000	0,006	-0,038
-410,598	37,600	-0,080	-0,052
-409,584	-115,352	-0,102	0,014
-408,569	-51,378	0,126	0,043
-407,555	-168,758	0,138	-0,004
-406,540	548,340	0,061	0,108
-405,525	-200,000	0,013	-0,044
-404,511	800,000	0,067	-0,168
-403,496	-137,051	-0,161	-0,013
-402,482	173,851	-0,036	0,038
-401,467	-73,161	0,079	-0,021
-400,452	-41,099	0,143	0,054
-399,438	639,615	-0,089	0,167
-398,423	-200,000	0,017	-0,085
-397,409	-148,114	0,030	-0,002
-396,394	-94,092	-0,076	-0,015
-395,379	54,433	0,154	-0,109
-394,365	76,097	-0,092	-0,071
-393,350	89,805	0,023	0,019
-392,336	-98,630	0,014	-0,003
-391,321	-200,000	-0,011	0,052
-390,306	179,481	-0,042	-0,046
-389,292	-135,611	0,111	-0,010
-388,277	800,000	0,043	0,105
-387,263	40,827	0,023	0,015
-386,248	-29,074	0,028	0,012
-385,233	0,800	0,137	0,072
-384,219	106,218	-0,116	-0,101
-383,204	800,000	-0,026	-0,060
-382,190	-21,021	-0,135	0,060
-381,175	381,166	-0,034	0,051
-380,160	-59,147	0,091	-0,029
-379,146	-200,000	0,001	0,138
-378,131	70,202	-0,067	0,050
-377,117	-200,000	-0,009	0,076
-376,102	196,045	-0,044	-0,049
-375,088	-72,498	0,102	-0,028
-374,073	-111,702	-0,151	0,022
-373,058	-18,231	0,022	-0,010
-372,044	-200,000	-0,026	0,086
-371,029	485,650	0,054	0,090
-370,015	264,843	0,045	0,058
-369,000	24,629	-0,147	-0,089
-367,985	-5,545	-0,062	0,031
-366,971	-200,000	0,005	-0,148
-365,956	800,000	0,025	0,065
-364,942	-200,000	0,043	0,146
-363,927	-54,296	0,138	0,046
-362,912	-200,000	0,010	0,094
-361,898	-200,000	0,002	-0,019
-360,883	-104,735	0,136	0,023
-359,869	-150,783	0,123	-0,007
-358,854	-200,000	-0,010	-0,135
-357,839	-58,760	0,094	-0,030
-356,825	-157,688	0,030	-0,001
-355,810	322,349	-0,095	-0,133
-354,796	-200,000	-0,005	0,020
-353,781	18,062	0,022	-0,013
-352,766	-133,369	0,105	0,010
-351,752	-200,000	-0,024	-0,110
-350,737	73,366	0,140	-0,107
-349,723	-200,000	-0,007	0,026
-348,708	431,815	0,022	-0,035
-347,693	800,000	0,031	-0,082
-346,679	-200,000	-0,002	0,034
-345,664	273,036	-0,014	0,018
-344,650	633,367	-0,055	-0,103
-343,635	-85,087	0,048	-0,011
-342,620	121,735	-0,079	-0,073
-341,606	-200,000	0,000	0,059
-340,591	-34,710	-0,083	-0,033
-339,577	75,069	-0,011	0,009
-338,562	-77,633	0,116	-0,029
-337,548	800,000	-0,015	-0,038
-336,533	45,350	0,037	-0,025
-335,518	800,000	-0,015	0,042
-334,504	-169,062	0,121	-0,003
-333,489	-98,756	-0,106	0,020
-332,475	-169,139	-0,122	0,003
-331,460	-82,228	-0,073	-0,017
-330,445	-200,000	0,011	0,042
-329,431	-2,957	0,103	0,052
-328,416	-15,118	0,084	0,039
-327,402	-109,754	0,090	0,014
-326,387	-158,384	-0,116	-0,005
-325,372	-113,645	0,054	-0,008
-324,358	800,000	-0,003	-0,009
-323,343	-78,462	-0,148	-0,037
-322,329	-200,000	0,006	0,052
-321,314	-140,416	0,078	0,006
-320,299	455,061	0,034	0,056
-319,285	-200,000	0,026	0,122
-318,270	-52,915	-0,115	0,038
-317,256	521,896	0,062	-0,108
-316,241	-114,368	0,012	0,002
-315,226	264,627	-0,042	-0,054
-314,212	-200,000	-0,008	0,105
-313,197	-200,000	-0,013	-0,049
-312,183	174,716	-0,023	0,024
-311,168	72,282	0,013	-0,010
-310,153	252,131	-0,116	-0,145
-309,139	59,371	-0,138	-0,100
-308,124	-107,352	0,135	-0,022
-307,110	-22,011	0,148	-0,065
-306,095	-18,961	0,057	-0,026
-305,080	136,982	-0,111	0,106
-304,066	800,000	-0,041	0,086
-303,051	-183,355	-0,072	-0,001
-302,037	92,714	0,139	-0,115
-301,022	152,998	0,076	-0,077
-300,008	800,000	-0,074	-0,163
-298,993	577,541	0,085	-0,152
-297,978	-200,000	0,015	0,134
-296,964	5,743	-0,126	-0,068
-295,949	800,000	-0,041	0,111
-294,935	-134,062	-0,152	0,014
-293,920	800,000	-0,014	-0,029
-292,905	39,902	0,123	0,081
-291,891	293,934	0,040	0,054
-290,876	-200,000	0,035	-0,124
-289,862	-128,138	0,041	-0,004
-288,847	-17,138	0,036	-0,017
-287,832	800,000	0,016	0,051
-286,818	390,037	-0,042	-0,064
-285,803	-60,057	0,060	0,019
-284,789	692,697	0,041	-0,079
-283,774	-58,726	0,079	0,025
-282,759	93,009	0,047	0,039
-281,745	14,120	0,018	-0,010
-280,730	-200,000	0,021	0,099
-279,716	2,873	0,101	0,054
-278,701	-116,827	0,073	0,010
-277,686	107,919	0,012	-0,010
-276,672	133,695	-0,046	-0,044
-275,657	-200,000	-0,042	-0,149
-274,643	223,829	-0,035	0,041
-273,628	-200,000	-0,003	-0,069
-272,613	92,171	-0,025	0,020
-271,599	115,643	0,043	-0,039
-270,584	55,282	-0,119	0,084
-269,570	17,880	0,118	-0,069
-268,555	-130,618	0,103	0,010
-267,540	-29,574	-0,034	-0,014
-266,526	396,709	-0,060	-0,092
-265,511	-46,623	-0,087	-0,031
-264,497	68,928	0,040	-0,030
-263,482	800,000	0,043	0,106
-262,467	-200,000	0,019	0,190
-261,453	23,764	-0,077	-0,046
-260,438	-200,000	0,017	-0,109
-259,424	-9,309	-0,125	-0,061
-258,409	9,770	-0,097	-0,054
-257,395	800,000	0,039	0,108
-256,380	-200,000	0,017	0,105
-255,365	-124,947	0,132	0,015
-254,351	-115,691	0,060	0,008
-253,336	192,097	-0,161	0,178
-252,322	-200,000	-0,009	0,106
-251,307	317,463	-0,038	-0,052
-250,292	223,330	-0,028	0,033
-249,278	38,217	-0,038	0,024
-248,263	-104,953	0,042	-0,007
-247,249	-200,000	0,004	-0,045
-246,234	0,221	0,109	-0,057
-245,219	-200,000	-0,004	-0,026
-244,205	-200,000	0,032	0,000
-243,190	-99,666	0,094	0,017
-242,176	44,250	0,157	0,105
-241,161	800,000	0,039	0,123
-240,146	-152,741	0,118	0,006
-239,132	-42,167	-0,072	0,027
-238,117	800,000	-0,028	0,063
-237,103	177,706	0,042	-0,045
-236,088	58,304	-0,023	0,017
-235,073	149,138	0,002	-0,002
-234,059	-200,000	-0,005	0,150
-233,044	-91,931	0,046	0,009
-232,030	-200,000	0,047	0,153
-231,015	800,000	-0,060	-0,138
-230,000	-40,346	0,035	0,013
-228,986	800,000	-0,044	-0,100
-227,971	-100,101	0,106	0,019
-226,957	220,423	0,029	0,034
-225,942	225,220	-0,083	0,098
-224,927	800,000	-0,035	0,108
-223,913	-200,000	-0,049	0,174
-222,898	-200,000	-0,049	-0,173
-221,884	-87,336	0,029	-0,006
-220,869	-144,191	0,164	-0,011
-219,855	9,937	0,018	0,010
-218,840	-89,263	0,120	-0,026
-217,825	305,860	-0,039	-0,053
-216,811	-28,354	-0,106	0,044
-215,796	-200,000	0,002	-0,056
-214,782	61,391	0,056	-0,041
-213,767	7,430	-0,030	0,016
-212,752	446,033	0,074	-0,119
-211,738	170,073	0,043	-0,045
-210,723	-200,000	-0,013	0,065
-209,709	41,372	0,102	-0,067
-208,694	33,400	0,074	0,047
-207,679	-87,196	-0,083	-0,018
-206,665	-30,914	0,086	0,035
-205,650	800,000	0,059	-0,133
-204,636	295,581	0,068	0,091
-203,621	579,330	0,057	0,102
-202,606	-44,183	-0,079	0,029
-201,592	-200,000	0,023	-0,189
-200,577	-100,771	0,116	-0,021
-199,563	-200,000	0,007	0,054
-198,548	5,642	-0,088	0,047
-197,533	286,566	0,052	0,069
-196,519	-200,000	0,004	0,037
-195,504	128,023	0,125	-0,116
-194,490	127,508	-0,038	-0,036
-193,475	-200,000	-0,020	-0,166
-192,460	-200,000	-0,016	-0,084
-191,446	144,436	0,013	-0,012
-190,431	-200,000	0,010	0,062
-189,417	118,158	0,032	0,029
-188,402	-200,000	-0,015	-0,098
-187,387	-177,543	-0,116	0,002
-186,373	-105,608	0,034	0,006
-185,358	800,000	-0,050	0,101
-184,344	-174,417	0,068	-0,001
-183,329	14,864	-0,192	0,109
-182,315	-200,000	-0,034	0,124
-181,300	306,030	0,050	0,067
-180,285	-8,764	-0,025	0,012
-179,271	-96,525	-0,094	-0,018
-178,256	37,122	-0,078	-0,050
-177,242	581,235	-0,051	-0,092
-176,227	96,893	-0,064	-0,053
-175,212	182,405	-0,023	-0,025
-174,198	-10,779	0,091	-0,044
-173,183	800,000	0,041	-0,100
-172,169	-200,000	-0,002	-0,012
-171,154	361,710	-0,027	0,040
-170,139	115,943	-0,088	-0,079
-169,125	-200,000	-0,014	-0,048
-168,110	572,757	0,040	0,071
-167,096	-200,000	0,025	0,086
-166,081	-200,000	0,016	0,162
-165,066	419,461	0,106	-0,166
-164,052	421,863	-0,048	-0,076
-163,037	35,411	-0,104	0,067
-162,023	-111,337	0,102	0,015
-161,008	142,442	-0,083	-0,080
-159,993	673,744	-0,043	0,081
-158,979	-75,963	-0,123	0,032
-157,964	-86,430	-0,045	-0,010
-156,950	60,513	-0,072	0,052
-155,935	-200,000	-0,025	-0,084
-154,920	200,241	-0,072	-0,081
-153,906	800,000	-0,032	0,065
-152,891	-163,234	-0,083	-0,003
-151,877	222,406	0,077	0,091
-150,862	-200,000	-0,026	-0,229
-149,847	-200,000	0,031	-0,115
-148,833	-106,383	0,150	-0,024
-147,818	452,740	0,021	0,034
-146,804	800,000	-0,041	-0,086
-145,789	800,000	0,009	0,025
-144,775	800,000	-0,069	0,218
-143,760	123,303	-0,070	0,064
-142,745	800,000	-0,047	-0,135
-141,731	466,580	0,085	-0,139
-140,716	-128,835	0,111	0,011
-139,702	-200,000	0,018	0,161
-138,687	-90,702	-0,007	-0,001
-137,672	-29,434	0,117	-0,049
-136,658	92,675	-0,017	-0,014
-135,643	-200,000	0,029	0,143
-134,629	-200,000	-0,007	-0,085
-133,614	278,522	-0,038	0,049
-132,599	388,240	0,138	0,209
-131,585	-183,917	0,037	0,000
-130,570	-200,000	-0,018	0,159
-129,556	-153,250	-0,095	0,005
-128,541	800,000	0,003	0,009
-127,526	800,000	-0,043	-0,091
-126,512	445,008	-0,062	0,099
-125,497	-200,000	0,055	0,213
-124,483	-167,204	-0,160	0,005
-123,468	203,554	-0,016	-0,018
-122,453	-96,385	0,184	-0,035
-121,439	-49,707	-0,148	0,051
-120,424	-200,000	-0,004	-0,061
-119,410	-83,647	-0,127	0,029
-118,395	800,000	0,035	0,101
-117,380	267,081	0,035	0,045
-116,366	16,747	0,023	-0,013
-115,351	-200,000	-0,002	0,095
-114,337	218,638	-0,013	0,015
-113,322	344,570	0,049	0,070
-112,307	-200,000	-0,007	-0,050
-111,293	-200,000	-0,001	0,088
-110,278	-200,000	0,040	0,192
-109,264	-130,892	0,170	0,016
-108,249	-13,844	-0,123	-0,058
-107,234	-200,000	0,020	0,065
-106,220	-173,403	-0,069	0,001
-105,205	800,000	-0,019	-0,041
-104,191	-143,900	-0,060	0,004
-103,176	33,959	0,113	0,071
-102,162	-200,000	-0,031	0,117
-101,147	-107,867	0,098	0,015
-100,132	-51,592	-0,127	-0,043
-99,118	-200,000	0,026	-0,104
-98,103	186,787	0,038	0,041
-97,089	-49,642	0,055	0,019
-96,074	-200,000	-0,004	0,153
-95,059	11,788	-0,108	0,060
-94,045	-200,000	-0,020	0,070
-93,030	591,359	0,074	0,132
-92,016	-200,000	0,002	0,086
-91,001	-54,854	-0,035	-0,012
-89,986	52,435	-0,108	0,074
-88,972	-96,153	0,080	0,015
-87,957	800,000	0,047	0,096
-86,943	-149,283	-0,189	-0,011
-85,928	-200,000	-0,014	-0,233
-84,913	-96,896	0,015	0,003
-83,899	335,009	-0,059	0,083
-82,884	77,798	0,052	0,040
-81,870	-200,000	0,015	0,069
-80,855	-74,611	-0,063	0,016
-79,840	-200,000	0,000	-0,067
-78,826	-41,665	-0,075	0,028
-77,811	-200,000	-0,002	-0,023
-76,797	358,725	0,091	-0,132
-75,782	6,245	-0,126	0,067
-74,767	800,000	0,039	0,090
-73,753	606,629	0,031	0,056
-72,738	-200,000	-0,012	-0,139
-71,724	788,466	-0,051	-0,101
-70,709	2,153	-0,049	-0,026
-69,694	347,500	-0,063	0,090
-68,680	-129,342	-0,125	0,012
-67,665	42,145	-0,152	0,100
-66,651	-62,472	0,110	-0,033
-65,636	269,822	-0,048	0,062
-64,622	-54,141	-0,029	-0,009
-63,607	42,493	-0,051	0,033
-62,592	14,505	-0,030	0,017
-61,578	76,010	-0,085	0,065
-60,563	93,912	0,160	0,131
-59,549	144,522	-0,098	0,095
-58,534	-138,740	-1,310	-0,102
-57,519	396,453	-0,925	-1,407
-56,505	-200,000	-0,915	-4,419
-55,490	48,119	0,579	-0,392
-54,476	800,000	5,013	11,879
-53,461	-200,000	13,424	253,139
-52,446	-200,000	688,295	2271,840
-51,432	598,415	1622,816	2932,642
-50,417	121,043	1636,884	1478,289
-49,403	73,722	1290,927	980,840
-48,388	38,479	1025,529	662,131
-47,373	24,613	982,882	588,957
-46,359	23,797	972,701	580,153
-45,344	22,953	968,336	574,765
-44,330	22,789	966,971	573,397
-43,315	22,765	965,596	572,482
-42,300	22,687	964,599	571,613
-41,286	22,660	963,684	570,961
-40,271	22,679	962,775	570,460
-39,257	22,694	961,619	569,802
-38,242	22,695	960,740	569,261
-37,227	22,683	959,933	568,721
-36,213	22,634	959,116	568,056
-35,198	22,643	958,373	567,623
-34,184	22,710	957,662	567,396
-33,169	22,677	956,484	566,569
-32,154	22,758	955,527	566,243
-31,140	22,817	954,651	565,891
-30,125	22,760	954,087	565,349
-29,111	22,691	953,337	564,659
-28,096	22,667	952,718	564,194
-27,082	22,729	951,849	563,855
-26,067	22,756	951,137	563,499
-25,052	22,701	950,339	562,828
-24,038	22,731	949,661	562,500
-23,023	22,636	949,148	561,870
-22,009	22,766	948,360	561,797
-20,994	22,768	947,822	561,463
-19,979	22,691	947,405	560,947
-18,965	22,715	946,661	560,561
-17,950	22,775	945,996	560,334
-16,936	22,679	945,204	559,537
-15,921	22,668	944,605	559,126
-14,906	22,591	943,930	558,459
-13,892	22,594	943,333	558,093
-12,877	22,518	942,718	557,464
-11,863	22,592	941,968	557,234
-10,848	22,644	941,414	557,051
-9,833	22,698	940,840	556,861
-8,819	22,642	940,467	556,439
-7,804	22,636	939,703	555,947
-6,790	22,595	939,128	555,454
-5,775	22,660	938,545	555,293
-4,760	22,642	937,920	554,845
-3,746	22,617	937,351	554,406
-2,731	22,430	936,772	553,452
-1,717	22,454	935,848	552,960
-0,702	22,433	935,177	552,473
0,313	22,153	934,636	552,106
1,327	25,432	932,432	561,074
2,342	35,148	796,986	505,472
3,356	33,271	451,887	283,746
4,371	2,007	293,400	153,085
5,386	-2,585	274,325	138,780
6,400	-4,114	268,478	134,393
7,415	-4,671	266,011	132,636
8,429	-4,393	264,781	132,264
9,444	-4,416	264,011	131,847
10,459	-4,361	263,264	131,512
11,473	-4,378	262,711	131,208
12,488	-4,534	262,293	130,846
13,502	-4,704	261,818	130,445
14,517	-4,613	261,416	130,315
15,531	-4,411	260,919	130,237
16,546	-4,456	260,730	130,090
17,561	-4,323	260,299	129,984
18,575	-4,373	260,011	129,783
19,590	-4,550	259,679	129,447
20,604	-4,315	259,458	129,536
21,619	-4,391	258,995	129,226
22,634	-4,406	258,578	128,992
23,648	-4,492	258,315	128,773
24,663	-4,342	258,064	128,770
25,677	-4,379	257,873	128,631
26,692	-4,394	257,692	128,515
27,707	-4,336	257,357	128,389
28,721	-4,409	257,046	128,158
29,736	-4,499	256,853	127,970
30,750	-4,443	256,497	127,830
31,765	-4,632	256,432	127,619
32,780	-4,411	256,035	127,605
33,794	-4,541	255,909	127,417
34,809	-4,486	255,698	127,349
35,823	-4,477	255,321	127,158
36,838	-4,547	255,152	127,001
37,853	-4,559	254,990	126,898
38,867	-4,730	254,765	126,624
39,882	-4,401	254,579	126,810
40,896	-4,532	254,284	126,536
41,911	-4,526	253,945	126,362
42,926	-4,563	253,821	126,257
43,940	-4,610	253,618	126,103
44,955	-4,437	253,364	126,116
45,969	-4,589	253,115	125,849
46,984	-4,848	252,966	125,538
47,999	-4,859	252,653	125,362
49,013	-5,120	252,459	125,028
50,028	-5,269	252,107	124,714
51,042	-5,256	251,956	124,638
52,057	-5,252	251,709	124,509
53,071	-5,049	251,544	124,592
54,086	-5,203	251,273	124,313
55,101	-5,014	251,070	124,365
56,115	-4,798	251,033	124,522
57,130	-4,446	250,897	124,747
58,144	-4,349	250,942	124,842
59,159	-4,354	250,671	124,692
60,174	-4,221	250,420	124,671
61,188	-4,442	250,187	124,353
62,203	-4,378	249,926	124,267
63,217	-4,423	249,637	124,073
64,232	-4,221	249,528	124,182
65,247	-4,573	249,522	123,866
66,261	-4,388	249,193	123,850
67,276	-4,587	248,892	123,519
68,290	-4,841	248,471	123,083
69,305	-4,697	248,378	123,148
70,320	-4,770	248,052	122,913
71,334	-4,615	248,121	123,069
72,349	-4,362	247,930	123,179
73,363	-4,404	247,832	123,084
74,378	-4,202	247,561	123,109
75,393	-4,451	247,344	122,779
76,407	-4,242	246,998	122,773
77,422	-4,483	246,910	122,515
78,436	-4,224	246,671	122,604
79,451	-4,212	246,361	122,450
80,466	-4,319	246,330	122,332
81,480	-4,534	246,108	122,030
82,495	-4,781	245,884	121,700
83,509	-4,568	245,759	121,806
84,524	-4,635	245,419	121,570
85,539	-4,807	245,327	121,370
86,553	-4,685	245,021	121,310
87,568	-4,608	244,913	121,310
88,582	-4,489	244,655	121,271
89,597	-4,671	244,490	121,026
90,611	-4,676	244,504	121,018
91,626	-4,462	244,203	121,037
92,641	-4,377	244,136	121,065
93,655	-4,625	243,937	120,748
94,670	-4,620	243,727	120,637
95,684	-4,642	243,392	120,443
96,699	-4,738	243,456	120,384
97,714	-4,775	243,281	120,255
98,728	-4,712	242,958	120,137
99,743	-4,973	242,798	119,831
100,757	-4,866	242,513	119,768
101,772	-4,902	242,345	119,645
102,787	-4,824	242,201	119,627
103,801	-4,910	242,094	119,493
104,816	-4,598	241,979	119,683
105,830	-4,504	241,886	119,705
106,845	-4,602	241,647	119,495
107,860	-4,429	241,303	119,457
108,874	-4,732	241,066	119,079
109,889	-4,759	240,987	119,007
110,903	-4,605	240,794	119,028
111,918	-4,788	240,537	118,740
112,933	-4,691	240,390	118,736
113,947	-4,474	240,242	118,831
114,962	-4,683	240,137	118,597
115,976	-4,559	239,937	118,589
116,991	-4,698	239,781	118,388
118,006	-4,514	239,614	118,446
119,020	-4,678	239,428	118,208
120,035	-4,285	239,305	118,459
121,049	-4,484	239,240	118,254
122,064	-4,293	238,860	118,211
123,079	-4,562	238,723	117,913
124,093	-4,650	238,500	117,721
125,108	-4,768	238,477	117,603
126,122	-5,016	238,157	117,233
127,137	-4,905	237,825	117,148
128,151	-4,934	237,746	117,076
129,166	-4,685	237,653	117,222
130,181	-4,838	237,297	116,912
131,195	-4,873	237,220	116,835
132,210	-4,800	237,045	116,797
133,224	-4,480	236,952	117,000
134,239	-4,661	236,868	116,802
135,254	-4,607	236,661	116,733
136,268	-4,732	236,390	116,488
137,283	-4,683	236,102	116,375
138,297	-5,105	235,967	115,959
139,312	-4,995	235,784	115,946
140,327	-4,653	235,724	116,182
141,341	-4,245	235,713	116,494
142,356	-4,143	235,565	116,493
143,370	-4,338	235,471	116,279
144,385	-4,307	235,374	116,246
145,400	-4,183	235,047	116,173
146,414	-4,419	234,907	115,905
147,429	-4,173	234,666	115,973
148,443	-4,069	234,493	115,960
149,458	-4,323	234,446	115,723
150,473	-4,317	234,325	115,658
151,487	-4,193	234,090	115,631
152,502	-4,188	233,909	115,535
153,516	-4,094	233,788	115,540
154,531	-4,272	233,415	115,203
155,546	-4,207	233,224	115,151
156,560	-4,362	233,088	114,949
157,575	-4,204	232,853	114,949
158,589	-4,345	232,955	114,877
159,604	-4,111	232,576	114,866
160,619	-4,134	232,588	114,844
161,633	-4,124	232,499	114,797
162,648	-4,027	232,344	114,787
163,662	-4,299	232,181	114,481
164,677	-4,280	231,863	114,329
165,692	-4,228	231,738	114,298
166,706	-3,975	231,684	114,461
167,721	-4,113	231,426	114,214
168,735	-3,908	231,336	114,322
169,750	-4,231	231,333	114,055
170,764	-4,227	231,118	113,942
171,779	-4,309	230,830	113,726
172,794	-4,199	230,787	113,781
173,808	-4,407	230,670	113,550
174,823	-4,582	230,260	113,201
175,837	-4,712	229,991	112,957
176,852	-4,268	229,949	113,273
177,867	-4,181	230,007	113,360
178,881	-4,062	229,720	113,301
179,896	-4,254	229,690	113,126
180,910	-4,247	229,557	113,056
181,925	-4,055	229,205	113,022
182,940	-3,917	229,069	113,053
183,954	-4,018	229,139	112,999
184,969	-4,135	229,006	112,832
185,983	-3,964	228,791	112,849
186,998	-3,868	228,667	112,852
188,013	-3,836	228,445	112,758
189,027	-4,124	228,388	112,496
190,042	-4,048	228,186	112,445
191,056	-4,068	228,071	112,363
192,071	-3,900	227,762	112,331
193,086	-4,001	227,607	112,166
194,100	-4,207	227,375	111,883
195,115	-4,460	227,172	111,578
196,129	-5,490	226,761	110,572
197,144	-2,245	227,850	113,603
198,159	2,140	229,037	117,586
199,173	4,130	229,375	119,292
200,188	4,212	229,384	119,349
201,202	4,309	229,215	119,326
202,217	4,481	229,099	119,388
203,232	4,735	228,904	119,472
204,246	4,809	228,864	119,497
205,261	4,907	228,686	119,469
206,275	5,008	228,685	119,536
207,290	4,788	228,553	119,286
208,304	5,078	228,315	119,375
209,319	5,088	228,166	119,294
210,334	4,852	228,037	119,034
211,348	4,733	227,661	118,736
212,363	4,491	227,438	118,424
213,377	4,053	227,294	118,002
214,392	4,040	227,162	117,913
215,407	4,211	226,920	117,908
216,421	4,246	227,010	117,971
217,436	4,205	226,695	117,766
218,450	3,879	226,533	117,422
219,465	3,872	226,218	117,243
220,480	3,780	226,272	117,191
221,494	3,982	226,026	117,207
222,509	4,318	225,931	117,402
223,523	4,190	225,646	117,147
224,538	4,044	225,584	116,993
225,553	4,214	225,424	117,029
226,567	4,225	225,468	117,049
227,582	4,293	225,461	117,087
228,596	4,502	225,196	117,097
229,611	4,051	225,034	116,661
230,626	3,798	224,718	116,295
231,640	4,005	224,555	116,357
232,655	4,403	224,465	116,601
233,669	4,522	224,534	116,716
234,684	4,534	224,419	116,655
235,699	4,656	223,982	116,510
236,713	4,409	223,865	116,253
237,728	4,014	223,644	115,830
238,742	3,995	223,538	115,750
239,757	3,959	223,439	115,662
240,772	4,029	223,273	115,618
241,786	4,109	223,137	115,597
242,801	4,173	223,079	115,605
243,815	4,357	222,883	115,631
244,830	4,597	222,845	115,781
245,844	4,003	222,655	115,227
246,859	4,290	222,505	115,355
247,874	4,521	222,299	115,410
248,888	4,433	222,243	115,305
249,903	4,371	222,007	115,125
250,917	4,069	221,869	114,818
251,932	3,984	221,732	114,674
252,947	3,994	221,423	114,512
253,961	3,968	221,438	114,490
254,976	4,240	221,065	114,489
255,990	4,149	221,225	114,493
257,005	4,202	221,105	114,460
258,020	4,271	220,957	114,425
259,034	4,458	220,716	114,428
260,049	4,568	220,501	114,389
261,063	4,458	220,489	114,290
262,078	4,397	220,332	114,153
263,093	4,612	220,189	114,228
264,107	4,664	219,992	114,154
265,122	4,246	220,056	113,869
266,136	4,460	220,098	114,038
267,151	4,674	219,821	114,043
268,166	4,025	219,621	113,450
269,180	3,830	219,233	113,096
270,195	4,132	219,032	113,205
271,209	3,872	218,994	112,984
272,224	4,022	218,893	113,032
273,239	4,191	218,897	113,148
274,253	4,065	218,485	112,832
275,268	3,887	218,327	112,611
276,282	3,866	218,130	112,483
277,297	3,810	217,998	112,364
278,312	3,796	217,863	112,274
279,326	4,061	217,725	112,387
280,341	4,075	217,769	112,410
281,355	4,200	217,579	112,393
282,370	4,030	217,447	112,191
283,384	3,806	217,279	111,931
284,399	3,896	217,046	111,867
285,414	3,697	217,019	111,697
286,428	3,968	216,901	111,824
287,443	4,245	216,801	111,964
288,457	4,202	216,640	111,839
289,472	4,400	216,493	111,897
290,487	3,686	216,195	111,216
291,501	3,365	216,225	110,988
292,516	3,772	215,838	111,074
293,530	3,852	215,853	111,130
294,545	3,905	215,787	111,124
295,560	3,933	215,570	111,023
296,574	4,313	215,488	111,245
297,589	3,969	215,510	110,999
298,603	4,056	215,174	110,878
299,618	4,157	215,085	110,895
300,633	3,939	214,954	110,661
301,647	4,202	214,980	110,853
302,662	4,364	214,807	110,871
303,676	4,199	214,817	110,748
304,691	4,194	214,573	110,608
305,706	4,128	214,454	110,490
306,720	4,416	214,134	110,521
307,735	4,111	214,040	110,245
308,749	4,181	213,860	110,192
309,764	4,285	213,725	110,187
310,779	4,617	213,595	110,348
311,793	4,306	213,539	110,086
312,808	4,088	213,308	109,802
313,822	4,165	213,249	109,817
314,837	4,273	213,088	109,801
315,852	3,974	212,801	109,431
316,866	3,991	212,754	109,409
317,881	4,205	212,781	109,565
318,895	4,365	212,524	109,537
319,910	4,322	212,356	109,410
320,925	3,888	212,260	109,043
321,939	3,738	211,951	108,768
322,954	3,775	211,860	108,738
323,968	4,218	211,843	109,033
324,983	4,229	211,761	108,989
325,997	4,368	211,760	109,077
327,012	4,036	211,412	108,654
328,027	4,229	211,367	108,757
329,041	4,544	211,215	108,891
330,056	4,747	211,142	108,987
331,070	4,220	210,931	108,497
332,085	3,987	210,647	108,178
333,100	4,095	210,496	108,166
334,114	4,152	210,451	108,174
335,129	4,252	210,170	108,090
336,143	3,891	210,133	107,808
337,158	4,151	210,037	107,931
338,173	4,142	209,907	107,848
339,187	3,828	209,853	107,592
340,202	3,720	209,569	107,361
341,216	3,701	209,546	107,327
342,231	3,826	209,467	107,364
343,246	3,860	209,251	107,267
344,260	3,893	209,152	107,229
345,275	4,173	208,885	107,278
346,289	4,397	208,987	107,477
347,304	4,119	208,760	107,157
348,319	4,322	208,559	107,185
349,333	4,078	208,414	106,932
350,348	4,233	208,179	106,909
351,362	4,392	208,211	107,027
352,377	4,437	208,062	106,972
353,392	4,179	207,885	106,693
354,406	4,009	207,967	106,608
355,421	193,277	1345,541	1432,377
356,435	154,176	1484,243	1432,505
