DTS Sentinel unit serial number:	SN410029Multiplexer serial number:	ORYXHardware model number:	OX2-SRSoftware version number:	ORYX F/W v4,00 Oryx Data Collector v3.7.2.0data status	okinstallation	B6 Nyhavnadifferential loss correction	single-endedforward channel	channel 2reverse channel	N/Adate	2023/12/11time	09:45:08forward acquisition time	300,00reverse acquisition time	0,00gamma	499,1914k internal	0,3140k external	0,3140temperature offset calibration	1,0000default loss term (dB/km)	0,3820temperature slope calibration	1,0000multiplexer offset coefficient	1,0000multiplexer slope coefficient	1,0000fibre end	0,00T internal ref (°C)	16,41T ext. ref 1 (°C)	-1,02T ext. ref 2 (°C)	-1,06length (m)	temperature (°C)	Stokes	anti-Stokes-744,400	-55,661	0,096	-0,032
-743,385	-119,641	-0,302	0,038
-742,371	-81,950	0,215	0,052
-741,356	-126,215	-0,378	0,041
-740,342	-18,537	0,188	-0,087
-739,327	-185,744	-0,276	-0,003
-738,312	-200,000	-0,001	-0,065
-737,298	-148,822	-0,288	0,017
-736,283	-58,947	0,135	-0,043
-735,269	-16,901	-0,148	0,069
-734,254	-67,083	0,105	-0,030
-733,239	-48,280	-0,565	-0,201
-732,225	124,218	0,061	0,057
-731,210	-200,000	0,008	0,036
-730,196	-64,075	0,057	0,017
-729,181	800,000	-0,002	-0,006
-728,167	800,000	0,017	0,055
-727,152	800,000	-0,009	0,027
-726,137	176,455	-0,095	0,102
-725,123	-200,000	0,003	-0,040
-724,108	-200,000	0,017	-0,123
-723,094	-200,000	0,023	-0,113
-722,079	-200,000	-0,002	-0,071
-721,064	-200,000	0,010	-0,138
-720,050	-200,000	-0,008	0,139
-719,035	326,253	0,104	-0,148
-718,021	-200,000	0,026	-0,152
-717,006	-200,000	-0,019	-0,090
-715,991	441,866	-0,075	-0,122
-714,977	-200,000	-0,019	-0,113
-713,962	33,803	-0,031	-0,020
-712,948	494,351	0,022	0,037
-711,933	-42,924	0,097	-0,036
-710,918	800,000	0,012	-0,038
-709,904	353,911	-0,072	-0,106
-708,889	800,000	-0,025	-0,060
-707,875	-24,335	-0,176	0,077
-706,860	154,642	-0,016	0,016
-705,845	-44,683	0,080	-0,029
-704,831	-200,000	0,026	0,129
-703,816	-200,000	0,003	-0,009
-702,802	-200,000	-0,011	0,068
-701,787	605,894	-0,077	-0,142
-700,772	800,000	0,018	-0,045
-699,758	221,675	0,043	0,051
-698,743	208,097	0,010	-0,011
-697,729	259,187	0,017	-0,022
-696,714	-200,000	-0,009	0,143
-695,699	-200,000	0,005	-0,032
-694,685	52,864	-0,071	-0,050
-693,670	-15,374	0,048	-0,022
-692,656	-103,932	-0,063	-0,011
-691,641	71,388	-0,044	-0,034
-690,627	28,460	-0,055	0,034
-689,612	210,710	-0,061	-0,071
-688,597	-147,632	-0,059	-0,004
-687,583	451,969	-0,021	-0,034
-686,568	234,709	0,053	-0,065
-685,554	-78,486	-0,182	-0,046
-684,539	70,228	0,071	0,054
-683,524	-34,509	0,047	-0,019
-682,510	26,989	-0,024	-0,015
-681,495	86,277	-0,095	0,077
-680,481	-62,320	-0,161	0,049
-679,466	13,043	0,037	0,021
-678,451	-200,000	0,014	-0,107
-677,437	800,000	-0,024	-0,066
-676,422	251,219	0,125	0,157
-675,408	-68,658	0,095	-0,027
-674,393	800,000	0,018	-0,051
-673,378	-58,936	0,101	-0,032
-672,364	-100,191	-0,039	0,007
-671,349	800,000	-0,078	-0,191
-670,335	177,916	-0,016	0,017
-669,320	-133,331	-0,076	0,007
-668,305	-30,499	-0,036	-0,015
-667,291	800,000	-0,042	0,106
-666,276	64,050	0,077	-0,058
-665,262	-200,000	0,012	-0,064
-664,247	-35,805	-0,155	0,062
-663,232	21,146	0,031	0,019
-662,218	-200,000	0,008	-0,043
-661,203	-77,642	0,127	0,032
-660,189	-70,039	-0,066	-0,018
-659,174	-200,000	0,001	-0,052
-658,159	-2,270	-0,102	-0,053
-657,145	-200,000	0,016	0,089
-656,130	-200,000	0,018	-0,109
-655,116	-200,000	0,000	-0,102
-654,101	-98,478	0,174	-0,033
-653,086	-65,027	0,067	-0,020
-652,072	22,095	-0,066	0,040
-651,057	139,006	-0,044	-0,043
-650,043	160,551	0,038	0,039
-649,028	800,000	-0,030	-0,069
-648,014	55,494	-0,094	-0,067
-646,999	-200,000	0,015	0,117
-645,984	-53,339	0,064	0,022
-644,970	358,581	-0,055	0,081
-643,955	230,167	-0,114	0,137
-642,941	64,143	0,103	-0,076
-641,926	214,652	0,085	0,099
-640,911	273,815	0,074	-0,096
-639,897	-200,000	-0,018	-0,103
-638,882	-42,777	0,062	0,023
-637,868	-200,000	0,001	-0,050
-636,853	-32,179	-0,159	-0,065
-635,838	443,898	-0,083	-0,135
-634,824	146,465	0,047	-0,047
-633,809	-73,411	-0,141	-0,038
-632,795	800,000	-0,044	-0,102
-631,780	78,416	0,043	0,034
-630,765	777,469	0,045	-0,091
-629,751	265,103	0,144	-0,185
-628,736	62,879	0,078	-0,058
-627,722	800,000	-0,011	0,030
-626,707	-89,397	0,011	-0,002
-625,692	24,107	-0,067	-0,041
-624,678	492,971	0,071	-0,121
-623,663	139,370	-0,047	0,046
-622,649	127,700	-0,015	0,014
-621,634	-200,000	-0,040	-0,146
-620,619	715,273	0,009	-0,018
-619,605	46,614	0,108	0,074
-618,590	800,000	-0,053	0,151
-617,576	-33,628	0,127	0,052
-616,561	-82,674	0,098	-0,023
-615,546	-200,000	0,014	-0,100
-614,532	800,000	-0,035	-0,074
-613,517	800,000	0,030	0,085
-612,503	-101,961	0,120	0,021
-611,488	568,856	0,082	0,148
-610,474	143,934	0,070	-0,069
-609,459	-200,000	0,040	0,000
-608,444	110,499	-0,085	0,075
-607,430	-34,888	-0,116	-0,046
-606,415	98,711	-0,031	-0,027
-605,401	59,232	-0,061	-0,044
-604,386	292,981	-0,111	0,150
-603,371	53,883	0,113	0,080
-602,357	-20,942	0,101	-0,045
-601,342	-200,000	-0,008	-0,113
-600,328	-70,471	-0,095	0,026
-599,313	285,098	0,032	-0,043
-598,298	760,040	-0,040	0,080
-597,284	-66,759	-0,109	-0,032
-596,269	800,000	-0,017	-0,040
-595,255	-200,000	-0,013	-0,058
-594,240	-200,000	0,017	-0,074
-593,225	224,194	-0,049	-0,059
-592,211	800,000	0,054	-0,119
-591,196	-200,000	-0,027	0,099
-590,182	-200,000	-0,002	0,012
-589,167	-54,857	0,159	0,053
-588,152	-76,652	0,032	0,008
-587,138	45,498	-0,087	0,059
-586,123	-200,000	-0,002	0,016
-585,109	-64,368	-0,093	-0,028
-584,094	-73,983	-0,126	0,033
-583,079	85,425	0,103	0,083
-582,065	363,524	-0,032	-0,047
-581,050	800,000	0,015	-0,046
-580,036	-200,000	-0,001	0,011
-579,021	800,000	0,041	0,118
-578,006	154,716	-0,071	-0,072
-576,992	-176,788	-0,057	-0,001
-575,977	-137,481	-0,155	-0,013
-574,963	-58,388	-0,030	0,010
-573,948	14,514	-0,043	-0,025
-572,934	744,710	-0,052	0,104
-571,919	323,522	-0,081	-0,114
-570,904	33,264	-0,068	-0,043
-569,890	800,000	0,024	-0,057
-568,875	56,132	-0,062	-0,044
-567,861	122,767	-0,064	0,059
-566,846	800,000	0,046	0,111
-565,831	85,684	-0,085	-0,069
-564,817	-200,000	0,038	0,131
-563,802	-200,000	-0,036	0,142
-562,788	800,000	-0,009	0,021
-561,773	-200,000	0,005	0,070
-560,758	-63,079	0,105	0,032
-559,744	-93,991	0,036	0,007
-558,729	-200,000	0,014	0,059
-557,715	-123,678	-0,092	-0,011
-556,700	-114,071	-0,138	-0,020
-555,685	800,000	0,011	-0,029
-554,671	6,173	-0,035	0,019
-553,656	570,321	-0,021	0,038
-552,642	-200,000	0,025	0,102
-551,627	103,886	-0,071	0,061
-550,612	59,408	0,089	0,065
-549,598	-9,751	-0,063	-0,031
-548,583	60,713	0,091	-0,066
-547,569	-80,962	-0,155	0,038
-546,554	-95,004	-0,060	0,012
-545,539	78,560	-0,061	0,048
-544,525	-200,000	-0,017	0,198
-543,510	-200,000	-0,012	0,078
-542,496	31,729	-0,084	0,053
-541,481	800,000	0,061	-0,178
-540,466	-200,000	0,015	-0,070
-539,452	659,317	-0,043	0,081
-538,437	800,000	0,004	0,011
-537,423	49,785	0,098	0,068
-536,408	-200,000	-0,012	-0,123
-535,393	-102,629	-0,086	-0,015
-534,379	329,169	0,021	-0,029
-533,364	-200,000	0,001	-0,151
-532,350	185,559	0,055	-0,060
-531,335	-32,887	-0,062	-0,025
-530,321	108,595	-0,082	0,072
-529,306	-200,000	-0,063	0,305
-528,291	-200,000	0,000	-0,060
-527,277	336,160	-0,131	-0,188
-526,262	-200,000	-0,004	-0,152
-525,248	-147,465	0,088	-0,005
-524,233	-124,697	0,089	0,010
-523,218	330,647	0,022	0,031
-522,204	89,302	-0,177	0,145
-521,189	692,539	-0,074	-0,143
-520,175	198,325	-0,065	-0,073
-519,160	800,000	0,045	-0,124
-518,145	-200,000	0,005	-0,053
-517,131	-200,000	0,004	-0,116
-516,116	10,871	0,006	0,003
-515,102	143,752	-0,062	0,060
-514,087	-200,000	0,018	0,081
-513,072	115,315	-0,083	-0,074
-512,058	-104,745	0,116	-0,019
-511,043	40,734	-0,122	-0,080
-510,029	48,103	0,138	-0,095
-509,014	-4,439	0,049	0,025
-507,999	-113,201	0,076	0,011
-506,985	-74,077	-0,045	0,012
-505,970	-200,000	0,010	0,058
-504,956	800,000	-0,012	-0,028
-503,941	463,976	-0,017	-0,028
-502,926	-129,502	-0,009	-0,001
-501,912	82,468	-0,045	-0,036
-500,897	-139,551	-0,050	-0,004
-499,883	800,000	0,073	-0,151
-498,868	114,493	-0,042	0,037
-497,853	-200,000	0,010	-0,049
-496,839	23,831	-0,071	-0,043
-495,824	109,994	-0,023	0,020
-494,810	-200,000	-0,002	0,047
-493,795	-84,792	0,164	0,038
-492,781	-44,448	0,067	0,024
-491,766	-200,000	-0,049	-0,218
-490,751	-200,000	-0,002	-0,056
-489,737	22,884	0,069	0,041
-488,722	-89,718	-0,107	-0,023
-487,708	-125,744	0,133	-0,015
-486,693	44,967	-0,062	0,042
-485,678	-200,000	0,011	-0,098
-484,664	357,603	-0,077	-0,113
-483,649	-158,451	0,133	0,006
-482,635	-23,401	-0,108	0,047
-481,620	-159,364	0,061	-0,002
-480,605	407,847	-0,011	-0,017
-479,591	17,458	-0,089	0,052
-478,576	2,175	-0,063	-0,033
-477,562	-33,156	0,047	0,019
-476,547	303,837	0,115	-0,156
-475,532	94,661	-0,085	0,071
-474,518	-200,000	-0,012	0,050
-473,503	275,372	0,041	0,054
-472,489	-6,233	0,087	0,044
-471,474	-69,559	-0,062	0,017
-470,459	-6,753	-0,130	-0,065
-469,445	-142,071	-0,081	-0,006
-468,430	47,668	0,098	-0,067
-467,416	-200,000	0,029	0,106
-466,401	800,000	-0,044	-0,122
-465,386	-17,976	-0,043	-0,020
-464,372	-128,096	0,193	0,020
-463,357	800,000	-0,051	0,115
-462,343	43,221	-0,211	-0,141
-461,328	800,000	0,031	-0,095
-460,313	-200,000	-0,017	-0,097
-459,299	96,936	0,013	-0,011
-458,284	384,721	0,081	0,123
-457,270	-45,381	-0,057	0,021
-456,255	800,000	0,035	-0,080
-455,241	800,000	-0,055	-0,128
-454,226	54,191	-0,050	0,035
-453,211	38,903	0,090	-0,059
-452,197	26,483	-0,141	0,086
-451,182	-150,320	-0,055	0,003
-450,168	-171,906	0,023	0,001
-449,153	-67,676	-0,069	-0,020
-448,138	-200,000	-0,019	-0,167
-447,124	-146,721	-0,165	0,010
-446,109	-80,988	0,069	-0,017
-445,095	800,000	-0,006	0,018
-444,080	-140,685	0,043	-0,003
-443,065	112,661	-0,064	0,056
-442,051	-77,684	0,059	0,015
-441,036	715,716	0,037	0,072
-440,022	800,000	-0,045	0,099
-439,007	-200,000	0,012	-0,054
-437,992	800,000	-0,016	-0,044
-436,978	-144,567	0,030	0,002
-435,963	-200,000	-0,012	0,062
-434,949	262,503	-0,056	-0,071
-433,934	524,411	-0,085	-0,147
-432,919	-63,089	0,079	-0,024
-431,905	31,488	-0,102	-0,064
-430,890	-200,000	0,016	0,095
-429,876	-200,000	-0,002	0,046
-428,861	59,301	-0,039	0,028
-427,846	-200,000	-0,011	-0,068
-426,832	-117,958	0,178	-0,023
-425,817	9,714	-0,115	0,064
-424,803	-189,404	-0,047	-0,000
-423,788	242,431	0,176	0,216
-422,773	-67,514	-0,074	-0,021
-421,759	-51,002	-0,071	0,024
-420,744	-200,000	0,014	-0,049
-419,730	-200,000	0,000	-0,092
-418,715	121,781	-0,082	-0,075
-417,701	9,454	-0,035	-0,020
-416,686	-46,021	0,057	-0,021
-415,671	-200,000	-0,007	-0,039
-414,657	800,000	0,048	0,146
-413,642	86,412	-0,047	-0,038
-412,628	118,227	-0,108	-0,097
-411,613	800,000	0,014	0,039
-410,598	300,334	0,095	-0,128
-409,584	101,002	-0,058	0,050
-408,569	571,086	0,032	-0,057
-407,555	-111,253	-0,098	0,014
-406,540	240,441	0,047	-0,058
-405,525	-73,781	0,056	0,015
-404,511	568,377	-0,026	-0,046
-403,496	126,031	-0,086	-0,079
-402,482	113,175	-0,061	0,054
-401,467	165,454	0,082	0,085
-400,452	56,148	0,043	0,030
-399,438	800,000	-0,030	-0,090
-398,423	-90,426	-0,070	0,015
-397,409	153,175	-0,108	0,108
-396,394	676,991	-0,015	-0,029
-395,379	13,191	-0,081	0,046
-394,365	42,596	0,139	0,092
-393,350	129,034	0,054	0,051
-392,336	-64,379	0,083	0,025
-391,321	42,771	0,147	0,098
-390,306	147,247	-0,143	-0,141
-389,292	800,000	-0,020	-0,055
-388,277	116,908	0,062	-0,056
-387,263	283,905	0,132	0,174
-386,248	70,442	0,052	0,039
-385,233	800,000	0,029	0,065
-384,219	8,980	-0,080	-0,044
-383,204	15,982	0,024	0,014
-382,190	800,000	-0,060	-0,157
-381,175	237,769	0,028	-0,034
-380,160	-62,928	0,059	0,018
-379,146	590,391	0,058	0,105
-378,131	-20,312	0,144	-0,065
-377,117	570,010	0,057	0,101
-376,102	-75,365	-0,127	0,033
-375,088	800,000	0,048	-0,143
-374,073	-200,000	-0,009	0,052
-373,058	-103,954	0,139	0,024
-372,044	329,863	-0,055	0,077
-371,029	-77,763	0,063	0,016
-370,015	122,347	0,077	0,070
-369,000	55,349	0,090	-0,064
-367,985	-4,482	-0,083	0,042
-366,971	83,835	-0,129	-0,103
-365,956	-200,000	0,000	0,098
-364,942	653,012	0,024	0,044
-363,927	-107,077	0,162	0,026
-362,912	-200,000	-0,008	-0,034
-361,898	-200,000	-0,029	-0,119
-360,883	23,394	-0,081	0,049
-359,869	97,467	-0,048	0,041
-358,854	-77,738	-0,062	0,016
-357,839	102,144	0,062	-0,053
-356,825	44,357	0,136	0,091
-355,810	-30,615	0,035	-0,014
-354,796	-200,000	0,019	0,082
-353,781	-200,000	0,007	0,032
-352,766	800,000	-0,031	-0,063
-351,752	345,207	0,052	0,075
-350,737	137,967	0,062	0,059
-349,723	-200,000	0,000	0,060
-348,708	48,717	0,124	0,085
-347,693	390,837	-0,060	-0,091
-346,679	93,723	0,142	-0,118
-345,664	343,516	-0,033	0,047
-344,650	800,000	0,008	0,020
-343,635	4,150	0,071	-0,038
-342,620	-1,579	0,159	-0,081
-341,606	-200,000	-0,004	-0,099
-340,591	523,319	-0,048	0,082
-339,577	-24,412	0,034	-0,015
-338,562	384,189	0,122	-0,184
-337,548	401,555	-0,070	0,107
-336,533	185,615	0,123	-0,134
-335,518	-200,000	-0,014	0,131
-334,504	-29,021	0,107	0,045
-333,489	236,692	-0,084	-0,102
-332,475	26,349	-0,096	-0,058
-331,460	458,373	0,077	-0,125
-330,445	-17,896	0,033	0,015
-329,431	800,000	-0,027	0,069
-328,416	795,286	0,064	0,130
-327,402	-200,000	-0,010	0,034
-326,387	-57,437	0,112	0,036
-325,372	27,825	-0,106	-0,065
-324,358	-197,380	0,048	-0,000
-323,343	-200,000	0,014	-0,072
-322,329	-200,000	0,001	0,051
-321,314	-200,000	0,035	0,116
-320,299	95,504	-0,105	0,087
-319,285	-102,047	0,026	0,005
-318,270	800,000	-0,030	-0,074
-317,256	-99,125	-0,115	-0,021
-316,241	800,000	-0,022	0,060
-315,226	230,779	0,072	-0,086
-314,212	723,661	0,028	0,055
-313,197	-46,757	0,048	-0,017
-312,183	-200,000	-0,033	0,135
-311,168	4,600	0,096	0,051
-310,153	-154,387	-0,081	0,004
-309,139	-115,229	-0,137	0,019
-308,124	-133,441	0,096	-0,009
-307,110	-144,417	0,046	-0,003
-306,095	-59,083	0,167	0,052
-305,080	-200,000	0,028	0,147
-304,066	-45,180	-0,125	-0,045
-303,051	-7,864	-0,044	0,022
-302,037	109,501	-0,063	0,055
-301,022	503,561	0,037	0,062
-300,008	800,000	-0,035	-0,076
-298,993	-200,000	0,003	-0,066
-297,978	-200,000	0,031	0,101
-296,964	-200,000	0,038	-0,134
-295,949	44,102	0,155	-0,104
-294,935	-31,922	-0,108	-0,044
-293,920	-200,000	-0,025	0,119
-292,905	-200,000	0,000	0,025
-291,891	529,188	-0,030	0,051
-290,876	-200,000	0,014	-0,077
-289,862	593,865	-0,073	0,132
-288,847	-200,000	-0,003	0,107
-287,832	-171,230	-0,081	-0,002
-286,818	230,705	0,035	0,041
-285,803	-109,380	-0,204	-0,031
-284,789	-200,000	0,030	-0,185
-283,774	241,897	0,055	-0,067
-282,759	-72,437	-0,149	0,040
-281,745	-89,999	-0,129	0,027
-280,730	-114,942	-0,147	0,020
-279,716	-47,418	0,028	0,010
-278,701	90,496	0,059	0,048
-277,686	-57,794	0,110	0,035
-276,672	0,641	-0,052	-0,027
-275,657	-103,184	0,041	-0,007
-274,643	319,578	0,056	-0,078
-273,628	249,465	0,045	0,055
-272,613	800,000	-0,026	0,059
-271,599	239,113	-0,051	-0,062
-270,584	223,518	0,091	-0,107
-269,570	326,607	0,099	-0,138
-268,555	-73,593	-0,095	-0,025
-267,540	105,362	-0,093	-0,080
-266,526	-129,005	-0,077	-0,008
-265,511	-34,102	0,191	0,076
-264,497	301,937	0,075	0,102
-263,482	14,408	-0,097	0,055
-262,467	257,710	0,117	-0,147
-261,453	-6,977	-0,025	0,012
-260,438	-200,000	-0,002	0,014
-259,424	170,740	-0,068	-0,071
-258,409	-126,751	-0,147	0,016
-257,395	617,998	0,068	-0,125
-256,380	-90,851	0,060	0,012
-255,365	-16,596	0,117	0,054
-254,351	73,490	0,082	-0,062
-253,336	-4,928	0,036	0,018
-252,322	93,463	0,062	0,051
-251,307	-96,320	-0,058	0,011
-250,292	-50,551	-0,048	-0,016
-249,278	30,210	0,090	0,056
-248,263	-39,415	0,068	0,026
-247,249	-200,000	-0,005	0,023
-246,234	375,406	-0,023	0,035
-245,219	-200,000	0,013	0,053
-244,205	481,497	-0,043	-0,072
-243,190	312,854	0,019	0,026
-242,176	144,941	0,098	0,096
-241,161	405,128	0,083	0,127
-240,146	-200,000	0,016	0,097
-239,132	-16,494	0,086	-0,040
-238,117	-200,000	0,010	-0,081
-237,103	-200,000	-0,017	0,092
-236,088	247,730	-0,017	-0,021
-235,073	121,596	0,094	0,085
-234,059	800,000	-0,027	0,066
-233,044	800,000	-0,028	0,085
-232,030	758,956	-0,059	-0,117
-231,015	169,256	-0,030	0,031
-230,000	-200,000	-0,005	-0,192
-228,986	48,443	-0,022	-0,015
-227,971	72,543	-0,046	0,035
-226,957	-97,739	-0,067	0,013
-225,942	195,050	-0,073	0,080
-224,927	-127,674	0,079	-0,008
-223,913	-200,000	-0,018	-0,081
-222,898	196,583	0,100	-0,111
-221,884	318,074	0,057	-0,079
-220,869	338,023	0,074	-0,105
-219,855	430,700	-0,030	0,047
-218,840	361,528	0,109	0,159
-217,825	800,000	-0,057	0,135
-216,811	800,000	-0,016	-0,040
-215,796	800,000	-0,032	0,081
-214,782	800,000	-0,013	0,029
-213,767	-64,571	0,184	-0,054
-212,752	221,782	-0,058	-0,068
-211,738	800,000	0,044	0,130
-210,723	-104,463	-0,028	-0,005
-209,709	-164,095	-0,127	-0,004
-208,694	-21,302	-0,123	0,054
-207,679	-200,000	0,044	-0,212
-206,665	-51,125	0,110	-0,037
-205,650	357,712	0,041	0,060
-204,636	50,520	0,053	-0,037
-203,621	-200,000	0,032	0,165
-202,606	-200,000	0,006	-0,134
-201,592	282,309	-0,010	-0,013
-200,577	-200,000	0,006	-0,025
-199,563	-150,665	-0,069	-0,004
-198,548	-200,000	0,003	-0,109
-197,533	-200,000	0,000	0,024
-196,519	136,318	0,084	0,080
-195,504	-42,669	0,156	-0,057
-194,490	-200,000	-0,025	-0,111
-193,475	-70,605	-0,061	0,017
-192,460	8,461	0,149	-0,081
-191,446	138,830	0,043	-0,041
-190,431	235,325	0,037	0,044
-189,417	-200,000	-0,025	0,114
-188,402	-42,585	0,048	-0,018
-187,387	800,000	-0,020	-0,042
-186,373	169,721	-0,082	-0,085
-185,358	800,000	0,038	0,086
-184,344	131,283	0,072	0,067
-183,329	59,483	0,058	0,041
-182,315	-200,000	-0,012	0,047
-181,300	13,262	-0,130	0,073
-180,285	-89,022	0,103	-0,022
-179,271	-200,000	-0,019	0,110
-178,256	28,268	-0,132	-0,081
-177,242	152,541	-0,090	0,090
-176,227	155,704	0,153	0,153
-175,212	44,302	-0,089	0,059
-174,198	-185,899	0,093	0,001
-173,183	-118,204	-0,095	0,012
-172,169	131,758	-0,041	0,038
-171,154	272,279	-0,066	0,084
-170,139	89,678	-0,134	0,108
-169,125	-15,708	0,133	0,061
-168,110	435,297	0,061	0,096
-167,096	-127,625	0,069	-0,007
-166,081	-9,972	-0,054	-0,026
-165,066	562,878	-0,078	-0,137
-164,052	-200,000	-0,006	0,026
-163,037	-29,476	0,059	0,024
-162,023	800,000	-0,032	0,104
-161,008	-93,741	0,148	0,029
-159,993	-200,000	0,014	0,051
-158,979	671,565	-0,029	-0,055
-157,964	-1,135	-0,063	-0,032
-156,950	741,061	0,041	-0,080
-155,935	42,994	0,035	-0,023
-154,920	-200,000	-0,009	0,039
-153,906	-200,000	0,006	0,183
-152,891	-71,196	-0,071	-0,019
-151,877	-200,000	0,037	-0,127
-150,862	800,000	0,054	-0,112
-149,847	-124,635	-0,037	0,004
-148,833	-200,000	0,015	-0,170
-147,818	33,040	0,151	0,095
-146,804	639,344	-0,030	0,055
-145,789	176,638	-0,053	-0,056
-144,775	40,493	-0,015	-0,010
-143,760	-200,000	-0,003	0,010
-142,745	-200,000	-0,012	-0,097
-141,731	109,459	-0,083	-0,072
-140,716	-200,000	-0,007	0,042
-139,702	-200,000	0,040	-0,141
-138,687	-65,980	-0,090	-0,026
-137,672	-73,453	-0,094	-0,025
-136,658	-33,928	-0,025	0,010
-135,643	800,000	-0,013	-0,036
-134,629	-151,829	-0,164	0,009
-133,614	101,677	0,094	0,079
-132,599	800,000	-0,024	0,056
-131,585	10,610	0,081	-0,045
-130,570	289,295	-0,072	0,094
-129,556	-108,263	0,193	0,030
-128,541	-33,394	-0,086	-0,034
-127,526	303,426	0,043	0,058
-126,512	57,930	0,033	-0,023
-125,497	311,913	0,054	0,074
-124,483	-42,780	-0,081	-0,030
-123,468	-87,901	0,051	-0,011
-122,453	34,375	-0,101	-0,064
-121,439	695,317	0,062	0,119
-120,424	-103,121	0,029	-0,005
-119,410	-18,005	-0,020	-0,009
-118,395	-113,770	-0,036	-0,005
-117,380	-200,000	0,026	0,138
-116,366	543,609	-0,061	0,106
-115,351	48,297	0,047	-0,032
-114,337	-106,457	0,011	0,002
-113,322	-200,000	0,014	0,070
-112,307	7,340	0,083	0,045
-111,293	31,488	0,061	0,038
-110,278	163,988	0,053	-0,054
-109,264	-98,727	0,041	-0,008
-108,249	-50,394	-0,076	-0,026
-107,234	512,085	-0,037	0,063
-106,220	-200,000	0,031	-0,129
-105,205	-90,197	-0,062	-0,013
-104,191	194,920	0,033	0,036
-103,176	-82,132	0,100	0,023
-102,162	-200,000	-0,001	0,084
-101,147	125,904	-0,118	0,108
-100,132	-141,001	0,012	0,001
-99,118	34,080	0,076	-0,048
-98,103	800,000	-0,029	0,083
-97,089	800,000	-0,042	-0,105
-96,074	-200,000	0,011	0,061
-95,059	775,094	0,024	-0,047
-94,045	-200,000	0,002	0,026
-93,030	-154,067	-0,125	-0,006
-92,016	-200,000	-0,004	-0,137
-91,001	-13,106	0,068	-0,032
-89,986	54,731	-0,040	0,028
-88,972	140,367	0,055	0,053
-87,957	-200,000	0,023	-0,111
-86,943	424,047	0,029	0,045
-85,928	750,080	0,013	-0,025
-84,913	104,493	-0,094	0,080
-83,899	800,000	0,061	0,127
-82,884	266,270	-0,054	-0,069
-81,870	89,865	0,036	0,029
-80,855	-200,000	-0,026	-0,103
-79,840	-76,546	0,092	0,023
-78,826	-21,101	-0,146	0,064
-77,811	235,588	-0,041	-0,049
-76,797	-198,321	0,080	0,000
-75,782	800,000	-0,012	-0,035
-74,767	435,785	0,071	0,112
-73,753	-200,000	0,009	0,033
-72,738	206,813	0,014	0,016
-71,724	-2,587	-0,082	0,041
-70,709	72,788	-0,096	0,072
-69,694	800,000	0,055	-0,139
-68,680	300,388	0,080	0,106
-67,665	800,000	0,033	0,066
-66,651	-200,000	0,012	0,088
-65,636	157,155	-0,018	-0,018
-64,622	-200,000	0,005	-0,126
-63,607	446,508	-0,012	-0,019
-62,592	575,864	0,081	0,144
-61,578	800,000	-0,033	-0,073
-60,563	367,011	-0,104	-0,153
-59,549	168,697	-0,104	0,107
-58,534	10,057	-1,766	-0,966
-57,519	-200,000	-0,260	-1,049
-56,505	-200,000	-1,094	-4,879
-55,490	-29,526	0,703	0,289
-54,476	800,000	5,375	11,958
-53,461	-200,000	17,163	280,883
-52,446	800,000	716,891	2233,988
-51,432	561,382	1627,527	2851,135
-50,417	113,896	1622,986	1423,765
-49,403	78,377	1281,617	986,891
-48,388	33,676	1025,688	642,183
-47,373	20,482	987,614	574,730
-46,359	19,107	975,925	563,380
-45,344	16,750	971,892	553,293
-44,330	16,895	970,648	553,040
-43,315	16,466	968,784	550,551
-42,300	16,455	967,786	549,924
-41,286	16,445	966,583	549,187
-40,271	16,452	965,839	548,764
-39,257	16,463	964,822	548,202
-38,242	16,479	963,928	547,723
-37,227	16,482	963,025	547,200
-36,213	16,393	962,364	546,512
-35,198	16,391	961,396	545,934
-34,184	16,502	960,569	545,802
-33,169	16,440	959,437	544,939
-32,154	16,479	958,519	544,519
-31,140	16,464	957,692	543,981
-30,125	16,508	956,856	543,627
-29,111	16,428	956,259	543,007
-28,096	16,471	955,587	542,742
-27,082	16,440	954,877	542,219
-26,067	16,492	954,141	541,947
-25,052	16,440	953,275	541,264
-24,038	16,453	952,622	540,914
-23,023	16,384	952,154	540,406
-22,009	16,437	951,357	540,102
-20,994	16,474	950,870	539,924
-19,979	16,444	950,288	539,474
-18,965	16,457	949,483	539,038
-17,950	16,479	948,872	538,740
-16,936	16,381	948,281	538,071
-15,921	16,401	947,484	537,662
-14,906	16,311	946,897	537,017
-13,892	16,290	946,414	536,655
-12,877	16,318	945,659	536,296
-11,863	16,368	944,786	535,938
-10,848	16,306	944,630	535,630
-9,833	16,396	943,998	535,539
-8,819	16,396	943,346	535,148
-7,804	16,378	942,557	534,621
-6,790	16,305	942,013	534,060
-5,775	16,322	941,571	533,840
-4,760	16,381	940,809	533,577
-3,746	16,387	940,026	533,128
-2,731	16,201	939,494	532,216
-1,717	16,179	939,016	531,854
-0,702	16,176	938,269	531,401
0,313	15,963	937,600	531,149
1,327	19,448	935,808	541,101
2,342	29,034	791,600	483,129
3,356	25,356	446,302	266,874
4,371	-5,982	295,188	145,061
5,386	-9,982	276,746	132,177
6,400	-11,382	271,140	128,182
7,415	-11,767	268,831	126,722
8,429	-11,616	267,517	126,230
9,444	-11,503	266,620	125,901
10,459	-11,291	266,214	125,891
11,473	-11,189	265,523	125,647
12,488	-11,318	264,995	125,268
13,502	-11,247	264,432	125,056
14,517	-11,010	264,343	125,218
15,531	-10,609	263,739	125,284
16,546	-10,632	263,693	125,231
17,561	-10,547	263,107	125,018
18,575	-10,486	262,972	124,998
19,590	-10,544	262,596	124,756
20,604	-10,477	262,365	124,695
21,619	-10,466	261,995	124,518
22,634	-10,460	261,622	124,335
23,648	-10,548	261,288	124,086
24,663	-10,479	260,987	123,995
25,677	-10,587	260,763	123,780
26,692	-10,613	260,453	123,599
27,707	-10,688	260,357	123,475
28,721	-10,392	259,966	123,543
29,736	-10,559	259,794	123,301
30,750	-10,448	259,549	123,273
31,765	-10,709	259,369	122,943
32,780	-10,604	259,042	122,872
33,794	-10,718	258,977	122,728
34,809	-10,594	258,601	122,649
35,823	-10,655	258,339	122,460
36,838	-10,501	258,112	122,477
37,853	-10,664	257,863	122,204
38,867	-10,592	257,507	122,088
39,882	-10,721	257,461	121,942
40,896	-10,499	257,265	122,034
41,911	-10,546	256,960	121,838
42,926	-10,568	256,743	121,704
43,940	-10,782	256,579	121,426
44,955	-10,678	256,201	121,328
45,969	-10,789	256,128	121,186
46,984	-10,543	255,952	121,308
47,999	-10,687	255,568	120,988
49,013	-10,645	255,461	120,964
50,028	-10,683	255,040	120,720
51,042	-10,614	254,919	120,713
52,057	-10,801	254,740	120,453
53,071	-10,771	254,647	120,425
54,086	-10,686	254,411	120,377
55,101	-10,696	254,122	120,220
56,115	-10,604	253,901	120,186
57,130	-10,655	253,669	120,021
58,144	-10,647	253,491	119,933
59,159	-10,662	253,280	119,809
60,174	-10,622	253,054	119,726
61,188	-10,656	252,810	119,571
62,203	-10,676	252,699	119,490
63,217	-10,697	252,461	119,349
64,232	-10,449	252,133	119,397
65,247	-10,857	251,955	118,951
66,261	-10,736	251,775	118,959
67,276	-10,689	251,685	118,947
68,290	-10,722	251,318	118,734
69,305	-10,581	251,001	118,695
70,320	-10,850	250,906	118,408
71,334	-10,526	250,785	118,618
72,349	-10,662	250,473	118,344
73,363	-10,667	250,246	118,222
74,378	-10,837	250,097	117,995
75,393	-10,620	249,782	118,022
76,407	-10,601	249,800	118,036
77,422	-10,556	249,508	117,927
78,436	-10,646	249,369	117,773
79,451	-10,662	249,066	117,606
80,466	-10,844	248,875	117,350
81,480	-10,588	248,572	117,415
82,495	-10,587	248,446	117,345
83,509	-10,625	248,359	117,262
84,524	-10,785	248,132	117,008
85,539	-10,630	247,857	116,999
86,553	-10,718	247,680	116,831
87,568	-10,678	247,374	116,710
88,582	-10,650	247,269	116,674
89,597	-10,780	247,165	116,505
90,611	-10,663	246,939	116,486
91,626	-10,563	246,782	116,486
92,641	-10,629	246,514	116,294
93,655	-10,679	246,307	116,144
94,670	-10,692	246,209	116,076
95,684	-10,806	246,017	115,880
96,699	-10,553	245,849	116,002
97,714	-10,749	245,820	115,814
98,728	-10,855	245,455	115,542
99,743	-10,649	245,209	115,589
100,757	-10,739	244,984	115,397
101,772	-10,723	245,002	115,409
102,787	-10,834	244,588	115,111
103,801	-10,652	244,382	115,156
104,816	-10,747	244,327	115,040
105,830	-10,823	244,248	114,929
106,845	-10,752	243,905	114,817
107,860	-10,676	243,675	114,761
108,874	-10,758	243,585	114,641
109,889	-10,924	243,391	114,401
110,903	-10,822	243,072	114,326
111,918	-10,802	242,973	114,286
112,933	-10,673	242,767	114,285
113,947	-10,869	242,679	114,071
114,962	-10,624	242,270	114,071
115,976	-10,633	242,322	114,078
116,991	-10,868	242,097	113,768
118,006	-10,658	241,855	113,818
119,020	-10,801	241,888	113,705
120,035	-10,522	241,641	113,809
121,049	-10,645	241,391	113,579
122,064	-10,849	241,135	113,281
123,079	-10,872	240,973	113,176
124,093	-10,954	240,911	113,070
125,108	-10,885	240,608	112,974
126,122	-10,729	240,549	113,064
127,137	-10,681	240,466	113,054
128,151	-10,850	240,106	112,737
129,166	-10,580	240,004	112,899
130,181	-10,769	239,738	112,610
131,195	-10,757	239,558	112,524
132,210	-10,666	239,428	112,528
133,224	-10,799	239,155	112,282
134,239	-10,953	238,962	112,056
135,254	-10,913	238,762	111,984
136,268	-10,877	238,645	111,949
137,283	-10,768	238,516	111,966
138,297	-10,781	238,358	111,872
139,312	-10,978	238,051	111,558
140,327	-10,858	237,905	111,577
141,341	-10,893	237,879	111,527
142,356	-10,656	237,504	111,533
143,370	-10,660	237,403	111,472
144,385	-10,822	237,351	111,307
145,400	-10,573	237,100	111,380
146,414	-10,564	236,999	111,330
147,429	-10,625	236,823	111,188
148,443	-10,695	236,599	111,017
149,458	-10,609	236,353	110,961
150,473	-10,610	236,122	110,842
151,487	-10,663	235,932	110,700
152,502	-10,460	235,857	110,817
153,516	-10,583	235,831	110,696
154,531	-10,722	235,546	110,442
155,546	-10,622	235,341	110,416
156,560	-10,651	235,194	110,314
157,575	-10,676	235,056	110,219
158,589	-10,760	234,857	110,049
159,604	-10,666	234,673	110,028
160,619	-10,299	234,587	110,270
161,633	-10,366	234,360	110,101
162,648	-10,584	234,221	109,852
163,662	-10,693	233,989	109,647
164,677	-10,725	233,792	109,519
165,692	-10,680	233,696	109,500
166,706	-10,503	233,527	109,551
167,721	-10,399	233,455	109,590
168,735	-10,610	233,314	109,347
169,750	-10,763	233,084	109,109
170,764	-10,663	232,933	109,108
171,779	-10,568	232,699	109,063
172,794	-10,654	232,669	108,971
173,808	-10,590	232,372	108,873
174,823	-10,956	232,229	108,508
175,837	-10,630	231,903	108,602
176,852	-10,880	231,764	108,331
177,867	-10,850	231,794	108,359
178,881	-10,819	231,560	108,265
179,896	-10,522	231,501	108,460
180,910	-10,798	231,388	108,181
181,925	-10,685	231,124	108,137
182,940	-10,733	230,972	108,018
183,954	-10,639	230,857	108,029
184,969	-10,627	230,735	107,971
185,983	-10,306	230,586	108,142
186,998	-10,498	230,362	107,878
188,013	-10,589	230,338	107,786
189,027	-10,464	230,073	107,749
190,042	-10,345	229,683	107,650
191,056	-10,513	229,573	107,458
192,071	-10,840	229,626	107,220
193,086	-10,892	229,252	106,994
194,100	-11,600	228,927	106,285
195,115	-12,536	228,264	105,243
196,129	-13,041	228,149	104,790
197,144	-9,741	229,257	107,852
198,159	-3,229	231,260	113,874
199,173	0,318	232,197	117,101
200,188	1,605	232,254	118,125
201,202	2,230	232,424	118,689
202,217	2,820	232,324	119,088
203,232	2,983	232,317	119,201
204,246	2,960	232,212	119,118
205,261	3,235	231,883	119,154
206,275	2,921	231,939	118,927
207,290	3,106	231,737	118,957
208,304	2,947	231,649	118,778
209,319	2,749	231,412	118,491
210,334	2,834	231,255	118,467
211,348	2,471	230,843	117,963
212,363	1,956	230,573	117,416
213,377	1,875	230,272	117,190
214,392	1,673	230,261	117,017
215,407	1,651	229,907	116,810
216,421	1,404	229,877	116,594
217,436	1,599	229,767	116,678
218,450	1,481	229,498	116,440
219,465	1,481	229,213	116,285
220,480	1,422	229,258	116,252
221,494	1,585	228,974	116,223
222,509	1,691	228,980	116,297
223,523	1,918	228,862	116,401
224,538	1,740	228,722	116,183
225,553	1,685	228,532	116,034
226,567	1,552	228,406	115,858
227,582	1,497	228,260	115,731
228,596	1,584	228,190	115,752
229,611	1,851	227,935	115,816
230,626	1,776	227,605	115,582
231,640	1,789	227,567	115,562
232,655	1,661	227,428	115,383
233,669	1,707	227,238	115,311
234,684	1,649	227,090	115,182
235,699	1,944	226,906	115,302
236,713	1,920	226,821	115,231
237,728	1,905	226,712	115,153
238,742	1,756	226,505	114,926
239,757	1,918	226,428	114,999
240,772	1,903	226,264	114,894
241,786	1,972	226,233	114,920
242,801	2,036	226,087	114,884
243,815	2,055	225,963	114,825
244,830	2,221	225,807	114,862
245,844	2,340	225,507	114,789
246,859	2,030	225,378	114,479
247,874	1,965	225,231	114,345
248,888	2,005	225,184	114,340
249,903	1,947	225,053	114,220
250,917	1,956	224,887	114,133
251,932	1,864	224,774	113,996
252,947	1,919	224,707	113,993
253,961	2,111	224,429	113,986
254,976	1,942	224,121	113,693
255,990	1,951	224,212	113,736
257,005	2,098	223,951	113,703
258,020	1,946	223,813	113,509
259,034	2,226	223,738	113,671
260,049	2,094	223,787	113,587
261,063	1,964	223,408	113,287
262,078	2,101	223,192	113,270
263,093	1,980	223,262	113,205
264,107	2,123	222,965	113,151
265,122	2,233	222,826	113,152
266,136	2,146	222,713	113,020
267,151	2,044	222,551	112,852
268,166	2,027	222,337	112,720
269,180	2,078	222,113	112,634
270,195	2,096	222,043	112,602
271,209	1,938	221,952	112,429
272,224	1,838	221,755	112,245
273,239	1,890	221,564	112,177
274,253	1,787	221,573	112,095
275,268	1,728	221,390	111,949
276,282	1,846	221,106	111,883
277,297	1,956	220,997	111,899
278,312	1,859	220,981	111,809
279,326	1,650	220,871	111,589
280,341	2,083	220,655	111,789
281,355	1,928	220,557	111,615
282,370	1,952	220,422	111,555
283,384	1,662	220,285	111,262
284,399	1,774	220,038	111,210
285,414	1,725	219,993	111,141
286,428	2,214	219,722	111,353
287,443	1,960	219,587	111,088
288,457	1,820	219,623	110,994
289,472	2,079	219,450	111,087
290,487	1,978	219,152	110,852
291,501	2,121	219,019	110,879
292,516	2,216	218,893	110,875
293,530	1,892	218,886	110,624
294,545	1,724	218,903	110,501
295,560	2,177	218,600	110,668
296,574	2,094	218,473	110,533
297,589	2,111	218,446	110,523
298,603	2,123	218,261	110,428
299,618	2,190	218,109	110,390
300,633	2,143	217,927	110,254
301,647	2,166	217,789	110,190
302,662	2,349	217,598	110,217
303,676	2,482	217,367	110,186
304,691	2,287	217,370	110,037
305,706	2,289	217,161	109,923
306,720	2,166	217,143	109,815
307,735	2,242	216,871	109,723
308,749	2,174	216,719	109,587
309,764	2,078	216,642	109,469
310,779	2,171	216,414	109,411
311,793	2,102	216,233	109,260
312,808	2,217	216,169	109,301
313,822	2,255	215,866	109,165
314,837	2,008	215,841	108,965
315,852	2,145	215,776	109,021
316,866	2,340	215,644	109,084
317,881	2,152	215,372	108,802
318,895	2,036	215,148	108,597
319,910	2,024	215,064	108,536
320,925	2,038	215,039	108,524
321,939	1,889	214,859	108,317
322,954	1,902	214,705	108,239
323,968	2,106	214,650	108,347
324,983	1,968	214,527	108,176
325,997	2,008	214,273	108,067
327,012	2,131	214,044	108,030
328,027	1,848	214,029	107,811
329,041	2,021	213,960	107,890
330,056	2,105	213,912	107,915
331,070	2,245	213,601	107,848
332,085	2,143	213,498	107,715
333,100	1,978	213,456	107,567
334,114	2,096	213,250	107,537
335,129	2,118	213,124	107,480
336,143	2,343	212,821	107,476
337,158	2,136	212,843	107,332
338,173	2,220	212,594	107,256
339,187	2,142	212,526	107,157
340,202	1,931	212,405	106,938
341,216	2,056	212,345	106,986
342,231	2,113	212,196	106,941
343,246	1,946	212,070	106,751
344,260	2,051	211,910	106,735
345,275	2,062	211,783	106,668
346,289	2,228	211,610	106,689
347,304	2,209	211,479	106,599
348,319	1,988	211,395	106,393
349,333	2,104	211,196	106,364
350,348	2,163	211,019	106,307
351,362	2,177	211,041	106,318
352,377	2,139	210,814	106,168
353,392	2,105	210,733	106,094
354,406	1,991	210,578	105,927
355,421	194,916	1341,646	1425,488
356,435	155,642	1479,454	1425,494
