DTS Sentinel unit serial number:	SN410029Multiplexer serial number:	ORYXHardware model number:	OX2-SRSoftware version number:	ORYX F/W v4,00 Oryx Data Collector v3.7.2.0data status	okinstallation	B6 Nyhavnadifferential loss correction	single-endedforward channel	channel 2reverse channel	N/Adate	2023/12/08time	00:05:08forward acquisition time	300,00reverse acquisition time	0,00gamma	499,1914k internal	0,3164k external	0,3164temperature offset calibration	1,0000default loss term (dB/km)	0,3820temperature slope calibration	1,0000multiplexer offset coefficient	1,0000multiplexer slope coefficient	1,0000fibre end	0,00T internal ref (°C)	13,37T ext. ref 1 (°C)	-3,54T ext. ref 2 (°C)	-3,53length (m)	temperature (°C)	Stokes	anti-Stokes-744,400	-200,000	-0,001	-0,042
-743,385	-200,000	-0,328	0,000
-742,371	-55,202	0,211	0,069
-741,356	-27,116	-0,280	0,119
-740,342	800,000	0,052	0,111
-739,327	-118,856	-0,358	0,046
-738,312	800,000	0,018	-0,052
-737,298	-141,902	-0,257	-0,019
-736,283	162,296	0,061	0,063
-735,269	-69,397	-0,181	0,051
-734,254	-23,385	0,213	0,094
-733,239	-34,220	-0,473	-0,190
-732,225	51,162	0,171	0,119
-731,210	-200,000	-0,014	0,129
-730,196	-113,409	0,176	-0,025
-729,181	-200,000	-0,013	-0,082
-728,167	322,447	-0,067	0,094
-727,152	-200,000	-0,014	-0,077
-726,137	-200,000	0,026	-0,111
-725,123	-29,915	-0,087	0,036
-724,108	-114,347	-0,135	-0,019
-723,094	-173,839	-0,186	0,004
-722,079	-116,301	0,105	0,014
-721,064	-200,000	0,015	-0,206
-720,050	4,850	-0,097	0,052
-719,035	247,607	-0,051	0,064
-718,021	-24,035	0,094	0,041
-717,006	-200,000	-0,033	-0,158
-715,991	-200,000	0,029	-0,136
-714,977	-56,259	0,022	-0,007
-713,962	-200,000	0,003	0,064
-712,948	-200,000	0,011	-0,131
-711,933	760,413	0,059	0,118
-710,918	-145,678	0,046	0,003
-709,904	65,297	0,062	-0,046
-708,889	800,000	-0,016	-0,043
-707,875	-5,007	-0,125	0,063
-706,860	320,975	0,035	-0,048
-705,845	-89,553	-0,099	-0,021
-704,831	-72,845	0,081	-0,022
-703,816	-200,000	-0,009	0,087
-702,802	800,000	-0,014	0,041
-701,787	625,966	-0,092	-0,171
-700,772	-200,000	0,041	-0,173
-699,758	405,191	-0,051	-0,079
-698,743	800,000	-0,018	0,042
-697,729	-200,000	0,012	-0,045
-696,714	-27,040	-0,080	-0,034
-695,699	-200,000	0,014	-0,046
-694,685	-200,000	-0,013	-0,053
-693,670	-200,000	-0,010	-0,152
-692,656	-143,905	0,068	0,005
-691,641	-200,000	-0,004	-0,040
-690,627	-64,377	-0,107	-0,032
-689,612	-29,843	0,077	-0,032
-688,597	531,745	-0,031	-0,055
-687,583	-200,000	-0,027	-0,142
-686,568	315,137	-0,016	-0,022
-685,554	-50,204	-0,051	0,018
-684,539	266,809	-0,066	-0,084
-683,524	-74,462	-0,026	0,007
-682,510	-200,000	-0,024	0,143
-681,495	346,339	0,041	-0,060
-680,481	163,993	-0,024	-0,024
-679,466	510,199	-0,084	-0,143
-678,451	254,453	-0,021	-0,026
-677,437	0,335	0,088	-0,046
-676,422	-200,000	0,025	-0,136
-675,408	-63,162	0,114	0,034
-674,393	-65,691	-0,134	-0,039
-673,378	137,063	-0,107	-0,103
-672,364	800,000	0,053	0,125
-671,349	-200,000	-0,003	-0,011
-670,335	-14,391	0,071	-0,033
-669,320	-61,658	-0,029	0,009
-668,305	259,907	-0,088	0,112
-667,291	800,000	0,027	-0,082
-666,276	-200,000	0,022	-0,151
-665,262	-200,000	0,008	0,045
-664,247	-88,892	-0,078	0,017
-663,232	-7,105	-0,098	0,049
-662,218	93,333	0,055	0,045
-661,203	431,671	-0,065	0,104
-660,189	-200,000	0,022	0,165
-659,174	433,217	-0,098	0,156
-658,159	800,000	-0,020	-0,048
-657,145	-200,000	0,006	-0,123
-656,130	-2,677	-0,131	0,067
-655,116	30,443	0,078	-0,049
-654,101	13,552	0,046	-0,026
-653,086	-7,427	0,017	-0,009
-652,072	-200,000	0,025	-0,121
-651,057	-112,019	-0,096	0,014
-650,043	568,858	-0,078	-0,139
-649,028	418,125	-0,053	0,083
-648,014	517,903	-0,079	-0,135
-646,999	-12,721	0,044	-0,021
-645,984	-200,000	-0,010	-0,053
-644,970	-128,375	0,131	0,014
-643,955	-82,957	-0,112	0,026
-642,941	-200,000	-0,008	-0,083
-641,926	-29,155	0,057	0,024
-640,911	153,037	0,078	0,078
-639,897	-67,328	0,064	-0,018
-638,882	-200,000	0,024	-0,081
-637,868	-200,000	-0,044	-0,170
-636,853	388,748	-0,062	0,094
-635,838	-198,226	-0,044	0,000
-634,824	108,303	0,117	-0,102
-633,809	668,679	-0,033	0,062
-632,795	-39,921	0,095	-0,036
-631,780	33,161	0,126	0,080
-630,765	501,568	-0,043	-0,073
-629,751	347,901	-0,047	-0,069
-628,736	-200,000	-0,002	-0,147
-627,722	122,456	0,028	-0,026
-626,707	-200,000	-0,013	-0,087
-625,692	393,768	-0,045	0,069
-624,678	79,320	0,117	-0,092
-623,663	-43,665	0,197	-0,072
-622,649	101,085	-0,070	0,060
-621,634	-127,376	0,062	0,007
-620,619	-200,000	-0,019	-0,088
-619,605	-95,426	0,096	0,019
-618,590	800,000	0,056	0,134
-617,576	-190,229	-0,101	-0,001
-616,561	800,000	-0,038	0,078
-615,546	-1,922	-0,060	0,031
-614,532	195,514	-0,042	-0,047
-613,517	555,311	0,052	-0,091
-612,503	84,756	-0,087	0,070
-611,488	19,786	0,072	0,043
-610,474	-200,000	-0,027	0,094
-609,459	-31,408	-0,158	-0,065
-608,444	190,192	0,042	0,046
-607,430	-125,865	-0,044	0,005
-606,415	800,000	0,020	0,052
-605,401	466,685	-0,016	-0,026
-604,386	163,113	-0,055	-0,057
-603,371	-124,885	0,129	-0,014
-602,357	156,588	-0,095	-0,096
-601,342	-200,000	0,006	-0,045
-600,328	120,558	0,066	-0,060
-599,313	-71,268	-0,097	0,026
-598,298	659,450	-0,032	-0,060
-597,284	29,781	-0,044	0,027
-596,269	57,297	-0,095	0,068
-595,255	-200,000	0,010	0,068
-594,240	-162,772	-0,047	0,002
-593,225	-117,957	-0,089	0,012
-592,211	383,182	-0,044	-0,067
-591,196	-200,000	-0,021	-0,085
-590,182	-200,000	0,013	-0,106
-589,167	-90,161	0,152	-0,032
-588,152	-160,803	-0,070	-0,003
-587,138	-8,903	-0,139	-0,068
-586,123	-66,389	-0,037	-0,011
-585,109	800,000	0,078	-0,193
-584,094	-10,542	-0,094	-0,045
-583,079	501,068	0,072	0,122
-582,065	-61,711	-0,032	-0,010
-581,050	800,000	0,073	0,209
-580,036	468,362	-0,025	-0,042
-579,021	-200,000	-0,011	-0,044
-578,006	256,989	-0,029	-0,037
-576,992	-112,019	-0,079	-0,011
-575,977	107,592	-0,112	-0,098
-574,963	8,058	0,158	0,086
-573,948	-200,000	-0,018	-0,061
-572,934	-71,680	-0,048	0,013
-571,919	800,000	-0,051	-0,133
-570,904	160,514	-0,076	-0,077
-569,890	121,853	-0,041	0,037
-568,875	105,344	0,018	0,015
-567,861	-28,901	0,054	-0,023
-566,846	-200,000	0,027	0,142
-565,831	124,933	0,036	-0,033
-564,817	-141,715	-0,049	0,004
-563,802	4,446	0,103	0,055
-562,788	-57,641	-0,118	0,038
-561,773	-58,021	0,035	-0,011
-560,758	205,713	-0,022	0,025
-559,744	-200,000	-0,138	-0,000
-558,729	-200,000	-0,013	0,141
-557,715	-93,761	0,033	0,007
-556,700	456,442	0,040	0,065
-555,685	-200,000	-0,021	-0,164
-554,671	95,836	0,072	0,060
-553,656	-200,000	0,006	-0,099
-552,642	-121,107	0,048	-0,006
-551,627	166,039	0,020	-0,021
-550,612	800,000	-0,013	0,036
-549,598	800,000	-0,036	-0,103
-548,583	800,000	0,032	0,081
-547,569	685,240	-0,041	0,079
-546,554	-20,446	-0,078	-0,035
-545,539	345,798	0,030	-0,043
-544,525	-4,695	-0,125	-0,063
-543,510	726,956	-0,073	-0,142
-542,496	800,000	-0,018	0,052
-541,481	512,138	-0,091	-0,155
-540,466	209,601	0,109	0,125
-539,452	800,000	0,011	-0,025
-538,437	-150,598	0,035	0,002
-537,423	-82,770	0,102	0,024
-536,408	-200,000	-0,006	0,041
-535,393	93,731	-0,051	-0,042
-534,379	-171,343	0,148	0,004
-533,364	-200,000	-0,007	-0,036
-532,350	227,977	-0,052	-0,062
-531,335	381,363	0,062	0,094
-530,321	800,000	-0,032	-0,077
-529,306	69,209	0,089	0,067
-528,291	87,443	-0,132	-0,106
-527,277	32,922	-0,078	0,049
-526,262	35,663	-0,086	0,055
-525,248	272,693	0,055	0,071
-524,233	179,617	0,080	0,086
-523,218	4,621	0,074	0,039
-522,204	-200,000	-0,021	-0,073
-521,189	264,512	-0,074	-0,095
-520,175	643,876	-0,052	-0,097
-519,160	-23,388	0,064	0,028
-518,145	757,007	0,050	0,100
-517,131	800,000	0,010	0,028
-516,116	-91,030	0,029	-0,006
-515,102	104,983	-0,160	-0,137
-514,087	91,190	0,082	-0,067
-513,072	793,158	-0,038	0,076
-512,058	-200,000	-0,002	0,036
-511,043	-122,496	0,043	0,005
-510,029	-71,538	0,096	0,026
-509,014	30,140	-0,005	-0,003
-507,999	160,161	-0,093	0,095
-506,985	558,905	-0,043	-0,077
-505,970	800,000	-0,055	-0,174
-504,956	800,000	0,013	0,029
-503,941	-60,551	-0,201	0,062
-502,926	-19,834	0,096	-0,043
-501,912	800,000	0,052	0,110
-500,897	-94,067	-0,051	-0,010
-499,883	-200,000	0,022	-0,170
-498,868	-131,349	0,068	-0,006
-497,853	-200,000	-0,015	-0,114
-496,839	-200,000	0,014	0,089
-495,824	-110,146	0,165	0,025
-494,810	-200,000	0,019	-0,106
-493,795	367,349	-0,014	0,020
-492,781	-175,778	-0,075	0,001
-491,766	800,000	-0,023	0,049
-490,751	-200,000	-0,008	0,058
-489,737	800,000	0,023	0,054
-488,722	-128,975	-0,079	-0,008
-487,708	-16,176	0,054	0,025
-486,693	-200,000	-0,002	-0,008
-485,678	-160,308	-0,029	-0,001
-484,664	-200,000	0,022	0,072
-483,649	-15,057	0,072	0,033
-482,635	-42,499	-0,016	-0,006
-481,620	800,000	-0,034	-0,102
-480,605	-183,204	0,037	0,000
-479,591	-104,631	-0,034	0,006
-478,576	-200,000	0,035	0,163
-477,562	495,239	0,073	-0,123
-476,547	112,177	-0,037	0,033
-475,532	-200,000	-0,012	-0,056
-474,518	-200,000	0,013	-0,057
-473,503	-55,094	0,101	-0,033
-472,489	-200,000	-0,004	0,033
-471,474	-3,637	0,127	0,064
-470,459	223,758	-0,110	-0,129
-469,445	95,717	-0,032	0,027
-468,430	289,961	0,042	-0,056
-467,416	-136,751	0,118	0,010
-466,401	-167,477	0,120	-0,003
-465,386	-52,629	-0,054	-0,018
-464,372	97,662	0,081	0,068
-463,357	-200,000	-0,017	0,061
-462,343	-200,000	0,003	0,186
-461,328	800,000	0,033	-0,067
-460,313	269,425	-0,104	-0,133
-459,299	21,400	0,056	-0,033
-458,284	55,259	-0,032	0,023
-457,270	89,411	-0,041	-0,033
-456,255	27,121	-0,109	-0,066
-455,241	-200,000	-0,023	-0,081
-454,226	702,516	-0,039	-0,076
-453,211	130,082	0,017	0,015
-452,197	-20,903	-0,043	0,019
-451,182	-200,000	-0,029	-0,096
-450,168	86,052	0,119	-0,095
-449,153	-56,253	-0,091	-0,029
-448,138	403,595	-0,056	0,086
-447,124	-200,000	-0,002	0,160
-446,109	-3,433	-0,126	-0,064
-445,095	92,751	0,112	-0,092
-444,080	-18,492	0,062	-0,028
-443,065	800,000	0,006	-0,017
-442,051	718,631	0,064	0,124
-441,036	-200,000	0,006	-0,050
-440,022	-113,113	0,080	0,011
-439,007	-36,372	-0,129	0,050
-437,992	-57,362	0,027	-0,009
-436,978	431,998	0,021	0,033
-435,963	-200,000	-0,006	0,025
-434,949	-69,022	-0,078	0,022
-433,934	800,000	-0,068	0,159
-432,919	-200,000	-0,025	-0,099
-431,905	-200,000	-0,003	-0,078
-430,890	-136,123	0,051	-0,004
-429,876	800,000	0,032	0,101
-428,861	631,136	-0,051	-0,095
-427,846	-53,968	-0,056	-0,019
-426,832	78,492	0,033	0,026
-425,817	336,746	-0,035	-0,049
-424,803	189,093	0,076	-0,083
-423,788	-133,500	0,168	0,015
-422,773	56,585	0,095	0,067
-421,759	800,000	0,022	0,059
-420,744	137,448	-0,091	0,086
-419,730	-18,231	-0,073	0,033
-418,715	-87,958	0,102	0,022
-417,701	-200,000	-0,005	-0,074
-416,686	24,957	0,097	0,058
-415,671	-200,000	-0,032	0,113
-414,657	-200,000	-0,020	0,166
-413,642	-200,000	-0,006	-0,064
-412,628	-66,977	-0,085	0,024
-411,613	678,912	-0,059	-0,113
-410,598	-38,752	-0,093	0,036
-409,584	20,509	0,084	0,049
-408,569	-24,257	0,006	0,003
-407,555	116,433	0,062	-0,056
-406,540	800,000	-0,074	-0,156
-405,525	56,301	0,090	-0,063
-404,511	-200,000	0,002	-0,040
-403,496	-131,683	-0,127	-0,012
-402,482	-200,000	0,017	0,105
-401,467	355,754	0,101	0,147
-400,452	285,103	0,044	0,058
-399,438	800,000	-0,058	0,122
-398,423	397,292	-0,042	-0,063
-397,409	370,206	-0,009	0,013
-396,394	90,532	-0,076	-0,062
-395,379	-1,669	0,080	-0,041
-394,365	213,011	0,081	-0,093
-393,350	-25,586	0,091	-0,039
-392,336	-103,010	-0,044	0,008
-391,321	366,473	-0,085	0,125
-390,306	-134,758	-0,025	-0,002
-389,292	105,728	-0,068	0,058
-388,277	268,998	0,050	0,064
-387,263	-200,000	0,009	-0,140
-386,248	-78,480	0,115	0,028
-385,233	-14,618	0,039	-0,018
-384,219	-200,000	0,001	-0,054
-383,204	-200,000	0,007	0,060
-382,190	77,016	0,075	-0,058
-381,175	218,030	0,076	0,088
-380,160	-200,000	0,011	0,169
-379,146	-200,000	-0,011	0,039
-378,131	333,265	-0,028	-0,039
-377,117	-170,632	-0,056	-0,001
-376,102	800,000	-0,059	-0,143
-375,088	16,227	0,096	-0,055
-374,073	-112,713	-0,034	-0,005
-373,058	114,913	0,058	-0,052
-372,044	-158,229	0,128	-0,005
-371,029	-57,351	0,055	0,017
-370,015	-200,000	-0,002	-0,070
-369,000	-95,369	-0,134	0,026
-367,985	264,353	0,121	0,152
-366,971	718,574	-0,029	0,056
-365,956	274,629	0,001	0,002
-364,942	-87,271	0,096	-0,021
-363,927	119,208	0,022	-0,020
-362,912	-200,000	0,013	0,146
-361,898	-73,252	-0,186	0,049
-360,883	-200,000	-0,035	-0,116
-359,869	-200,000	0,011	-0,152
-358,854	313,405	-0,008	0,011
-357,839	-200,000	0,002	0,064
-356,825	-28,030	-0,033	-0,014
-355,810	800,000	0,042	-0,110
-354,796	-56,391	-0,075	0,024
-353,781	-200,000	-0,008	-0,150
-352,766	-200,000	0,011	0,097
-351,752	428,713	-0,027	-0,042
-350,737	-198,377	-0,099	-0,000
-349,723	132,166	-0,049	0,046
-348,708	266,424	-0,079	0,101
-347,693	-200,000	-0,003	0,099
-346,679	240,521	0,070	-0,085
-345,664	209,636	-0,093	0,105
-344,650	-200,000	-0,019	-0,064
-343,635	-1,837	0,102	0,052
-342,620	378,626	0,049	0,073
-341,606	-200,000	0,063	0,215
-340,591	74,301	-0,121	0,092
-339,577	-200,000	0,013	0,075
-338,562	-51,179	-0,044	0,015
-337,548	-200,000	-0,003	0,029
-336,533	171,501	-0,129	0,134
-335,518	61,233	0,098	0,070
-334,504	229,734	0,052	-0,061
-333,489	-111,716	-0,145	-0,021
-332,475	-200,000	0,002	0,062
-331,460	-200,000	0,004	-0,095
-330,445	-200,000	0,015	-0,107
-329,431	800,000	-0,030	0,080
-328,416	86,551	0,010	-0,008
-327,402	81,049	0,104	0,081
-326,387	-200,000	0,008	0,026
-325,372	240,266	-0,097	-0,118
-324,358	-27,602	0,024	0,010
-323,343	56,706	0,010	0,007
-322,329	39,884	0,131	0,085
-321,314	-114,271	0,094	0,013
-320,299	-11,002	0,062	0,029
-319,285	-200,000	0,005	-0,032
-318,270	-200,000	0,005	0,097
-317,256	800,000	0,038	-0,095
-316,241	207,591	-0,023	0,026
-315,226	-200,000	0,005	0,057
-314,212	686,755	0,051	0,098
-313,197	211,642	-0,029	0,033
-312,183	47,971	0,065	-0,044
-311,168	-133,045	0,017	-0,002
-310,153	100,437	-0,085	0,072
-309,139	28,035	0,077	0,047
-308,124	-3,883	0,061	-0,030
-307,110	800,000	0,069	-0,151
-306,095	800,000	-0,017	0,052
-305,080	14,882	0,062	-0,035
-304,066	73,594	0,023	0,017
-303,051	298,286	-0,039	-0,052
-302,037	37,659	0,023	0,015
-301,022	-200,000	0,030	0,104
-300,008	-200,000	0,005	0,024
-298,993	194,158	0,086	0,095
-297,978	-64,989	0,054	-0,016
-296,964	254,308	0,036	-0,045
-295,949	-35,072	0,049	0,019
-294,935	-200,000	-0,001	-0,039
-293,920	-200,000	-0,001	0,059
-292,905	800,000	0,017	0,053
-291,891	241,318	0,011	-0,013
-290,876	800,000	-0,001	-0,003
-289,862	800,000	0,060	0,167
-288,847	174,697	-0,096	-0,100
-287,832	-200,000	0,029	-0,095
-286,818	251,871	-0,030	0,036
-285,803	425,432	0,036	-0,056
-284,789	-10,706	0,124	-0,059
-283,774	-200,000	-0,013	0,195
-282,759	-200,000	0,027	0,099
-281,745	-177,268	-0,085	-0,001
-280,730	80,130	-0,088	0,068
-279,716	34,728	0,100	0,063
-278,701	154,606	-0,133	-0,132
-277,686	-200,000	0,008	0,070
-276,672	30,916	-0,107	0,066
-275,657	123,693	0,027	-0,025
-274,643	-49,176	-0,111	-0,038
-273,628	112,692	-0,104	-0,091
-272,613	-200,000	-0,019	0,062
-271,599	344,655	0,056	0,080
-270,584	173,903	0,062	0,065
-269,570	156,985	0,057	-0,057
-268,555	-20,855	0,067	-0,030
-267,540	43,127	-0,064	-0,042
-266,526	513,544	-0,074	0,124
-265,511	-75,797	-0,074	0,019
-264,497	315,205	0,038	-0,052
-263,482	-200,000	-0,021	0,082
-262,467	521,820	-0,041	0,070
-261,453	-200,000	0,012	0,072
-260,438	-90,763	-0,056	-0,012
-259,424	115,515	0,104	0,091
-258,409	-111,046	-0,027	-0,004
-257,395	-89,606	0,128	0,027
-256,380	627,309	-0,039	-0,071
-255,365	122,171	-0,048	0,043
-254,351	-56,905	-0,085	0,027
-253,336	-25,862	-0,108	-0,046
-252,322	86,071	-0,064	-0,051
-251,307	66,429	0,148	-0,108
-250,292	-93,396	0,098	0,019
-249,278	396,823	0,094	-0,142
-248,263	800,000	-0,046	-0,130
-247,249	-200,000	-0,005	-0,071
-246,234	-200,000	0,012	-0,068
-245,219	28,788	0,062	-0,038
-244,205	-65,856	-0,241	0,069
-243,190	-200,000	0,020	-0,145
-242,176	175,020	0,060	0,063
-241,161	-200,000	0,006	0,089
-240,146	-200,000	-0,024	0,092
-239,132	106,223	-0,145	-0,124
-238,117	132,671	-0,127	-0,119
-237,103	-23,986	-0,131	-0,056
-236,088	-200,000	-0,012	-0,067
-235,073	258,478	0,101	0,126
-234,059	800,000	0,017	-0,035
-233,044	800,000	-0,033	0,093
-232,030	110,318	0,025	0,021
-231,015	800,000	-0,062	-0,135
-230,000	-82,328	0,058	-0,013
-228,986	95,549	-0,067	0,055
-227,971	282,691	0,023	0,030
-226,957	-200,000	0,036	0,117
-225,942	-200,000	-0,004	-0,017
-224,927	800,000	-0,028	-0,085
-223,913	-200,000	0,019	0,092
-222,898	24,192	0,128	-0,076
-221,884	800,000	-0,055	0,133
-220,869	-200,000	-0,001	-0,013
-219,855	800,000	-0,012	0,026
-218,840	-30,626	-0,020	-0,008
-217,825	369,321	-0,031	-0,045
-216,811	800,000	0,018	-0,051
-215,796	486,644	0,072	-0,119
-214,782	424,097	-0,027	-0,042
-213,767	-200,000	0,001	0,068
-212,752	-53,365	0,115	-0,038
-211,738	-200,000	0,011	0,048
-210,723	-137,047	0,042	0,003
-209,709	-147,682	-0,077	0,005
-208,694	-200,000	-0,012	-0,058
-207,679	-54,313	0,105	-0,034
-206,665	800,000	0,062	-0,160
-205,650	-51,659	0,198	-0,066
-204,636	44,518	-0,005	0,003
-203,621	-37,170	-0,050	0,019
-202,606	-40,404	-0,091	0,034
-201,592	211,151	0,021	-0,024
-200,577	145,480	-0,252	-0,243
-199,563	-200,000	0,007	0,057
-198,548	-200,000	0,002	-0,045
-197,533	239,772	-0,085	0,102
-196,519	90,454	-0,045	0,037
-195,504	-27,573	0,042	0,017
-194,490	171,981	0,056	-0,058
-193,475	-200,000	0,009	0,125
-192,460	-29,348	0,044	0,018
-191,446	496,986	-0,029	-0,048
-190,431	-200,000	-0,005	0,046
-189,417	401,263	0,043	-0,065
-188,402	-197,900	-0,085	0,000
-187,387	800,000	-0,014	-0,028
-186,373	-0,713	0,156	-0,080
-185,358	-200,000	-0,005	-0,049
-184,344	800,000	-0,029	0,069
-183,329	-14,387	0,097	-0,045
-182,315	-200,000	-0,008	0,145
-181,300	310,566	0,093	-0,125
-180,285	325,133	0,037	0,051
-179,271	36,867	-0,094	0,060
-178,256	697,983	0,051	-0,096
-177,242	-200,000	-0,004	-0,031
-176,227	152,625	0,112	0,110
-175,212	-23,394	-0,033	0,014
-174,198	-100,610	-0,230	-0,040
-173,183	-18,193	-0,065	0,029
-172,169	163,595	0,018	0,018
-171,154	199,217	-0,094	-0,104
-170,139	-142,024	0,100	0,007
-169,125	213,093	-0,046	0,052
-168,110	152,660	-0,089	0,088
-167,096	800,000	-0,024	-0,050
-166,081	550,700	-0,040	-0,069
-165,066	-200,000	-0,030	0,110
-164,052	-39,228	0,117	0,044
-163,037	35,875	0,031	-0,020
-162,023	-200,000	-0,009	0,082
-161,008	-51,541	-0,085	0,028
-159,993	-200,000	0,064	0,218
-158,979	-69,175	0,136	-0,038
-157,964	-200,000	-0,033	0,181
-156,950	-200,000	-0,024	-0,077
-155,935	800,000	0,038	-0,092
-154,920	-64,808	-0,059	0,017
-153,906	-200,000	-0,008	0,038
-152,891	54,942	0,044	0,031
-151,877	7,145	0,112	0,060
-150,862	-122,277	-0,049	0,006
-149,847	-35,746	0,110	0,043
-148,833	657,100	0,059	0,109
-147,818	183,005	-0,011	0,012
-146,804	-94,707	-0,114	0,022
-145,789	800,000	-0,010	-0,031
-144,775	-45,847	0,044	0,015
-143,760	587,218	-0,048	-0,085
-142,745	51,276	-0,112	0,077
-141,731	-200,000	0,010	0,104
-140,716	-200,000	0,013	0,083
-139,702	-200,000	-0,001	-0,013
-138,687	644,539	0,018	0,032
-137,672	-200,000	-0,004	-0,024
-136,658	73,125	0,104	-0,078
-135,643	-200,000	-0,024	0,083
-134,629	-200,000	0,006	0,092
-133,614	-92,731	0,094	-0,019
-132,599	-200,000	0,013	0,069
-131,585	-200,000	-0,007	0,053
-130,570	161,768	-0,091	-0,092
-129,556	224,698	0,013	0,015
-128,541	-200,000	-0,022	0,073
-127,526	-200,000	0,001	0,042
-126,512	132,803	-0,048	0,044
-125,497	-200,000	0,036	0,166
-124,483	164,667	-0,123	0,124
-123,468	5,155	0,060	0,032
-122,453	5,000	-0,066	-0,035
-121,439	-200,000	0,010	-0,170
-120,424	-184,773	-0,032	-0,000
-119,410	786,176	-0,016	-0,031
-118,395	-200,000	-0,013	-0,078
-117,380	272,485	0,054	0,068
-116,366	10,968	0,028	-0,015
-115,351	-60,797	-0,048	0,015
-114,337	-53,732	-0,100	0,032
-113,322	-183,942	0,052	-0,001
-112,307	17,520	-0,045	-0,026
-111,293	-200,000	0,003	0,015
-110,278	265,933	0,096	-0,121
-109,264	184,685	0,067	0,071
-108,249	-104,864	0,114	0,019
-107,234	-200,000	-0,007	-0,032
-106,220	-49,551	-0,078	-0,026
-105,205	-4,488	0,080	0,040
-104,191	-0,604	0,008	0,004
-103,176	-44,939	-0,049	-0,017
-102,162	-200,000	-0,020	0,066
-101,147	168,630	0,116	0,118
-100,132	-131,693	-0,096	-0,009
-99,118	-62,150	-0,089	0,026
-98,103	66,538	0,063	0,046
-97,089	80,018	0,074	-0,057
-96,074	-97,593	0,072	0,013
-95,059	12,559	-0,092	0,051
-94,045	-200,000	0,043	-0,202
-93,030	-200,000	-0,009	0,046
-92,016	800,000	-0,013	-0,030
-91,001	-200,000	0,012	0,098
-89,986	109,458	0,052	-0,045
-88,972	-65,975	0,043	0,012
-87,957	-50,175	0,111	0,037
-86,943	-200,000	-0,005	-0,017
-85,928	-200,000	0,013	-0,106
-84,913	577,407	0,030	-0,054
-83,899	-70,379	0,040	0,011
-82,884	-200,000	-0,011	-0,041
-81,870	-158,883	0,082	-0,003
-80,855	303,982	-0,054	0,072
-79,840	-140,403	-0,133	0,010
-78,826	119,690	-0,030	-0,027
-77,811	266,340	-0,024	-0,030
-76,797	-149,356	0,113	-0,006
-75,782	-200,000	-0,020	0,190
-74,767	-200,000	0,019	-0,074
-73,753	399,191	0,044	-0,067
-72,738	115,063	-0,017	-0,015
-71,724	-104,925	-0,082	-0,013
-70,709	-66,758	0,036	-0,010
-69,694	513,304	0,031	-0,052
-68,680	662,616	-0,029	0,053
-67,665	358,195	0,037	-0,053
-66,651	107,768	-0,092	0,078
-65,636	800,000	-0,017	-0,042
-64,622	-200,000	-0,001	-0,071
-63,607	396,799	-0,029	0,044
-62,592	-69,058	0,077	0,021
-61,578	106,890	-0,039	-0,033
-60,563	800,000	0,025	0,078
-59,549	285,374	0,024	-0,030
-58,534	44,684	-2,114	-1,391
-57,519	-200,000	-0,053	-0,720
-56,505	-200,000	-1,331	-5,143
-55,490	78,630	0,956	0,731
-54,476	800,000	5,348	12,105
-53,461	-200,000	18,831	315,727
-52,446	800,000	740,949	2315,036
-51,432	547,823	1653,961	2847,157
-50,417	109,724	1637,008	1405,266
-49,403	73,385	1287,210	963,744
-48,388	29,731	1028,984	625,944
-47,373	19,640	991,970	570,083
-46,359	17,143	979,400	554,644
-45,344	13,719	975,675	541,286
-44,330	14,071	974,201	541,602
-43,315	13,454	972,112	538,401
-42,300	13,337	971,336	537,567
-41,286	13,387	970,249	537,108
-40,271	13,375	969,301	536,523
-39,257	13,382	968,558	536,113
-38,242	13,442	967,536	535,721
-37,227	13,379	966,785	535,081
-36,213	13,454	965,810	534,763
-35,198	13,296	965,094	533,833
-34,184	13,437	964,319	533,839
-33,169	13,377	963,311	533,065
-32,154	13,356	962,442	532,494
-31,140	13,455	961,396	532,216
-30,125	13,411	960,773	531,708
-29,111	13,440	959,942	531,321
-28,096	13,411	959,180	530,783
-27,082	13,431	958,526	530,465
-26,067	13,403	958,024	530,077
-25,052	13,409	957,133	529,582
-24,038	13,366	956,524	529,084
-23,023	13,421	955,644	528,755
-22,009	13,460	954,964	528,483
-20,994	13,402	954,580	528,061
-19,979	13,387	953,890	527,612
-18,965	13,451	953,129	527,376
-17,950	13,398	952,677	526,934
-16,936	13,349	952,135	526,455
-15,921	13,359	951,458	526,093
-14,906	13,386	950,408	525,578
-13,892	13,272	950,073	525,006
-12,877	13,290	949,276	524,602
-11,863	13,300	948,648	524,269
-10,848	13,281	948,254	523,967
-9,833	13,374	947,776	523,980
-8,819	13,321	946,990	523,356
-7,804	13,323	946,335	522,981
-6,790	13,313	945,957	522,720
-5,775	13,371	945,204	522,465
-4,760	13,337	944,671	522,044
-3,746	13,293	944,124	521,579
-2,731	13,181	943,210	520,699
-1,717	13,093	942,696	520,116
-0,702	13,105	941,914	519,702
0,313	12,882	941,398	519,495
1,327	16,447	939,046	529,404
2,342	25,576	789,706	469,250
3,356	21,707	443,813	257,975
4,371	-7,804	296,799	142,899
5,386	-11,429	278,520	130,638
6,400	-12,885	272,782	126,576
7,415	-12,788	270,458	125,577
8,429	-12,851	268,842	124,757
9,444	-13,049	268,050	124,197
10,459	-13,052	267,361	123,864
11,473	-13,089	266,835	123,576
12,488	-13,088	266,158	123,252
13,502	-13,316	265,637	122,793
14,517	-13,324	265,283	122,611
15,531	-13,224	264,826	122,479
16,546	-13,185	264,473	122,340
17,561	-12,990	264,015	122,293
18,575	-12,949	263,839	122,238
19,590	-13,361	263,596	121,743
20,604	-12,944	263,127	121,891
21,619	-13,256	262,930	121,508
22,634	-13,159	262,483	121,378
23,648	-13,201	262,052	121,131
24,663	-13,110	261,937	121,148
25,677	-13,160	261,740	121,001
26,692	-13,124	261,423	120,876
27,707	-13,245	260,988	120,556
28,721	-13,079	260,760	120,588
29,736	-13,065	260,590	120,511
30,750	-13,250	260,243	120,176
31,765	-13,214	259,980	120,076
32,780	-13,356	259,938	119,919
33,794	-13,222	259,600	119,872
34,809	-13,203	259,294	119,736
35,823	-13,349	259,098	119,506
36,838	-13,290	258,857	119,436
37,853	-13,404	258,545	119,182
38,867	-13,265	258,293	119,176
39,882	-13,312	258,004	118,992
40,896	-13,250	257,960	119,015
41,911	-13,177	257,454	118,835
42,926	-13,218	257,262	118,700
43,940	-13,531	257,174	118,374
44,955	-13,438	256,860	118,300
45,969	-13,693	256,791	118,035
46,984	-13,510	256,375	117,993
47,999	-13,929	256,142	117,510
49,013	-13,685	255,719	117,518
50,028	-14,162	255,722	117,093
51,042	-13,949	255,155	117,008
52,057	-14,193	255,189	116,801
53,071	-14,201	254,918	116,660
54,086	-14,004	254,790	116,762
55,101	-13,775	254,534	116,833
56,115	-13,730	254,539	116,863
57,130	-13,225	254,468	117,258
58,144	-13,112	254,175	117,210
59,159	-12,952	253,867	117,196
60,174	-13,079	253,750	117,023
61,188	-13,072	253,494	116,900
62,203	-13,114	253,291	116,759
63,217	-13,282	253,204	116,564
64,232	-13,178	252,858	116,484
65,247	-13,189	252,618	116,354
66,261	-13,261	252,615	116,280
67,276	-13,377	252,136	115,950
68,290	-13,624	251,877	115,608
69,305	-13,696	251,645	115,430
70,320	-13,792	251,494	115,269
71,334	-13,496	251,287	115,416
72,349	-13,226	251,371	115,675
73,363	-13,111	251,010	115,597
74,378	-13,022	250,795	115,564
75,393	-13,173	250,498	115,288
76,407	-13,376	250,334	115,029
77,422	-13,286	250,142	115,007
78,436	-13,412	249,964	114,808
79,451	-13,191	249,762	114,893
80,466	-13,309	249,559	114,689
81,480	-13,314	249,183	114,502
82,495	-13,537	249,065	114,249
83,509	-13,557	248,943	114,166
84,524	-13,364	248,573	114,149
85,539	-13,545	248,240	113,833
86,553	-13,531	248,141	113,789
87,568	-13,380	248,003	113,843
88,582	-13,632	247,916	113,580
89,597	-13,412	247,611	113,616
90,611	-13,469	247,484	113,500
91,626	-13,386	247,422	113,531
92,641	-13,222	247,166	113,541
93,655	-13,267	246,974	113,405
94,670	-13,478	246,763	113,121
95,684	-13,534	246,551	112,967
96,699	-13,434	246,437	112,988
97,714	-13,655	246,230	112,698
98,728	-13,374	245,828	112,738
99,743	-13,625	245,701	112,461
100,757	-13,761	245,419	112,209
101,772	-13,703	245,301	112,194
102,787	-13,339	245,125	112,405
103,801	-13,361	245,066	112,350
104,816	-13,450	244,891	112,186
105,830	-13,358	244,640	112,137
106,845	-13,265	244,563	112,169
107,860	-13,243	244,366	112,087
108,874	-13,383	244,107	111,842
109,889	-13,332	243,814	111,740
110,903	-13,474	243,685	111,554
111,918	-13,521	243,595	111,464
112,933	-13,366	243,217	111,409
113,947	-13,454	243,304	111,367
114,962	-13,379	243,018	111,287
115,976	-13,261	242,803	111,275
116,991	-13,238	242,680	111,228
118,006	-13,063	242,382	111,226
119,020	-13,149	242,295	111,105
120,035	-13,276	242,162	110,930
121,049	-13,244	241,959	110,854
122,064	-13,125	241,826	110,880
123,079	-13,246	241,647	110,689
124,093	-13,358	241,370	110,461
125,108	-13,494	241,021	110,180
126,122	-13,546	240,839	110,045
127,137	-13,804	240,636	109,732
128,151	-13,770	240,630	109,747
129,166	-13,572	240,373	109,782
130,181	-13,679	240,333	109,666
131,195	-13,690	239,928	109,462
132,210	-13,489	239,899	109,603
133,224	-13,256	239,671	109,678
134,239	-13,332	239,505	109,531
135,254	-13,381	239,302	109,388
136,268	-13,422	239,041	109,226
137,283	-13,739	238,867	108,881
138,297	-13,671	238,536	108,775
139,312	-13,891	238,558	108,598
140,327	-13,387	238,315	108,884
141,341	-12,922	238,356	109,267
142,356	-12,902	238,163	109,185
143,370	-12,931	238,009	109,082
144,385	-12,937	237,801	108,971
145,400	-12,979	237,690	108,877
146,414	-13,011	237,504	108,757
147,429	-13,117	237,316	108,576
148,443	-13,056	237,192	108,558
149,458	-13,281	236,923	108,246
150,473	-12,965	236,791	108,428
151,487	-12,997	236,555	108,285
152,502	-12,933	236,474	108,289
153,516	-13,066	236,335	108,110
154,531	-12,891	235,996	108,085
155,546	-13,261	236,075	107,816
156,560	-13,247	235,888	107,733
157,575	-13,376	235,536	107,459
158,589	-13,015	235,377	107,664
159,604	-12,847	235,036	107,632
160,619	-12,803	235,165	107,716
161,633	-12,924	234,944	107,510
162,648	-12,929	234,933	107,491
163,662	-13,088	234,628	107,216
164,677	-13,083	234,554	107,176
165,692	-13,267	234,323	106,916
166,706	-12,819	234,184	107,197
167,721	-12,905	234,016	107,043
168,735	-12,755	233,922	107,109
169,750	-13,129	233,898	106,793
170,764	-13,183	233,733	106,665
171,779	-12,961	233,431	106,692
172,794	-12,827	233,295	106,726
173,808	-12,975	233,067	106,497
174,823	-13,344	232,759	106,057
175,837	-13,601	232,490	105,723
176,852	-13,261	232,500	105,985
177,867	-13,066	232,412	106,088
178,881	-13,030	232,207	106,013
179,896	-12,945	232,131	106,035
180,910	-13,116	232,028	105,846
181,925	-13,006	231,714	105,778
182,940	-12,758	231,624	105,921
183,954	-12,763	231,469	105,838
184,969	-13,069	231,406	105,561
185,983	-12,791	231,187	105,667
186,998	-12,732	230,997	105,617
188,013	-12,785	230,792	105,473
189,027	-12,809	230,780	105,439
190,042	-12,967	230,562	105,208
191,056	-12,762	230,395	105,281
192,071	-12,818	230,099	105,093
193,086	-12,734	229,938	105,075
194,100	-12,635	229,840	105,098
195,115	-13,227	229,436	104,447
196,129	-13,201	229,673	104,565
197,144	-7,522	231,572	109,838
198,159	-2,131	233,087	114,758
199,173	1,709	234,306	118,354
200,188	2,875	234,169	119,186
201,202	2,480	234,235	118,901
202,217	2,843	233,866	118,985
203,232	2,972	233,703	118,992
204,246	2,891	233,595	118,864
205,261	2,941	233,629	118,909
206,275	3,163	233,419	118,965
207,290	3,224	233,335	118,958
208,304	3,177	233,092	118,788
209,319	2,903	232,938	118,486
210,334	3,013	232,688	118,434
211,348	2,742	232,653	118,195
212,363	2,595	232,339	117,911
213,377	2,141	232,095	117,425
214,392	2,108	232,006	117,344
215,407	2,227	232,004	117,425
216,421	2,447	231,743	117,453
217,436	2,305	231,528	117,223
218,450	2,223	231,216	116,992
219,465	2,194	231,123	116,912
220,480	2,244	230,922	116,838
221,494	2,241	230,904	116,817
222,509	2,302	230,792	116,796
223,523	2,477	230,703	116,875
224,538	2,346	230,370	116,596
225,553	2,296	230,344	116,534
226,567	2,209	230,260	116,414
227,582	2,757	230,143	116,764
228,596	2,726	230,057	116,687
229,611	2,395	229,862	116,325
230,626	2,286	229,510	116,053
231,640	2,275	229,337	115,946
232,655	2,669	229,196	116,165
233,669	2,807	229,135	116,229
234,684	2,839	229,168	116,260
235,699	2,639	228,886	115,954
236,713	2,456	228,802	115,762
237,728	2,377	228,528	115,553
238,742	2,066	228,270	115,176
239,757	2,592	228,153	115,506
240,772	2,323	227,966	115,196
241,786	2,303	227,781	115,078
242,801	2,801	227,738	115,423
243,815	2,697	227,853	115,392
244,830	2,787	227,603	115,324
245,844	2,549	227,275	114,967
246,859	2,419	227,193	114,817
247,874	2,587	227,076	114,874
248,888	2,663	226,975	114,871
249,903	2,696	226,749	114,771
250,917	2,298	226,655	114,413
251,932	2,537	226,458	114,483
252,947	2,298	226,276	114,202
253,961	2,221	225,989	113,988
254,976	2,309	226,011	114,056
255,990	2,557	225,892	114,171
257,005	2,625	225,757	114,144
258,020	2,736	225,655	114,166
259,034	2,713	225,378	113,998
260,049	2,591	225,132	113,772
261,063	2,461	225,164	113,681
262,078	2,684	225,042	113,776
263,093	2,505	224,961	113,591
264,107	2,724	224,785	113,656
265,122	2,672	224,669	113,548
266,136	2,982	224,643	113,755
267,151	2,827	224,366	113,490
268,166	2,559	224,190	113,191
269,180	2,343	223,744	112,796
270,195	2,261	223,708	112,707
271,209	2,362	223,506	112,671
272,224	2,279	223,616	112,654
273,239	2,452	223,366	112,646
274,253	2,347	223,223	112,487
275,268	2,029	223,078	112,168
276,282	2,191	222,815	112,145
277,297	2,100	222,592	111,956
278,312	2,163	222,553	111,973
279,326	2,366	222,636	112,154
280,341	2,335	222,378	111,991
281,355	2,430	222,334	112,030
282,370	2,454	222,211	111,975
283,384	2,236	221,993	111,695
284,399	2,128	221,783	111,500
285,414	2,300	221,668	111,558
286,428	2,660	221,468	111,712
287,443	2,713	221,469	111,741
288,457	2,643	221,275	111,582
289,472	2,344	221,031	111,231
290,487	2,026	220,758	110,851
291,501	2,102	220,602	110,818
292,516	2,104	220,427	110,722
293,530	2,097	220,427	110,707
294,545	2,172	220,333	110,705
295,560	2,288	220,207	110,715
296,574	2,255	220,118	110,637
297,589	2,092	220,087	110,493
298,603	2,417	219,841	110,596
299,618	2,348	219,613	110,421
300,633	2,460	219,596	110,484
301,647	2,713	219,465	110,592
302,662	2,512	219,415	110,411
303,676	2,585	219,127	110,309
304,691	2,695	219,067	110,349
305,706	2,581	219,008	110,226
306,720	2,672	218,945	110,251
307,735	2,480	218,475	109,866
308,749	2,315	218,364	109,681
309,764	2,612	218,275	109,841
310,779	2,826	218,139	109,917
311,793	2,666	217,919	109,681
312,808	2,732	217,896	109,707
313,822	2,598	217,855	109,581
314,837	2,581	217,535	109,397
315,852	2,166	217,460	109,052
316,866	2,422	217,344	109,167
317,881	2,534	217,283	109,208
318,895	2,606	217,045	109,130
319,910	2,312	216,818	108,796
320,925	2,019	216,539	108,436
321,939	1,682	216,458	108,146
322,954	1,635	216,390	108,068
323,968	2,307	216,400	108,544
324,983	2,609	216,277	108,688
325,997	2,777	216,107	108,712
327,012	2,601	215,888	108,468
328,027	2,627	215,786	108,425
329,041	2,861	215,649	108,513
330,056	2,765	215,540	108,380
331,070	2,360	215,380	108,003
332,085	2,234	215,246	107,836
333,100	2,542	215,088	107,966
334,114	2,573	214,975	107,921
335,129	2,411	214,846	107,732
336,143	2,441	214,640	107,640
337,158	2,453	214,508	107,573
338,173	2,474	214,233	107,441
339,187	2,004	214,288	107,127
340,202	2,010	214,107	107,031
341,216	2,530	214,068	107,368
342,231	2,652	214,048	107,435
343,246	2,553	213,732	107,197
344,260	2,362	213,642	107,008
345,275	2,583	213,567	107,116
346,289	2,610	213,446	107,065
347,304	2,839	213,308	107,147
348,319	2,611	212,900	106,773
349,333	2,467	212,984	106,704
350,348	2,594	212,788	106,685
351,362	2,548	212,702	106,601
352,377	2,865	212,509	106,716
353,392	2,568	212,425	106,457
354,406	2,759	212,264	106,500
355,421	196,928	1312,022	1389,749
356,435	157,524	1445,954	1389,678
