DTS Sentinel unit serial number:	SN410029Multiplexer serial number:	ORYXHardware model number:	OX2-SRSoftware version number:	ORYX F/W v4,00 Oryx Data Collector v3.7.2.0data status	okinstallation	B6 Nyhavnadifferential loss correction	single-endedforward channel	channel 2reverse channel	N/Adate	2023/12/07time	19:30:08forward acquisition time	300,00reverse acquisition time	0,00gamma	499,1914k internal	0,3164k external	0,3164temperature offset calibration	1,0000default loss term (dB/km)	0,3820temperature slope calibration	1,0000multiplexer offset coefficient	1,0000multiplexer slope coefficient	1,0000fibre end	0,00T internal ref (°C)	14,00T ext. ref 1 (°C)	-2,99T ext. ref 2 (°C)	-3,01length (m)	temperature (°C)	Stokes	anti-Stokes-744,400	598,567	0,051	0,094
-743,385	-72,157	-0,207	0,056
-742,371	15,288	-0,104	0,060
-741,356	-98,138	-0,328	0,062
-740,342	-35,296	0,087	0,035
-739,327	-125,682	-0,263	-0,029
-738,312	800,000	0,069	0,208
-737,298	-140,753	-0,482	0,036
-736,283	-12,934	0,271	0,129
-735,269	-98,672	-0,311	0,058
-734,254	-37,593	0,197	0,077
-733,239	-33,080	-0,586	-0,238
-732,225	-38,755	0,129	-0,050
-731,210	-200,000	0,006	0,108
-730,196	98,320	-0,082	-0,070
-729,181	172,917	-0,040	-0,042
-728,167	239,474	-0,187	-0,230
-727,152	16,370	0,056	-0,032
-726,137	-92,859	0,106	-0,022
-725,123	35,048	-0,144	-0,093
-724,108	800,000	-0,034	-0,075
-723,094	-200,000	-0,034	-0,122
-722,079	800,000	-0,037	-0,087
-721,064	195,461	-0,014	-0,016
-720,050	94,509	-0,072	-0,060
-719,035	667,504	-0,071	-0,135
-718,021	-29,469	-0,171	0,072
-717,006	-47,470	0,044	-0,015
-715,991	-63,597	-0,223	-0,067
-714,977	102,935	0,045	0,039
-713,962	-111,451	0,055	-0,008
-712,948	-200,000	0,012	-0,234
-711,933	800,000	0,013	-0,031
-710,918	294,497	-0,039	-0,052
-709,904	800,000	-0,063	-0,192
-708,889	-118,664	-0,068	0,009
-707,875	800,000	-0,011	-0,025
-706,860	-112,597	-0,173	-0,025
-705,845	-200,000	0,023	-0,158
-704,831	-200,000	0,003	-0,094
-703,816	609,803	-0,065	0,119
-702,802	-200,000	0,006	-0,066
-701,787	800,000	0,035	-0,080
-700,772	-62,837	-0,087	-0,026
-699,758	-38,015	0,182	0,071
-698,743	315,236	-0,033	-0,046
-697,729	100,818	0,036	0,031
-696,714	274,972	0,129	0,168
-695,699	-86,644	-0,176	0,039
-694,685	-123,807	-0,068	0,008
-693,670	-200,000	-0,003	-0,096
-692,656	423,714	-0,059	-0,094
-691,641	549,841	-0,007	0,012
-690,627	-87,970	-0,061	-0,013
-689,612	-42,774	-0,046	0,017
-688,597	-15,466	-0,111	0,052
-687,583	800,000	-0,057	-0,177
-686,568	138,833	0,031	-0,030
-685,554	155,708	-0,093	-0,094
-684,539	-137,766	0,204	-0,017
-683,524	-200,000	0,024	-0,100
-682,510	-58,367	0,060	0,019
-681,495	-113,602	-0,077	-0,011
-680,481	424,733	-0,038	-0,060
-679,466	502,226	-0,029	-0,050
-678,451	38,665	-0,069	-0,045
-677,437	152,548	0,052	0,052
-676,422	133,266	0,048	-0,046
-675,408	-73,963	-0,119	-0,031
-674,393	-200,000	-0,004	-0,034
-673,378	271,394	-0,140	-0,182
-672,364	-6,224	-0,175	-0,087
-671,349	28,186	-0,031	-0,019
-670,335	50,081	-0,084	-0,058
-669,320	77,186	0,107	0,084
-668,305	499,180	0,061	-0,104
-667,291	-200,000	-0,007	0,084
-666,276	800,000	-0,059	-0,150
-665,262	336,668	-0,044	-0,064
-664,247	65,547	-0,051	-0,038
-663,232	-61,702	0,067	0,021
-662,218	409,539	-0,014	0,021
-661,203	31,237	-0,055	0,034
-660,189	-70,006	-0,091	-0,025
-659,174	800,000	-0,112	-0,248
-658,159	131,960	-0,014	0,013
-657,145	214,695	-0,101	-0,117
-656,130	-200,000	-0,036	-0,217
-655,116	-200,000	0,003	0,020
-654,101	-200,000	-0,009	-0,057
-653,086	52,826	-0,028	-0,020
-652,072	296,254	-0,080	0,107
-651,057	27,617	-0,084	-0,052
-650,043	199,008	-0,052	-0,059
-649,028	-200,000	0,008	-0,170
-648,014	-200,000	0,003	0,089
-646,999	-50,798	-0,127	0,043
-645,984	-155,976	0,061	0,003
-644,970	-200,000	-0,002	-0,066
-643,955	314,328	-0,068	-0,094
-642,941	800,000	-0,030	-0,083
-641,926	-106,188	-0,130	-0,021
-640,911	404,799	0,085	-0,131
-639,897	-94,753	0,036	-0,007
-638,882	75,680	-0,071	-0,055
-637,868	-37,520	-0,143	0,055
-636,853	131,355	-0,076	0,072
-635,838	-198,428	-0,099	0,000
-634,824	-156,066	-0,033	0,001
-633,809	535,335	0,098	-0,171
-632,795	-200,000	-0,030	-0,207
-631,780	371,716	0,045	-0,067
-630,765	126,132	-0,049	0,045
-629,751	-38,894	-0,093	0,036
-628,736	315,610	-0,068	-0,095
-627,722	-200,000	0,003	-0,108
-626,707	-200,000	-0,009	0,089
-625,692	380,572	-0,031	-0,046
-624,678	84,452	-0,096	-0,077
-623,663	-52,572	-0,133	0,045
-622,649	106,402	0,049	-0,043
-621,634	-104,686	-0,138	-0,023
-620,619	800,000	-0,031	-0,075
-619,605	54,108	0,110	0,077
-618,590	800,000	0,038	-0,077
-617,576	-92,963	0,027	-0,006
-616,561	560,884	-0,067	-0,119
-615,546	20,392	-0,067	-0,039
-614,532	12,370	-0,085	-0,048
-613,517	-55,722	-0,087	-0,028
-612,503	-200,000	-0,001	-0,096
-611,488	-32,040	-0,091	-0,037
-610,474	-99,350	0,089	-0,016
-609,459	-200,000	0,002	0,078
-608,444	-89,866	-0,053	-0,011
-607,430	-161,397	-0,074	-0,003
-606,415	16,221	-0,174	-0,100
-605,401	166,594	-0,015	-0,016
-604,386	-80,324	0,134	0,033
-603,371	-200,000	-0,001	-0,120
-602,357	489,047	0,066	-0,111
-601,342	35,102	-0,152	-0,098
-600,328	673,301	-0,033	-0,062
-599,313	52,460	0,068	-0,048
-598,298	-103,584	-0,046	-0,008
-597,284	-28,335	0,050	0,021
-596,269	101,282	-0,030	-0,026
-595,255	524,744	0,017	0,030
-594,240	800,000	0,034	-0,097
-593,225	432,359	-0,068	-0,108
-592,211	-74,628	-0,137	-0,036
-591,196	591,660	0,010	0,018
-590,182	-123,347	-0,039	-0,004
-589,167	-200,000	-0,013	0,130
-588,152	52,779	-0,016	-0,011
-587,138	55,067	-0,063	-0,044
-586,123	104,891	-0,068	-0,058
-585,109	800,000	-0,087	-0,184
-584,094	-200,000	-0,011	-0,160
-583,079	800,000	0,010	-0,031
-582,065	262,886	0,041	0,052
-581,050	-200,000	-0,004	0,221
-580,036	270,122	-0,046	-0,060
-579,021	-87,672	-0,067	0,015
-578,006	-125,821	-0,093	-0,010
-576,992	108,125	-0,047	-0,041
-575,977	-200,000	0,001	0,062
-574,963	-108,875	-0,087	-0,013
-573,948	-111,637	-0,049	0,007
-572,934	203,194	-0,015	0,017
-571,919	-200,000	-0,005	0,047
-570,904	128,349	0,105	0,098
-569,890	23,641	-0,085	-0,051
-568,875	92,954	-0,060	-0,049
-567,861	275,450	-0,017	0,022
-566,846	45,031	0,080	0,054
-565,831	-13,977	-0,053	0,025
-564,817	71,684	0,045	0,034
-563,802	4,458	-0,083	-0,044
-562,788	278,052	0,032	-0,042
-561,773	-144,944	0,101	-0,007
-560,758	800,000	0,016	-0,036
-559,744	17,944	0,134	0,078
-558,729	800,000	-0,039	0,082
-557,715	800,000	-0,064	-0,154
-556,700	-200,000	-0,002	0,020
-555,685	710,905	0,053	-0,102
-554,671	-97,345	0,008	0,002
-553,656	133,084	0,099	0,093
-552,642	-189,940	-0,131	0,001
-551,627	-200,000	-0,004	0,064
-550,612	154,476	0,049	0,050
-549,598	-113,797	-0,143	-0,020
-548,583	-200,000	0,015	-0,078
-547,569	23,558	-0,024	0,015
-546,554	800,000	0,028	-0,074
-545,539	292,463	-0,053	-0,070
-544,525	199,142	0,027	0,031
-543,510	-62,025	0,052	0,016
-542,496	326,596	-0,044	0,061
-541,481	-104,746	0,088	-0,015
-540,466	800,000	-0,031	0,069
-539,452	-82,231	0,110	0,026
-538,437	-200,000	0,001	-0,032
-537,423	800,000	-0,038	-0,113
-536,408	761,374	-0,029	0,059
-535,393	-200,000	-0,052	-0,173
-534,379	-31,801	0,068	-0,028
-533,364	95,443	-0,063	0,052
-532,350	-200,000	0,047	-0,157
-531,335	800,000	0,059	0,132
-530,321	12,077	0,019	0,011
-529,306	412,542	0,088	0,137
-528,291	-113,523	-0,191	-0,027
-527,277	463,090	0,019	0,032
-526,262	729,265	0,059	-0,116
-525,248	-200,000	0,005	-0,034
-524,233	-200,000	0,007	-0,124
-523,218	800,000	0,029	0,087
-522,204	-200,000	-0,016	0,140
-521,189	-9,750	-0,147	0,071
-520,175	365,535	-0,021	-0,031
-519,160	800,000	0,037	-0,083
-518,145	-120,218	0,059	0,007
-517,131	-46,079	0,036	0,013
-516,116	-200,000	-0,012	0,059
-515,102	-48,877	0,108	0,037
-514,087	-200,000	0,006	0,056
-513,072	-123,083	-0,029	0,003
-512,058	-49,866	-0,082	-0,028
-511,043	89,655	-0,086	-0,070
-510,029	567,533	-0,098	-0,174
-509,014	-41,970	-0,036	-0,013
-507,999	621,527	0,040	0,074
-506,985	800,000	0,057	-0,163
-505,970	-200,000	0,026	-0,142
-504,956	800,000	0,003	0,007
-503,941	144,091	-0,116	0,113
-502,926	-115,390	0,105	0,014
-501,912	86,352	0,086	0,069
-500,897	-103,453	-0,100	0,017
-499,883	250,925	0,066	0,082
-498,868	-62,228	-0,066	0,020
-497,853	-133,780	-0,057	-0,005
-496,839	-200,000	-0,014	0,068
-495,824	560,475	-0,113	0,199
-494,810	289,344	0,069	0,092
-493,795	-200,000	-0,002	0,025
-492,781	-200,000	-0,029	-0,108
-491,766	-165,281	-0,061	0,002
-490,751	567,448	0,012	-0,021
-489,737	380,138	0,060	-0,090
-488,722	-178,735	0,098	0,002
-487,708	-103,377	0,132	-0,022
-486,693	322,487	0,062	0,086
-485,678	-200,000	0,015	-0,144
-484,664	60,288	-0,054	-0,039
-483,649	-76,358	-0,091	-0,023
-482,635	-200,000	0,003	0,077
-481,620	-185,223	0,046	0,001
-480,605	-171,037	0,030	0,001
-479,591	-43,566	0,134	-0,049
-478,576	10,007	0,081	-0,045
-477,562	800,000	-0,061	-0,135
-476,547	-200,000	0,011	-0,047
-475,532	-200,000	-0,034	0,112
-474,518	-38,195	-0,038	0,015
-473,503	800,000	0,030	0,077
-472,489	-200,000	0,006	0,074
-471,474	-200,000	0,017	0,070
-470,459	-38,295	-0,133	-0,051
-469,445	-200,000	0,001	-0,044
-468,430	198,619	-0,020	-0,022
-467,416	-200,000	0,017	0,217
-466,401	800,000	0,036	-0,106
-465,386	60,969	-0,113	0,081
-464,372	-72,946	-0,077	0,020
-463,357	229,293	0,029	-0,035
-462,343	800,000	-0,025	-0,058
-461,328	308,298	-0,093	-0,127
-460,313	-200,000	-0,020	-0,202
-459,299	-102,949	-0,105	0,018
-458,284	16,465	-0,040	-0,023
-457,270	641,397	0,047	-0,087
-456,255	800,000	0,082	-0,168
-455,241	-110,033	-0,067	0,010
-454,226	-58,676	0,070	0,022
-453,211	34,724	-0,082	-0,052
-452,197	23,335	0,051	-0,030
-451,182	-42,820	0,085	0,031
-450,168	38,973	0,093	-0,060
-449,153	-35,109	0,014	0,006
-448,138	364,713	0,033	0,048
-447,124	-200,000	-0,015	-0,073
-446,109	800,000	0,020	-0,049
-445,095	-200,000	0,021	0,085
-444,080	-200,000	0,000	0,032
-443,065	-200,000	-0,012	0,067
-442,051	-26,131	0,111	0,047
-441,036	-139,615	0,091	-0,007
-440,022	34,401	-0,058	-0,037
-439,007	-174,278	0,067	0,001
-437,992	460,019	-0,024	-0,039
-436,978	-11,649	-0,048	-0,023
-435,963	451,658	0,037	0,060
-434,949	-200,000	-0,022	0,162
-433,934	-125,530	0,022	0,002
-432,919	367,882	0,004	-0,006
-431,905	61,819	0,156	-0,113
-430,890	-74,004	-0,044	0,012
-429,876	653,850	0,053	0,098
-428,861	639,473	0,069	0,129
-427,846	-200,000	-0,006	-0,048
-426,832	-92,550	-0,122	0,025
-425,817	800,000	0,031	-0,092
-424,803	-80,355	-0,041	-0,010
-423,788	51,512	0,032	-0,022
-422,773	58,891	0,056	-0,040
-421,759	-74,634	0,093	-0,024
-420,744	-69,485	-0,101	-0,028
-419,730	39,575	-0,132	-0,086
-418,715	800,000	-0,079	-0,164
-417,701	-200,000	-0,014	-0,054
-416,686	800,000	-0,054	-0,141
-415,671	50,130	-0,019	0,013
-414,657	555,347	0,022	0,039
-413,642	-200,000	-0,001	-0,004
-412,628	-19,016	-0,074	-0,033
-411,613	-200,000	0,008	-0,104
-410,598	763,849	0,021	0,042
-409,584	15,356	0,140	0,080
-408,569	800,000	0,085	-0,174
-407,555	369,733	-0,095	0,140
-406,540	-200,000	0,026	-0,178
-405,525	166,339	0,062	-0,064
-404,511	349,361	-0,047	-0,068
-403,496	293,625	0,057	-0,076
-402,482	-9,320	0,151	-0,073
-401,467	-93,798	0,067	0,013
-400,452	486,369	0,031	0,052
-399,438	-200,000	-0,001	-0,019
-398,423	-200,000	-0,018	-0,070
-397,409	800,000	-0,052	-0,127
-396,394	-200,000	0,004	-0,025
-395,379	-200,000	0,006	0,067
-394,365	277,813	0,060	0,078
-393,350	-200,000	-0,038	0,137
-392,336	-98,529	0,064	0,012
-391,321	800,000	-0,036	0,075
-390,306	-38,363	0,125	0,048
-389,292	800,000	0,052	-0,139
-388,277	376,833	-0,048	0,072
-387,263	-5,770	0,100	-0,050
-386,248	44,683	0,036	-0,024
-385,233	800,000	-0,031	0,089
-384,219	-128,542	0,076	-0,008
-383,204	-200,000	-0,008	-0,069
-382,190	800,000	-0,050	-0,106
-381,175	432,485	-0,018	0,028
-380,160	93,505	-0,081	0,066
-379,146	-200,000	-0,001	0,053
-378,131	-200,000	0,001	0,214
-377,117	198,170	0,059	0,066
-376,102	-109,770	-0,089	0,013
-375,088	-184,006	0,025	0,000
-374,073	90,663	-0,011	-0,009
-373,058	643,622	-0,049	-0,091
-372,044	243,977	-0,085	0,103
-371,029	9,392	-0,055	0,030
-370,015	415,379	0,036	0,056
-369,000	-69,455	-0,069	-0,019
-367,985	311,965	-0,087	-0,119
-366,971	-76,534	0,037	-0,009
-365,956	-200,000	0,003	-0,155
-364,942	642,255	0,028	0,052
-363,927	-200,000	-0,005	0,033
-362,912	-127,977	-0,027	-0,003
-361,898	250,417	0,049	0,061
-360,883	-105,867	0,203	-0,033
-359,869	-200,000	-0,001	-0,034
-358,854	441,781	-0,085	-0,135
-357,839	-50,737	0,133	-0,045
-356,825	-15,287	-0,060	-0,028
-355,810	-87,712	0,093	-0,020
-354,796	702,202	-0,076	0,146
-353,781	-200,000	-0,008	-0,056
-352,766	284,828	-0,053	-0,069
-351,752	76,677	0,014	-0,011
-350,737	11,876	0,122	0,067
-349,723	394,157	0,027	-0,041
-348,708	-93,769	0,057	0,011
-347,693	-200,000	-0,030	-0,108
-346,679	-0,406	-0,073	0,038
-345,664	754,178	-0,035	-0,069
-344,650	265,446	0,027	0,034
-343,635	25,655	0,097	-0,059
-342,620	-200,000	-0,001	-0,024
-341,606	-35,382	0,074	-0,029
-340,591	-200,000	-0,020	-0,085
-339,577	55,023	-0,010	-0,007
-338,562	-200,000	0,019	-0,065
-337,548	-200,000	0,000	0,055
-336,533	-69,852	0,043	0,012
-335,518	800,000	-0,037	0,079
-334,504	800,000	-0,014	0,034
-333,489	290,288	-0,016	-0,021
-332,475	-85,586	-0,097	-0,022
-331,460	53,955	-0,151	-0,105
-330,445	-200,000	-0,020	-0,098
-329,431	209,940	-0,051	-0,058
-328,416	501,871	0,069	0,116
-327,402	-200,000	0,010	0,178
-326,387	-64,988	0,053	-0,015
-325,372	-12,489	0,087	-0,041
-324,358	-32,825	-0,106	0,043
-323,343	800,000	-0,011	0,035
-322,329	38,531	0,078	-0,050
-321,314	569,821	0,032	-0,057
-320,299	42,292	0,061	0,040
-319,285	70,302	0,139	0,104
-318,270	395,750	-0,022	-0,034
-317,256	417,408	-0,094	0,147
-316,241	-200,000	-0,036	0,117
-315,226	467,028	0,030	-0,050
-314,212	-200,000	0,017	0,125
-313,197	-200,000	0,001	0,082
-312,183	277,599	0,108	0,140
-311,168	-57,782	0,072	-0,023
-310,153	-57,623	-0,179	0,056
-309,139	298,115	0,136	-0,181
-308,124	-157,213	-0,046	-0,002
-307,110	17,949	0,078	0,045
-306,095	-100,991	-0,047	-0,008
-305,080	-64,287	-0,050	0,015
-304,066	479,441	-0,061	0,101
-303,051	-82,633	-0,089	0,021
-302,037	-200,000	-0,006	0,036
-301,022	211,209	0,023	-0,027
-300,008	270,552	0,030	-0,039
-298,993	-200,000	0,020	0,123
-297,978	15,219	0,022	0,013
-296,964	26,858	-0,047	0,028
-295,949	-200,000	-0,023	0,085
-294,935	-200,000	0,009	-0,032
-293,920	36,086	0,078	-0,049
-292,905	-15,653	0,086	-0,039
-291,891	-200,000	0,021	0,156
-290,876	24,722	-0,059	-0,035
-289,862	82,579	0,027	0,021
-288,847	-200,000	0,011	-0,216
-287,832	-200,000	0,010	-0,103
-286,818	-200,000	-0,014	-0,118
-285,803	-55,959	0,171	0,055
-284,789	101,020	0,092	0,077
-283,774	800,000	-0,055	0,137
-282,759	-51,150	-0,041	-0,014
-281,745	800,000	-0,017	-0,038
-280,730	800,000	0,017	0,048
-279,716	301,307	-0,059	-0,078
-278,701	741,002	0,042	0,083
-277,686	9,995	-0,031	0,017
-276,672	-59,173	0,129	-0,040
-275,657	-200,000	0,010	0,172
-274,643	0,785	-0,123	-0,063
-273,628	122,115	0,077	0,069
-272,613	321,494	0,035	0,049
-271,599	-41,602	0,088	0,032
-270,584	-85,474	-0,049	-0,011
-269,570	4,091	0,087	0,046
-268,555	4,900	0,115	0,061
-267,540	99,099	0,048	0,040
-266,526	80,574	-0,019	0,015
-265,511	800,000	0,017	-0,044
-264,497	-25,953	0,059	0,025
-263,482	13,099	0,059	0,033
-262,467	-114,138	0,069	-0,010
-261,453	800,000	0,045	0,103
-260,438	800,000	0,057	0,131
-259,424	37,855	-0,091	-0,059
-258,409	141,953	0,065	0,062
-257,395	268,315	-0,098	0,124
-256,380	-33,227	0,135	0,054
-255,365	-200,000	0,009	0,037
-254,351	389,134	0,080	0,119
-253,336	-80,479	0,015	0,004
-252,322	-18,574	0,078	-0,035
-251,307	-58,983	-0,103	0,032
-250,292	-60,113	0,133	0,041
-249,278	-200,000	0,038	0,139
-248,263	-200,000	-0,009	0,076
-247,249	217,000	0,068	0,079
-246,234	21,472	0,029	0,017
-245,219	20,613	-0,120	-0,070
-244,205	524,621	-0,011	-0,019
-243,190	269,443	-0,054	0,068
-242,176	154,480	-0,032	-0,032
-241,161	-200,000	-0,008	0,255
-240,146	279,032	0,053	0,069
-239,132	800,000	0,081	0,180
-238,117	-200,000	0,027	0,093
-237,103	167,325	-0,082	-0,084
-236,088	-90,305	-0,047	0,010
-235,073	45,791	0,098	0,065
-234,059	62,701	0,069	0,050
-233,044	683,893	-0,069	0,130
-232,030	-14,265	-0,074	0,034
-231,015	-60,578	-0,080	-0,024
-230,000	23,609	-0,050	0,029
-228,986	-200,000	0,009	0,091
-227,971	24,016	-0,148	-0,088
-226,957	-157,861	0,155	-0,007
-225,942	-87,856	0,074	-0,016
-224,927	800,000	-0,017	0,052
-223,913	-200,000	0,007	0,028
-222,898	-200,000	-0,012	-0,091
-221,884	-18,764	-0,092	0,041
-220,869	-200,000	-0,001	-0,014
-219,855	70,145	0,091	0,067
-218,840	-58,352	0,107	-0,033
-217,825	-200,000	0,026	-0,098
-216,811	91,431	-0,024	-0,019
-215,796	12,224	-0,062	-0,034
-214,782	-80,195	0,093	0,022
-213,767	-200,000	0,004	0,070
-212,752	-23,406	-0,050	-0,022
-211,738	-19,619	0,112	0,050
-210,723	266,254	-0,114	0,143
-209,709	-200,000	-0,009	-0,098
-208,694	-151,084	-0,141	0,008
-207,679	105,476	0,076	-0,065
-206,665	739,445	0,037	-0,071
-205,650	44,261	-0,038	-0,025
-204,636	800,000	0,034	0,081
-203,621	114,969	-0,040	0,035
-202,606	-200,000	-0,003	-0,025
-201,592	800,000	-0,036	-0,074
-200,577	-200,000	0,031	-0,101
-199,563	-41,334	0,034	0,013
-198,548	-200,000	-0,012	0,059
-197,533	330,417	0,084	0,116
-196,519	-18,899	-0,009	0,004
-195,504	272,546	0,086	-0,110
-194,490	800,000	-0,039	-0,089
-193,475	356,740	-0,026	-0,037
-192,460	72,853	0,028	-0,021
-191,446	800,000	-0,041	0,096
-190,431	453,056	0,061	0,098
-189,417	109,812	-0,047	0,040
-188,402	-200,000	0,007	-0,061
-187,387	560,797	-0,018	-0,031
-186,373	727,434	0,048	-0,093
-185,358	-80,510	0,064	-0,015
-184,344	288,185	0,083	0,109
-183,329	318,107	-0,074	0,101
-182,315	-200,000	-0,024	-0,089
-181,300	800,000	-0,012	0,038
-180,285	800,000	-0,026	-0,068
-179,271	-125,086	0,070	0,008
-178,256	-200,000	0,020	0,208
-177,242	169,740	0,138	0,142
-176,227	-200,000	-0,021	0,109
-175,212	-200,000	-0,001	-0,069
-174,198	-200,000	-0,023	0,260
-173,183	-200,000	-0,003	-0,016
-172,169	-95,215	0,036	-0,007
-171,154	710,514	0,030	-0,057
-170,139	800,000	0,089	0,185
-169,125	-200,000	-0,004	0,067
-168,110	-150,407	-0,055	0,003
-167,096	-200,000	0,002	0,147
-166,081	663,588	-0,013	0,025
-165,066	-100,930	-0,096	-0,017
-164,052	-14,795	-0,092	0,042
-163,037	-200,000	0,004	0,084
-162,023	-200,000	-0,036	0,198
-161,008	800,000	-0,017	-0,043
-159,993	-200,000	0,008	-0,100
-158,979	-12,026	-0,073	-0,034
-157,964	-200,000	-0,002	-0,057
-156,950	316,418	0,017	-0,023
-155,935	-200,000	0,004	-0,149
-154,920	210,325	-0,023	-0,026
-153,906	-81,237	0,042	0,010
-152,891	55,438	0,137	0,096
-151,877	-147,477	-0,064	-0,004
-150,862	66,834	-0,064	0,047
-149,847	253,096	-0,047	0,058
-148,833	142,494	-0,018	-0,017
-147,818	21,240	-0,031	-0,018
-146,804	800,000	-0,026	-0,073
-145,789	-200,000	0,056	0,190
-144,775	-200,000	0,007	-0,042
-143,760	3,129	-0,074	-0,038
-142,745	800,000	0,037	-0,114
-141,731	150,637	-0,066	0,065
-140,716	126,958	-0,029	-0,026
-139,702	133,665	0,079	-0,073
-138,687	739,607	-0,079	0,152
-137,672	8,741	0,131	0,071
-136,658	135,049	-0,058	-0,054
-135,643	10,885	-0,029	-0,016
-134,629	-200,000	0,010	-0,052
-133,614	111,615	-0,090	0,078
-132,599	41,634	-0,018	0,012
-131,585	-154,353	-0,113	0,005
-130,570	-200,000	-0,010	-0,046
-129,556	251,996	-0,111	-0,136
-128,541	348,214	-0,039	-0,055
-127,526	120,641	0,072	-0,065
-126,512	-59,743	0,069	0,021
-125,497	-25,860	-0,102	0,043
-124,483	-200,000	-0,013	0,059
-123,468	473,292	-0,096	0,156
-122,453	800,000	-0,060	-0,142
-121,439	-12,620	-0,091	-0,043
-120,424	-36,286	0,063	0,024
-119,410	-200,000	-0,013	0,051
-118,395	263,007	0,058	0,073
-117,380	-75,133	0,060	-0,015
-116,366	321,517	-0,083	0,113
-115,351	105,114	-0,112	-0,095
-114,337	-105,463	-0,270	-0,044
-113,322	-121,571	-0,225	0,027
-112,307	60,667	0,061	-0,043
-111,293	-42,046	0,178	0,065
-110,278	578,594	0,066	-0,117
-109,264	211,515	0,083	-0,094
-108,249	53,296	-0,050	-0,034
-107,234	-200,000	-0,034	0,182
-106,220	-123,543	0,034	0,004
-105,205	-14,865	0,099	0,045
-104,191	800,000	-0,007	-0,022
-103,176	-153,521	-0,046	0,002
-102,162	-125,445	-0,140	0,015
-101,147	20,227	0,014	-0,008
-100,132	-200,000	0,032	-0,126
-99,118	172,521	-0,141	0,146
-98,103	-200,000	0,000	0,080
-97,089	-59,167	-0,158	-0,049
-96,074	-89,311	0,068	0,014
-95,059	5,498	0,141	0,074
-94,045	71,946	-0,107	0,080
-93,030	-72,045	-0,115	-0,030
-92,016	-200,000	0,047	-0,164
-91,001	-151,841	-0,109	-0,006
-89,986	-200,000	-0,029	0,110
-88,972	-200,000	0,003	-0,017
-87,957	57,328	0,064	0,045
-86,943	643,127	-0,058	-0,106
-85,928	-116,488	-0,123	-0,016
-84,913	112,793	-0,037	-0,032
-83,899	-110,996	-0,118	-0,017
-82,884	315,915	0,084	-0,115
-81,870	-110,599	-0,044	0,006
-80,855	432,918	0,018	-0,027
-79,840	-10,781	-0,133	0,063
-78,826	-36,114	-0,124	0,048
-77,811	70,958	-0,076	-0,056
-76,797	111,091	-0,055	-0,047
-75,782	50,451	-0,055	0,037
-74,767	18,140	0,169	-0,096
-73,753	-200,000	-0,017	0,061
-72,738	131,871	-0,071	-0,065
-71,724	83,866	-0,059	0,046
-70,709	-121,212	-0,074	0,009
-69,694	-200,000	-0,011	-0,054
-68,680	-200,000	-0,006	0,070
-67,665	-5,938	-0,115	-0,056
-66,651	292,763	-0,032	0,042
-65,636	800,000	-0,015	-0,042
-64,622	-40,411	0,041	0,015
-63,607	-69,052	0,108	0,030
-62,592	800,000	-0,048	-0,110
-61,578	422,355	-0,116	-0,179
-60,563	-114,696	-0,012	0,002
-59,549	-200,000	-0,021	0,267
-58,534	26,886	-2,158	-1,293
-57,519	-200,000	-0,132	-0,758
-56,505	-200,000	-1,246	-5,116
-55,490	103,457	0,914	0,768
-54,476	800,000	5,223	12,181
-53,461	-200,000	18,511	300,925
-52,446	800,000	734,317	2250,613
-51,432	530,277	1647,193	2798,296
-50,417	107,460	1634,199	1392,113
-49,403	71,422	1284,807	954,150
-48,388	29,950	1026,039	624,938
-47,373	19,723	987,974	568,102
-46,359	17,555	975,614	553,885
-45,344	14,291	972,032	541,174
-44,330	14,599	970,485	541,296
-43,315	14,058	968,527	538,421
-42,300	14,037	967,357	537,681
-41,286	13,990	966,405	536,977
-40,271	14,026	965,487	536,563
-39,257	14,056	964,684	536,192
-38,242	14,031	963,893	535,650
-37,227	14,031	963,022	535,145
-36,213	13,975	962,130	534,448
-35,198	13,970	961,337	533,971
-34,184	14,061	960,495	533,776
-33,169	14,006	959,478	533,011
-32,154	14,099	958,417	532,699
-31,140	14,051	957,739	532,148
-30,125	14,087	957,043	531,857
-29,111	14,013	956,215	531,137
-28,096	14,035	955,564	530,824
-27,082	14,044	954,794	530,403
-26,067	14,074	953,957	530,015
-25,052	14,019	953,357	529,484
-24,038	14,014	952,710	529,087
-23,023	14,047	951,992	528,773
-22,009	14,075	951,401	528,514
-20,994	14,006	950,618	527,837
-19,979	14,047	950,132	527,677
-18,965	14,030	949,336	527,160
-17,950	14,098	948,694	526,999
-16,936	13,988	948,134	526,316
-15,921	13,982	947,435	525,888
-14,906	13,961	946,639	525,361
-13,892	13,895	946,112	524,836
-12,877	13,880	945,460	524,406
-11,863	13,880	944,930	524,090
-10,848	13,973	944,334	524,034
-9,833	14,018	944,022	523,985
-8,819	14,003	943,287	523,507
-7,804	13,991	942,435	522,976
-6,790	13,866	942,015	522,327
-5,775	13,962	941,497	522,322
-4,760	14,004	940,810	522,053
-3,746	13,956	940,351	521,627
-2,731	13,796	939,560	520,661
-1,717	13,742	938,789	520,045
-0,702	13,720	938,200	519,627
0,313	13,576	937,496	519,569
1,327	17,013	935,364	529,141
2,342	26,069	787,586	469,314
3,356	22,233	443,438	258,554
4,371	-6,979	296,284	143,495
5,386	-11,075	278,067	130,770
6,400	-12,460	272,330	126,771
7,415	-12,407	270,054	125,750
8,429	-12,671	268,578	124,809
9,444	-12,443	267,574	124,539
10,459	-12,451	267,085	124,293
11,473	-12,681	266,400	123,754
12,488	-12,757	265,929	123,456
13,502	-12,730	265,230	123,144
14,517	-12,760	265,036	123,016
15,531	-12,876	264,509	122,656
16,546	-12,861	264,134	122,484
17,561	-12,707	263,793	122,454
18,575	-12,567	263,470	122,419
19,590	-12,568	263,151	122,259
20,604	-12,714	262,854	121,979
21,619	-12,898	262,351	121,570
22,634	-12,623	262,156	121,715
23,648	-13,102	261,911	121,162
24,663	-12,728	261,613	121,348
25,677	-12,749	261,274	121,161
26,692	-12,857	261,099	120,973
27,707	-12,833	260,659	120,780
28,721	-12,888	260,561	120,674
29,736	-12,713	260,131	120,620
30,750	-12,800	259,873	120,413
31,765	-12,807	259,703	120,317
32,780	-12,675	259,471	120,315
33,794	-12,841	259,328	120,092
34,809	-12,855	259,071	119,949
35,823	-12,840	258,687	119,774
36,838	-12,953	258,488	119,571
37,853	-12,999	258,214	119,394
38,867	-12,954	258,071	119,356
39,882	-12,748	257,835	119,418
40,896	-12,966	257,595	119,105
41,911	-12,735	257,187	119,107
42,926	-12,750	256,908	118,955
43,940	-13,017	256,756	118,640
44,955	-12,832	256,487	118,667
45,969	-12,916	256,281	118,487
46,984	-13,220	256,210	118,178
47,999	-13,173	255,787	118,015
49,013	-13,408	255,721	117,769
50,028	-13,468	255,392	117,554
51,042	-13,636	254,985	117,211
52,057	-13,495	254,669	117,177
53,071	-13,565	254,774	117,154
54,086	-13,413	254,433	117,119
55,101	-13,492	254,440	117,043
56,115	-13,233	254,323	117,203
57,130	-13,032	254,154	117,288
58,144	-12,708	253,898	117,440
59,159	-12,672	253,722	117,379
60,174	-12,732	253,466	117,199
61,188	-12,674	253,294	117,159
62,203	-12,752	253,027	116,958
63,217	-12,803	252,838	116,816
64,232	-12,848	252,505	116,613
65,247	-12,618	252,321	116,715
66,261	-12,800	252,014	116,406
67,276	-12,843	251,854	116,285
68,290	-12,932	251,531	116,050
69,305	-13,098	251,342	115,811
70,320	-13,106	251,207	115,731
71,334	-12,764	250,990	115,912
72,349	-12,815	250,891	115,813
73,363	-12,872	250,760	115,693
74,378	-12,664	250,443	115,714
75,393	-12,613	250,204	115,636
76,407	-12,693	250,006	115,467
77,422	-12,964	249,794	115,129
78,436	-12,743	249,549	115,193
79,451	-12,837	249,614	115,133
80,466	-12,813	249,089	114,900
81,480	-12,844	248,917	114,785
82,495	-13,165	248,805	114,452
83,509	-12,735	248,447	114,640
84,524	-12,981	248,447	114,422
85,539	-13,123	248,238	114,196
86,553	-13,055	247,942	114,107
87,568	-12,833	247,700	114,172
88,582	-12,907	247,432	113,976
89,597	-12,944	247,284	113,867
90,611	-12,880	247,258	113,898
91,626	-12,720	247,201	113,997
92,641	-12,727	246,833	113,810
93,655	-12,951	246,835	113,613
94,670	-12,904	246,499	113,488
95,684	-12,959	246,279	113,331
96,699	-12,881	246,193	113,346
97,714	-12,996	246,050	113,175
98,728	-12,974	245,706	113,024
99,743	-13,190	245,439	112,712
100,757	-13,111	245,188	112,652
101,772	-13,145	245,135	112,589
102,787	-12,962	244,810	112,582
103,801	-13,030	244,755	112,490
104,816	-13,062	244,700	112,428
105,830	-13,017	244,510	112,368
106,845	-12,952	244,348	112,338
107,860	-12,742	244,014	112,347
108,874	-12,821	243,972	112,253
109,889	-12,964	243,632	111,968
110,903	-12,952	243,305	111,818
111,918	-13,025	243,313	111,752
112,933	-12,788	243,015	111,800
113,947	-12,762	242,762	111,695
114,962	-13,049	242,690	111,416
115,976	-12,819	242,671	111,586
116,991	-12,680	242,454	111,591
118,006	-12,732	242,215	111,428
119,020	-12,780	242,168	111,357
120,035	-12,897	242,096	111,219
121,049	-12,814	241,673	111,082
122,064	-12,814	241,609	111,042
123,079	-12,934	241,434	110,854
124,093	-12,814	241,034	110,758
125,108	-12,951	240,934	110,591
126,122	-13,087	240,696	110,361
127,137	-13,194	240,495	110,172
128,151	-13,115	240,519	110,238
129,166	-12,959	240,137	110,179
130,181	-12,959	240,001	110,107
131,195	-13,108	239,700	109,839
132,210	-13,044	239,696	109,879
133,224	-12,790	239,421	109,949
134,239	-12,783	239,317	109,897
135,254	-12,735	239,207	109,875
136,268	-12,915	238,979	109,616
137,283	-13,177	238,650	109,243
138,297	-13,357	238,457	109,000
139,312	-13,189	238,338	109,071
140,327	-12,917	238,195	109,214
141,341	-12,712	238,211	109,377
142,356	-12,533	237,954	109,394
143,370	-12,478	237,758	109,338
144,385	-12,698	237,623	109,089
145,400	-12,522	237,552	109,188
146,414	-12,544	237,341	109,064
147,429	-12,726	236,981	108,743
148,443	-12,723	237,026	108,757
149,458	-12,472	236,797	108,843
150,473	-12,656	236,612	108,601
151,487	-12,801	236,296	108,330
152,502	-12,675	236,158	108,358
153,516	-12,565	236,088	108,404
154,531	-12,753	235,911	108,163
155,546	-12,801	235,667	108,004
156,560	-12,545	235,456	108,101
157,575	-12,751	235,253	107,835
158,589	-12,597	235,116	107,884
159,604	-12,552	234,981	107,848
160,619	-12,364	234,909	107,955
161,633	-12,404	234,709	107,821
162,648	-12,353	234,537	107,772
163,662	-12,545	234,360	107,530
164,677	-12,622	234,239	107,404
165,692	-12,694	234,083	107,266
166,706	-12,602	233,878	107,236
167,721	-12,298	233,762	107,412
168,735	-12,560	233,728	107,181
169,750	-12,565	233,557	107,088
170,764	-12,593	233,322	106,949
171,779	-12,733	233,318	106,828
172,794	-12,515	233,092	106,886
173,808	-12,559	232,786	106,702
174,823	-13,132	232,527	106,125
175,837	-13,322	232,544	105,974
176,852	-12,909	232,344	106,197
177,867	-12,681	232,236	106,316
178,881	-12,789	232,160	106,187
179,896	-12,493	231,912	106,295
180,910	-12,433	231,888	106,322
181,925	-12,580	231,689	106,106
182,940	-12,631	231,414	105,932
183,954	-12,592	231,312	105,906
184,969	-12,334	231,161	106,028
185,983	-12,256	231,066	106,036
186,998	-12,378	230,979	105,892
188,013	-12,530	230,721	105,646
189,027	-12,462	230,398	105,541
190,042	-12,372	230,322	105,566
191,056	-12,334	230,173	105,519
192,071	-12,608	230,026	105,230
193,086	-12,336	229,809	105,331
194,100	-12,276	229,710	105,322
195,115	-12,809	229,384	104,753
196,129	-12,597	229,443	104,934
197,144	-7,125	231,144	109,951
198,159	-1,934	232,711	114,735
199,173	1,523	233,802	117,963
200,188	2,182	233,762	118,447
201,202	1,918	233,617	118,157
202,217	2,105	233,383	118,174
203,232	2,345	233,335	118,325
204,246	2,356	233,135	118,222
205,261	2,416	232,900	118,138
206,275	2,585	232,884	118,251
207,290	2,628	232,821	118,242
208,304	2,602	232,544	118,071
209,319	2,617	232,306	117,951
210,334	2,415	232,211	117,736
211,348	2,470	231,988	117,654
212,363	2,045	231,749	117,195
213,377	1,975	231,509	117,009
214,392	1,704	231,402	116,736
215,407	1,905	231,360	116,859
216,421	1,905	231,089	116,712
217,436	1,801	231,027	116,590
218,450	1,732	230,821	116,422
219,465	1,905	230,555	116,410
220,480	1,938	230,401	116,348
221,494	1,791	230,294	116,170
222,509	1,989	230,325	116,328
223,523	2,116	230,123	116,313
224,538	2,040	229,926	116,145
225,553	2,203	229,724	116,157
226,567	2,172	229,668	116,095
227,582	2,260	229,594	116,114
228,596	2,307	229,505	116,095
229,611	2,126	229,108	115,746
230,626	1,852	228,891	115,417
231,640	1,652	228,773	115,195
232,655	2,000	228,735	115,430
233,669	2,402	228,714	115,715
234,684	2,508	228,700	115,779
235,699	2,113	228,419	115,326
236,713	2,029	228,244	115,163
237,728	1,815	228,087	114,911
238,742	1,936	227,659	114,777
239,757	2,005	227,595	114,787
240,772	2,006	227,472	114,716
241,786	1,752	227,341	114,447
242,801	2,323	227,192	114,793
243,815	2,354	227,331	114,876
244,830	2,406	227,146	114,812
245,844	1,967	226,823	114,307
246,859	1,974	226,607	114,194
247,874	2,046	226,699	114,284
248,888	2,012	226,461	114,129
249,903	2,175	226,269	114,145
250,917	2,269	226,070	114,104
251,932	2,104	225,857	113,863
252,947	1,828	225,765	113,599
253,961	1,800	225,497	113,434
254,976	1,726	225,493	113,366
255,990	2,090	225,480	113,622
257,005	2,249	225,389	113,684
258,020	2,242	225,149	113,548
259,034	2,034	225,092	113,354
260,049	2,247	224,784	113,347
261,063	2,259	224,565	113,236
262,078	2,346	224,536	113,276
263,093	2,403	224,585	113,333
264,107	2,262	224,358	113,104
265,122	2,194	224,092	112,909
266,136	2,346	224,072	113,002
267,151	2,453	223,875	112,972
268,166	2,074	223,660	112,573
269,180	1,789	223,331	112,185
270,195	1,705	223,294	112,094
271,209	1,891	223,221	112,186
272,224	2,069	223,048	112,220
273,239	2,243	222,924	112,277
274,253	2,043	222,744	112,028
275,268	1,778	222,593	111,746
276,282	1,649	222,454	111,572
277,297	1,693	222,251	111,493
278,312	1,848	222,172	111,557
279,326	1,992	222,054	111,594
280,341	2,013	221,962	111,553
281,355	2,048	221,759	111,467
282,370	2,218	221,661	111,532
283,384	1,780	221,496	111,118
284,399	1,710	221,295	110,956
285,414	1,785	221,240	110,973
286,428	2,034	221,181	111,116
287,443	2,165	221,018	111,121
288,457	2,318	220,899	111,162
289,472	1,912	220,479	110,645
290,487	1,655	220,247	110,332
291,501	1,500	220,176	110,173
292,516	1,636	220,092	110,220
293,530	1,525	219,963	110,065
294,545	1,893	219,918	110,300
295,560	1,706	219,806	110,099
296,574	2,073	219,641	110,273
297,589	1,969	219,527	110,130
298,603	2,072	219,349	110,106
299,618	1,851	219,299	109,911
300,633	2,111	219,121	110,000
301,647	2,128	219,043	109,963
302,662	2,342	218,831	110,002
303,676	2,208	218,695	109,826
304,691	2,222	218,668	109,813
305,706	2,283	218,492	109,759
306,720	2,267	218,288	109,636
307,735	2,072	218,143	109,412
308,749	1,800	218,090	109,180
309,764	2,049	217,939	109,274
310,779	2,270	217,844	109,376
311,793	2,202	217,538	109,163
312,808	2,000	217,450	108,965
313,822	2,177	217,251	108,982
314,837	2,095	217,072	108,824
315,852	1,712	217,036	108,521
316,866	2,165	216,939	108,787
317,881	2,397	216,749	108,849
318,895	2,257	216,529	108,629
319,910	2,021	216,199	108,285
320,925	1,587	216,217	107,974
321,939	1,430	216,041	107,765
322,954	1,675	216,087	107,953
323,968	2,129	216,031	108,239
324,983	2,369	215,881	108,325
325,997	2,314	215,580	108,125
327,012	2,106	215,490	107,922
328,027	2,144	215,328	107,859
329,041	2,579	215,443	108,216
330,056	2,569	215,327	108,141
331,070	2,106	214,861	107,570
332,085	1,832	214,696	107,283
333,100	2,042	214,582	107,365
334,114	2,296	214,492	107,490
335,129	2,173	214,421	107,358
336,143	2,089	214,182	107,169
337,158	1,888	214,082	106,968
338,173	2,168	213,952	107,092
339,187	1,826	213,898	106,813
340,202	1,777	213,524	106,583
341,216	1,686	213,394	106,444
342,231	1,747	213,346	106,454
343,246	2,160	213,234	106,678
344,260	2,286	213,265	106,773
345,275	2,527	213,104	106,852
346,289	2,432	213,122	106,785
347,304	2,150	212,919	106,476
348,319	2,011	212,542	106,181
349,333	2,214	212,449	106,267
350,348	2,304	212,264	106,227
351,362	2,328	212,434	106,320
352,377	2,365	212,158	106,198
353,392	2,189	212,019	105,997
354,406	2,209	211,821	105,901
355,421	197,761	1314,705	1395,305
356,435	158,199	1449,027	1395,257
