DTS Sentinel unit serial number:	SN410029Multiplexer serial number:	ORYXHardware model number:	OX2-SRSoftware version number:	ORYX F/W v4,00 Oryx Data Collector v3.7.2.0data status	okinstallation	B6 Nyhavnadifferential loss correction	single-endedforward channel	channel 2reverse channel	N/Adate	2023/12/11time	07:05:08forward acquisition time	300,00reverse acquisition time	0,00gamma	499,1914k internal	0,3126k external	0,3126temperature offset calibration	1,0000default loss term (dB/km)	0,3820temperature slope calibration	1,0000multiplexer offset coefficient	1,0000multiplexer slope coefficient	1,0000fibre end	0,00T internal ref (°C)	19,25T ext. ref 1 (°C)	2,13T ext. ref 2 (°C)	2,19length (m)	temperature (°C)	Stokes	anti-Stokes-744,400	-98,688	-0,137	-0,026
-743,385	-103,040	-0,241	0,042
-742,371	45,926	0,049	-0,034
-741,356	65,162	-0,202	0,152
-740,342	-200,000	0,016	0,069
-739,327	-84,515	-0,395	0,092
-738,312	-200,000	-0,007	-0,157
-737,298	-127,621	-0,391	-0,042
-736,283	800,000	-0,032	0,092
-735,269	-148,393	-0,183	0,011
-734,254	-200,000	0,005	0,044
-733,239	-97,135	-0,444	-0,086
-732,225	49,534	0,266	0,186
-731,210	546,175	0,015	0,026
-730,196	-77,646	-0,128	-0,033
-729,181	155,157	-0,058	0,060
-728,167	-13,225	0,103	-0,049
-727,152	-83,827	-0,116	0,027
-726,137	187,143	-0,079	0,088
-725,123	44,495	-0,046	0,032
-724,108	271,760	-0,059	-0,078
-723,094	-48,180	-0,100	-0,036
-722,079	-121,249	-0,033	0,004
-721,064	124,998	0,039	-0,036
-720,050	800,000	0,017	0,053
-719,035	183,471	0,057	0,063
-718,021	-26,470	0,031	0,013
-717,006	-16,574	-0,078	-0,037
-715,991	312,464	-0,056	-0,079
-714,977	171,051	-0,031	-0,033
-713,962	800,000	0,047	-0,111
-712,948	800,000	0,014	0,034
-711,933	18,551	-0,063	0,037
-710,918	52,381	-0,090	0,064
-709,904	800,000	-0,064	-0,167
-708,889	210,586	-0,075	-0,087
-707,875	-150,815	0,156	0,009
-706,860	-41,044	-0,133	0,051
-705,845	-123,379	-0,057	-0,007
-704,831	456,528	-0,030	0,050
-703,816	41,874	0,055	-0,037
-702,802	314,113	-0,075	-0,105
-701,787	-200,000	0,009	-0,070
-700,772	-190,467	-0,112	-0,001
-699,758	161,024	-0,007	-0,008
-698,743	800,000	-0,011	0,035
-697,729	-100,801	0,158	-0,029
-696,714	-70,915	-0,214	0,060
-695,699	-101,670	-0,112	-0,020
-694,685	-61,145	-0,083	-0,026
-693,670	-200,000	0,015	-0,150
-692,656	-200,000	-0,023	-0,184
-691,641	-200,000	-0,011	-0,087
-690,627	-200,000	-0,006	-0,062
-689,612	-52,875	0,190	-0,065
-688,597	376,988	-0,084	-0,129
-687,583	353,482	-0,072	-0,107
-686,568	-200,000	-0,001	0,077
-685,554	-131,889	-0,031	0,003
-684,539	13,561	0,077	0,044
-683,524	-43,712	0,061	0,023
-682,510	260,837	-0,026	-0,033
-681,495	407,451	-0,060	0,095
-680,481	-139,920	-0,102	-0,008
-679,466	21,035	-0,039	-0,024
-678,451	313,745	0,059	-0,083
-677,437	46,543	0,053	0,036
-676,422	168,740	-0,064	0,067
-675,408	-200,000	0,018	0,160
-674,393	528,568	-0,080	0,141
-673,378	800,000	-0,067	-0,174
-672,364	-98,575	0,057	0,011
-671,349	800,000	-0,054	-0,115
-670,335	105,414	-0,105	-0,092
-669,320	162,638	-0,035	0,037
-668,305	507,218	-0,018	-0,032
-667,291	-170,729	0,064	-0,002
-666,276	-200,000	-0,028	-0,171
-665,262	558,949	0,040	-0,072
-664,247	-200,000	-0,032	-0,159
-663,232	-200,000	-0,018	0,063
-662,218	-130,695	0,237	0,023
-661,203	383,968	0,057	-0,087
-660,189	49,198	-0,069	0,048
-659,174	-46,273	-0,065	-0,024
-658,159	-200,000	-0,008	-0,067
-657,145	800,000	-0,066	-0,135
-656,130	87,308	0,042	0,035
-655,116	152,948	0,091	-0,092
-654,101	-47,521	-0,044	-0,016
-653,086	800,000	0,014	0,038
-652,072	197,909	-0,022	-0,025
-651,057	-120,876	0,052	-0,006
-650,043	-33,483	-0,080	-0,033
-649,028	-161,860	-0,193	-0,007
-648,014	17,488	0,044	0,026
-646,999	523,910	-0,056	0,099
-645,984	-200,000	-0,006	-0,028
-644,970	77,866	-0,067	0,053
-643,955	-200,000	0,005	-0,070
-642,941	160,284	-0,063	-0,066
-641,926	-200,000	0,008	-0,125
-640,911	63,854	-0,039	-0,029
-639,897	-200,000	0,030	0,099
-638,882	-9,878	-0,045	0,022
-637,868	-200,000	0,003	-0,036
-636,853	1,846	-0,112	-0,060
-635,838	112,266	-0,087	-0,078
-634,824	-200,000	-0,003	-0,094
-633,809	137,383	-0,076	0,074
-632,795	105,424	-0,114	-0,100
-631,780	-172,937	0,106	-0,002
-630,765	0,590	-0,103	-0,055
-629,751	111,667	0,091	-0,082
-628,736	-75,815	-0,170	-0,044
-627,722	-200,000	0,107	0,000
-626,707	-200,000	-0,001	-0,106
-625,692	299,549	0,054	0,074
-624,678	-81,916	0,064	0,015
-623,663	-82,172	-0,024	0,006
-622,649	-200,000	-0,012	0,048
-621,634	176,024	0,078	-0,084
-620,619	-200,000	-0,004	-0,050
-619,605	-111,940	-0,052	-0,008
-618,590	16,865	0,064	0,038
-617,576	-7,190	0,121	-0,061
-616,561	78,823	-0,126	-0,100
-615,546	-49,585	-0,136	0,048
-614,532	18,985	0,032	-0,019
-613,517	86,331	-0,043	-0,035
-612,503	-97,345	0,068	-0,013
-611,488	800,000	0,009	0,027
-610,474	304,345	-0,023	0,032
-609,459	-144,335	-0,035	-0,002
-608,444	800,000	0,050	-0,156
-607,430	551,692	-0,050	-0,090
-606,415	-200,000	-0,007	-0,125
-605,401	-200,000	0,015	-0,063
-604,386	-200,000	0,035	0,161
-603,371	47,571	0,040	-0,028
-602,357	-200,000	-0,024	0,109
-601,342	-94,526	-0,036	-0,007
-600,328	277,563	-0,055	-0,072
-599,313	219,133	0,074	-0,088
-598,298	-73,024	-0,032	0,009
-597,284	-106,850	0,094	-0,015
-596,269	800,000	0,075	0,160
-595,255	56,348	-0,097	0,069
-594,240	314,812	-0,070	0,098
-593,225	-51,124	-0,045	-0,015
-592,211	800,000	-0,059	-0,140
-591,196	-19,404	-0,207	0,095
-590,182	-51,757	0,131	-0,045
-589,167	-200,000	-0,038	0,128
-588,152	149,556	-0,088	-0,089
-587,138	185,789	0,033	0,036
-586,123	-36,877	-0,070	-0,028
-585,109	-200,000	0,007	-0,077
-584,094	-39,614	0,074	0,029
-583,079	29,550	0,063	0,039
-582,065	-65,046	-0,069	-0,021
-581,050	138,072	0,064	0,062
-580,036	-200,000	0,009	-0,047
-579,021	12,853	0,083	-0,047
-578,006	-47,786	-0,047	-0,017
-576,992	800,000	-0,023	0,053
-575,977	-200,000	0,007	0,060
-574,963	63,427	-0,032	0,024
-573,948	-200,000	0,012	0,136
-572,934	290,804	-0,036	-0,049
-571,919	21,002	-0,070	-0,042
-570,904	-200,000	-0,027	0,103
-569,890	-123,350	-0,076	0,009
-568,875	-184,959	0,124	-0,001
-567,861	568,351	0,067	0,120
-566,846	274,821	-0,077	-0,102
-565,831	-62,577	0,054	-0,016
-564,817	800,000	-0,016	-0,044
-563,802	724,341	-0,066	-0,130
-562,788	-171,043	-0,088	-0,002
-561,773	-85,048	0,205	-0,047
-560,758	-200,000	-0,024	0,139
-559,744	-22,855	0,121	0,054
-558,729	-48,229	-0,175	0,062
-557,715	800,000	0,013	-0,041
-556,700	800,000	0,025	0,065
-555,685	-58,083	-0,029	-0,009
-554,671	-29,643	0,071	0,030
-553,656	800,000	-0,036	0,081
-552,642	800,000	-0,048	0,106
-551,627	86,348	-0,144	-0,117
-550,612	90,008	-0,085	0,070
-549,598	-43,388	0,155	0,057
-548,583	-192,661	-0,067	-0,000
-547,569	-200,000	0,014	-0,048
-546,554	800,000	0,030	0,087
-545,539	-200,000	-0,006	-0,120
-544,525	100,654	-0,062	0,053
-543,510	12,394	-0,069	-0,039
-542,496	-200,000	0,030	-0,103
-541,481	148,231	-0,050	0,050
-540,466	231,494	-0,065	-0,079
-539,452	549,499	0,038	-0,067
-538,437	92,388	-0,129	0,108
-537,423	-200,000	0,017	0,064
-536,408	359,134	-0,113	-0,168
-535,393	27,855	-0,188	0,117
-534,379	800,000	-0,016	-0,043
-533,364	18,985	-0,034	0,020
-532,350	-55,460	0,176	-0,058
-531,335	295,804	0,086	0,117
-530,321	129,596	-0,069	-0,065
-529,306	-200,000	-0,055	-0,217
-528,291	626,269	0,005	0,009
-527,277	-135,516	0,060	0,005
-526,262	483,611	0,093	-0,157
-525,248	234,841	0,086	0,105
-524,233	685,482	-0,026	0,051
-523,218	482,282	0,122	-0,205
-522,204	122,786	0,029	-0,027
-521,189	492,893	-0,106	0,179
-520,175	-200,000	0,006	-0,093
-519,160	33,142	0,066	0,042
-518,145	800,000	0,024	0,061
-517,131	324,873	0,075	0,107
-516,116	-200,000	-0,031	0,136
-515,102	426,640	0,039	-0,062
-514,087	800,000	0,034	0,108
-513,072	-200,000	-0,031	-0,179
-512,058	-200,000	-0,001	-0,008
-511,043	148,985	0,063	0,063
-510,029	89,985	0,100	0,083
-509,014	800,000	-0,037	0,114
-507,999	290,805	-0,110	0,148
-506,985	7,849	-0,159	0,088
-505,970	342,514	-0,044	-0,064
-504,956	800,000	-0,029	-0,085
-503,941	4,180	-0,068	0,036
-502,926	-200,000	0,016	0,061
-501,912	-200,000	0,022	-0,083
-500,897	-200,000	0,000	-0,003
-499,883	452,879	0,011	0,018
-498,868	-42,780	-0,105	-0,039
-497,853	6,586	-0,015	0,008
-496,839	174,433	0,066	-0,070
-495,824	42,061	-0,074	0,050
-494,810	524,543	-0,027	-0,048
-493,795	42,115	-0,082	-0,055
-492,781	-75,514	-0,065	-0,017
-491,766	-123,076	0,132	-0,015
-490,751	98,702	0,012	-0,010
-489,737	171,614	0,075	-0,080
-488,722	-9,848	-0,065	-0,032
-487,708	-200,000	0,031	0,116
-486,693	48,073	0,057	-0,039
-485,678	800,000	-0,027	0,076
-484,664	-33,174	-0,092	-0,037
-483,649	800,000	0,026	0,073
-482,635	-125,321	0,039	0,004
-481,620	-129,979	0,092	0,009
-480,605	-200,000	0,127	-0,000
-479,591	109,171	-0,043	-0,038
-478,576	395,322	-0,008	-0,013
-477,562	37,616	0,040	-0,026
-476,547	-200,000	-0,006	0,090
-475,532	545,578	-0,051	0,090
-474,518	800,000	-0,067	0,171
-473,503	-200,000	-0,017	0,101
-472,489	186,877	-0,048	0,053
-471,474	-200,000	-0,025	-0,178
-470,459	130,432	0,050	0,047
-469,445	199,718	-0,029	-0,033
-468,430	162,566	-0,081	-0,083
-467,416	-27,898	0,094	-0,040
-466,401	9,931	0,093	0,052
-465,386	-200,000	0,010	-0,045
-464,372	-91,794	0,017	0,003
-463,357	405,768	-0,088	0,136
-462,343	-200,000	0,020	0,134
-461,328	62,049	0,026	-0,019
-460,313	43,745	-0,076	-0,051
-459,299	-55,017	-0,075	-0,025
-458,284	800,000	0,053	0,110
-457,270	800,000	-0,035	-0,077
-456,255	-142,363	-0,016	-0,001
-455,241	-120,040	-0,109	-0,014
-454,226	-200,000	0,025	0,089
-453,211	131,868	-0,047	-0,044
-452,197	-52,102	0,180	0,061
-451,182	-39,271	-0,070	-0,027
-450,168	738,475	-0,073	-0,145
-449,153	252,904	0,069	-0,087
-448,138	93,734	-0,044	0,036
-447,124	40,843	0,043	-0,028
-446,109	800,000	-0,022	-0,067
-445,095	47,312	0,080	-0,055
-444,080	371,226	0,032	0,048
-443,065	103,532	0,135	-0,116
-442,051	-12,421	0,036	-0,017
-441,036	542,208	-0,048	-0,085
-440,022	-168,749	0,051	-0,001
-439,007	-57,646	0,033	0,010
-437,992	-127,618	0,128	-0,013
-436,978	39,977	0,058	0,038
-435,963	-200,000	0,002	-0,044
-434,949	-57,756	0,053	0,017
-433,934	800,000	-0,027	0,062
-432,919	164,200	-0,111	-0,115
-431,905	207,205	-0,032	-0,037
-430,890	21,815	0,112	0,067
-429,876	-55,835	0,142	0,046
-428,861	6,716	0,062	0,034
-427,846	-200,000	-0,013	0,062
-426,832	-87,548	-0,073	0,016
-425,817	-71,489	-0,184	-0,050
-424,803	188,279	0,054	-0,060
-423,788	-139,676	0,179	0,014
-422,773	-200,000	0,029	0,161
-421,759	-167,203	0,185	-0,005
-420,744	800,000	-0,030	-0,076
-419,730	-200,000	0,023	-0,136
-418,715	47,967	-0,114	-0,078
-417,701	-43,080	0,063	0,023
-416,686	63,099	-0,086	-0,063
-415,671	11,854	0,055	-0,031
-414,657	27,041	-0,079	0,049
-413,642	51,034	-0,097	0,067
-412,628	-200,000	0,004	-0,146
-411,613	-17,206	0,039	0,018
-410,598	430,831	-0,028	-0,045
-409,584	-200,000	-0,014	0,131
-408,569	800,000	-0,028	-0,078
-407,555	-126,475	-0,125	0,014
-406,540	101,240	0,124	0,106
-405,525	-92,784	0,071	-0,014
-404,511	-105,480	-0,130	-0,021
-403,496	-200,000	0,011	-0,086
-402,482	63,637	0,041	-0,030
-401,467	481,526	-0,003	0,005
-400,452	27,057	0,042	0,026
-399,438	-101,302	0,029	0,005
-398,423	83,215	0,031	-0,025
-397,409	-200,000	0,000	0,011
-396,394	452,211	0,087	-0,142
-395,379	24,182	-0,045	-0,028
-394,365	-58,340	0,032	-0,010
-393,350	-150,877	0,089	0,005
-392,336	-200,000	-0,010	0,063
-391,321	-96,605	-0,082	-0,016
-390,306	299,993	0,051	-0,069
-389,292	-200,000	0,009	-0,089
-388,277	800,000	0,025	-0,063
-387,263	800,000	0,080	0,183
-386,248	-200,000	0,049	0,232
-385,233	-24,823	0,071	-0,031
-384,219	-108,924	0,023	-0,004
-383,204	35,196	0,049	-0,031
-382,190	102,671	-0,127	-0,109
-381,175	-200,000	0,026	0,109
-380,160	261,981	0,029	-0,037
-379,146	395,350	0,075	0,116
-378,131	72,462	0,075	0,057
-377,117	472,986	0,056	0,093
-376,102	-200,000	0,003	0,088
-375,088	-40,253	0,031	-0,012
-374,073	668,718	-0,033	0,063
-373,058	-116,683	-0,071	0,009
-372,044	441,047	-0,061	-0,099
-371,029	-24,637	-0,059	-0,026
-370,015	17,921	-0,042	0,024
-369,000	-54,358	-0,172	-0,057
-367,985	800,000	0,035	-0,104
-366,971	144,928	0,107	-0,105
-365,956	-168,235	-0,174	0,005
-364,942	50,211	0,079	0,055
-363,927	17,219	0,082	0,048
-362,912	108,956	0,047	0,041
-361,898	-200,000	0,006	0,020
-360,883	-200,000	0,007	-0,035
-359,869	-69,583	0,122	-0,034
-358,854	12,486	0,100	0,056
-357,839	-200,000	-0,017	0,083
-356,825	133,393	-0,084	0,080
-355,810	485,815	-0,083	0,139
-354,796	-129,004	0,051	-0,005
-353,781	-7,439	-0,144	0,071
-352,766	149,031	0,088	-0,088
-351,752	53,088	-0,054	-0,038
-350,737	15,961	-0,072	0,041
-349,723	-200,000	-0,006	0,087
-348,708	-36,120	-0,117	-0,046
-347,693	-92,293	0,080	0,016
-346,679	800,000	0,017	0,043
-345,664	-72,143	0,078	0,021
-344,650	621,439	0,067	0,123
-343,635	-200,000	0,017	0,149
-342,620	-46,262	0,037	-0,013
-341,606	-200,000	-0,001	-0,022
-340,591	436,270	-0,108	0,174
-339,577	800,000	-0,037	-0,098
-338,562	268,406	0,045	-0,059
-337,548	276,384	-0,028	-0,037
-336,533	0,571	-0,011	-0,006
-335,518	71,237	0,087	0,066
-334,504	154,563	-0,130	-0,131
-333,489	800,000	-0,045	-0,096
-332,475	-200,000	-0,003	-0,036
-331,460	800,000	-0,018	0,050
-330,445	-51,206	0,070	0,024
-329,431	13,678	0,040	-0,023
-328,416	-200,000	-0,009	-0,070
-327,402	339,529	0,099	-0,142
-326,387	139,045	-0,099	-0,095
-325,372	-110,680	-0,049	-0,007
-324,358	-110,598	-0,063	-0,009
-323,343	-200,000	-0,004	-0,025
-322,329	800,000	0,034	-0,074
-321,314	30,908	0,083	-0,052
-320,299	3,515	-0,091	-0,049
-319,285	210,995	0,029	0,033
-318,270	800,000	0,035	-0,075
-317,256	-81,197	-0,052	0,012
-316,241	118,097	0,117	0,106
-315,226	197,629	0,020	-0,022
-314,212	800,000	-0,037	-0,103
-313,197	-20,996	0,021	0,009
-312,183	-120,342	0,077	-0,009
-311,168	-118,340	0,187	0,024
-310,153	-200,000	-0,016	-0,099
-309,139	-66,738	-0,156	-0,045
-308,124	800,000	0,038	0,101
-307,110	161,877	0,085	0,087
-306,095	-66,646	0,094	0,027
-305,080	800,000	-0,027	-0,062
-304,066	-161,489	-0,090	-0,003
-303,051	800,000	-0,059	-0,158
-302,037	45,740	0,077	-0,052
-301,022	316,755	0,087	0,120
-300,008	800,000	0,069	0,151
-298,993	-82,434	0,059	-0,014
-297,978	-200,000	0,009	-0,075
-296,964	291,353	-0,081	-0,109
-295,949	800,000	-0,049	-0,103
-294,935	-200,000	0,011	-0,063
-293,920	110,010	-0,084	0,074
-292,905	800,000	0,036	0,074
-291,891	-200,000	-0,036	0,119
-290,876	-44,397	-0,071	0,026
-289,862	281,705	-0,042	-0,055
-288,847	800,000	-0,026	-0,063
-287,832	281,679	0,076	-0,100
-286,818	-151,818	-0,133	-0,007
-285,803	154,929	0,102	-0,103
-284,789	-99,217	-0,059	-0,011
-283,774	-200,000	0,015	-0,077
-282,759	-146,643	0,102	0,006
-281,745	719,288	-0,051	-0,100
-280,730	514,900	-0,047	-0,081
-279,716	-76,692	0,059	0,015
-278,701	-137,404	0,137	0,011
-277,686	55,257	-0,053	0,037
-276,672	800,000	0,006	0,015
-275,657	800,000	-0,027	0,067
-274,643	55,805	-0,053	0,037
-273,628	-200,000	-0,019	-0,101
-272,613	-200,000	-0,006	0,038
-271,599	137,052	0,068	0,065
-270,584	-200,000	-0,022	0,085
-269,570	4,580	0,200	0,107
-268,555	148,787	-0,111	-0,110
-267,540	800,000	-0,054	0,112
-266,526	-84,173	0,066	0,015
-265,511	800,000	0,029	0,083
-264,497	-200,000	0,035	0,129
-263,482	-124,178	0,078	-0,009
-262,467	-200,000	-0,006	0,047
-261,453	-44,889	-0,055	-0,020
-260,438	800,000	0,045	-0,110
-259,424	-160,508	0,199	-0,008
-258,409	-17,745	-0,141	-0,064
-257,395	-75,164	-0,030	-0,008
-256,380	140,501	0,029	-0,028
-255,365	-55,512	0,195	0,064
-254,351	81,475	0,055	-0,043
-253,336	-200,000	-0,042	0,174
-252,322	800,000	-0,062	-0,141
-251,307	-167,426	0,067	-0,002
-250,292	-37,434	0,112	0,044
-249,278	514,604	0,030	0,051
-248,263	-64,650	0,059	0,017
-247,249	61,700	-0,047	0,034
-246,234	-44,826	-0,090	0,032
-245,219	-91,921	-0,034	-0,007
-244,205	175,337	-0,041	-0,043
-243,190	615,731	-0,022	-0,040
-242,176	-139,547	0,105	0,008
-241,161	-4,759	0,080	-0,040
-240,146	132,342	0,034	-0,032
-239,132	-200,000	0,001	-0,071
-238,117	84,233	-0,089	0,071
-237,103	-54,538	-0,059	0,019
-236,088	477,600	0,027	-0,044
-235,073	800,000	-0,058	-0,145
-234,059	95,722	-0,073	0,061
-233,044	-78,674	0,164	-0,040
-232,030	800,000	0,027	-0,065
-231,015	519,106	0,087	-0,150
-230,000	-200,000	0,004	0,036
-228,986	340,409	-0,126	0,180
-227,971	-21,764	0,108	-0,048
-226,957	374,264	0,050	-0,074
-225,942	800,000	0,050	-0,157
-224,927	119,374	0,096	0,087
-223,913	291,430	-0,019	-0,025
-222,898	-38,639	-0,139	-0,053
-221,884	-200,000	0,019	-0,084
-220,869	-200,000	0,014	0,079
-219,855	800,000	-0,024	0,056
-218,840	42,540	0,130	0,086
-217,825	-200,000	-0,000	0,135
-216,811	73,457	-0,052	-0,040
-215,796	23,701	-0,080	-0,048
-214,782	-200,000	0,025	-0,105
-213,767	18,860	0,119	0,069
-212,752	-200,000	-0,019	0,130
-211,738	-200,000	-0,025	0,122
-210,723	53,505	0,071	-0,050
-209,709	-114,584	0,077	0,011
-208,694	349,594	-0,086	-0,125
-207,679	800,000	0,011	-0,026
-206,665	152,883	0,125	0,125
-205,650	298,374	0,076	0,103
-204,636	-19,701	0,067	-0,030
-203,621	470,222	-0,017	0,029
-202,606	800,000	-0,072	-0,153
-201,592	390,646	-0,049	0,074
-200,577	-79,082	-0,075	-0,018
-199,563	-2,994	0,167	0,085
-198,548	-9,755	0,065	0,032
-197,533	-200,000	0,036	0,132
-196,519	-21,613	-0,032	0,014
-195,504	-10,151	-0,059	-0,029
-194,490	66,946	-0,138	0,103
-193,475	-74,276	-0,105	-0,027
-192,460	7,274	0,083	0,045
-191,446	-200,000	0,009	0,074
-190,431	800,000	-0,032	-0,076
-189,417	800,000	0,053	0,131
-188,402	-200,000	-0,011	-0,053
-187,387	751,997	0,008	-0,015
-186,373	-71,629	-0,098	0,026
-185,358	-123,289	0,136	-0,016
-184,344	282,475	0,014	-0,018
-183,329	800,000	0,052	-0,113
-182,315	-121,934	0,054	0,006
-181,300	581,524	-0,070	-0,125
-180,285	209,652	0,053	-0,060
-179,271	800,000	-0,018	-0,045
-178,256	216,667	0,016	0,019
-177,242	588,044	0,083	0,150
-176,227	-114,817	-0,098	0,013
-175,212	406,478	-0,038	0,058
-174,198	713,489	-0,055	0,107
-173,183	-122,562	0,114	0,013
-172,169	87,725	-0,021	0,017
-171,154	-25,278	0,032	0,014
-170,139	96,130	-0,028	0,023
-169,125	252,362	-0,053	0,066
-168,110	183,996	0,041	0,045
-167,096	-68,608	-0,126	0,035
-166,081	-200,000	-0,001	-0,048
-165,066	373,537	0,046	0,068
-164,052	-80,803	-0,186	-0,045
-163,037	-24,462	-0,072	0,031
-162,023	265,067	-0,137	0,175
-161,008	187,063	0,103	0,112
-159,993	-86,603	-0,104	-0,023
-158,979	-25,995	-0,048	0,021
-157,964	-147,491	-0,102	0,006
-156,950	137,447	-0,104	-0,099
-155,935	45,960	0,088	-0,059
-154,920	-111,223	0,042	0,006
-153,906	81,845	-0,030	-0,023
-152,891	-28,853	-0,098	-0,041
-151,877	-64,701	-0,112	-0,033
-150,862	-200,000	0,007	-0,081
-149,847	-118,066	0,119	0,015
-148,833	252,394	-0,050	0,062
-147,818	-200,000	-0,019	0,082
-146,804	-138,147	0,068	-0,005
-145,789	-200,000	-0,017	0,120
-144,775	6,488	-0,058	0,032
-143,760	-200,000	0,035	0,159
-142,745	-31,277	0,130	0,053
-141,731	79,858	0,072	-0,057
-140,716	800,000	-0,038	0,098
-139,702	800,000	0,035	0,091
-138,687	-200,000	-0,017	0,064
-137,672	40,772	0,015	-0,010
-136,658	-34,117	-0,146	-0,058
-135,643	19,802	-0,095	-0,055
-134,629	147,578	-0,041	-0,040
-133,614	59,710	0,149	0,107
-132,599	4,592	-0,124	-0,066
-131,585	-138,521	-0,056	0,004
-130,570	249,813	-0,076	0,094
-129,556	657,782	0,039	0,072
-128,541	-200,000	0,014	-0,090
-127,526	224,287	-0,109	0,128
-126,512	295,480	-0,030	-0,040
-125,497	-100,569	0,188	0,033
-124,483	-156,160	-0,077	0,003
-123,468	32,482	-0,095	0,059
-122,453	-200,000	-0,012	-0,063
-121,439	-34,385	-0,057	-0,023
-120,424	-200,000	-0,006	-0,018
-119,410	28,412	0,057	0,035
-118,395	-71,342	-0,047	0,013
-117,380	-3,303	-0,048	0,024
-116,366	-200,000	0,002	0,033
-115,351	-116,438	-0,166	0,022
-114,337	-200,000	-0,024	-0,112
-113,322	-117,155	0,010	-0,001
-112,307	-200,000	-0,017	-0,153
-111,293	-50,340	-0,028	0,010
-110,278	292,703	0,032	-0,043
-109,264	-93,767	-0,090	0,018
-108,249	800,000	0,036	-0,077
-107,234	-200,000	-0,002	0,072
-106,220	-200,000	0,010	0,110
-105,205	-8,958	0,062	0,030
-104,191	52,956	0,164	0,114
-103,176	-200,000	-0,022	-0,075
-102,162	277,182	-0,035	-0,045
-101,147	233,032	0,058	0,069
-100,132	800,000	-0,030	-0,069
-99,118	-106,730	0,065	0,010
-98,103	157,848	-0,082	0,083
-97,089	-200,000	0,003	0,067
-96,074	800,000	-0,036	0,105
-95,059	146,275	-0,052	0,051
-94,045	-19,637	-0,034	0,015
-93,030	-200,000	-0,031	-0,119
-92,016	800,000	0,038	-0,107
-91,001	-33,221	0,069	-0,028
-89,986	674,155	-0,031	0,060
-88,972	-200,000	0,021	-0,085
-87,957	-60,742	-0,033	-0,010
-86,943	-26,303	-0,092	-0,039
-85,928	800,000	-0,058	-0,145
-84,913	400,677	0,038	0,059
-83,899	367,050	0,021	-0,031
-82,884	223,032	0,055	-0,064
-81,870	800,000	-0,012	0,035
-80,855	-157,639	0,056	0,002
-79,840	186,995	-0,051	-0,056
-78,826	10,396	-0,072	-0,040
-77,811	-65,344	-0,092	-0,027
-76,797	-200,000	0,009	-0,036
-75,782	43,358	0,087	0,058
-74,767	328,737	0,034	-0,047
-73,753	752,974	0,098	0,193
-72,738	-121,201	0,063	-0,008
-71,724	-200,000	-0,011	0,046
-70,709	-68,183	-0,132	-0,037
-69,694	37,014	-0,114	0,073
-68,680	240,114	0,036	0,044
-67,665	-75,822	0,126	-0,032
-66,651	260,527	0,117	0,148
-65,636	-200,000	0,040	0,147
-64,622	800,000	-0,025	-0,065
-63,607	-200,000	0,004	0,078
-62,592	469,304	0,055	0,090
-61,578	-41,677	-0,072	-0,027
-60,563	-119,390	0,056	-0,007
-59,549	-17,856	-0,068	0,031
-58,534	-44,459	-1,580	-0,570
-57,519	800,000	-0,580	-1,173
-56,505	-200,000	-1,113	-4,596
-55,490	-144,044	0,722	-0,048
-54,476	800,000	5,136	12,080
-53,461	-200,000	15,243	276,576
-52,446	-200,000	696,218	2268,615
-51,432	586,432	1615,401	2892,505
-50,417	122,377	1624,148	1471,274
-49,403	83,214	1282,726	1011,458
-48,388	37,481	1024,953	657,559
-47,373	22,084	986,470	581,971
-46,359	21,034	975,336	571,917
-45,344	19,547	971,026	564,479
-44,330	19,604	969,640	563,837
-43,315	19,358	968,148	562,142
-42,300	19,321	967,139	561,411
-41,286	19,287	966,173	560,717
-40,271	19,320	964,952	560,096
-39,257	19,297	964,272	559,603
-38,242	19,295	963,611	559,191
-37,227	19,251	962,644	558,462
-36,213	19,264	961,886	558,045
-35,198	19,264	960,910	557,456
-34,184	19,307	960,209	557,168
-33,169	19,253	959,231	556,401
-32,154	19,327	958,320	556,093
-31,140	19,342	957,640	555,722
-30,125	19,353	956,780	555,239
-29,111	19,330	955,977	554,675
-28,096	19,336	955,251	554,252
-27,082	19,288	954,627	553,713
-26,067	19,269	953,953	553,239
-25,052	19,257	953,247	552,770
-24,038	19,232	952,427	552,190
-23,023	19,267	951,714	551,868
-22,009	19,355	951,074	551,758
-20,994	19,359	950,340	551,324
-19,979	19,292	949,797	550,769
-18,965	19,280	949,225	550,380
-17,950	19,258	948,567	549,905
-16,936	19,185	947,949	549,290
-15,921	19,233	947,227	549,005
-14,906	19,122	946,641	548,287
-13,892	19,153	945,724	547,834
-12,877	19,178	945,118	547,540
-11,863	19,069	944,731	546,945
-10,848	19,187	944,027	546,893
-9,833	19,299	943,564	546,960
-8,819	19,211	942,979	546,319
-7,804	19,243	942,260	545,983
-6,790	19,196	941,767	545,526
-5,775	19,215	941,087	545,172
-4,760	19,232	940,441	544,829
-3,746	19,189	940,028	544,432
-2,731	19,007	939,185	543,343
-1,717	18,976	938,447	542,797
-0,702	19,012	937,709	542,464
0,313	18,799	937,283	542,361
1,327	21,773	935,532	550,712
2,342	30,965	794,604	492,263
3,356	27,901	449,448	273,799
4,371	-2,669	295,305	149,140
5,386	-6,785	276,504	135,706
6,400	-8,285	270,813	131,498
7,415	-8,622	268,504	130,053
8,429	-8,082	267,431	130,021
9,444	-8,017	266,736	129,730
10,459	-7,707	265,912	129,603
11,473	-7,962	265,398	129,107
12,488	-7,974	264,904	128,845
13,502	-8,160	264,384	128,411
14,517	-7,969	264,031	128,402
15,531	-7,481	263,772	128,709
16,546	-7,410	263,411	128,585
17,561	-7,444	263,039	128,362
18,575	-7,368	262,723	128,265
19,590	-7,596	262,416	127,897
20,604	-7,260	262,148	128,059
21,619	-7,454	261,935	127,768
22,634	-7,359	261,408	127,585
23,648	-7,541	261,230	127,323
24,663	-7,346	260,920	127,337
25,677	-7,428	260,682	127,135
26,692	-7,577	260,429	126,866
27,707	-7,475	260,170	126,820
28,721	-7,590	260,060	126,652
29,736	-7,433	259,648	126,581
30,750	-7,447	259,384	126,429
31,765	-7,515	259,127	126,231
32,780	-7,479	258,889	126,137
33,794	-7,694	258,688	125,835
34,809	-7,643	258,448	125,753
35,823	-7,566	258,301	125,739
36,838	-7,484	257,927	125,618
37,853	-7,764	257,709	125,252
38,867	-7,494	257,408	125,334
39,882	-7,513	257,242	125,225
40,896	-7,559	257,075	125,092
41,911	-7,489	256,744	124,982
42,926	-7,604	256,695	124,845
43,940	-7,665	256,311	124,594
44,955	-7,630	256,123	124,522
45,969	-7,649	255,911	124,391
46,984	-7,934	255,627	123,991
47,999	-7,944	255,377	123,850
49,013	-8,098	255,231	123,632
50,028	-8,170	254,841	123,370
51,042	-8,249	254,761	123,250
52,057	-8,275	254,426	123,055
53,071	-8,289	254,295	122,969
54,086	-8,160	254,238	123,042
55,101	-8,059	253,998	123,004
56,115	-7,941	253,826	123,013
57,130	-7,669	253,759	123,207
58,144	-7,313	253,427	123,345
59,159	-7,683	253,287	122,944
60,174	-7,453	253,109	123,046
61,188	-7,646	252,873	122,752
62,203	-7,616	252,659	122,664
63,217	-7,630	252,546	122,586
64,232	-7,489	252,316	122,585
65,247	-7,679	251,918	122,216
66,261	-7,580	251,701	122,186
67,276	-7,726	251,462	121,933
68,290	-7,931	251,229	121,632
69,305	-8,027	251,084	121,469
70,320	-8,044	250,925	121,366
71,334	-7,595	250,716	121,640
72,349	-7,662	250,667	121,548
73,363	-7,391	250,171	121,530
74,378	-7,721	250,100	121,201
75,393	-7,537	249,907	121,254
76,407	-7,793	249,834	120,989
77,422	-7,702	249,587	120,937
78,436	-7,846	249,444	120,733
79,451	-7,611	249,114	120,763
80,466	-7,498	248,863	120,728
81,480	-7,695	248,712	120,475
82,495	-7,683	248,477	120,361
83,509	-7,930	248,397	120,101
84,524	-7,830	248,279	120,118
85,539	-7,969	247,929	119,821
86,553	-7,971	247,760	119,726
87,568	-7,798	247,575	119,773
88,582	-7,819	247,249	119,586
89,597	-8,114	247,276	119,339
90,611	-7,676	247,052	119,591
91,626	-7,734	246,881	119,449
92,641	-7,655	246,729	119,431
93,655	-7,632	246,431	119,296
94,670	-7,691	246,266	119,155
95,684	-7,864	246,156	118,945
96,699	-7,834	245,863	118,819
97,714	-7,796	245,680	118,752
98,728	-7,834	245,511	118,627
99,743	-8,037	245,450	118,417
100,757	-8,044	245,160	118,260
101,772	-7,940	244,896	118,210
102,787	-7,818	244,622	118,169
103,801	-7,931	244,558	118,033
104,816	-7,752	244,341	118,068
105,830	-7,859	244,298	117,947
106,845	-7,607	244,042	118,023
107,860	-7,626	243,882	117,919
108,874	-7,739	243,638	117,696
109,889	-7,856	243,527	117,535
110,903	-7,902	243,162	117,310
111,918	-7,948	243,077	117,221
112,933	-8,143	242,918	116,971
113,947	-7,688	242,779	117,272
114,962	-7,770	242,487	117,052
115,976	-7,711	242,434	117,065
116,991	-7,539	242,115	117,043
118,006	-7,814	241,981	116,741
119,020	-7,503	241,893	116,945
120,035	-7,787	241,816	116,662
121,049	-7,888	241,695	116,510
122,064	-7,771	241,473	116,489
123,079	-7,771	241,245	116,369
124,093	-7,890	241,034	116,159
125,108	-8,074	240,938	115,951
126,122	-8,103	240,723	115,812
127,137	-7,904	240,513	115,865
128,151	-8,005	240,330	115,684
129,166	-8,003	240,005	115,519
130,181	-8,185	240,030	115,371
131,195	-8,103	239,664	115,252
132,210	-8,167	239,639	115,178
133,224	-7,824	239,304	115,287
134,239	-7,677	239,088	115,292
135,254	-7,703	239,014	115,225
136,268	-7,958	238,938	114,969
137,283	-8,191	238,627	114,620
138,297	-8,262	238,484	114,484
139,312	-8,235	238,195	114,357
140,327	-7,907	238,272	114,650
141,341	-7,546	238,140	114,870
142,356	-7,505	237,834	114,745
143,370	-7,571	237,744	114,638
144,385	-7,454	237,545	114,626
145,400	-7,286	237,504	114,732
146,414	-7,437	237,189	114,448
147,429	-7,485	237,118	114,365
148,443	-7,445	236,788	114,227
149,458	-7,545	236,680	114,084
150,473	-7,584	236,510	113,961
151,487	-7,777	236,349	113,718
152,502	-7,457	236,298	113,941
153,516	-7,523	236,212	113,836
154,531	-7,369	235,781	113,742
155,546	-7,563	235,602	113,490
156,560	-7,506	235,507	113,480
157,575	-7,799	235,240	113,106
158,589	-7,709	235,059	113,081
159,604	-7,502	235,046	113,230
160,619	-7,204	234,887	113,382
161,633	-7,159	234,666	113,301
162,648	-7,363	234,585	113,090
163,662	-7,410	234,398	112,952
164,677	-7,815	234,218	112,532
165,692	-7,700	234,218	112,614
166,706	-7,277	234,079	112,873
167,721	-7,307	233,922	112,764
168,735	-7,346	233,686	112,609
169,750	-7,432	233,553	112,466
170,764	-7,602	233,341	112,219
171,779	-7,476	233,192	112,237
172,794	-7,459	232,976	112,137
173,808	-7,712	232,985	111,931
174,823	-7,967	232,498	111,485
175,837	-8,151	232,395	111,280
176,852	-7,921	232,389	111,450
177,867	-7,685	232,271	111,569
178,881	-7,570	232,027	111,533
179,896	-7,552	231,818	111,436
180,910	-7,537	231,723	111,393
181,925	-7,560	231,628	111,319
182,940	-7,538	231,453	111,243
183,954	-7,574	231,270	111,117
184,969	-7,339	231,160	111,238
185,983	-7,217	231,222	111,354
186,998	-7,150	230,920	111,252
188,013	-7,092	230,729	111,195
189,027	-7,132	230,491	111,039
190,042	-7,347	230,315	110,776
191,056	-7,462	230,144	110,594
192,071	-7,366	229,952	110,567
193,086	-7,777	229,904	110,213
194,100	-8,029	229,336	109,734
195,115	-9,740	228,715	108,098
196,129	-9,441	228,724	108,325
197,144	-4,943	230,198	112,529
198,159	0,144	231,699	117,245
199,173	3,346	232,704	120,260
200,188	4,198	232,659	120,895
201,202	4,156	232,539	120,789
202,217	4,352	232,572	120,949
203,232	4,426	232,283	120,846
204,246	4,539	232,175	120,867
205,261	4,710	232,011	120,905
206,275	4,661	231,807	120,750
207,290	4,664	231,655	120,662
208,304	4,412	231,564	120,407
209,319	4,446	231,400	120,337
210,334	4,465	231,290	120,284
211,348	4,354	230,911	119,990
212,363	4,022	230,640	119,581
213,377	3,836	230,473	119,339
214,392	3,501	230,284	118,971
215,407	3,563	230,040	118,882
216,421	3,520	229,992	118,813
217,436	3,316	229,814	118,553
218,450	3,259	229,641	118,409
219,465	3,447	229,395	118,417
220,480	3,327	229,309	118,269
221,494	3,378	229,226	118,255
222,509	3,430	229,089	118,214
223,523	3,406	229,072	118,176
224,538	3,468	228,927	118,139
225,553	3,732	228,581	118,153
226,567	3,694	228,427	118,033
227,582	3,606	228,438	117,961
228,596	3,788	228,204	117,969
229,611	3,740	228,122	117,880
230,626	3,592	227,775	117,576
231,640	3,621	227,715	117,557
232,655	3,573	227,648	117,475
233,669	3,820	227,544	117,600
234,684	4,049	227,382	117,681
235,699	3,634	227,279	117,300
236,713	3,525	227,099	117,113
237,728	3,609	226,862	117,045
238,742	3,672	226,809	117,055
239,757	3,820	226,439	116,967
240,772	3,776	226,313	116,858
241,786	3,747	226,236	116,785
242,801	4,172	226,321	117,142
243,815	4,043	226,207	116,974
244,830	3,992	225,976	116,806
245,844	3,676	225,852	116,492
246,859	3,829	225,715	116,526
247,874	3,696	225,508	116,308
248,888	3,760	225,367	116,274
249,903	3,840	225,155	116,214
250,917	3,606	225,034	115,965
251,932	3,751	224,863	115,976
252,947	3,669	224,762	115,851
253,961	3,653	224,559	115,724
254,976	3,664	224,413	115,647
255,990	3,650	224,359	115,599
257,005	3,713	224,267	115,588
258,020	3,976	224,157	115,719
259,034	4,125	223,952	115,715
260,049	4,050	223,795	115,568
261,063	4,057	223,655	115,490
262,078	4,016	223,485	115,361
263,093	4,015	223,357	115,284
264,107	4,132	223,224	115,292
265,122	3,855	222,969	114,943
266,136	3,873	222,982	114,953
267,151	3,978	222,870	114,964
268,166	3,670	222,579	114,574
269,180	3,531	222,292	114,312
270,195	3,552	222,164	114,252
271,209	3,579	222,149	114,254
272,224	3,745	222,022	114,302
273,239	3,599	221,887	114,114
274,253	3,481	221,647	113,893
275,268	3,350	221,457	113,687
276,282	3,497	221,284	113,697
277,297	3,492	221,076	113,576
278,312	3,465	221,081	113,549
279,326	3,720	220,785	113,576
280,341	3,738	220,752	113,562
281,355	3,595	220,705	113,422
282,370	3,630	220,413	113,287
283,384	3,441	220,296	113,078
284,399	3,384	220,209	112,981
285,414	3,598	220,037	113,041
286,428	3,792	220,182	113,248
287,443	3,918	219,804	113,136
288,457	3,939	219,677	113,076
289,472	3,679	219,449	112,757
290,487	3,419	219,239	112,449
291,501	3,361	219,211	112,382
292,516	3,297	219,002	112,217
293,530	3,485	218,916	112,302
294,545	3,465	218,840	112,237
295,560	3,625	218,697	112,272
296,574	3,704	218,473	112,205
297,589	3,802	218,315	112,184
298,603	3,629	218,333	112,057
299,618	3,912	218,008	112,087
300,633	4,110	218,080	112,259
301,647	4,042	217,996	112,156
302,662	4,110	217,936	112,165
303,676	3,904	217,771	111,919
304,691	3,896	217,596	111,813
305,706	3,889	217,442	111,719
306,720	4,004	217,233	111,685
307,735	3,671	217,108	111,370
308,749	3,879	216,936	111,422
309,764	3,955	216,756	111,375
310,779	3,961	216,644	111,312
311,793	4,036	216,563	111,314
312,808	3,869	216,275	111,036
313,822	3,644	216,287	110,870
314,837	3,622	215,942	110,667
315,852	3,512	215,965	110,590
316,866	3,680	215,815	110,624
317,881	3,918	215,802	110,779
318,895	3,786	215,515	110,527
319,910	3,738	215,480	110,465
320,925	3,524	215,184	110,149
321,939	3,385	215,064	109,978
322,954	3,420	214,921	109,921
323,968	3,557	214,958	110,028
324,983	3,903	214,680	110,123
325,997	3,851	214,544	110,007
327,012	3,584	214,396	109,730
328,027	3,674	214,350	109,761
329,041	3,983	214,171	109,880
330,056	3,644	214,206	109,646
331,070	3,918	213,838	109,644
332,085	3,520	213,613	109,235
333,100	3,794	213,429	109,326
334,114	3,792	213,406	109,303
335,129	3,666	213,291	109,145
336,143	3,389	213,273	108,929
337,158	3,478	213,141	108,915
338,173	3,738	212,903	108,968
339,187	3,488	212,698	108,676
340,202	3,458	212,499	108,544
341,216	3,516	212,248	108,447
342,231	3,593	212,355	108,546
343,246	3,609	212,135	108,435
344,260	3,364	212,105	108,237
345,275	3,656	211,980	108,371
346,289	3,852	211,952	108,484
347,304	3,881	211,701	108,367
348,319	3,795	211,585	108,237
349,333	3,487	211,563	108,000
350,348	3,512	211,446	107,948
351,362	3,550	211,300	107,890
352,377	3,893	211,031	107,985
353,392	3,661	210,987	107,789
354,406	3,769	210,686	107,702
355,421	193,558	1342,376	1428,189
356,435	154,504	1480,306	1428,247
