DTS Sentinel unit serial number:	SN410029Multiplexer serial number:	ORYXHardware model number:	OX2-SRSoftware version number:	ORYX F/W v4,00 Oryx Data Collector v3.7.2.0data status	okinstallation	B6 Nyhavnadifferential loss correction	single-endedforward channel	channel 2reverse channel	N/Adate	2023/12/10time	00:45:08forward acquisition time	300,00reverse acquisition time	0,00gamma	499,1914k internal	0,3126k external	0,3126temperature offset calibration	1,0000default loss term (dB/km)	0,3820temperature slope calibration	1,0000multiplexer offset coefficient	1,0000multiplexer slope coefficient	1,0000fibre end	0,00T internal ref (°C)	21,87T ext. ref 1 (°C)	5,68T ext. ref 2 (°C)	5,70length (m)	temperature (°C)	Stokes	anti-Stokes-744,400	6,280	0,052	-0,029
-743,385	283,802	-0,146	0,196
-742,371	800,000	0,050	-0,151
-741,356	-9,176	-0,360	0,179
-740,342	-154,574	0,157	-0,008
-739,327	-148,926	-0,375	-0,022
-738,312	800,000	-0,061	-0,146
-737,298	237,624	-0,140	0,173
-736,283	55,592	0,154	-0,111
-735,269	48,522	-0,315	0,219
-734,254	379,483	-0,031	-0,048
-733,239	-86,194	-0,398	-0,091
-732,225	-64,596	0,118	-0,035
-731,210	-20,741	-0,039	-0,018
-730,196	-200,000	0,013	-0,068
-729,181	-200,000	-0,003	-0,013
-728,167	-200,000	0,007	-0,047
-727,152	81,335	0,007	0,006
-726,137	-116,069	-0,162	-0,022
-725,123	126,502	-0,130	0,122
-724,108	49,615	-0,021	0,015
-723,094	-192,619	-0,093	0,001
-722,079	26,587	-0,066	-0,041
-721,064	-200,000	-0,010	-0,137
-720,050	800,000	0,046	-0,125
-719,035	-144,410	0,021	-0,001
-718,021	137,536	-0,027	0,026
-717,006	-134,307	-0,154	-0,014
-715,991	103,544	-0,034	-0,029
-714,977	800,000	0,022	-0,070
-713,962	-119,933	0,131	-0,017
-712,948	-200,000	-0,002	-0,014
-711,933	-58,087	-0,078	-0,025
-710,918	-62,409	0,064	0,020
-709,904	333,808	-0,097	-0,139
-708,889	236,408	-0,067	-0,082
-707,875	535,067	0,032	0,056
-706,860	-129,443	-0,079	-0,008
-705,845	-200,000	0,007	0,025
-704,831	771,103	0,023	0,046
-703,816	800,000	0,038	-0,089
-702,802	-139,782	-0,038	-0,003
-701,787	45,240	0,032	-0,022
-700,772	800,000	0,025	0,078
-699,758	47,911	-0,059	-0,041
-698,743	6,532	-0,027	-0,015
-697,729	-200,000	-0,018	0,074
-696,714	-93,093	0,064	0,013
-695,699	-200,000	0,029	-0,106
-694,685	194,211	0,010	-0,011
-693,670	-17,350	-0,146	-0,068
-692,656	-136,895	-0,153	-0,013
-691,641	-8,044	0,110	-0,055
-690,627	33,836	-0,014	0,009
-689,612	-101,017	-0,060	0,011
-688,597	25,693	0,050	0,031
-687,583	-156,225	-0,146	-0,007
-686,568	76,437	0,049	-0,039
-685,554	800,000	-0,034	-0,076
-684,539	38,741	-0,026	0,017
-683,524	138,518	0,020	-0,020
-682,510	-58,927	-0,121	0,039
-681,495	-200,000	-0,022	0,167
-680,481	169,662	-0,102	-0,108
-679,466	800,000	-0,042	0,108
-678,451	800,000	0,033	-0,071
-677,437	-87,648	-0,069	0,015
-676,422	800,000	-0,046	0,104
-675,408	74,202	0,058	0,045
-674,393	-162,105	-0,097	0,004
-673,378	574,268	-0,073	0,132
-672,364	-200,000	0,003	-0,097
-671,349	375,099	-0,061	-0,093
-670,335	-152,918	-0,156	0,008
-669,320	-104,604	0,067	-0,011
-668,305	-81,741	-0,033	-0,008
-667,291	-13,768	-0,053	0,025
-666,276	800,000	-0,052	-0,138
-665,262	-200,000	-0,027	-0,100
-664,247	559,719	0,040	0,072
-663,232	35,494	0,048	0,031
-662,218	402,842	0,074	-0,116
-661,203	-200,000	0,022	-0,209
-660,189	-200,000	-0,025	0,094
-659,174	-86,555	-0,167	-0,038
-658,159	24,421	-0,146	0,090
-657,145	-200,000	0,024	-0,132
-656,130	67,536	0,151	-0,114
-655,116	305,283	0,077	0,106
-654,101	-24,474	-0,037	-0,016
-653,086	-200,000	0,032	0,126
-652,072	800,000	-0,022	0,054
-651,057	-200,000	0,022	-0,230
-650,043	-200,000	-0,074	-0,275
-649,028	800,000	0,022	-0,060
-648,014	800,000	0,006	0,018
-646,999	-90,664	0,050	0,011
-645,984	-200,000	-0,005	0,060
-644,970	553,964	-0,039	-0,070
-643,955	209,923	-0,088	0,103
-642,941	382,733	-0,091	-0,139
-641,926	-200,000	-0,010	-0,045
-640,911	232,378	-0,045	0,055
-639,897	241,439	0,035	0,043
-638,882	39,997	-0,050	-0,034
-637,868	-200,000	-0,113	0,000
-636,853	11,975	-0,099	-0,057
-635,838	-200,000	0,040	-0,149
-634,824	800,000	-0,024	-0,061
-633,809	107,842	-0,066	0,058
-632,795	-200,000	-0,020	0,122
-631,780	800,000	0,010	0,025
-630,765	-200,000	-0,028	-0,157
-629,751	-3,006	-0,066	0,034
-628,736	35,726	-0,073	-0,047
-627,722	-200,000	-0,001	-0,030
-626,707	705,417	-0,040	0,079
-625,692	9,407	-0,024	-0,013
-624,678	-200,000	0,042	0,000
-623,663	650,463	-0,032	0,061
-622,649	28,059	-0,053	-0,033
-621,634	-125,956	-0,189	-0,021
-620,619	800,000	-0,017	0,046
-619,605	26,891	0,079	-0,049
-618,590	-200,000	0,005	0,119
-617,576	-18,595	-0,043	0,020
-616,561	-200,000	0,036	-0,163
-615,546	55,430	0,109	-0,078
-614,532	-199,220	-0,223	-0,001
-613,517	-200,000	0,000	0,002
-612,503	-113,896	-0,146	0,021
-611,488	-62,868	0,084	0,026
-610,474	13,392	-0,056	-0,032
-609,459	708,489	0,039	-0,077
-608,444	157,925	-0,077	0,080
-607,430	-200,000	-0,012	-0,087
-606,415	-162,515	0,072	0,003
-605,401	-153,758	-0,015	0,001
-604,386	-200,000	0,024	0,122
-603,371	-43,024	0,118	0,044
-602,357	-200,000	0,008	-0,034
-601,342	241,737	-0,032	-0,040
-600,328	353,835	0,060	0,089
-599,313	-140,188	0,102	-0,008
-598,298	428,374	-0,047	-0,075
-597,284	113,658	0,027	-0,025
-596,269	-150,153	-0,061	0,003
-595,255	-200,000	0,014	-0,129
-594,240	-5,252	0,051	0,026
-593,225	800,000	0,036	-0,092
-592,211	-200,000	0,011	-0,114
-591,196	800,000	-0,044	0,108
-590,182	-156,525	0,112	0,005
-589,167	800,000	0,073	0,200
-588,152	800,000	0,040	0,099
-587,138	49,347	-0,015	0,010
-586,123	25,434	-0,068	-0,042
-585,109	691,080	0,014	-0,028
-584,094	-200,000	-0,011	0,075
-583,079	-200,000	0,007	-0,026
-582,065	-200,000	0,007	0,098
-581,050	66,906	0,031	0,023
-580,036	-74,430	-0,166	0,044
-579,021	-85,139	0,194	-0,045
-578,006	22,784	-0,009	-0,005
-576,992	348,871	0,035	0,051
-575,977	722,870	-0,067	-0,132
-574,963	105,916	-0,042	0,037
-573,948	153,482	0,107	-0,108
-572,934	-200,000	-0,007	-0,028
-571,919	-129,336	-0,111	0,011
-570,904	38,487	0,057	-0,038
-569,890	126,480	0,046	0,044
-568,875	529,558	0,093	0,164
-567,861	201,643	0,053	0,060
-566,846	299,928	-0,118	0,162
-565,831	-157,289	0,062	0,003
-564,817	-135,181	-0,121	-0,011
-563,802	-120,791	0,160	-0,020
-562,788	0,253	-0,050	-0,026
-561,773	83,358	0,061	-0,049
-560,758	788,879	-0,061	-0,124
-559,744	541,459	-0,070	0,125
-558,729	-65,347	-0,177	-0,052
-557,715	-100,954	-0,145	-0,026
-556,700	-97,415	-0,129	-0,025
-555,685	-35,441	-0,034	0,014
-554,671	-76,445	0,031	-0,008
-553,656	-125,711	-0,087	0,010
-552,642	110,178	0,103	-0,091
-551,627	443,368	0,058	0,095
-550,612	-200,000	0,006	-0,032
-549,598	30,169	-0,083	-0,052
-548,583	-200,000	0,024	0,079
-547,569	-200,000	-0,007	-0,093
-546,554	-200,000	0,001	-0,112
-545,539	369,533	0,047	-0,070
-544,525	-22,398	-0,078	0,035
-543,510	641,992	-0,029	-0,054
-542,496	800,000	0,023	-0,067
-541,481	101,474	0,065	-0,056
-540,466	-136,379	0,149	-0,013
-539,452	-117,246	0,118	0,016
-538,437	27,618	0,099	-0,061
-537,423	753,639	0,022	0,044
-536,408	124,734	0,099	0,092
-535,393	523,460	0,032	-0,056
-534,379	-200,000	-0,030	0,117
-533,364	-97,492	-0,037	-0,007
-532,350	42,898	0,040	0,027
-531,335	211,876	0,107	-0,125
-530,321	74,975	-0,011	0,009
-529,306	-200,000	-0,037	0,181
-528,291	86,569	-0,074	-0,060
-527,277	183,280	0,071	0,078
-526,262	800,000	0,043	0,108
-525,248	302,975	0,012	-0,017
-524,233	800,000	0,040	0,094
-523,218	45,541	0,096	0,066
-522,204	185,770	-0,081	-0,089
-521,189	71,435	-0,052	0,040
-520,175	-200,000	-0,018	-0,108
-519,160	-200,000	0,008	-0,085
-518,145	131,411	-0,097	-0,092
-517,131	-48,396	0,127	-0,045
-516,116	-33,741	0,036	0,015
-515,102	-26,438	0,057	0,025
-514,087	-200,000	-0,012	0,125
-513,072	-21,033	-0,031	-0,014
-512,058	-200,000	-0,024	0,120
-511,043	45,469	0,158	-0,108
-510,029	-54,133	0,147	0,049
-509,014	177,281	-0,205	0,221
-507,999	55,362	0,038	-0,027
-506,985	-1,620	-0,090	-0,047
-505,970	-200,000	-0,021	-0,076
-504,956	-95,297	0,053	0,010
-503,941	-74,389	0,031	0,008
-502,926	-111,944	0,252	0,037
-501,912	-200,000	-0,041	0,163
-500,897	-109,341	0,039	-0,006
-499,883	590,801	0,050	0,092
-498,868	64,869	-0,107	0,080
-497,853	800,000	0,025	0,072
-496,839	-42,429	0,069	-0,026
-495,824	318,702	0,065	-0,090
-494,810	-63,468	-0,062	0,019
-493,795	-200,000	0,006	-0,038
-492,781	-40,431	0,010	0,004
-491,766	-200,000	-0,021	-0,069
-490,751	-200,000	0,006	-0,101
-489,737	252,284	0,063	0,079
-488,722	-161,844	0,071	0,003
-487,708	52,001	0,055	-0,038
-486,693	800,000	-0,017	-0,047
-485,678	-200,000	-0,019	-0,183
-484,664	24,859	-0,061	-0,037
-483,649	800,000	-0,022	-0,068
-482,635	345,468	0,070	-0,101
-481,620	-200,000	-0,038	-0,123
-480,605	-159,503	0,102	-0,004
-479,591	432,133	-0,058	0,093
-478,576	-200,000	0,001	-0,005
-477,562	-34,695	-0,071	-0,028
-476,547	-200,000	-0,020	-0,162
-475,532	-200,000	0,007	-0,107
-474,518	252,089	0,014	0,018
-473,503	481,311	-0,089	0,149
-472,489	800,000	0,058	0,159
-471,474	-70,086	-0,098	0,027
-470,459	-200,000	-0,002	-0,011
-469,445	12,072	-0,058	-0,033
-468,430	-200,000	-0,010	-0,065
-467,416	20,863	0,129	0,077
-466,401	800,000	-0,018	0,058
-465,386	180,806	0,126	0,137
-464,372	800,000	0,042	-0,104
-463,357	457,205	0,020	-0,032
-462,343	231,661	0,059	-0,072
-461,328	621,625	0,007	0,012
-460,313	-200,000	-0,002	0,064
-459,299	0,384	0,076	0,040
-458,284	-200,000	0,003	-0,108
-457,270	-64,456	0,087	-0,026
-456,255	-18,876	-0,206	0,094
-455,241	-38,993	0,155	0,060
-454,226	-70,254	-0,150	-0,042
-453,211	-13,220	0,048	-0,023
-452,197	63,494	-0,009	0,007
-451,182	237,174	0,047	0,057
-450,168	-180,308	0,087	0,001
-449,153	-25,702	0,026	0,011
-448,138	-84,146	0,018	0,004
-447,124	519,422	-0,074	-0,128
-446,109	-200,000	0,036	0,000
-445,095	-171,521	0,035	0,001
-444,080	-99,998	0,032	0,006
-443,065	281,884	-0,097	-0,128
-442,051	90,113	0,040	-0,033
-441,036	-23,563	-0,026	-0,011
-440,022	-200,000	0,008	-0,036
-439,007	7,903	-0,077	-0,042
-437,992	555,285	0,047	0,083
-436,978	-45,661	0,013	0,005
-435,963	-32,404	-0,075	0,031
-434,949	-161,101	-0,263	0,010
-433,934	121,859	0,107	0,098
-432,919	-40,677	0,040	-0,015
-431,905	-200,000	0,008	-0,069
-430,890	-200,000	-0,005	-0,022
-429,876	-200,000	0,022	-0,078
-428,861	443,540	-0,068	-0,110
-427,846	522,866	-0,041	0,071
-426,832	-56,154	-0,026	-0,008
-425,817	567,072	0,014	0,025
-424,803	-200,000	0,001	-0,094
-423,788	90,489	0,008	0,007
-422,773	-200,000	-0,011	0,092
-421,759	166,373	-0,080	0,083
-420,744	93,396	-0,023	0,020
-419,730	-200,000	0,033	0,000
-418,715	383,087	-0,042	-0,064
-417,701	-200,000	0,006	-0,037
-416,686	-200,000	-0,011	0,068
-415,671	159,658	-0,095	-0,097
-414,657	-39,235	-0,047	-0,018
-413,642	-200,000	-0,004	0,041
-412,628	235,529	0,029	-0,036
-411,613	261,200	-0,110	-0,140
-410,598	117,017	-0,067	0,061
-409,584	-27,850	-0,049	-0,021
-408,569	-43,593	0,072	0,026
-407,555	180,284	-0,113	0,122
-406,540	187,962	0,090	-0,099
-405,525	26,012	0,022	-0,014
-404,511	69,796	-0,091	0,069
-403,496	-58,690	0,094	0,030
-402,482	-140,185	-0,091	0,007
-401,467	800,000	0,033	0,084
-400,452	-84,375	0,055	-0,013
-399,438	-54,236	0,113	0,038
-398,423	-75,247	-0,106	0,028
-397,409	-111,790	-0,032	-0,005
-396,394	69,989	0,053	0,040
-395,379	-64,990	0,046	-0,014
-394,365	230,426	0,042	0,051
-393,350	800,000	-0,010	-0,030
-392,336	359,780	0,030	0,044
-391,321	-200,000	0,002	-0,074
-390,306	800,000	-0,016	0,035
-389,292	359,383	-0,029	-0,043
-388,277	-91,869	0,087	0,018
-387,263	800,000	0,040	0,103
-386,248	598,452	-0,046	-0,085
-385,233	143,299	0,080	0,078
-384,219	82,822	-0,166	0,132
-383,204	-177,882	0,051	0,001
-382,190	-200,000	-0,003	-0,118
-381,175	800,000	0,050	0,128
-380,160	79,817	-0,068	0,053
-379,146	217,296	0,028	0,033
-378,131	444,477	-0,047	0,076
-377,117	154,064	-0,067	0,067
-376,102	-66,730	-0,083	-0,024
-375,088	-33,553	-0,096	0,039
-374,073	-42,398	-0,113	-0,042
-373,058	31,608	-0,060	-0,038
-372,044	-4,998	0,147	0,074
-371,029	-0,657	0,129	0,067
-370,015	-200,000	-0,003	0,039
-369,000	800,000	-0,011	0,034
-367,985	800,000	-0,011	-0,030
-366,971	800,000	-0,055	-0,126
-365,956	-77,530	-0,116	0,029
-364,942	800,000	-0,022	-0,061
-363,927	-77,715	0,122	0,031
-362,912	-105,529	0,109	-0,018
-361,898	-200,000	-0,022	-0,159
-360,883	-200,000	0,006	-0,083
-359,869	800,000	-0,013	-0,030
-358,854	-150,122	-0,072	0,004
-357,839	800,000	-0,043	-0,115
-356,825	634,162	-0,025	0,047
-355,810	-200,000	0,031	-0,105
-354,796	-100,468	0,064	-0,012
-353,781	-20,754	0,041	0,018
-352,766	17,249	0,078	-0,045
-351,752	85,310	-0,044	-0,035
-350,737	-200,000	0,001	0,031
-349,723	-200,000	-0,011	0,166
-348,708	-156,866	-0,019	-0,001
-347,693	79,721	0,080	-0,063
-346,679	-176,980	-0,101	-0,002
-345,664	-200,000	0,003	0,148
-344,650	-200,000	0,014	0,078
-343,635	62,531	-0,092	0,068
-342,620	315,777	-0,054	-0,074
-341,606	448,720	-0,040	0,066
-340,591	-200,000	0,011	0,088
-339,577	678,027	0,043	0,081
-338,562	-19,195	0,072	-0,033
-337,548	348,432	-0,053	0,077
-336,533	-24,175	0,038	-0,017
-335,518	-123,967	0,107	-0,012
-334,504	-200,000	-0,005	0,219
-333,489	-29,149	0,085	0,035
-332,475	-200,000	-0,136	0,000
-331,460	247,324	-0,047	-0,059
-330,445	800,000	0,017	-0,047
-329,431	13,917	0,068	0,039
-328,416	-200,000	-0,012	-0,072
-327,402	-200,000	-0,023	0,107
-326,387	800,000	0,022	-0,048
-325,372	-200,000	-0,017	-0,094
-324,358	7,724	0,074	-0,040
-323,343	59,901	0,087	-0,063
-322,329	800,000	-0,081	-0,188
-321,314	15,229	-0,035	0,020
-320,299	-40,889	-0,077	0,029
-319,285	800,000	0,021	-0,048
-318,270	800,000	-0,040	-0,096
-317,256	416,656	0,063	-0,099
-316,241	-200,000	-0,002	-0,076
-315,226	-86,727	0,120	0,027
-314,212	50,129	0,048	0,033
-313,197	-200,000	0,016	-0,067
-312,183	-200,000	0,001	0,006
-311,168	248,880	0,023	-0,028
-310,153	-100,331	-0,118	0,021
-309,139	156,631	0,033	-0,033
-308,124	800,000	0,036	0,075
-307,110	-81,435	0,136	0,032
-306,095	-200,000	0,025	0,108
-305,080	-200,000	-0,011	0,102
-304,066	-200,000	-0,006	0,109
-303,051	800,000	0,039	-0,082
-302,037	233,003	-0,051	-0,061
-301,022	-147,618	-0,132	-0,008
-300,008	-59,092	0,130	-0,041
-298,993	-200,000	-0,003	-0,026
-297,978	88,035	0,048	0,039
-296,964	800,000	0,042	-0,100
-295,949	800,000	-0,028	-0,073
-294,935	-122,193	0,052	-0,006
-293,920	800,000	0,005	-0,015
-292,905	25,492	0,070	-0,042
-291,891	67,498	0,082	-0,061
-290,876	131,927	-0,098	0,092
-289,862	-200,000	-0,004	0,109
-288,847	800,000	-0,039	-0,090
-287,832	800,000	-0,026	-0,056
-286,818	-92,009	0,116	0,024
-285,803	800,000	0,008	0,018
-284,789	-200,000	0,028	0,103
-283,774	800,000	0,012	0,038
-282,759	-200,000	0,005	-0,061
-281,745	20,746	-0,145	-0,086
-280,730	338,477	-0,099	-0,142
-279,716	-154,923	-0,107	-0,005
-278,701	520,219	0,089	-0,152
-277,686	-127,849	-0,080	0,008
-276,672	44,662	0,096	0,065
-275,657	-139,132	-0,069	0,005
-274,643	-200,000	0,008	-0,187
-273,628	-200,000	-0,019	-0,153
-272,613	489,030	-0,031	0,051
-271,599	-63,615	-0,041	0,012
-270,584	-167,873	0,062	-0,002
-269,570	-200,000	-0,038	0,138
-268,555	-131,861	-0,074	-0,007
-267,540	-200,000	-0,010	0,193
-266,526	318,868	-0,037	-0,051
-265,511	-111,963	-0,051	-0,007
-264,497	-200,000	0,006	-0,052
-263,482	-200,000	0,001	-0,023
-262,467	-59,217	-0,104	0,032
-261,453	-128,750	0,016	-0,002
-260,438	238,293	0,037	0,045
-259,424	800,000	0,045	-0,110
-258,409	133,016	0,044	0,042
-257,395	-140,528	0,146	0,011
-256,380	-200,000	0,014	0,051
-255,365	175,545	0,132	0,140
-254,351	-200,000	0,002	0,087
-253,336	213,583	0,040	0,047
-252,322	-22,292	-0,058	-0,026
-251,307	7,513	-0,142	0,078
-250,292	800,000	0,039	-0,109
-249,278	-200,000	0,003	-0,045
-248,263	485,215	-0,019	0,032
-247,249	-109,474	0,114	-0,017
-246,234	45,349	-0,052	0,035
-245,219	-47,415	-0,061	0,022
-244,205	-200,000	0,007	-0,068
-243,190	-112,556	0,149	0,021
-242,176	-103,535	0,177	0,030
-241,161	-200,000	-0,018	0,191
-240,146	-169,313	0,054	-0,001
-239,132	275,455	0,024	0,031
-238,117	559,401	0,074	0,132
-237,103	-144,597	-0,024	-0,002
-236,088	599,816	0,033	0,060
-235,073	6,001	0,074	-0,040
-234,059	20,370	0,074	0,044
-233,044	-200,000	-0,021	-0,127
-232,030	-200,000	-0,037	-0,157
-231,015	334,530	-0,055	0,078
-230,000	-24,696	0,016	-0,007
-228,986	150,195	-0,041	0,040
-227,971	-200,000	0,009	0,095
-226,957	203,629	0,034	-0,039
-225,942	-200,000	-0,011	0,044
-224,927	-22,333	0,049	-0,021
-223,913	800,000	-0,033	-0,080
-222,898	-52,667	0,070	0,023
-221,884	353,148	-0,027	-0,040
-220,869	-112,618	-0,067	-0,010
-219,855	505,382	0,065	0,111
-218,840	361,192	0,039	0,057
-217,825	-23,428	-0,015	-0,007
-216,811	-7,409	-0,120	0,059
-215,796	285,798	-0,038	-0,050
-214,782	-200,000	-0,009	-0,076
-213,767	85,861	0,114	0,092
-212,752	-42,783	0,054	0,020
-211,738	234,391	0,062	-0,075
-210,723	-200,000	0,013	0,128
-209,709	800,000	-0,037	0,078
-208,694	14,171	0,111	-0,063
-207,679	-79,914	-0,041	-0,010
-206,665	-200,000	0,002	-0,066
-205,650	157,213	0,042	-0,042
-204,636	233,501	0,078	-0,093
-203,621	-200,000	-0,005	0,112
-202,606	-200,000	-0,006	-0,038
-201,592	-20,104	-0,137	-0,061
-200,577	-155,401	0,163	-0,008
-199,563	-118,998	-0,059	-0,007
-198,548	38,118	0,021	-0,014
-197,533	-200,000	0,028	0,094
-196,519	-37,123	0,014	0,005
-195,504	-62,634	-0,106	-0,032
-194,490	-200,000	-0,016	-0,077
-193,475	800,000	0,047	0,095
-192,460	-200,000	-0,006	0,071
-191,446	-35,307	0,094	-0,037
-190,431	-40,490	0,035	-0,013
-189,417	-200,000	-0,014	0,056
-188,402	-124,552	0,058	0,006
-187,387	-19,631	-0,186	-0,084
-186,373	800,000	-0,038	-0,110
-185,358	-200,000	-0,011	-0,046
-184,344	-200,000	0,004	0,026
-183,329	-137,219	0,056	-0,005
-182,315	501,110	-0,047	-0,080
-181,300	-63,748	-0,128	0,038
-180,285	800,000	0,070	0,155
-179,271	-200,000	0,006	-0,195
-178,256	-200,000	0,027	-0,100
-177,242	-200,000	0,028	0,130
-176,227	15,864	-0,106	0,061
-175,212	-134,320	0,121	-0,011
-174,198	175,347	-0,008	-0,009
-173,183	-200,000	-0,029	-0,110
-172,169	-34,812	0,192	-0,076
-171,154	-120,087	-0,056	0,007
-170,139	70,724	0,058	-0,044
-169,125	-10,324	-0,094	0,045
-168,110	-200,000	-0,004	-0,053
-167,096	32,265	-0,042	-0,026
-166,081	-151,149	-0,050	-0,003
-165,066	227,800	-0,080	-0,095
-164,052	456,945	-0,068	0,111
-163,037	193,447	-0,008	0,009
-162,023	154,711	-0,084	0,084
-161,008	-200,000	-0,079	0,255
-159,993	-200,000	0,003	0,018
-158,979	-200,000	-0,027	0,094
-157,964	-22,479	-0,138	0,061
-156,950	800,000	-0,009	-0,022
-155,935	800,000	-0,023	-0,051
-154,920	-91,986	-0,024	-0,005
-153,906	-11,091	-0,028	0,013
-152,891	283,462	0,012	-0,016
-151,877	-199,442	0,091	0,000
-150,862	591,756	-0,064	-0,116
-149,847	800,000	-0,080	-0,169
-148,833	-19,260	0,177	0,080
-147,818	118,798	-0,051	0,045
-146,804	-131,805	0,118	0,011
-145,789	-200,000	0,005	0,113
-144,775	201,758	-0,080	-0,090
-143,760	90,437	0,112	-0,091
-142,745	497,770	-0,057	-0,095
-141,731	95,037	-0,019	0,016
-140,716	800,000	-0,054	0,132
-139,702	-200,000	-0,001	-0,060
-138,687	-200,000	-0,007	0,044
-137,672	-52,810	-0,055	0,018
-136,658	256,795	0,026	-0,033
-135,643	68,662	-0,023	-0,017
-134,629	-134,633	0,089	-0,008
-133,614	-200,000	-0,008	0,043
-132,599	8,789	0,052	0,028
-131,585	-91,716	0,053	-0,011
-130,570	-97,724	-0,115	-0,022
-129,556	800,000	-0,047	-0,147
-128,541	271,577	-0,103	-0,132
-127,526	507,684	-0,063	-0,107
-126,512	-11,343	0,096	0,046
-125,497	118,062	0,045	0,040
-124,483	-28,958	0,040	0,016
-123,468	800,000	-0,037	0,108
-122,453	800,000	-0,025	0,074
-121,439	33,169	0,046	0,029
-120,424	-200,000	0,012	-0,097
-119,410	-200,000	0,019	-0,122
-118,395	-200,000	0,037	0,167
-117,380	6,419	0,050	-0,027
-116,366	800,000	-0,031	-0,074
-115,351	800,000	-0,018	0,051
-114,337	-200,000	-0,010	-0,080
-113,322	-47,048	-0,054	0,019
-112,307	51,556	0,076	0,052
-111,293	-200,000	-0,001	-0,040
-110,278	10,658	0,138	-0,076
-109,264	-118,271	0,051	0,006
-108,249	-200,000	0,003	-0,010
-107,234	1,601	0,092	-0,048
-106,220	134,512	0,076	-0,072
-105,205	-200,000	0,017	-0,097
-104,191	-49,784	-0,082	-0,028
-103,176	327,273	0,096	0,134
-102,162	107,490	-0,056	-0,049
-101,147	463,695	0,016	-0,026
-100,132	-200,000	-0,027	-0,162
-99,118	-200,000	0,003	0,021
-98,103	-123,525	0,058	0,007
-97,089	-200,000	-0,053	-0,189
-96,074	85,512	0,046	-0,037
-95,059	800,000	0,050	-0,112
-94,045	-200,000	-0,049	-0,275
-93,030	800,000	-0,054	-0,155
-92,016	228,496	0,029	0,034
-91,001	59,149	0,133	0,095
-89,986	37,770	-0,091	-0,059
-88,972	-3,133	0,116	0,059
-87,957	-200,000	-0,003	-0,110
-86,943	134,929	0,024	-0,022
-85,928	-200,000	0,010	-0,139
-84,913	-92,592	-0,175	-0,035
-83,899	-79,945	0,062	-0,015
-82,884	-200,000	0,000	-0,037
-81,870	624,510	0,039	-0,071
-80,855	-34,254	0,123	0,049
-79,840	141,105	0,040	0,039
-78,826	17,544	0,069	0,040
-77,811	-68,129	-0,065	0,018
-76,797	449,212	-0,072	-0,115
-75,782	129,443	0,071	0,066
-74,767	-200,000	-0,042	-0,179
-73,753	-200,000	0,005	-0,090
-72,738	642,405	-0,029	0,054
-71,724	-95,434	-0,178	0,034
-70,709	602,870	-0,072	-0,131
-69,694	497,416	-0,027	0,046
-68,680	-74,196	0,124	0,032
-67,665	274,125	0,054	0,070
-66,651	-14,610	0,031	0,014
-65,636	-39,446	0,051	0,019
-64,622	136,762	0,038	-0,036
-63,607	18,060	-0,066	-0,038
-62,592	-114,500	-0,184	0,025
-61,578	800,000	-0,012	0,025
-60,563	-52,941	0,094	0,031
-59,549	-102,497	-0,026	0,004
-58,534	-142,599	-1,427	-0,100
-57,519	631,102	-0,786	-1,449
-56,505	-200,000	-0,934	-4,439
-55,490	9,341	0,648	-0,354
-54,476	800,000	4,991	11,781
-53,461	-200,000	14,245	252,937
-52,446	-200,000	694,116	2236,606
-51,432	572,943	1624,072	2880,818
-50,417	117,365	1632,666	1455,015
-49,403	72,429	1286,354	970,793
-48,388	37,467	1022,990	656,158
-47,373	23,847	981,313	584,682
-46,359	23,177	970,573	576,067
-45,344	22,104	966,407	570,070
-44,330	22,069	964,850	569,017
-43,315	21,903	963,606	567,719
-42,300	21,887	962,438	566,956
-41,286	21,937	961,413	566,494
-40,271	21,896	960,506	565,804
-39,257	21,888	959,716	565,290
-38,242	21,881	958,675	564,631
-37,227	21,877	957,677	564,007
-36,213	21,873	956,951	563,543
-35,198	21,865	956,143	563,020
-34,184	21,908	955,455	562,734
-33,169	21,848	954,537	561,975
-32,154	21,916	953,686	561,672
-31,140	21,926	952,747	561,130
-30,125	21,948	951,988	560,729
-29,111	21,941	951,219	560,231
-28,096	21,931	950,379	559,684
-27,082	21,947	949,826	559,388
-26,067	21,906	948,976	558,733
-25,052	21,948	948,310	558,452
-24,038	21,972	947,500	558,030
-23,023	21,864	946,991	557,361
-22,009	21,976	946,044	557,142
-20,994	21,921	945,753	556,773
-19,979	21,879	945,268	556,329
-18,965	21,951	944,337	555,990
-17,950	21,949	943,830	555,662
-16,936	21,829	943,042	554,797
-15,921	21,829	942,466	554,434
-14,906	21,834	941,696	553,975
-13,892	21,781	941,193	553,490
-12,877	21,816	940,475	553,155
-11,863	21,768	939,801	552,585
-10,848	21,783	939,477	552,419
-9,833	21,864	938,982	552,364
-8,819	21,806	938,529	551,892
-7,804	21,749	937,717	551,212
-6,790	21,754	937,057	550,819
-5,775	21,777	936,377	550,468
-4,760	21,803	935,928	550,266
-3,746	21,815	935,163	549,831
-2,731	21,660	934,454	548,904
-1,717	21,566	933,819	548,212
-0,702	21,606	932,996	547,835
0,313	21,470	932,548	547,970
1,327	24,519	930,475	556,274
2,342	34,085	794,634	500,485
3,356	32,006	450,057	280,314
4,371	1,128	292,916	151,740
5,386	-3,376	273,828	137,594
6,400	-4,776	268,298	133,508
7,415	-5,120	265,854	131,964
8,429	-4,879	264,590	131,546
9,444	-4,977	263,869	131,086
10,459	-4,716	263,172	130,965
11,473	-4,926	262,543	130,450
12,488	-4,999	262,153	130,179
13,502	-5,052	261,602	129,846
14,517	-5,056	261,184	129,623
15,531	-4,855	260,737	129,570
16,546	-4,839	260,477	129,445
17,561	-5,027	260,110	129,082
18,575	-4,749	259,714	129,122
19,590	-5,013	259,504	128,771
20,604	-4,998	259,268	128,656
21,619	-5,068	258,945	128,421
22,634	-5,077	258,552	128,206
23,648	-4,943	258,162	128,121
24,663	-5,063	257,774	127,811
25,677	-4,882	257,698	127,923
26,692	-5,114	257,416	127,565
27,707	-5,094	257,182	127,456
28,721	-5,056	256,904	127,340
29,736	-4,987	256,539	127,208
30,750	-4,778	256,259	127,243
31,765	-5,071	256,122	126,905
32,780	-5,154	255,835	126,679
33,794	-4,994	255,818	126,800
34,809	-5,014	255,381	126,554
35,823	-5,151	255,313	126,389
36,838	-5,015	254,923	126,304
37,853	-5,257	254,735	125,988
38,867	-5,185	254,601	125,973
39,882	-5,207	254,306	125,797
40,896	-5,141	254,063	125,723
41,911	-5,184	253,918	125,602
42,926	-5,002	253,543	125,564
43,940	-5,175	253,474	125,368
44,955	-5,282	253,216	125,136
45,969	-5,278	253,037	125,040
46,984	-5,574	252,801	124,656
47,999	-5,758	252,491	124,332
49,013	-5,602	252,232	124,328
50,028	-5,855	251,936	123,952
51,042	-5,705	251,544	123,878
52,057	-5,750	251,416	123,765
53,071	-5,839	251,367	123,652
54,086	-5,733	251,113	123,608
55,101	-5,567	251,129	123,748
56,115	-5,285	250,893	123,864
57,130	-5,036	250,636	123,941
58,144	-4,733	250,495	124,120
59,159	-4,985	250,314	123,803
60,174	-4,735	250,055	123,878
61,188	-5,047	249,986	123,566
62,203	-5,015	249,683	123,432
63,217	-4,909	249,639	123,490
64,232	-4,957	249,264	123,253
65,247	-4,781	249,039	123,280
66,261	-4,920	248,810	123,037
67,276	-5,099	248,666	122,803
68,290	-5,239	248,329	122,506
69,305	-5,512	248,178	122,188
70,320	-5,442	247,986	122,142
71,334	-5,303	247,842	122,179
72,349	-4,817	247,680	122,501
73,363	-4,760	247,400	122,400
74,378	-4,764	247,341	122,356
75,393	-5,024	247,047	121,979
76,407	-5,068	246,816	121,818
77,422	-5,044	246,607	121,724
78,436	-4,845	246,453	121,805
79,451	-5,003	246,204	121,537
80,466	-4,965	246,013	121,465
81,480	-5,202	245,785	121,141
82,495	-5,211	245,428	120,947
83,509	-5,287	245,425	120,871
84,524	-5,205	245,212	120,824
85,539	-5,350	244,954	120,565
86,553	-5,351	244,809	120,481
87,568	-5,358	244,698	120,410
88,582	-5,171	244,462	120,441
89,597	-5,278	244,374	120,296
90,611	-5,133	244,037	120,241
91,626	-5,140	244,096	120,253
92,641	-5,074	243,902	120,203
93,655	-5,217	243,615	119,931
94,670	-5,211	243,526	119,881
95,684	-5,103	243,173	119,787
96,699	-5,168	243,044	119,659
97,714	-5,324	242,794	119,395
98,728	-5,337	242,706	119,331
99,743	-5,160	242,293	119,264
100,757	-5,311	242,362	119,161
101,772	-5,228	241,958	119,022
102,787	-5,267	241,906	118,953
103,801	-5,156	241,653	118,909
104,816	-4,987	241,493	118,959
105,830	-5,186	241,421	118,749
106,845	-4,957	241,252	118,844
107,860	-4,847	240,935	118,768
108,874	-5,324	240,873	118,334
109,889	-5,184	240,623	118,316
110,903	-5,263	240,515	118,188
111,918	-5,015	240,237	118,244
112,933	-5,227	240,067	117,976
113,947	-5,120	240,050	118,045
114,962	-5,164	239,763	117,857
115,976	-5,008	239,630	117,909
116,991	-5,262	239,463	117,608
118,006	-5,021	239,214	117,672
119,020	-4,980	239,165	117,671
120,035	-5,091	239,117	117,547
121,049	-4,883	238,892	117,595
122,064	-4,838	238,726	117,539
123,079	-4,994	238,673	117,376
124,093	-5,212	238,430	117,068
125,108	-5,301	238,065	116,807
126,122	-5,306	237,827	116,675
127,137	-5,311	237,698	116,597
128,151	-5,344	237,543	116,485
129,166	-5,244	237,422	116,496
130,181	-5,326	237,168	116,295
131,195	-5,440	237,091	116,154
132,210	-5,195	236,979	116,287
133,224	-5,106	236,699	116,211
134,239	-5,131	236,643	116,153
135,254	-4,926	236,445	116,211
136,268	-5,220	236,172	115,829
137,283	-5,407	235,987	115,578
138,297	-5,235	235,688	115,559
139,312	-5,410	235,541	115,336
140,327	-5,160	235,515	115,514
141,341	-4,899	235,464	115,688
142,356	-4,624	235,325	115,830
143,370	-4,720	235,085	115,625
144,385	-4,531	234,742	115,597
145,400	-4,680	234,832	115,511
146,414	-4,947	234,721	115,234
147,429	-4,903	234,545	115,172
148,443	-4,959	234,251	114,973
149,458	-4,833	234,119	114,998
150,473	-4,814	233,962	114,926
151,487	-4,862	233,659	114,729
152,502	-4,710	233,530	114,776
153,516	-4,884	233,497	114,611
154,531	-4,800	233,323	114,582
155,546	-4,741	233,106	114,512
156,560	-4,785	232,794	114,314
157,575	-4,995	232,667	114,075
158,589	-5,153	232,581	113,898
159,604	-4,664	232,417	114,194
160,619	-4,761	232,247	114,023
161,633	-4,739	232,082	113,950
162,648	-4,673	231,929	113,916
163,662	-4,807	231,791	113,733
164,677	-4,724	231,458	113,625
165,692	-4,737	231,535	113,642
166,706	-4,648	231,450	113,660
167,721	-4,758	231,295	113,488
168,735	-4,793	231,103	113,356
169,750	-4,651	230,936	113,375
170,764	-4,702	230,701	113,210
171,779	-4,762	230,745	113,174
172,794	-4,744	230,603	113,108
173,808	-4,846	230,358	112,898
174,823	-5,139	229,942	112,456
175,837	-5,414	229,929	112,224
176,852	-4,993	229,763	112,462
177,867	-4,908	229,811	112,542
178,881	-4,645	229,504	112,586
179,896	-4,434	229,424	112,702
180,910	-4,836	229,169	112,254
181,925	-4,596	229,039	112,366
182,940	-4,649	228,883	112,238
183,954	-4,636	228,817	112,206
184,969	-4,618	228,727	112,166
185,983	-4,545	228,518	112,110
186,998	-4,797	228,391	111,843
188,013	-4,678	228,212	111,837
189,027	-4,687	228,016	111,724
190,042	-4,506	227,898	111,796
191,056	-4,599	227,827	111,680
192,071	-4,598	227,649	111,583
193,086	-4,597	227,331	111,418
194,100	-4,732	227,168	111,224
195,115	-4,796	226,963	111,065
196,129	-5,161	226,802	110,695
197,144	-2,355	227,707	113,293
198,159	1,508	228,671	116,751
199,173	3,682	229,205	118,695
200,188	3,874	229,145	118,801
201,202	3,916	228,976	118,736
202,217	4,238	228,921	118,945
203,232	4,266	228,758	118,871
204,246	4,342	228,674	118,876
205,261	4,444	228,609	118,910
206,275	4,539	228,412	118,870
207,290	4,691	228,194	118,863
208,304	4,447	228,285	118,712
209,319	4,380	228,094	118,550
210,334	4,587	227,782	118,537
211,348	4,231	227,568	118,142
212,363	4,051	227,337	117,873
213,377	3,701	227,067	117,455
214,392	3,773	227,073	117,503
215,407	3,910	226,758	117,434
216,421	3,991	226,801	117,508
217,436	3,697	226,569	117,153
218,450	3,465	226,357	116,856
219,465	3,498	226,192	116,786
220,480	3,621	225,998	116,769
221,494	3,459	225,812	116,539
222,509	3,669	225,840	116,703
223,523	3,624	225,582	116,525
224,538	3,687	225,423	116,480
225,553	3,858	225,360	116,567
226,567	3,929	225,239	116,548
227,582	4,193	225,054	116,641
228,596	4,136	224,932	116,524
229,611	3,668	224,819	116,102
230,626	3,848	224,437	116,029
231,640	3,709	224,418	115,905
232,655	4,094	224,305	116,127
233,669	4,425	224,295	116,360
234,684	4,596	224,097	116,376
235,699	4,183	223,977	115,992
236,713	4,091	223,730	115,785
237,728	3,861	223,583	115,526
238,742	3,736	223,398	115,326
239,757	3,794	223,285	115,301
240,772	3,565	223,067	115,007
241,786	3,792	222,891	115,076
242,801	4,009	222,807	115,184
243,815	4,171	222,917	115,352
244,830	4,032	222,862	115,209
245,844	4,148	222,486	115,091
246,859	3,833	222,235	114,716
247,874	4,119	222,058	114,828
248,888	4,029	222,018	114,730
249,903	4,120	221,835	114,693
250,917	3,933	221,706	114,477
251,932	3,689	221,529	114,193
252,947	3,648	221,371	114,072
253,961	3,672	221,099	113,939
254,976	3,885	221,078	114,077
255,990	3,808	221,072	114,006
257,005	4,045	220,855	114,059
258,020	4,086	220,758	114,029
259,034	4,335	220,705	114,176
260,049	4,273	220,500	114,014
261,063	3,970	220,293	113,673
262,078	4,177	220,107	113,719
263,093	4,234	220,168	113,783
264,107	4,108	219,939	113,562
265,122	4,043	219,852	113,459
266,136	4,036	219,755	113,394
267,151	4,356	219,505	113,490
268,166	3,740	219,262	112,901
269,180	3,831	218,897	112,770
270,195	3,709	218,794	112,617
271,209	3,848	218,685	112,653
272,224	3,792	218,760	112,641
273,239	3,912	218,589	112,631
274,253	3,886	218,379	112,493
275,268	3,675	218,090	112,181
276,282	3,534	217,993	112,017
277,297	3,566	217,844	111,955
278,312	3,687	217,814	112,017
279,326	3,562	217,796	111,907
280,341	3,765	217,650	111,970
281,355	3,721	217,544	111,873
282,370	3,747	217,244	111,728
283,384	3,411	217,087	111,392
284,399	3,425	216,975	111,335
285,414	3,715	216,623	111,355
286,428	3,872	216,709	111,504
287,443	3,755	216,702	111,405
288,457	3,886	216,600	111,438
289,472	3,781	216,420	111,259
290,487	3,327	216,109	110,761
291,501	3,240	215,905	110,584
292,516	3,567	215,750	110,731
293,530	3,322	215,721	110,529
294,545	3,288	215,488	110,375
295,560	3,661	215,436	110,607
296,574	3,832	215,461	110,733
297,589	3,914	215,259	110,679
298,603	3,906	215,250	110,658
299,618	3,939	215,006	110,547
300,633	3,939	214,811	110,437
301,647	4,031	214,714	110,444
302,662	4,066	214,655	110,428
303,676	4,045	214,499	110,323
304,691	4,023	214,350	110,221
305,706	4,033	214,278	110,181
306,720	4,309	213,975	110,212
307,735	3,923	213,879	109,878
308,749	3,588	213,693	109,533
309,764	3,881	213,606	109,687
310,779	4,162	213,465	109,806
311,793	4,025	213,322	109,625
312,808	3,990	213,191	109,523
313,822	3,855	213,125	109,383
314,837	3,735	212,850	109,147
315,852	3,528	212,739	108,933
316,866	3,697	212,576	108,960
317,881	4,007	212,552	109,158
318,895	4,182	212,331	109,159
319,910	3,955	212,147	108,893
320,925	3,467	211,889	108,407
321,939	3,418	211,786	108,309
322,954	3,284	211,676	108,149
323,968	3,583	211,696	108,361
324,983	4,158	211,537	108,675
325,997	4,080	211,550	108,618
327,012	3,818	211,403	108,348
328,027	3,878	211,236	108,295
329,041	4,267	211,140	108,510
330,056	4,489	210,949	108,558
331,070	3,988	210,786	108,112
332,085	3,444	210,566	107,608
333,100	3,639	210,491	107,697
334,114	3,756	210,383	107,715
335,129	3,991	210,168	107,759
336,143	3,750	210,002	107,495
337,158	3,427	209,974	107,246
338,173	3,713	209,742	107,318
339,187	3,430	209,663	107,070
340,202	3,547	209,428	107,022
341,216	3,422	209,307	106,864
342,231	3,677	209,211	106,983
343,246	3,374	209,150	106,731
344,260	3,524	208,849	106,672
345,275	3,844	208,759	106,839
346,289	3,872	208,718	106,828
347,304	3,820	208,724	106,785
348,319	3,995	208,388	106,725
349,333	3,959	208,342	106,668
350,348	3,753	208,274	106,480
351,362	4,108	208,134	106,645
352,377	4,086	207,942	106,522
353,392	3,830	207,850	106,288
354,406	3,783	207,786	106,213
355,421	194,039	1344,775	1432,111
356,435	154,810	1483,396	1432,217
