DTS Sentinel unit serial number:	SN410029Multiplexer serial number:	ORYXHardware model number:	OX2-SRSoftware version number:	ORYX F/W v4,00 Oryx Data Collector v3.7.2.0data status	okinstallation	B6 Nyhavnadifferential loss correction	single-endedforward channel	channel 2reverse channel	N/Adate	2023/12/09time	09:45:08forward acquisition time	300,00reverse acquisition time	0,00gamma	499,1914k internal	0,3139k external	0,3139temperature offset calibration	1,0000default loss term (dB/km)	0,3820temperature slope calibration	1,0000multiplexer offset coefficient	1,0000multiplexer slope coefficient	1,0000fibre end	0,00T internal ref (°C)	18,49T ext. ref 1 (°C)	2,10T ext. ref 2 (°C)	2,10length (m)	temperature (°C)	Stokes	anti-Stokes-744,400	800,000	-0,023	0,054
-743,385	-127,689	-0,162	0,017
-742,371	556,562	0,068	0,122
-741,356	-161,089	-0,317	-0,012
-740,342	-96,246	0,039	-0,008
-739,327	-137,996	-0,196	0,016
-738,312	274,318	0,078	-0,103
-737,298	-163,614	-0,292	-0,010
-736,283	-117,547	0,147	0,019
-735,269	-29,351	-0,146	0,062
-734,254	116,181	0,025	0,023
-733,239	-14,856	-0,394	-0,187
-732,225	39,123	0,202	0,133
-731,210	-200,000	-0,003	-0,012
-730,196	213,484	-0,100	-0,117
-729,181	62,733	-0,079	0,059
-728,167	-200,000	0,012	0,130
-727,152	-200,000	0,007	0,073
-726,137	530,795	0,077	-0,135
-725,123	-200,000	0,012	0,046
-724,108	55,021	-0,090	-0,065
-723,094	502,670	0,041	0,070
-722,079	-111,638	-0,120	-0,018
-721,064	800,000	0,023	-0,056
-720,050	3,771	0,080	0,043
-719,035	-163,914	-0,125	0,004
-718,021	-200,000	0,010	0,062
-717,006	200,875	-0,068	-0,078
-715,991	800,000	-0,023	-0,050
-714,977	385,297	0,095	-0,145
-713,962	-103,300	0,118	-0,020
-712,948	365,804	-0,052	0,079
-711,933	188,476	-0,064	0,072
-710,918	-100,292	-0,052	-0,009
-709,904	800,000	-0,062	-0,179
-708,889	-200,000	-0,005	-0,069
-707,875	800,000	-0,046	-0,134
-706,860	-22,591	-0,060	-0,027
-705,845	-86,336	-0,052	-0,012
-704,831	37,168	-0,044	0,029
-703,816	-108,291	0,107	-0,017
-702,802	-200,000	0,000	-0,082
-701,787	-200,000	0,022	-0,144
-700,772	-70,062	0,094	0,026
-699,758	41,285	0,022	0,014
-698,743	-115,263	-0,032	0,004
-697,729	-134,679	-0,038	0,003
-696,714	214,082	-0,062	0,073
-695,699	44,199	-0,051	-0,034
-694,685	-200,000	-0,001	-0,068
-693,670	-200,000	-0,002	-0,017
-692,656	-35,268	-0,008	0,003
-691,641	-118,678	0,171	-0,022
-690,627	-200,000	-0,006	-0,094
-689,612	-200,000	0,024	-0,156
-688,597	800,000	-0,056	0,167
-687,583	-200,000	0,018	-0,103
-686,568	366,532	-0,102	-0,152
-685,554	-200,000	0,021	-0,109
-684,539	-136,889	-0,072	0,006
-683,524	130,744	-0,088	-0,084
-682,510	41,719	-0,081	0,054
-681,495	-200,000	0,002	-0,104
-680,481	-200,000	-0,026	-0,136
-679,466	62,539	-0,119	-0,088
-678,451	114,321	-0,085	0,076
-677,437	289,712	0,054	-0,073
-676,422	800,000	-0,017	0,044
-675,408	323,140	0,095	0,134
-674,393	800,000	-0,019	-0,061
-673,378	192,674	0,174	-0,195
-672,364	800,000	-0,048	0,115
-671,349	237,756	0,108	-0,132
-670,335	-72,516	-0,070	-0,019
-669,320	-74,102	0,063	0,017
-668,305	101,472	-0,042	-0,036
-667,291	-124,986	-0,128	0,014
-666,276	-104,169	-0,147	0,025
-665,262	-13,338	-0,075	0,036
-664,247	60,592	0,073	-0,054
-663,232	167,785	-0,015	0,016
-662,218	83,139	0,040	0,032
-661,203	-200,000	-0,016	0,144
-660,189	-180,063	-0,027	-0,000
-659,174	188,471	-0,055	0,061
-658,159	196,166	0,046	-0,052
-657,145	73,518	0,038	-0,030
-656,130	394,114	-0,052	-0,080
-655,116	-96,117	0,157	0,031
-654,101	-200,000	-0,007	0,138
-653,086	18,928	0,117	-0,069
-652,072	-200,000	0,014	-0,112
-651,057	580,730	-0,038	-0,070
-650,043	46,022	0,066	0,045
-649,028	-200,000	-0,014	-0,050
-648,014	800,000	-0,030	0,062
-646,999	-200,000	-0,017	-0,223
-645,984	189,281	0,069	-0,076
-644,970	414,962	-0,026	-0,041
-643,955	129,340	0,081	-0,076
-642,941	-167,812	-0,081	0,002
-641,926	-43,790	-0,128	-0,047
-640,911	-200,000	0,039	0,141
-639,897	-200,000	0,017	0,064
-638,882	441,535	-0,067	0,109
-637,868	800,000	0,024	-0,049
-636,853	158,180	-0,057	0,058
-635,838	-200,000	-0,015	-0,148
-634,824	-200,000	-0,004	0,057
-633,809	92,823	0,074	0,062
-632,795	318,411	-0,038	0,053
-631,780	424,228	-0,031	0,050
-630,765	231,936	-0,073	0,089
-629,751	-200,000	0,012	-0,057
-628,736	-200,000	-0,016	-0,125
-627,722	421,798	-0,059	-0,094
-626,707	-200,000	-0,009	0,090
-625,692	-200,000	0,004	0,082
-624,678	-15,000	0,109	-0,051
-623,663	104,461	0,044	-0,039
-622,649	508,784	-0,085	-0,146
-621,634	-200,000	-0,013	0,078
-620,619	160,503	-0,104	-0,107
-619,605	63,260	-0,096	0,071
-618,590	256,193	0,037	-0,047
-617,576	53,460	-0,118	-0,083
-616,561	-200,000	0,016	-0,069
-615,546	89,406	-0,080	-0,066
-614,532	-104,179	-0,150	-0,025
-613,517	379,565	-0,013	-0,020
-612,503	-200,000	0,008	-0,080
-611,488	-133,691	0,109	-0,010
-610,474	537,489	0,099	0,175
-609,459	9,826	0,071	-0,040
-608,444	800,000	0,042	-0,119
-607,430	-200,000	-0,012	-0,047
-606,415	120,461	-0,105	-0,096
-605,401	-136,606	0,034	0,003
-604,386	-200,000	-0,003	-0,112
-603,371	188,094	0,097	-0,107
-602,357	55,081	-0,080	-0,057
-601,342	394,695	-0,075	0,115
-600,328	11,395	-0,134	0,076
-599,313	-26,882	-0,093	0,040
-598,298	144,938	-0,084	-0,083
-597,284	-200,000	-0,001	-0,033
-596,269	800,000	0,089	-0,189
-595,255	391,765	0,038	0,059
-594,240	800,000	-0,067	-0,143
-593,225	800,000	-0,060	-0,177
-592,211	-200,000	0,020	0,068
-591,196	12,217	-0,081	-0,046
-590,182	-200,000	0,009	0,039
-589,167	-28,382	0,044	-0,019
-588,152	63,928	-0,079	-0,058
-587,138	-8,239	-0,078	0,038
-586,123	800,000	0,013	0,032
-585,109	-200,000	-0,023	-0,120
-584,094	44,613	0,103	0,070
-583,079	800,000	0,013	0,038
-582,065	-53,770	-0,062	0,021
-581,050	66,144	0,029	-0,022
-580,036	116,362	0,028	0,025
-579,021	-112,793	-0,073	-0,011
-578,006	-200,000	-0,001	-0,020
-576,992	-13,383	0,012	-0,005
-575,977	382,862	0,021	0,032
-574,963	-200,000	0,002	-0,040
-573,948	385,796	0,057	0,088
-572,934	-122,385	0,036	-0,004
-571,919	26,655	-0,118	0,073
-570,904	-200,000	-0,008	-0,044
-569,890	615,178	-0,027	-0,050
-568,875	-91,232	0,211	-0,044
-567,861	-200,000	-0,024	0,086
-566,846	-157,952	-0,040	-0,002
-565,831	800,000	-0,035	0,078
-564,817	800,000	0,022	0,057
-563,802	143,480	0,128	-0,126
-562,788	90,379	0,061	-0,050
-561,773	218,775	0,058	-0,068
-560,758	-200,000	-0,001	-0,073
-559,744	-200,000	-0,036	0,158
-558,729	-72,163	-0,162	0,044
-557,715	52,227	0,065	0,045
-556,700	800,000	0,059	-0,165
-555,685	605,345	0,036	-0,067
-554,671	-200,000	0,010	0,103
-553,656	-36,899	0,038	0,015
-552,642	293,150	0,079	-0,107
-551,627	76,190	0,186	-0,145
-550,612	66,655	0,013	-0,010
-549,598	63,229	-0,069	-0,051
-548,583	800,000	0,037	-0,080
-547,569	-200,000	0,010	-0,038
-546,554	-19,461	-0,058	-0,027
-545,539	0,816	-0,058	-0,031
-544,525	24,014	0,053	-0,032
-543,510	-124,475	0,099	0,011
-542,496	-138,176	-0,108	0,009
-541,481	52,321	-0,149	-0,105
-540,466	-62,441	-0,027	0,008
-539,452	217,330	-0,052	-0,062
-538,437	-140,456	0,063	-0,005
-537,423	428,999	0,025	-0,039
-536,408	390,818	0,114	0,175
-535,393	108,908	0,117	0,103
-534,379	-200,000	-0,004	-0,094
-533,364	39,169	-0,071	0,046
-532,350	800,000	-0,006	0,014
-531,335	2,257	-0,038	-0,020
-530,321	-200,000	0,024	0,100
-529,306	-200,000	-0,024	0,226
-528,291	-125,545	-0,089	-0,010
-527,277	136,192	0,023	0,022
-526,262	800,000	-0,011	0,033
-525,248	-42,858	-0,034	-0,013
-524,233	386,727	0,030	-0,046
-523,218	-80,558	0,175	0,043
-522,204	800,000	-0,027	-0,056
-521,189	218,363	-0,051	-0,060
-520,175	57,977	-0,092	-0,066
-519,160	112,949	0,039	-0,035
-518,145	292,202	-0,010	0,014
-517,131	-200,000	-0,049	0,000
-516,116	-200,000	0,026	-0,153
-515,102	-200,000	-0,033	-0,111
-514,087	203,777	-0,087	0,100
-513,072	-200,000	0,005	-0,181
-512,058	-86,930	0,151	0,033
-511,043	96,990	-0,043	-0,037
-510,029	-22,532	0,133	-0,059
-509,014	278,630	0,028	-0,037
-507,999	-32,931	-0,082	0,033
-506,985	-177,078	-0,104	0,002
-505,970	-200,000	-0,014	-0,066
-504,956	-200,000	-0,033	0,180
-503,941	800,000	0,042	0,103
-502,926	-110,969	-0,108	-0,016
-501,912	-200,000	0,057	0,198
-500,897	800,000	0,028	-0,066
-499,883	-200,000	-0,014	0,077
-498,868	53,843	-0,083	-0,059
-497,853	800,000	0,012	0,029
-496,839	362,752	-0,098	0,146
-495,824	122,611	0,033	-0,030
-494,810	95,620	0,077	-0,064
-493,795	-154,275	0,113	-0,005
-492,781	41,376	-0,010	-0,007
-491,766	-200,000	0,006	-0,070
-490,751	-41,761	-0,135	-0,051
-489,737	134,478	0,029	0,028
-488,722	-17,589	0,123	0,056
-487,708	322,927	-0,126	0,177
-486,693	800,000	-0,050	0,133
-485,678	-200,000	-0,006	0,063
-484,664	268,115	-0,039	-0,050
-483,649	-92,960	0,053	-0,011
-482,635	-22,028	0,077	-0,034
-481,620	-200,000	0,014	-0,061
-480,605	-200,000	-0,045	0,157
-479,591	-3,652	0,137	0,070
-478,576	-200,000	0,009	0,055
-477,562	235,356	0,008	0,009
-476,547	800,000	0,003	0,008
-475,532	620,970	-0,060	-0,111
-474,518	-200,000	-0,022	0,096
-473,503	-102,384	0,120	0,021
-472,489	101,041	0,016	-0,013
-471,474	346,831	-0,074	-0,108
-470,459	133,181	0,056	0,053
-469,445	-83,805	-0,087	-0,020
-468,430	-64,633	-0,125	-0,037
-467,416	-177,266	0,123	0,002
-466,401	221,330	0,032	-0,038
-465,386	79,455	0,089	0,070
-464,372	-200,000	-0,012	0,045
-463,357	-100,460	-0,083	-0,015
-462,343	-200,000	0,011	0,133
-461,328	-200,000	0,011	-0,061
-460,313	41,400	0,109	-0,072
-459,299	-66,771	0,056	0,016
-458,284	16,509	-0,070	0,041
-457,270	-200,000	-0,009	0,132
-456,255	89,214	-0,060	0,049
-455,241	243,191	-0,039	0,048
-454,226	143,528	-0,054	-0,053
-453,211	-91,620	0,028	0,006
-452,197	-4,100	0,082	0,041
-451,182	531,960	0,044	0,077
-450,168	800,000	-0,037	-0,097
-449,153	-200,000	-0,035	-0,189
-448,138	800,000	-0,056	-0,166
-447,124	103,434	-0,146	-0,126
-446,109	-44,487	-0,022	-0,008
-445,095	138,597	0,052	-0,050
-444,080	-87,105	-0,126	0,028
-443,065	-200,000	0,037	0,161
-442,051	541,671	-0,039	0,069
-441,036	-200,000	-0,015	0,091
-440,022	-145,871	-0,057	-0,004
-439,007	3,155	0,051	0,027
-437,992	-200,000	0,018	0,181
-436,978	800,000	-0,032	0,088
-435,963	-35,664	-0,108	0,043
-434,949	211,728	0,087	-0,101
-433,934	-200,000	-0,025	0,092
-432,919	477,206	-0,029	-0,048
-431,905	-92,564	0,142	-0,029
-430,890	-95,686	-0,098	0,019
-429,876	404,310	0,046	0,071
-428,861	22,909	0,069	0,042
-427,846	-91,919	-0,083	-0,017
-426,832	66,944	0,075	-0,056
-425,817	-200,000	0,001	-0,104
-424,803	237,291	0,064	0,077
-423,788	388,387	-0,011	0,017
-422,773	-78,919	0,037	-0,009
-421,759	141,728	0,158	0,154
-420,744	-200,000	-0,000	0,058
-419,730	800,000	-0,017	0,053
-418,715	-5,652	-0,086	-0,043
-417,701	-200,000	0,011	0,044
-416,686	562,035	0,016	0,029
-415,671	15,967	-0,120	0,069
-414,657	-200,000	-0,001	0,123
-413,642	-157,395	0,098	0,004
-412,628	-17,023	0,172	0,079
-411,613	-118,260	0,083	0,011
-410,598	-152,830	-0,099	-0,005
-409,584	-85,947	0,043	-0,010
-408,569	46,814	0,104	0,071
-407,555	-169,288	-0,120	0,003
-406,540	-53,086	-0,075	-0,025
-405,525	-123,084	0,081	-0,009
-404,511	38,923	-0,109	0,071
-403,496	-125,443	0,085	0,009
-402,482	800,000	-0,039	-0,092
-401,467	213,530	0,056	-0,065
-400,452	-153,253	-0,082	0,004
-399,438	-130,060	0,066	0,007
-398,423	-92,835	0,097	-0,020
-397,409	499,141	0,037	0,063
-396,394	190,329	0,113	-0,124
-395,379	204,412	-0,122	-0,139
-394,365	62,531	-0,030	0,022
-393,350	86,732	0,040	0,032
-392,336	800,000	0,043	-0,116
-391,321	-122,079	0,047	-0,006
-390,306	800,000	0,038	0,109
-389,292	-200,000	0,018	-0,087
-388,277	-48,192	-0,045	-0,016
-387,263	141,597	-0,024	0,023
-386,248	120,771	0,140	0,128
-385,233	345,121	-0,079	0,114
-384,219	-200,000	-0,001	-0,128
-383,204	523,570	-0,058	-0,101
-382,190	209,212	0,075	-0,086
-381,175	197,623	0,013	-0,015
-380,160	-18,373	0,069	0,031
-379,146	-18,610	0,029	-0,013
-378,131	105,159	0,153	0,132
-377,117	574,939	-0,054	0,098
-376,102	-155,913	-0,199	0,009
-375,088	147,063	-0,070	-0,069
-374,073	-200,000	-0,014	-0,058
-373,058	800,000	0,015	0,039
-372,044	19,103	0,022	-0,013
-371,029	-200,000	0,010	0,037
-370,015	-115,812	0,046	0,006
-369,000	160,206	0,058	-0,060
-367,985	653,295	0,023	-0,043
-366,971	222,275	-0,036	0,043
-365,956	40,573	-0,107	0,070
-364,942	-68,887	0,058	-0,016
-363,927	529,788	0,031	-0,054
-362,912	90,663	0,073	0,060
-361,898	-200,000	0,015	-0,190
-360,883	125,330	0,072	-0,066
-359,869	198,171	-0,064	0,071
-358,854	-111,310	0,036	0,005
-357,839	-114,571	-0,104	0,014
-356,825	-125,212	-0,158	-0,017
-355,810	81,104	0,043	0,034
-354,796	800,000	-0,041	-0,119
-353,781	-200,000	0,010	0,055
-352,766	-200,000	-0,011	-0,057
-351,752	-200,000	-0,006	0,162
-350,737	225,952	-0,080	0,094
-349,723	-200,000	0,001	0,009
-348,708	-200,000	0,014	-0,069
-347,693	-151,212	-0,173	0,009
-346,679	-72,565	-0,108	-0,029
-345,664	35,664	-0,031	-0,020
-344,650	355,763	-0,081	0,119
-343,635	-200,000	-0,027	0,119
-342,620	34,687	0,041	0,026
-341,606	-119,147	-0,120	-0,015
-340,591	-55,250	0,059	-0,019
-339,577	48,407	-0,048	0,033
-338,562	-200,000	-0,001	-0,025
-337,548	198,858	0,063	-0,071
-336,533	-200,000	-0,000	-0,012
-335,518	194,303	-0,077	0,085
-334,504	-200,000	0,003	-0,171
-333,489	800,000	-0,005	0,013
-332,475	355,896	-0,090	-0,131
-331,460	66,696	0,042	0,031
-330,445	-38,755	0,104	-0,040
-329,431	-86,206	-0,041	0,009
-328,416	-54,031	0,012	0,004
-327,402	281,849	-0,009	-0,011
-326,387	800,000	-0,024	0,059
-325,372	15,212	0,137	0,078
-324,358	-200,000	-0,002	-0,123
-323,343	74,499	-0,074	0,057
-322,329	-142,699	0,067	0,005
-321,314	-89,233	0,121	-0,026
-320,299	96,376	0,038	0,032
-319,285	-200,000	0,021	0,105
-318,270	253,101	0,061	-0,076
-317,256	-45,727	-0,125	-0,045
-316,241	-200,000	-0,044	0,217
-315,226	-200,000	0,001	-0,056
-314,212	13,195	0,181	0,102
-313,197	342,161	0,017	0,025
-312,183	584,835	0,056	-0,100
-311,168	139,550	0,010	0,010
-310,153	-200,000	0,006	-0,088
-309,139	595,644	0,072	0,131
-308,124	-200,000	0,005	0,066
-307,110	95,687	0,020	-0,017
-306,095	140,612	-0,033	-0,032
-305,080	92,334	-0,053	0,044
-304,066	-200,000	0,015	0,064
-303,051	-60,723	-0,132	-0,041
-302,037	-132,179	-0,145	0,014
-301,022	-99,044	-0,035	0,006
-300,008	800,000	-0,085	-0,208
-298,993	463,897	0,091	0,149
-297,978	142,583	0,092	0,089
-296,964	1,414	-0,034	0,018
-295,949	-200,000	0,000	0,025
-294,935	62,059	-0,017	-0,012
-293,920	-200,000	0,005	-0,099
-292,905	800,000	0,035	0,108
-291,891	-58,678	-0,144	0,045
-290,876	-24,882	0,018	-0,008
-289,862	800,000	-0,018	-0,046
-288,847	800,000	-0,007	-0,017
-287,832	-200,000	0,021	-0,129
-286,818	307,631	-0,093	-0,126
-285,803	-75,933	0,063	-0,016
-284,789	-200,000	0,058	-0,187
-283,774	-200,000	-0,021	-0,110
-282,759	800,000	0,033	-0,082
-281,745	42,931	-0,060	0,040
-280,730	90,614	-0,020	-0,016
-279,716	-200,000	-0,006	0,045
-278,701	-200,000	-0,015	0,077
-277,686	749,469	-0,065	0,128
-276,672	358,963	-0,088	0,128
-275,657	181,725	-0,023	-0,025
-274,643	-200,000	-0,028	-0,115
-273,628	224,145	0,032	-0,038
-272,613	15,419	-0,067	-0,038
-271,599	578,027	0,052	0,094
-270,584	-200,000	-0,008	-0,045
-269,570	138,958	-0,091	0,087
-268,555	-84,942	0,030	-0,007
-267,540	-40,544	-0,037	-0,014
-266,526	-200,000	-0,013	-0,114
-265,511	800,000	0,042	-0,104
-264,497	-82,596	-0,069	0,016
-263,482	-44,780	0,102	0,037
-262,467	125,862	0,018	0,017
-261,453	-77,596	-0,082	-0,021
-260,438	-200,000	-0,001	-0,083
-259,424	800,000	0,008	-0,021
-258,409	-57,569	0,058	-0,019
-257,395	2,563	-0,092	0,048
-256,380	-200,000	-0,000	-0,042
-255,365	83,367	0,039	-0,031
-254,351	-200,000	0,008	-0,090
-253,336	1,089	-0,120	-0,062
-252,322	56,161	0,090	-0,063
-251,307	519,867	0,020	0,034
-250,292	431,442	0,047	-0,075
-249,278	-77,384	0,127	-0,032
-248,263	800,000	0,027	-0,057
-247,249	-112,634	0,154	0,022
-246,234	-70,610	-0,173	0,047
-245,219	-200,000	-0,001	0,075
-244,205	94,084	-0,108	-0,089
-243,190	143,506	0,081	-0,079
-242,176	-200,000	0,005	0,046
-241,161	-50,220	0,161	-0,055
-240,146	800,000	-0,011	0,026
-239,132	133,627	-0,040	0,038
-238,117	549,416	-0,012	0,021
-237,103	533,077	0,015	-0,026
-236,088	-47,726	-0,098	0,034
-235,073	296,586	-0,020	-0,027
-234,059	-56,635	0,123	-0,039
-233,044	800,000	-0,042	0,107
-232,030	-200,000	0,025	0,093
-231,015	800,000	0,054	0,122
-230,000	-94,096	-0,097	-0,019
-228,986	-106,726	-0,121	-0,019
-227,971	113,396	0,116	-0,103
-226,957	106,336	-0,033	0,028
-225,942	117,265	0,151	0,135
-224,927	40,457	0,074	-0,049
-223,913	800,000	0,085	0,198
-222,898	91,090	0,074	0,061
-221,884	-200,000	0,010	-0,047
-220,869	139,003	0,077	0,074
-219,855	-71,824	0,074	0,020
-218,840	800,000	0,058	0,176
-217,825	186,854	0,100	0,108
-216,811	-79,178	0,102	-0,025
-215,796	-7,483	-0,148	-0,073
-214,782	800,000	0,056	0,127
-213,767	183,046	-0,036	0,039
-212,752	800,000	0,020	0,058
-211,738	-200,000	-0,014	0,111
-210,723	800,000	-0,020	0,060
-209,709	-81,152	0,145	0,034
-208,694	-200,000	-0,008	-0,110
-207,679	-94,330	-0,100	0,020
-206,665	-56,505	-0,033	-0,010
-205,650	-169,334	0,090	-0,002
-204,636	-11,034	-0,006	0,003
-203,621	-33,546	-0,047	0,019
-202,606	-8,316	0,055	0,027
-201,592	-6,189	-0,120	0,059
-200,577	118,276	0,077	-0,069
-199,563	-200,000	-0,015	-0,060
-198,548	34,990	-0,052	0,033
-197,533	-200,000	0,015	0,068
-196,519	800,000	0,023	0,068
-195,504	-39,039	-0,095	0,036
-194,490	20,808	0,093	0,054
-193,475	-200,000	0,006	-0,262
-192,460	647,402	-0,030	-0,055
-191,446	-200,000	0,035	-0,127
-190,431	136,820	-0,085	0,081
-189,417	680,754	0,031	0,060
-188,402	69,166	0,030	-0,022
-187,387	-200,000	-0,004	0,062
-186,373	-200,000	-0,009	-0,072
-185,358	84,227	0,060	0,047
-184,344	180,585	-0,050	-0,053
-183,329	120,525	-0,131	0,118
-182,315	-200,000	0,021	0,167
-181,300	-200,000	0,010	-0,084
-180,285	7,507	0,059	-0,032
-179,271	-66,162	-0,137	-0,039
-178,256	22,067	-0,163	-0,096
-177,242	-132,958	0,081	0,007
-176,227	-200,000	0,012	0,052
-175,212	69,751	0,051	0,038
-174,198	105,628	0,097	0,083
-173,183	-27,747	-0,135	-0,056
-172,169	-20,562	0,152	0,068
-171,154	15,739	0,080	-0,045
-170,139	-200,000	-0,010	0,058
-169,125	800,000	0,039	0,101
-168,110	-118,004	0,132	-0,017
-167,096	-32,572	-0,125	-0,050
-166,081	-200,000	0,004	0,042
-165,066	76,938	0,028	0,022
-164,052	-200,000	-0,012	-0,052
-163,037	-200,000	0,004	-0,029
-162,023	541,954	0,032	-0,056
-161,008	40,961	0,046	0,030
-159,993	9,556	0,087	0,048
-158,979	79,609	-0,090	0,070
-157,964	-200,000	-0,014	-0,066
-156,950	170,743	0,008	-0,009
-155,935	134,604	0,061	-0,057
-154,920	-111,593	0,046	0,007
-153,906	-89,027	0,134	-0,028
-152,891	-156,829	-0,108	-0,005
-151,877	451,259	-0,050	-0,081
-150,862	-84,246	-0,126	-0,029
-149,847	128,721	-0,053	-0,049
-148,833	120,777	-0,057	0,051
-147,818	2,251	0,103	-0,054
-146,804	-68,300	0,089	0,025
-145,789	-47,770	-0,140	0,049
-144,775	-200,000	-0,019	0,106
-143,760	47,555	-0,118	0,079
-142,745	-89,564	-0,090	0,019
-141,731	-200,000	-0,001	0,077
-140,716	-115,250	0,085	0,012
-139,702	85,243	0,047	-0,037
-138,687	800,000	-0,061	0,152
-137,672	8,707	-0,108	0,059
-136,658	-155,394	-0,188	0,009
-135,643	333,575	-0,095	-0,133
-134,629	24,209	0,037	0,022
-133,614	444,134	-0,080	-0,128
-132,599	3,010	-0,132	0,069
-131,585	-200,000	-0,028	0,125
-130,570	-93,696	0,017	-0,003
-129,556	-99,382	-0,075	0,014
-128,541	1,987	-0,079	-0,041
-127,526	-99,027	-0,086	0,016
-126,512	430,565	-0,030	-0,047
-125,497	202,203	0,041	-0,046
-124,483	-12,824	0,038	-0,018
-123,468	-97,401	0,142	0,026
-122,453	-200,000	0,020	0,102
-121,439	800,000	-0,021	0,057
-120,424	-200,000	0,022	0,133
-119,410	-200,000	-0,018	0,102
-118,395	800,000	0,039	0,085
-117,380	-200,000	-0,006	-0,057
-116,366	-52,138	0,044	0,015
-115,351	-33,309	-0,074	-0,029
-114,337	-38,879	-0,164	0,062
-113,322	800,000	-0,040	-0,115
-112,307	14,939	0,073	-0,041
-111,293	169,617	0,073	0,075
-110,278	-200,000	-0,024	0,119
-109,264	200,730	-0,079	-0,088
-108,249	-200,000	-0,004	-0,113
-107,234	-200,000	-0,008	0,063
-106,220	504,277	-0,032	-0,053
-105,205	-200,000	-0,018	-0,137
-104,191	-81,815	0,126	-0,030
-103,176	-200,000	-0,006	0,057
-102,162	-200,000	0,005	-0,033
-101,147	-89,128	-0,050	-0,011
-100,132	-106,740	-0,057	-0,009
-99,118	-200,000	0,005	-0,170
-98,103	-120,516	-0,044	0,005
-97,089	800,000	0,031	-0,095
-96,074	-61,546	0,174	0,052
-95,059	-1,312	-0,032	-0,016
-94,045	-200,000	-0,034	0,143
-93,030	542,220	0,017	0,030
-92,016	800,000	0,058	-0,141
-91,001	18,115	0,121	-0,070
-89,986	392,006	0,045	0,068
-88,972	-200,000	0,005	0,055
-87,957	-200,000	-0,057	0,313
-86,943	-200,000	-0,014	-0,142
-85,928	-200,000	0,008	-0,057
-84,913	-200,000	0,019	-0,120
-83,899	-200,000	0,000	0,034
-82,884	6,456	0,028	0,015
-81,870	421,025	-0,050	-0,078
-80,855	693,467	0,003	0,006
-79,840	-200,000	-0,009	-0,030
-78,826	708,688	0,018	0,035
-77,811	37,429	0,004	0,003
-76,797	-126,552	-0,182	-0,019
-75,782	333,891	0,032	-0,045
-74,767	164,376	0,052	0,053
-73,753	-12,316	0,129	-0,061
-72,738	800,000	0,023	-0,075
-71,724	352,926	-0,073	-0,105
-70,709	800,000	-0,088	-0,257
-69,694	72,729	-0,187	-0,141
-68,680	800,000	0,034	-0,085
-67,665	-34,331	-0,036	-0,014
-66,651	107,343	-0,042	-0,036
-65,636	-116,107	0,052	-0,007
-64,622	800,000	-0,062	-0,181
-63,607	212,122	-0,048	-0,054
-62,592	-146,319	0,039	0,002
-61,578	-86,635	0,034	-0,007
-60,563	526,395	-0,014	0,023
-59,549	-200,000	-0,019	0,178
-58,534	-26,705	-1,684	-0,708
-57,519	800,000	-0,431	-1,126
-56,505	-200,000	-0,963	-4,809
-55,490	-149,390	0,754	0,043
-54,476	800,000	5,360	12,186
-53,461	-200,000	15,825	279,397
-52,446	-200,000	703,011	2250,850
-51,432	565,385	1619,115	2845,590
-50,417	122,008	1622,960	1462,500
-49,403	82,736	1284,001	1006,453
-48,388	36,848	1028,346	654,902
-47,373	21,574	990,362	580,190
-46,359	20,466	978,932	569,819
-45,344	18,801	974,708	561,863
-44,330	18,920	973,384	561,469
-43,315	18,566	971,672	559,296
-42,300	18,623	970,419	558,740
-41,286	18,533	969,721	558,022
-40,271	18,561	968,691	557,500
-39,257	18,551	967,940	557,011
-38,242	18,553	967,211	556,576
-37,227	18,529	966,285	555,944
-36,213	18,531	965,615	555,544
-35,198	18,462	964,641	554,734
-34,184	18,560	963,958	554,639
-33,169	18,447	963,140	553,778
-32,154	18,565	961,906	553,432
-31,140	18,572	961,251	553,056
-30,125	18,506	960,547	552,415
-29,111	18,548	959,677	552,027
-28,096	18,529	959,070	551,596
-27,082	18,478	958,448	551,052
-26,067	18,490	957,580	550,568
-25,052	18,488	956,796	550,090
-24,038	18,507	956,206	549,791
-23,023	18,515	955,484	549,379
-22,009	18,546	954,686	548,997
-20,994	18,539	954,356	548,764
-19,979	18,538	953,541	548,268
-18,965	18,536	952,783	547,805
-17,950	18,536	952,371	547,549
-16,936	18,499	951,443	546,874
-15,921	18,441	950,823	546,310
-14,906	18,511	950,054	546,069
-13,892	18,466	949,560	545,619
-12,877	18,462	948,714	545,098
-11,863	18,359	948,395	544,564
-10,848	18,391	947,821	544,318
-9,833	18,501	947,354	544,377
-8,819	18,529	946,739	544,091
-7,804	18,403	946,014	543,252
-6,790	18,354	945,556	542,812
-5,775	18,399	944,912	542,564
-4,760	18,489	944,217	542,430
-3,746	18,412	943,645	541,834
-2,731	18,291	942,902	541,003
-1,717	18,184	942,310	540,300
-0,702	18,243	941,530	540,018
0,313	18,055	940,912	539,882
1,327	21,171	939,314	548,788
2,342	30,394	796,552	489,948
3,356	27,363	449,640	271,994
4,371	-2,228	295,498	149,078
5,386	-6,421	276,825	135,658
6,400	-7,764	271,166	131,621
7,415	-8,002	268,778	130,230
8,429	-8,050	267,650	129,627
9,444	-8,085	266,806	129,175
10,459	-8,106	266,133	128,819
11,473	-8,116	265,503	128,493
12,488	-8,186	264,926	128,138
13,502	-8,576	264,406	127,521
14,517	-8,504	264,077	127,416
15,531	-8,328	263,556	127,313
16,546	-8,384	263,118	127,040
17,561	-8,267	262,778	126,970
18,575	-8,172	262,528	126,924
19,590	-8,303	262,122	126,598
20,604	-8,374	261,803	126,369
21,619	-8,474	261,630	126,184
22,634	-8,228	261,145	126,159
23,648	-8,435	260,868	125,828
24,663	-8,341	260,534	125,740
25,677	-8,165	260,248	125,749
26,692	-8,429	260,152	125,456
27,707	-8,425	259,845	125,300
28,721	-8,390	259,531	125,168
29,736	-8,423	259,277	125,005
30,750	-8,656	258,956	124,632
31,765	-8,546	258,956	124,718
32,780	-8,444	258,534	124,595
33,794	-8,360	258,361	124,575
34,809	-8,612	258,153	124,240
35,823	-8,449	257,837	124,222
36,838	-8,567	257,636	124,009
37,853	-8,599	257,363	123,839
38,867	-8,786	257,273	123,619
39,882	-8,628	256,997	123,614
40,896	-8,638	256,716	123,459
41,911	-8,603	256,517	123,384
42,926	-8,584	256,204	123,239
43,940	-8,553	255,945	123,131
44,955	-8,680	255,627	122,855
45,969	-8,743	255,524	122,739
46,984	-8,874	255,151	122,434
47,999	-9,095	254,968	122,143
49,013	-9,178	254,800	121,979
50,028	-9,449	254,456	121,567
51,042	-9,422	254,224	121,468
52,057	-9,387	254,237	121,494
53,071	-9,400	253,764	121,246
54,086	-9,337	253,674	121,247
55,101	-9,089	253,445	121,342
56,115	-9,044	253,315	121,309
57,130	-8,581	253,326	121,705
58,144	-8,358	253,230	121,841
59,159	-8,204	252,909	121,809
60,174	-8,282	252,697	121,628
61,188	-8,168	252,466	121,606
62,203	-8,207	252,260	121,462
63,217	-8,337	252,083	121,253
64,232	-8,321	251,867	121,153
65,247	-8,158	251,521	121,115
66,261	-8,111	251,352	121,064
67,276	-8,780	251,172	120,391
68,290	-8,823	250,787	120,159
69,305	-8,850	250,591	120,032
70,320	-8,861	250,329	119,886
71,334	-8,685	250,232	119,979
72,349	-8,245	250,225	120,342
73,363	-8,319	249,955	120,138
74,378	-8,278	249,767	120,072
75,393	-8,338	249,536	119,899
76,407	-8,369	249,263	119,730
77,422	-8,441	249,182	119,620
78,436	-8,181	248,991	119,739
79,451	-8,412	248,751	119,417
80,466	-8,389	248,483	119,297
81,480	-8,722	248,321	118,925
82,495	-8,853	248,147	118,720
83,509	-8,618	247,818	118,752
84,524	-8,553	247,639	118,710
85,539	-9,007	247,553	118,274
86,553	-8,793	247,317	118,332
87,568	-8,766	247,157	118,267
88,582	-8,864	247,074	118,134
89,597	-8,917	246,797	117,947
90,611	-8,620	246,626	118,105
91,626	-8,392	246,425	118,190
92,641	-8,504	246,433	118,089
93,655	-8,669	246,065	117,764
94,670	-8,720	245,993	117,675
95,684	-8,612	245,663	117,598
96,699	-8,741	245,549	117,424
97,714	-8,569	245,290	117,434
98,728	-8,950	245,227	117,074
99,743	-8,803	244,931	117,046
100,757	-9,001	244,697	116,758
101,772	-8,999	244,530	116,670
102,787	-8,750	244,382	116,797
103,801	-8,636	244,224	116,806
104,816	-8,489	244,065	116,842
105,830	-8,365	243,822	116,818
106,845	-8,608	243,774	116,582
107,860	-8,542	243,519	116,505
108,874	-8,738	243,316	116,234
109,889	-8,710	243,029	116,111
110,903	-8,758	242,805	115,953
111,918	-8,838	242,575	115,767
112,933	-8,706	242,407	115,786
113,947	-8,614	242,280	115,791
114,962	-8,582	242,264	115,799
115,976	-8,465	242,092	115,803
116,991	-8,595	241,959	115,622
118,006	-8,522	241,611	115,505
119,020	-8,512	241,560	115,479
120,035	-8,732	241,557	115,286
121,049	-8,450	241,394	115,430
122,064	-8,274	241,042	115,396
123,079	-8,316	240,857	115,263
124,093	-8,546	240,705	114,991
125,108	-8,881	240,588	114,651
126,122	-8,808	240,196	114,513
127,137	-8,981	240,011	114,274
128,151	-8,967	239,744	114,147
129,166	-8,812	239,728	114,256
130,181	-8,853	239,364	114,039
131,195	-8,966	239,405	113,956
132,210	-8,881	239,203	113,919
133,224	-8,622	239,252	114,143
134,239	-8,442	238,974	114,147
135,254	-8,553	238,749	113,939
136,268	-8,616	238,514	113,766
137,283	-8,922	238,183	113,349
138,297	-9,097	238,023	113,122
139,312	-9,012	237,874	113,109
140,327	-8,706	237,824	113,323
141,341	-8,128	237,824	113,781
142,356	-8,183	237,579	113,609
143,370	-8,227	237,568	113,558
144,385	-8,145	237,219	113,447
145,400	-8,369	237,041	113,171
146,414	-8,096	237,015	113,369
147,429	-8,185	236,783	113,176
148,443	-8,362	236,578	112,925
149,458	-8,241	236,419	112,937
150,473	-8,134	236,249	112,931
151,487	-8,378	236,085	112,647
152,502	-8,231	235,877	112,656
153,516	-8,230	235,805	112,612
154,531	-8,169	235,595	112,551
155,546	-8,238	235,269	112,330
156,560	-8,319	235,208	112,225
157,575	-8,481	234,911	111,945
158,589	-8,545	234,804	111,832
159,604	-8,131	234,677	112,092
160,619	-8,014	234,596	112,137
161,633	-8,003	234,518	112,099
162,648	-8,196	234,314	111,837
163,662	-8,331	234,174	111,653
164,677	-8,297	233,803	111,493
165,692	-8,262	233,883	111,549
166,706	-8,050	233,679	111,610
167,721	-8,025	233,538	111,552
168,735	-8,081	233,371	111,419
169,750	-8,174	233,160	111,235
170,764	-8,233	233,029	111,115
171,779	-8,119	232,975	111,169
172,794	-8,237	232,830	110,997
173,808	-8,416	232,567	110,721
174,823	-8,827	232,240	110,232
175,837	-8,906	232,059	110,074
176,852	-8,573	232,098	110,345
177,867	-8,150	232,027	110,633
178,881	-8,360	231,843	110,371
179,896	-8,138	231,554	110,397
180,910	-8,214	231,472	110,289
181,925	-8,091	231,321	110,304
182,940	-8,008	231,297	110,348
183,954	-8,013	231,156	110,267
184,969	-7,999	230,953	110,171
185,983	-8,104	230,969	110,087
186,998	-7,794	230,637	110,161
188,013	-7,938	230,497	109,972
189,027	-8,061	230,295	109,769
190,042	-7,788	230,043	109,852
191,056	-7,926	229,983	109,706
192,071	-8,207	229,815	109,398
193,086	-7,918	229,629	109,524
194,100	-8,130	229,567	109,320
195,115	-8,116	228,952	109,028
196,129	-8,955	228,914	108,350
197,144	-4,561	230,397	112,466
198,159	1,312	232,059	117,863
199,173	3,157	232,568	119,554
200,188	3,339	232,453	119,626
201,202	3,318	232,318	119,530
202,217	3,848	232,052	119,795
203,232	3,851	232,058	119,790
204,246	4,146	232,008	119,983
205,261	3,905	232,003	119,783
206,275	4,397	231,739	120,018
207,290	4,237	231,578	119,800
208,304	4,324	231,412	119,770
209,319	4,276	231,373	119,703
210,334	4,029	231,033	119,324
211,348	4,026	230,795	119,189
212,363	3,909	230,537	118,955
213,377	3,254	230,470	118,403
214,392	3,283	230,168	118,260
215,407	3,627	230,000	118,427
216,421	3,621	230,045	118,436
217,436	3,381	229,920	118,176
218,450	3,141	229,600	117,816
219,465	3,123	229,429	117,703
220,480	3,063	229,431	117,648
221,494	3,069	229,244	117,547
222,509	3,315	229,097	117,649
223,523	3,427	228,879	117,613
224,538	3,222	228,762	117,385
225,553	3,415	228,610	117,445
226,567	3,324	228,499	117,307
227,582	3,626	228,481	117,519
228,596	3,812	228,429	117,624
229,611	3,434	228,198	117,206
230,626	3,058	227,820	116,714
231,640	3,097	227,646	116,644
232,655	3,551	227,770	117,044
233,669	3,972	227,688	117,312
234,684	4,005	227,667	117,316
235,699	3,746	227,317	116,928
236,713	3,521	227,033	116,600
237,728	3,587	226,853	116,547
238,742	3,325	226,696	116,258
239,757	3,503	226,533	116,299
240,772	3,451	226,299	116,129
241,786	3,428	226,203	116,052
242,801	3,543	226,190	116,122
243,815	3,723	226,154	116,229
244,830	3,842	225,937	116,198
245,844	3,574	225,754	115,890
246,859	3,581	225,597	115,805
247,874	3,547	225,448	115,692
248,888	3,809	225,399	115,855
249,903	3,628	225,143	115,576
250,917	3,487	224,982	115,378
251,932	3,485	224,739	115,241
252,947	3,489	224,556	115,139
253,961	3,299	224,587	115,003
254,976	3,254	224,465	114,896
255,990	3,514	224,413	115,054
257,005	3,442	224,160	114,861
258,020	3,598	224,023	114,897
259,034	3,893	223,902	115,046
260,049	3,496	223,845	114,709
261,063	3,664	223,471	114,632
262,078	3,776	223,428	114,683
263,093	3,781	223,232	114,577
264,107	3,545	223,239	114,394
265,122	3,691	223,084	114,414
266,136	3,724	223,027	114,399
267,151	3,805	222,854	114,359
268,166	3,298	222,535	113,809
269,180	3,221	222,274	113,608
270,195	3,131	222,190	113,488
271,209	3,149	221,879	113,333
272,224	3,400	221,924	113,532
273,239	3,370	221,799	113,435
274,253	3,499	221,579	113,408
275,268	3,456	221,382	113,265
276,282	3,339	221,267	113,110
277,297	3,265	221,079	112,949
278,312	3,154	220,982	112,808
279,326	3,243	221,080	112,913
280,341	3,437	220,877	112,942
281,355	3,299	220,878	112,831
282,370	3,385	220,464	112,673
283,384	3,205	220,192	112,392
284,399	3,130	220,092	112,276
285,414	3,308	219,904	112,300
286,428	3,499	219,887	112,421
287,443	3,726	219,837	112,552
288,457	3,544	219,777	112,378
289,472	3,278	219,646	112,107
290,487	3,166	219,088	111,730
291,501	2,718	219,088	111,393
292,516	2,911	219,009	111,484
293,530	3,168	218,812	111,561
294,545	3,300	218,618	111,548
295,560	3,216	218,626	111,481
296,574	3,281	218,463	111,435
297,589	3,497	218,433	111,568
298,603	3,358	218,334	111,405
299,618	3,305	218,198	111,287
300,633	3,572	218,007	111,374
301,647	3,436	217,932	111,227
302,662	3,702	217,798	111,342
303,676	3,655	217,649	111,221
304,691	3,611	217,582	111,145
305,706	3,699	217,393	111,103
306,720	3,643	217,222	110,965
307,735	3,313	217,101	110,655
308,749	3,413	216,927	110,628
309,764	3,720	216,808	110,780
310,779	3,596	216,593	110,570
311,793	3,579	216,472	110,486
312,808	3,469	216,339	110,330
313,822	3,552	216,162	110,289
314,837	3,438	216,090	110,161
315,852	3,341	215,859	109,963
316,866	3,269	215,882	109,913
317,881	3,833	215,704	110,217
318,895	3,503	215,427	109,830
319,910	3,519	215,269	109,751
320,925	3,175	215,015	109,366
321,939	2,740	214,919	108,997
322,954	3,065	214,937	109,229
323,968	3,489	214,702	109,402
324,983	3,582	214,745	109,480
325,997	3,661	214,604	109,455
327,012	3,415	214,457	109,195
328,027	3,465	214,312	109,147
329,041	3,728	214,073	109,202
330,056	3,919	214,151	109,368
331,070	3,505	213,916	108,944
332,085	2,986	213,630	108,421
333,100	3,481	213,581	108,737
334,114	3,555	213,430	108,703
335,129	3,515	213,306	108,602
336,143	3,505	213,124	108,493
337,158	3,410	212,996	108,351
338,173	3,424	212,936	108,321
339,187	3,324	212,591	108,065
340,202	3,200	212,542	107,942
341,216	3,150	212,338	107,794
342,231	3,411	212,216	107,906
343,246	3,165	212,153	107,691
344,260	3,263	212,054	107,701
345,275	3,291	211,881	107,623
346,289	3,447	211,848	107,706
347,304	3,499	211,728	107,672
348,319	3,591	211,491	107,607
349,333	3,341	211,418	107,385
350,348	3,613	211,219	107,464
351,362	3,705	211,183	107,500
352,377	3,248	211,110	107,134
353,392	3,289	210,930	107,062
354,406	3,234	210,865	106,981
355,421	194,987	1342,184	1426,832
356,435	155,714	1480,050	1426,888
