DTS Sentinel unit serial number:	SN410029Multiplexer serial number:	ORYXHardware model number:	OX2-SRSoftware version number:	ORYX F/W v4,00 Oryx Data Collector v3.7.2.0data status	okinstallation	B6 Nyhavnadifferential loss correction	single-endedforward channel	channel 2reverse channel	N/Adate	2023/12/10time	17:45:08forward acquisition time	300,00reverse acquisition time	0,00gamma	499,1914k internal	0,3123k external	0,3123temperature offset calibration	1,0000default loss term (dB/km)	0,3820temperature slope calibration	1,0000multiplexer offset coefficient	1,0000multiplexer slope coefficient	1,0000fibre end	0,00T internal ref (°C)	22,40T ext. ref 1 (°C)	6,01T ext. ref 2 (°C)	6,05length (m)	temperature (°C)	Stokes	anti-Stokes-744,400	36,383	0,143	-0,094
-743,385	65,694	-0,239	0,181
-742,371	453,765	0,046	-0,076
-741,356	104,359	-0,191	0,167
-740,342	-200,000	-0,007	0,159
-739,327	800,000	-0,083	0,215
-738,312	173,088	-0,039	0,042
-737,298	77,915	-0,233	0,185
-736,283	535,985	-0,039	-0,069
-735,269	216,372	-0,153	0,181
-734,254	-32,169	0,087	-0,036
-733,239	-123,171	-0,393	-0,046
-732,225	158,741	0,138	0,143
-731,210	-41,512	-0,038	-0,015
-730,196	647,047	-0,035	-0,066
-729,181	-36,280	-0,177	-0,071
-728,167	-88,048	-0,063	-0,014
-727,152	739,902	0,061	0,122
-726,137	800,000	-0,014	-0,036
-725,123	-37,765	-0,072	0,029
-724,108	800,000	-0,016	-0,050
-723,094	800,000	-0,063	-0,192
-722,079	-49,973	-0,192	-0,068
-721,064	-200,000	-0,003	-0,099
-720,050	-84,657	-0,143	0,033
-719,035	-200,000	0,005	-0,047
-718,021	-200,000	0,007	-0,050
-717,006	107,957	-0,168	-0,149
-715,991	-200,000	-0,032	-0,144
-714,977	-61,458	-0,058	0,018
-713,962	800,000	-0,069	-0,160
-712,948	-5,948	-0,068	0,035
-711,933	339,296	0,033	0,048
-710,918	-200,000	0,009	-0,066
-709,904	-139,911	-0,092	-0,007
-708,889	431,031	-0,076	-0,124
-707,875	-126,688	-0,166	-0,018
-706,860	-200,000	-0,020	0,128
-705,845	304,629	0,072	-0,100
-704,831	36,327	-0,044	-0,029
-703,816	-200,000	0,024	-0,119
-702,802	535,426	0,026	-0,046
-701,787	25,689	-0,094	-0,058
-700,772	-37,871	-0,108	-0,042
-699,758	-130,693	0,123	-0,012
-698,743	-200,000	-0,004	-0,032
-697,729	399,015	-0,070	-0,109
-696,714	-175,235	0,045	0,001
-695,699	-88,393	-0,061	-0,013
-694,685	20,196	-0,106	-0,063
-693,670	94,316	-0,094	-0,079
-692,656	-115,780	-0,113	-0,016
-691,641	-200,000	0,002	-0,067
-690,627	135,545	0,057	0,055
-689,612	2,875	-0,072	0,039
-688,597	673,581	-0,063	0,122
-687,583	-200,000	-0,001	-0,088
-686,568	301,948	-0,084	-0,115
-685,554	-56,300	-0,131	-0,043
-684,539	-126,058	-0,129	0,014
-683,524	-71,112	0,064	0,018
-682,510	-200,000	0,007	0,061
-681,495	-200,000	-0,021	0,171
-680,481	-200,000	-0,007	0,068
-679,466	-200,000	-0,018	0,061
-678,451	31,654	0,052	0,033
-677,437	106,025	-0,085	-0,075
-676,422	398,760	0,053	-0,082
-675,408	-200,000	0,003	-0,028
-674,393	800,000	-0,036	-0,109
-673,378	-53,508	-0,065	-0,022
-672,364	-200,000	-0,015	-0,104
-671,349	2,697	-0,104	0,056
-670,335	-200,000	-0,024	-0,084
-669,320	-110,332	-0,046	0,007
-668,305	-65,259	0,072	-0,021
-667,291	-200,000	-0,028	-0,121
-666,276	5,839	-0,029	-0,016
-665,262	-120,981	0,095	-0,012
-664,247	212,462	0,044	0,051
-663,232	111,943	-0,033	-0,029
-662,218	52,857	0,147	0,104
-661,203	-200,000	0,005	0,028
-660,189	-7,035	0,066	-0,033
-659,174	77,104	-0,123	-0,097
-658,159	-182,549	-0,119	-0,002
-657,145	-200,000	-0,014	-0,072
-656,130	189,003	-0,085	0,094
-655,116	800,000	0,030	-0,068
-654,101	63,419	0,020	-0,015
-653,086	397,897	-0,037	0,058
-652,072	199,947	0,047	0,053
-651,057	92,038	-0,170	0,142
-650,043	-98,354	0,025	0,005
-649,028	105,430	0,081	-0,071
-648,014	800,000	0,049	-0,155
-646,999	19,597	-0,080	-0,047
-645,984	-92,830	-0,099	0,020
-644,970	-200,000	-0,002	-0,068
-643,955	-130,290	0,016	-0,002
-642,941	-200,000	-0,025	-0,106
-641,926	152,231	0,096	0,097
-640,911	800,000	-0,046	-0,099
-639,897	-89,333	-0,055	-0,012
-638,882	-44,289	0,062	0,023
-637,868	-200,000	0,011	-0,129
-636,853	0,577	-0,129	-0,068
-635,838	730,564	-0,046	0,091
-634,824	800,000	-0,050	0,113
-633,809	291,664	-0,128	-0,173
-632,795	-25,613	-0,036	0,016
-631,780	231,629	0,031	0,038
-630,765	-140,997	-0,093	0,007
-629,751	188,380	-0,034	-0,037
-628,736	9,261	-0,100	0,056
-627,722	-200,000	-0,045	0,155
-626,707	-31,365	0,087	0,036
-625,692	-165,108	0,108	0,003
-624,678	-119,082	0,032	-0,004
-623,663	41,187	-0,078	0,052
-622,649	800,000	0,004	0,010
-621,634	40,810	-0,171	-0,114
-620,619	-200,000	-0,018	-0,130
-619,605	-200,000	0,021	0,105
-618,590	-16,049	-0,023	0,011
-617,576	-59,486	-0,073	0,023
-616,561	-5,980	-0,117	0,059
-615,546	-200,000	0,005	-0,094
-614,532	16,217	0,079	-0,046
-613,517	800,000	-0,043	-0,100
-612,503	-200,000	-0,007	-0,142
-611,488	-37,139	-0,075	0,030
-610,474	-126,902	0,022	0,002
-609,459	84,187	0,116	-0,094
-608,444	-200,000	-0,026	0,115
-607,430	-200,000	-0,004	0,052
-606,415	266,071	-0,044	-0,057
-605,401	238,567	-0,014	0,017
-604,386	-178,588	0,060	-0,001
-603,371	-200,000	-0,002	0,080
-602,357	56,711	0,144	0,104
-601,342	284,876	-0,020	-0,026
-600,328	73,826	-0,071	-0,055
-599,313	76,289	-0,108	0,084
-598,298	-200,000	-0,005	-0,171
-597,284	94,910	0,053	-0,045
-596,269	169,706	0,060	-0,064
-595,255	-106,798	0,041	0,007
-594,240	-200,000	-0,024	0,103
-593,225	369,890	0,066	0,099
-592,211	168,759	-0,089	0,094
-591,196	163,233	-0,031	0,033
-590,182	-122,184	-0,079	0,009
-589,167	566,605	-0,024	0,043
-588,152	237,411	-0,096	-0,118
-587,138	800,000	0,004	0,008
-586,123	21,311	0,036	0,021
-585,109	-32,396	-0,020	0,008
-584,094	239,545	0,084	-0,103
-583,079	372,221	-0,061	0,092
-582,065	-66,555	0,039	-0,011
-581,050	-200,000	0,026	-0,088
-580,036	6,430	0,034	-0,019
-579,021	-200,000	0,001	0,034
-578,006	41,255	-0,094	-0,063
-576,992	232,531	0,106	-0,129
-575,977	36,218	0,030	0,019
-574,963	-112,362	-0,051	0,007
-573,948	154,126	-0,040	-0,041
-572,934	-200,000	0,014	0,105
-571,919	-200,000	-0,022	-0,117
-570,904	143,598	-0,097	0,095
-569,890	545,402	-0,034	0,060
-568,875	34,501	0,121	0,078
-567,861	157,606	0,048	-0,049
-566,846	45,344	-0,097	0,066
-565,831	492,788	-0,044	0,075
-564,817	800,000	-0,029	-0,093
-563,802	-200,000	-0,014	-0,103
-562,788	108,173	-0,048	-0,043
-561,773	-0,371	0,044	-0,023
-560,758	800,000	0,042	0,087
-559,744	-200,000	0,002	0,073
-558,729	149,168	0,085	-0,085
-557,715	232,348	0,010	-0,012
-556,700	800,000	0,025	-0,053
-555,685	273,634	0,106	0,139
-554,671	27,502	-0,032	-0,020
-553,656	485,440	0,020	0,033
-552,642	147,887	0,101	0,101
-551,627	93,959	0,053	-0,045
-550,612	200,391	-0,049	0,056
-549,598	-97,686	-0,036	0,007
-548,583	-200,000	-0,002	-0,102
-547,569	-97,141	0,035	0,007
-546,554	349,543	0,042	0,062
-545,539	-45,563	0,129	0,047
-544,525	-20,116	-0,097	0,044
-543,510	89,471	0,083	-0,069
-542,496	253,367	-0,084	0,106
-541,481	87,891	0,042	-0,034
-540,466	117,131	0,096	-0,088
-539,452	67,570	0,096	0,073
-538,437	107,393	-0,055	0,049
-537,423	-77,064	-0,158	0,041
-536,408	101,105	0,049	0,042
-535,393	-57,664	0,123	-0,040
-534,379	800,000	0,065	-0,142
-533,364	-22,849	0,044	0,020
-532,350	235,207	-0,086	0,106
-531,335	-200,000	0,015	-0,092
-530,321	704,395	0,030	-0,058
-529,306	133,303	-0,066	-0,063
-528,291	-200,000	-0,004	-0,105
-527,277	1,557	-0,083	-0,044
-526,262	-200,000	0,014	0,126
-525,248	-200,000	0,018	0,066
-524,233	136,453	-0,021	0,020
-523,218	164,456	0,025	0,026
-522,204	-99,316	-0,047	0,009
-521,189	308,778	-0,077	-0,107
-520,175	-146,921	0,032	-0,002
-519,160	242,380	0,073	0,090
-518,145	103,194	0,031	-0,027
-517,131	800,000	0,030	0,075
-516,116	263,206	0,048	-0,062
-515,102	-39,234	-0,086	0,033
-514,087	-82,264	0,158	-0,038
-513,072	-128,900	-0,097	-0,010
-512,058	-200,000	-0,030	-0,190
-511,043	-46,296	0,118	-0,042
-510,029	800,000	0,018	0,037
-509,014	83,058	-0,101	-0,081
-507,999	-9,326	0,066	0,033
-506,985	-146,888	0,065	0,004
-505,970	800,000	0,028	-0,083
-504,956	-94,453	-0,103	0,021
-503,941	431,762	-0,047	-0,076
-502,926	-38,706	0,066	0,026
-501,912	257,271	0,028	-0,035
-500,897	283,467	0,045	-0,059
-499,883	123,470	0,137	0,127
-498,868	800,000	-0,030	-0,094
-497,853	55,673	-0,142	-0,101
-496,839	-200,000	-0,043	0,151
-495,824	50,869	0,097	0,067
-494,810	-200,000	0,009	0,081
-493,795	19,028	0,067	-0,040
-492,781	800,000	-0,057	-0,180
-491,766	-200,000	-0,002	-0,016
-490,751	-143,561	-0,175	-0,012
-489,737	-200,000	0,000	-0,042
-488,722	-134,530	0,133	0,012
-487,708	-131,114	-0,039	-0,004
-486,693	-200,000	0,003	0,055
-485,678	-147,629	0,071	0,004
-484,664	-26,652	-0,071	-0,031
-483,649	-54,364	0,051	0,017
-482,635	-200,000	0,027	0,095
-481,620	-84,919	0,120	0,028
-480,605	-55,737	-0,081	-0,027
-479,591	63,283	0,102	0,076
-478,576	-109,977	-0,193	-0,030
-477,562	-171,147	-0,136	-0,003
-476,547	-20,204	0,055	-0,025
-475,532	-200,000	-0,007	0,045
-474,518	-200,000	0,030	0,142
-473,503	-122,857	0,114	-0,013
-472,489	384,543	0,109	0,166
-471,474	-79,247	-0,068	0,017
-470,459	-200,000	-0,006	0,062
-469,445	-58,860	-0,035	0,011
-468,430	-8,628	-0,208	-0,103
-467,416	100,900	0,070	-0,060
-466,401	21,999	-0,078	-0,047
-465,386	140,605	0,124	-0,120
-464,372	-47,152	0,068	0,024
-463,357	658,318	-0,045	0,086
-462,343	-200,000	0,011	0,056
-461,328	-200,000	0,001	0,013
-460,313	800,000	-0,026	0,077
-459,299	280,920	0,022	0,029
-458,284	207,871	0,045	0,052
-457,270	-200,000	0,016	-0,064
-456,255	-200,000	-0,031	0,201
-455,241	-200,000	-0,001	0,022
-454,226	208,563	0,012	0,014
-453,211	74,070	0,120	-0,093
-452,197	-12,258	0,072	-0,034
-451,182	299,270	-0,096	0,131
-450,168	71,167	-0,016	0,012
-449,153	216,004	0,028	0,033
-448,138	-49,804	0,052	-0,018
-447,124	-200,000	-0,007	-0,044
-446,109	-71,440	-0,086	-0,024
-445,095	-111,486	-0,071	-0,011
-444,080	-200,000	0,005	0,060
-443,065	-200,000	-0,021	0,101
-442,051	800,000	0,019	-0,059
-441,036	320,637	0,080	-0,113
-440,022	119,551	0,019	-0,017
-439,007	0,590	-0,076	-0,040
-437,992	-74,022	-0,098	-0,026
-436,978	266,936	0,138	0,178
-435,963	62,626	-0,073	-0,053
-434,949	3,198	-0,034	0,018
-433,934	552,053	-0,067	-0,118
-432,919	-200,000	-0,017	-0,083
-431,905	-107,836	0,107	0,017
-430,890	77,501	-0,072	-0,056
-429,876	-200,000	0,008	0,075
-428,861	-119,534	-0,035	0,004
-427,846	-28,320	0,086	0,036
-426,832	-200,000	-0,003	-0,073
-425,817	-118,657	-0,194	-0,025
-424,803	97,116	0,034	0,028
-423,788	226,853	-0,044	-0,052
-422,773	-25,900	0,173	0,075
-421,759	119,757	0,010	-0,010
-420,744	134,649	0,074	-0,071
-419,730	-123,438	-0,142	-0,016
-418,715	197,549	-0,014	-0,016
-417,701	-200,000	-0,005	-0,081
-416,686	-200,000	-0,006	-0,069
-415,671	84,283	-0,100	-0,080
-414,657	331,874	0,057	-0,081
-413,642	62,346	0,119	-0,087
-412,628	-41,351	0,095	-0,036
-411,613	-14,500	-0,100	-0,047
-410,598	429,388	-0,040	-0,063
-409,584	24,702	0,076	-0,046
-408,569	-200,000	-0,045	0,206
-407,555	800,000	0,030	-0,079
-406,540	232,288	-0,097	-0,117
-405,525	202,864	0,075	-0,085
-404,511	171,705	-0,044	-0,047
-403,496	-40,408	0,073	0,028
-402,482	-200,000	-0,002	-0,101
-401,467	-112,263	0,018	-0,003
-400,452	12,352	-0,077	-0,044
-399,438	-200,000	-0,002	0,077
-398,423	137,738	-0,013	-0,013
-397,409	-141,298	-0,160	-0,012
-396,394	-82,604	-0,163	0,038
-395,379	447,051	0,034	0,056
-394,365	111,124	0,043	0,038
-393,350	193,061	-0,029	-0,032
-392,336	267,605	0,108	0,140
-391,321	800,000	-0,020	0,050
-390,306	-131,922	-0,080	0,008
-389,292	-200,000	-0,010	0,038
-388,277	-200,000	0,001	0,048
-387,263	143,079	0,036	0,035
-386,248	-200,000	0,009	0,049
-385,233	49,521	-0,038	-0,026
-384,219	-66,845	0,050	0,014
-383,204	183,129	0,111	-0,121
-382,190	-200,000	-0,040	-0,133
-381,175	-107,981	0,097	-0,015
-380,160	800,000	-0,036	0,109
-379,146	-200,000	0,027	0,096
-378,131	232,677	0,044	0,053
-377,117	205,583	0,082	0,094
-376,102	800,000	0,056	-0,135
-375,088	505,177	-0,055	0,094
-374,073	-200,000	-0,005	-0,050
-373,058	-112,988	0,081	-0,012
-372,044	-200,000	0,006	0,082
-371,029	800,000	-0,028	-0,070
-370,015	-146,589	0,130	-0,008
-369,000	5,552	-0,080	-0,043
-367,985	800,000	-0,036	-0,107
-366,971	800,000	-0,011	0,035
-365,956	226,240	-0,050	0,059
-364,942	-200,000	-0,010	-0,040
-363,927	308,039	-0,096	0,131
-362,912	-162,488	-0,077	-0,003
-361,898	-103,781	-0,180	0,031
-360,883	-89,713	-0,157	0,034
-359,869	232,571	0,050	-0,061
-358,854	-200,000	-0,029	-0,106
-357,839	-200,000	-0,023	0,074
-356,825	-36,444	-0,130	0,051
-355,810	-39,949	-0,162	-0,062
-354,796	87,224	-0,042	-0,034
-353,781	800,000	0,017	-0,038
-352,766	-27,228	0,045	-0,019
-351,752	-105,896	-0,047	-0,008
-350,737	-112,468	0,076	0,011
-349,723	800,000	0,024	-0,069
-348,708	63,101	0,094	0,069
-347,693	258,584	-0,010	-0,012
-346,679	90,122	0,101	-0,083
-345,664	-189,220	0,056	0,000
-344,650	-62,930	0,055	-0,017
-343,635	-172,769	0,165	0,004
-342,620	-200,000	0,048	0,157
-341,606	-66,754	0,157	0,045
-340,591	277,691	-0,107	-0,140
-339,577	160,980	-0,105	0,107
-338,562	-74,062	0,090	0,024
-337,548	80,756	-0,067	-0,053
-336,533	448,920	0,062	-0,100
-335,518	800,000	0,018	-0,045
-334,504	-44,106	0,144	-0,053
-333,489	-200,000	-0,014	0,084
-332,475	800,000	-0,022	-0,069
-331,460	256,766	0,059	-0,075
-330,445	266,839	-0,028	-0,036
-329,431	800,000	0,024	-0,050
-328,416	212,640	-0,043	-0,050
-327,402	-87,978	-0,173	0,038
-326,387	-200,000	-0,003	-0,142
-325,372	165,619	-0,075	-0,078
-324,358	248,596	0,060	0,074
-323,343	-88,879	-0,048	-0,010
-322,329	582,974	-0,014	0,025
-321,314	292,182	-0,044	0,059
-320,299	268,236	-0,015	-0,019
-319,285	-200,000	0,032	0,107
-318,270	160,632	-0,109	0,112
-317,256	-29,511	0,048	-0,020
-316,241	-200,000	-0,008	-0,090
-315,226	800,000	0,012	-0,035
-314,212	349,381	0,042	0,060
-313,197	770,458	0,026	0,052
-312,183	-126,317	0,077	-0,008
-311,168	-2,906	0,044	-0,022
-310,153	-72,445	0,053	-0,014
-309,139	-107,398	0,084	0,013
-308,124	-200,000	0,016	-0,128
-307,110	800,000	0,047	0,098
-306,095	13,996	0,046	0,026
-305,080	152,633	-0,033	-0,033
-304,066	172,540	-0,090	-0,095
-303,051	-200,000	-0,016	-0,063
-302,037	274,351	-0,066	-0,085
-301,022	285,266	0,028	0,036
-300,008	-114,933	0,207	0,029
-298,993	-8,654	0,044	0,022
-297,978	-86,257	0,124	0,028
-296,964	135,177	0,026	0,025
-295,949	72,788	-0,094	-0,072
-294,935	-60,319	-0,124	0,038
-293,920	626,938	-0,014	0,026
-292,905	81,374	0,095	0,075
-291,891	800,000	0,016	-0,040
-290,876	379,816	0,047	0,071
-289,862	-200,000	-0,012	-0,045
-288,847	800,000	0,027	-0,082
-287,832	139,274	-0,106	0,102
-286,818	488,528	-0,064	0,107
-285,803	-80,129	0,142	0,035
-284,789	-7,895	-0,105	-0,052
-283,774	800,000	-0,055	0,134
-282,759	219,345	0,063	-0,074
-281,745	399,072	0,006	-0,009
-280,730	453,777	0,060	-0,098
-279,716	-200,000	-0,012	-0,041
-278,701	1,335	0,162	-0,085
-277,686	390,307	0,056	-0,086
-276,672	102,941	0,053	0,046
-275,657	-19,331	0,046	0,021
-274,643	-29,060	-0,064	-0,027
-273,628	67,178	-0,154	0,115
-272,613	800,000	0,049	0,108
-271,599	34,024	-0,042	-0,027
-270,584	-200,000	0,006	-0,022
-269,570	800,000	0,049	0,134
-268,555	6,205	-0,067	0,036
-267,540	-200,000	0,011	-0,120
-266,526	95,593	-0,057	-0,048
-265,511	-43,135	-0,067	-0,025
-264,497	-200,000	-0,001	0,119
-263,482	-33,710	0,132	-0,053
-262,467	289,684	-0,056	0,074
-261,453	-200,000	0,011	0,053
-260,438	234,749	-0,056	-0,067
-259,424	-200,000	0,022	-0,076
-258,409	65,748	-0,126	-0,093
-257,395	262,401	0,078	-0,099
-256,380	-200,000	0,013	-0,063
-255,365	-135,231	0,133	-0,011
-254,351	628,035	-0,028	0,051
-253,336	279,265	-0,088	-0,115
-252,322	418,551	-0,082	-0,129
-251,307	800,000	-0,048	-0,114
-250,292	-50,779	0,090	-0,031
-249,278	-165,171	0,059	-0,002
-248,263	-200,000	0,049	0,216
-247,249	-200,000	-0,000	-0,013
-246,234	-34,903	-0,079	0,032
-245,219	-35,952	-0,147	0,058
-244,205	113,798	0,105	0,093
-243,190	-171,789	0,058	0,001
-242,176	-19,580	-0,066	-0,030
-241,161	-200,000	-0,018	0,101
-240,146	-200,000	-0,002	-0,038
-239,132	-200,000	0,032	0,140
-238,117	-200,000	-0,023	0,134
-237,103	-200,000	0,009	-0,041
-236,088	-200,000	0,005	0,060
-235,073	-90,772	0,079	-0,017
-234,059	-21,307	0,099	-0,044
-233,044	-128,840	-0,139	-0,014
-232,030	134,828	-0,075	-0,071
-231,015	-122,678	-0,109	0,013
-230,000	800,000	0,051	-0,109
-228,986	-146,242	0,079	-0,005
-227,971	-28,936	0,032	-0,013
-226,957	228,574	0,051	-0,061
-225,942	-7,580	0,033	-0,016
-224,927	-200,000	0,024	0,127
-223,913	-200,000	0,006	-0,079
-222,898	-47,162	0,031	0,011
-221,884	-158,556	-0,111	0,005
-220,869	337,294	-0,041	0,059
-219,855	255,953	-0,036	0,045
-218,840	130,028	0,050	0,047
-217,825	800,000	-0,025	0,074
-216,811	-170,877	-0,028	-0,001
-215,796	65,987	0,038	-0,028
-214,782	-68,375	-0,133	0,037
-213,767	75,106	0,111	0,085
-212,752	-127,328	0,126	0,013
-211,738	-72,664	0,129	-0,034
-210,723	545,902	-0,056	0,098
-209,709	222,139	-0,058	-0,069
-208,694	-88,462	0,028	-0,006
-207,679	-156,108	-0,125	-0,006
-206,665	-57,947	0,179	0,057
-205,650	-71,576	0,025	0,007
-204,636	800,000	-0,064	0,166
-203,621	592,462	-0,046	-0,084
-202,606	34,140	-0,068	0,043
-201,592	606,830	-0,040	-0,073
-200,577	-132,899	0,054	0,005
-199,563	-155,710	-0,070	-0,003
-198,548	47,628	0,051	-0,034
-197,533	75,187	-0,107	-0,082
-196,519	-34,506	0,197	-0,078
-195,504	178,602	-0,039	0,042
-194,490	-180,874	-0,072	0,001
-193,475	672,394	0,032	-0,060
-192,460	90,990	-0,028	-0,023
-191,446	-200,000	0,022	-0,159
-190,431	-52,192	-0,091	0,031
-189,417	41,457	-0,170	0,112
-188,402	-7,520	0,114	-0,056
-187,387	330,101	-0,067	-0,094
-186,373	-200,000	0,015	0,065
-185,358	-200,000	-0,005	-0,097
-184,344	800,000	0,035	0,074
-183,329	-60,121	-0,133	-0,041
-182,315	-200,000	0,034	0,146
-181,300	800,000	-0,055	0,136
-180,285	283,312	0,031	-0,040
-179,271	-200,000	0,000	0,013
-178,256	4,116	0,058	0,031
-177,242	405,416	-0,108	0,166
-176,227	141,669	0,050	-0,048
-175,212	149,245	0,091	0,090
-174,198	217,842	-0,102	0,119
-173,183	-108,648	0,020	-0,003
-172,169	33,512	-0,168	-0,106
-171,154	152,003	0,097	0,096
-170,139	-94,937	0,089	0,017
-169,125	-200,000	-0,039	0,147
-168,110	-200,000	0,033	0,146
-167,096	800,000	0,044	-0,124
-166,081	-200,000	-0,017	-0,069
-165,066	-200,000	0,002	0,031
-164,052	800,000	0,010	0,027
-163,037	800,000	0,053	-0,132
-162,023	-62,576	0,053	-0,016
-161,008	-125,498	0,106	0,012
-159,993	-200,000	-0,010	0,224
-158,979	6,564	0,006	0,003
-157,964	-200,000	0,002	-0,008
-156,950	339,055	0,023	0,033
-155,935	800,000	-0,054	0,169
-154,920	-121,092	0,106	-0,013
-153,906	-200,000	0,001	0,168
-152,891	-5,707	0,068	0,034
-151,877	154,237	-0,069	-0,069
-150,862	-200,000	0,004	0,012
-149,847	110,483	-0,139	-0,122
-148,833	-47,589	0,053	0,019
-147,818	69,934	0,099	0,074
-146,804	72,433	0,085	0,064
-145,789	-22,354	-0,141	-0,062
-144,775	-200,000	-0,010	0,103
-143,760	-200,000	-0,003	-0,028
-142,745	769,869	-0,092	-0,182
-141,731	134,898	-0,062	-0,058
-140,716	47,618	0,053	-0,036
-139,702	-152,088	0,149	0,008
-138,687	162,294	0,059	-0,060
-137,672	76,295	-0,110	0,085
-136,658	-59,324	-0,203	-0,063
-135,643	800,000	-0,053	-0,112
-134,629	367,541	0,016	-0,024
-133,614	-55,347	-0,102	-0,033
-132,599	-200,000	0,013	0,108
-131,585	-200,000	0,006	0,056
-130,570	176,426	-0,102	-0,108
-129,556	-122,930	0,043	0,005
-128,541	360,501	-0,089	-0,129
-127,526	-10,540	-0,056	-0,027
-126,512	88,315	-0,025	0,020
-125,497	26,439	0,157	0,095
-124,483	-200,000	0,007	-0,069
-123,468	-200,000	-0,007	-0,069
-122,453	534,473	-0,045	-0,078
-121,439	-200,000	-0,016	0,104
-120,424	800,000	0,010	0,026
-119,410	-200,000	0,039	-0,156
-118,395	-200,000	0,049	-0,183
-117,380	-200,000	0,001	0,056
-116,366	800,000	-0,024	0,057
-115,351	800,000	-0,057	-0,163
-114,337	145,182	-0,027	-0,026
-113,322	302,052	-0,063	-0,085
-112,307	-49,998	0,052	-0,018
-111,293	800,000	0,045	0,136
-110,278	337,152	0,073	0,104
-109,264	212,071	-0,063	-0,072
-108,249	-200,000	-0,011	0,062
-107,234	-200,000	-0,003	-0,170
-106,220	800,000	0,008	-0,021
-105,205	-39,747	-0,087	0,033
-104,191	26,055	0,114	0,069
-103,176	-200,000	-0,018	-0,129
-102,162	800,000	0,044	-0,103
-101,147	-40,193	-0,111	-0,042
-100,132	800,000	-0,028	0,060
-99,118	32,156	0,049	-0,031
-98,103	12,659	0,075	0,042
-97,089	91,840	0,137	0,112
-96,074	85,898	0,022	0,018
-95,059	-36,678	0,092	0,036
-94,045	21,982	-0,100	0,059
-93,030	800,000	0,052	0,147
-92,016	129,793	0,119	-0,110
-91,001	-14,066	-0,035	-0,017
-89,986	167,580	-0,017	0,018
-88,972	-200,000	0,011	-0,037
-87,957	-58,936	-0,113	0,035
-86,943	800,000	-0,015	-0,031
-85,928	31,602	-0,030	-0,019
-84,913	109,948	0,112	-0,098
-83,899	346,888	0,113	0,162
-82,884	421,148	-0,061	0,095
-81,870	-77,284	0,120	0,030
-80,855	606,604	-0,040	0,073
-79,840	346,950	-0,071	0,103
-78,826	-18,199	-0,124	0,056
-77,811	736,050	-0,084	-0,164
-76,797	-106,364	0,073	-0,012
-75,782	-158,262	-0,121	-0,005
-74,767	800,000	-0,023	-0,055
-73,753	35,449	0,134	-0,085
-72,738	-74,798	-0,077	-0,020
-71,724	-200,000	0,027	-0,199
-70,709	800,000	0,087	0,255
-69,694	76,981	0,022	0,017
-68,680	-200,000	-0,011	-0,070
-67,665	596,982	0,043	0,077
-66,651	496,946	-0,030	0,050
-65,636	-200,000	-0,003	-0,031
-64,622	800,000	-0,050	-0,124
-63,607	-92,155	0,098	0,020
-62,592	19,972	-0,100	-0,058
-61,578	-3,164	0,118	0,060
-60,563	184,210	0,045	-0,048
-59,549	800,000	0,040	0,111
-58,534	-157,329	-1,348	-0,058
-57,519	399,983	-0,931	-1,421
-56,505	-200,000	-0,979	-4,352
-55,490	123,111	0,554	-0,504
-54,476	800,000	4,961	11,840
-53,461	-200,000	13,464	253,337
-52,446	-200,000	689,324	2262,455
-51,432	592,930	1622,705	2921,365
-50,417	119,661	1635,864	1470,570
-49,403	73,398	1289,759	978,481
-48,388	38,178	1024,504	660,340
-47,373	24,379	982,098	587,619
-46,359	23,592	971,924	578,927
-45,344	22,623	967,639	573,184
-44,330	22,568	966,105	572,071
-43,315	22,448	964,696	570,823
-42,300	22,457	963,755	570,274
-41,286	22,471	962,538	569,578
-40,271	22,426	961,794	568,969
-39,257	22,425	960,852	568,383
-38,242	22,418	959,902	567,776
-37,227	22,395	959,016	567,156
-36,213	22,366	958,175	566,543
-35,198	22,359	957,357	566,013
-34,184	22,461	956,721	565,944
-33,169	22,360	955,732	565,012
-32,154	22,449	954,737	564,688
-31,140	22,433	953,999	564,176
-30,125	22,422	953,201	563,647
-29,111	22,414	952,415	563,136
-28,096	22,426	951,635	562,691
-27,082	22,446	950,944	562,322
-26,067	22,489	950,195	561,994
-25,052	22,493	949,450	561,544
-24,038	22,467	948,809	561,060
-23,023	22,481	948,172	560,707
-22,009	22,495	947,514	560,341
-20,994	22,483	946,903	559,920
-19,979	22,474	946,440	559,593
-18,965	22,419	945,933	559,096
-17,950	22,498	945,038	558,797
-16,936	22,433	944,457	558,225
-15,921	22,358	943,849	557,603
-14,906	22,309	943,069	556,964
-13,892	22,306	942,406	556,540
-12,877	22,350	941,672	556,226
-11,863	22,285	941,091	555,653
-10,848	22,294	940,615	555,379
-9,833	22,375	940,154	555,343
-8,819	22,412	939,386	554,985
-7,804	22,325	938,873	554,384
-6,790	22,298	938,296	553,933
-5,775	22,346	937,673	553,696
-4,760	22,383	937,001	553,396
-3,746	22,263	936,544	552,723
-2,731	22,192	935,943	552,124
-1,717	22,157	935,097	551,491
-0,702	22,124	934,358	550,929
0,313	22,025	933,653	551,034
1,327	24,972	931,729	559,118
2,342	34,513	796,411	503,342
3,356	32,396	451,703	282,266
4,371	1,639	293,386	152,682
5,386	-2,806	274,185	138,478
6,400	-4,229	268,148	134,101
7,415	-4,773	266,003	132,516
8,429	-4,495	264,802	132,160
9,444	-4,381	263,994	131,850
10,459	-4,430	263,261	131,427
11,473	-4,658	262,739	130,948
12,488	-4,544	262,130	130,736
13,502	-4,808	261,589	130,216
14,517	-4,641	261,322	130,222
15,531	-4,624	260,891	130,011
16,546	-4,522	260,490	129,891
17,561	-4,632	260,104	129,589
18,575	-4,490	259,806	129,555
19,590	-4,647	259,513	129,258
20,604	-4,582	259,191	129,144
21,619	-4,645	258,826	128,894
22,634	-4,833	258,706	128,655
23,648	-4,838	258,294	128,435
24,663	-4,836	257,973	128,266
25,677	-4,778	257,641	128,140
26,692	-4,404	257,436	128,359
27,707	-4,548	257,167	128,085
28,721	-4,921	257,032	127,676
29,736	-4,611	256,624	127,736
30,750	-4,771	256,499	127,522
31,765	-4,771	256,098	127,311
32,780	-4,640	256,001	127,367
33,794	-4,545	255,489	127,184
34,809	-4,820	255,474	126,923
35,823	-4,615	255,134	126,924
36,838	-4,747	255,023	126,741
37,853	-4,814	254,867	126,594
38,867	-4,734	254,549	126,495
39,882	-4,844	254,336	126,281
40,896	-4,893	254,192	126,155
41,911	-4,969	253,955	125,960
42,926	-4,741	253,630	125,986
43,940	-4,836	253,351	125,754
44,955	-4,851	253,192	125,650
45,969	-4,975	252,987	125,430
46,984	-4,968	252,773	125,318
47,999	-5,216	252,430	124,922
49,013	-5,449	252,196	124,593
50,028	-5,472	251,942	124,436
51,042	-5,859	251,670	123,956
52,057	-5,669	251,503	124,027
53,071	-5,652	251,310	123,936
54,086	-5,461	251,002	123,937
55,101	-5,395	251,013	123,988
56,115	-5,004	250,832	124,225
57,130	-4,838	250,743	124,313
58,144	-4,498	250,695	124,571
59,159	-4,450	250,353	124,432
60,174	-4,672	250,196	124,151
61,188	-4,593	250,027	124,125
62,203	-4,564	249,817	124,034
63,217	-4,624	249,532	123,830
64,232	-4,738	249,425	123,668
65,247	-4,454	249,139	123,759
66,261	-4,669	248,894	123,441
67,276	-5,070	248,644	122,964
68,290	-5,054	248,456	122,874
69,305	-5,261	248,134	122,528
70,320	-5,258	248,027	122,466
71,334	-5,036	247,891	122,577
72,349	-4,508	247,672	122,906
73,363	-4,482	247,585	122,875
74,378	-4,443	247,321	122,766
75,393	-4,684	247,129	122,455
76,407	-4,470	246,865	122,495
77,422	-4,688	246,789	122,261
78,436	-4,689	246,608	122,160
79,451	-4,761	246,512	122,041
80,466	-4,647	245,964	121,855
81,480	-5,041	245,867	121,464
82,495	-4,870	245,535	121,433
83,509	-4,865	245,576	121,446
84,524	-4,888	245,239	121,250
85,539	-5,071	245,020	120,977
86,553	-5,139	244,820	120,810
87,568	-4,931	244,778	120,953
88,582	-5,005	244,492	120,739
89,597	-5,018	244,227	120,586
90,611	-4,884	244,180	120,665
91,626	-4,913	244,085	120,583
92,641	-4,843	243,881	120,529
93,655	-4,753	243,622	120,466
94,670	-4,939	243,577	120,278
95,684	-4,878	243,394	120,228
96,699	-5,007	243,170	119,999
97,714	-5,117	242,984	119,805
98,728	-5,178	242,887	119,696
99,743	-5,215	242,569	119,498
100,757	-5,008	242,213	119,483
101,772	-5,360	242,268	119,208
102,787	-4,978	241,936	119,350
103,801	-4,997	241,787	119,250
104,816	-4,992	241,720	119,211
105,830	-4,722	241,616	119,373
106,845	-4,891	241,488	119,159
107,860	-4,641	241,109	119,167
108,874	-4,792	240,927	118,942
109,889	-4,952	240,763	118,719
110,903	-4,928	240,574	118,634
111,918	-4,878	240,328	118,544
112,933	-4,816	240,281	118,561
113,947	-4,946	240,141	118,375
114,962	-5,029	240,015	118,234
115,976	-4,840	239,783	118,264
116,991	-4,798	239,455	118,126
118,006	-4,817	239,461	118,103
119,020	-4,884	239,295	117,956
120,035	-4,817	239,286	117,996
121,049	-4,605	239,151	118,092
122,064	-4,746	238,859	117,822
123,079	-4,831	238,596	117,613
124,093	-4,841	238,467	117,530
125,108	-5,113	238,214	117,174
126,122	-5,125	237,956	117,027
127,137	-5,245	237,661	116,774
128,151	-5,345	237,800	116,751
129,166	-5,120	237,531	116,790
130,181	-5,108	237,210	116,632
131,195	-5,373	237,105	116,355
132,210	-5,001	237,006	116,597
133,224	-5,005	236,955	116,559
134,239	-4,819	236,804	116,624
135,254	-4,787	236,505	116,492
136,268	-4,718	236,164	116,369
137,283	-5,239	236,021	115,869
138,297	-5,173	235,818	115,812
139,312	-5,332	235,697	115,614
140,327	-4,949	235,548	115,839
141,341	-4,500	235,590	116,211
142,356	-4,501	235,536	116,173
143,370	-4,362	235,266	116,140
144,385	-4,431	235,078	115,982
145,400	-4,398	235,037	115,978
146,414	-4,369	234,886	115,916
147,429	-4,513	234,687	115,692
148,443	-4,611	234,666	115,593
149,458	-4,533	234,233	115,432
150,473	-4,541	234,024	115,312
151,487	-4,650	233,962	115,184
152,502	-4,469	233,775	115,226
153,516	-4,331	233,631	115,256
154,531	-4,432	233,330	115,016
155,546	-4,598	233,171	114,795
156,560	-4,608	233,091	114,738
157,575	-4,666	232,819	114,548
158,589	-4,742	232,758	114,447
159,604	-4,375	232,501	114,601
160,619	-4,278	232,481	114,658
161,633	-4,256	232,390	114,621
162,648	-4,408	232,187	114,390
163,662	-4,414	232,025	114,296
164,677	-4,580	231,703	113,996
165,692	-4,568	231,643	113,966
166,706	-4,418	231,531	114,018
167,721	-4,176	231,295	114,083
168,735	-4,313	231,326	113,979
169,750	-4,431	231,152	113,791
170,764	-4,560	231,085	113,647
171,779	-4,668	230,961	113,490
172,794	-4,406	230,690	113,553
173,808	-4,489	230,549	113,408
174,823	-4,998	230,209	112,833
175,837	-5,132	229,941	112,586
176,852	-4,841	229,959	112,812
177,867	-4,540	229,856	112,986
178,881	-4,323	229,722	113,080
179,896	-4,262	229,468	112,993
180,910	-4,286	229,433	112,947
181,925	-4,364	229,170	112,747
182,940	-4,447	229,094	112,635
183,954	-4,093	228,869	112,789
184,969	-4,111	228,732	112,698
185,983	-4,289	228,704	112,535
186,998	-4,074	228,311	112,498
188,013	-4,084	228,436	112,543
189,027	-4,148	228,158	112,346
190,042	-4,105	228,012	112,298
191,056	-4,208	227,849	112,128
192,071	-4,164	227,632	112,045
193,086	-4,346	227,493	111,825
194,100	-4,180	227,361	111,879
195,115	-4,591	227,075	111,412
196,129	-5,483	226,822	110,591
197,144	-2,664	227,650	113,162
198,159	1,277	228,585	116,668
199,173	3,843	229,373	119,049
200,188	4,096	229,426	119,262
201,202	4,573	229,135	119,469
202,217	4,472	229,051	119,337
203,232	4,770	228,912	119,484
204,246	4,872	228,738	119,461
205,261	5,037	228,665	119,539
206,275	4,996	228,606	119,466
207,290	4,921	228,511	119,348
208,304	4,836	228,287	119,156
209,319	4,959	228,042	119,111
210,334	4,677	227,909	118,815
211,348	4,596	227,628	118,595
212,363	4,350	227,458	118,307
213,377	3,949	227,380	117,949
214,392	4,018	227,162	117,879
215,407	4,033	227,006	117,798
216,421	4,127	226,842	117,775
217,436	4,008	226,595	117,545
218,450	3,851	226,484	117,357
219,465	3,766	226,192	117,130
220,480	3,788	226,176	117,129
221,494	3,983	225,938	117,143
222,509	4,193	225,869	117,257
223,523	3,961	225,768	117,017
224,538	3,883	225,491	116,804
225,553	4,069	225,502	116,941
226,567	4,228	225,322	116,957
227,582	4,168	225,345	116,914
228,596	4,459	225,277	117,088
229,611	4,114	225,014	116,680
230,626	3,887	224,747	116,359
231,640	4,083	224,554	116,397
232,655	4,228	224,501	116,469
233,669	4,643	224,441	116,741
234,684	4,657	224,343	116,690
235,699	4,473	224,068	116,398
236,713	4,256	223,859	116,116
237,728	4,145	223,532	115,852
238,742	4,234	223,503	115,894
239,757	4,054	223,361	115,675
240,772	3,968	223,158	115,494
241,786	3,822	223,183	115,387
242,801	4,200	222,998	115,565
243,815	4,473	222,951	115,735
244,830	4,237	222,887	115,515
245,844	4,186	222,593	115,314
246,859	4,209	222,466	115,255
247,874	4,470	222,376	115,394
248,888	4,288	222,349	115,233
249,903	4,051	222,050	114,891
250,917	4,027	221,955	114,813
251,932	4,150	221,842	114,837
252,947	3,980	221,490	114,518
253,961	4,130	221,390	114,567
254,976	4,000	221,242	114,384
255,990	4,269	221,250	114,578
257,005	4,245	221,112	114,478
258,020	4,103	221,061	114,336
259,034	4,555	220,960	114,609
260,049	4,489	220,566	114,345
261,063	4,226	220,486	114,100
262,078	4,639	220,431	114,366
263,093	4,524	220,227	114,166
264,107	4,280	219,996	113,855
265,122	4,404	219,918	113,896
266,136	4,559	219,939	114,011
267,151	4,596	219,650	113,879
268,166	4,156	219,382	113,406
269,180	3,814	219,198	113,049
270,195	3,898	219,142	113,072
271,209	3,866	219,033	112,982
272,224	4,225	218,797	113,113
273,239	4,343	218,610	113,093
274,253	3,989	218,545	112,790
275,268	4,000	218,300	112,662
276,282	3,799	218,208	112,456
277,297	3,651	218,073	112,269
278,312	3,908	217,935	112,376
279,326	3,891	217,891	112,331
280,341	3,882	217,783	112,259
281,355	4,029	217,549	112,235
282,370	4,029	217,449	112,173
283,384	4,070	217,157	112,043
284,399	3,705	217,104	111,740
285,414	3,752	217,044	111,733
286,428	3,985	216,760	111,746
287,443	4,233	216,873	111,974
288,457	4,056	216,732	111,764
289,472	4,109	216,482	111,663
290,487	3,677	216,163	111,175
291,501	3,506	216,090	111,004
292,516	3,661	215,860	110,988
293,530	3,713	215,965	111,070
294,545	3,743	215,765	110,979
295,560	4,072	215,593	111,118
296,574	3,888	215,579	110,968
297,589	3,901	215,427	110,889
298,603	4,253	215,131	110,981
299,618	4,162	215,046	110,861
300,633	4,170	214,976	110,821
301,647	4,519	214,961	111,054
302,662	4,559	214,646	110,910
303,676	4,223	214,631	110,651
304,691	4,114	214,503	110,498
305,706	4,369	214,276	110,553
306,720	4,529	214,156	110,596
307,735	4,088	214,137	110,261
308,749	4,169	213,933	110,204
309,764	4,311	213,803	110,229
310,779	4,406	213,605	110,184
311,793	4,348	213,499	110,079
312,808	4,313	213,416	110,001
313,822	4,344	213,234	109,919
314,837	4,152	212,901	109,601
315,852	3,846	212,998	109,424
316,866	3,934	212,821	109,386
317,881	4,411	212,612	109,607
318,895	4,191	212,465	109,366
319,910	4,041	212,432	109,233
320,925	3,766	212,093	108,854
321,939	3,456	212,003	108,578
322,954	3,684	211,863	108,658
323,968	4,175	211,901	109,015
324,983	4,094	211,705	108,847
325,997	4,393	211,599	108,994
327,012	4,314	211,401	108,827
328,027	4,203	211,216	108,644
329,041	4,351	211,188	108,724
330,056	4,513	211,225	108,848
331,070	4,117	210,854	108,368
332,085	3,677	210,764	108,002
333,100	3,865	210,667	108,076
334,114	4,170	210,425	108,156
335,129	4,093	210,372	108,065
336,143	4,006	210,188	107,900
337,158	4,235	209,991	107,949
338,173	4,106	209,943	107,825
339,187	3,769	209,846	107,530
340,202	3,738	209,568	107,356
341,216	3,844	209,430	107,350
342,231	3,897	209,247	107,284
343,246	3,747	209,205	107,148
344,260	3,937	209,163	107,249
345,275	3,635	209,159	107,027
346,289	4,056	209,053	107,256
347,304	4,080	208,839	107,154
348,319	4,060	208,599	107,007
349,333	4,114	208,527	106,998
350,348	4,332	208,426	107,089
351,362	4,352	208,277	107,016
352,377	4,319	208,038	106,861
353,392	3,904	207,888	106,487
354,406	4,269	207,858	106,715
355,421	194,896	1344,473	1436,322
356,435	155,537	1483,054	1436,448
