DTS Sentinel unit serial number:	SN410029Multiplexer serial number:	ORYXHardware model number:	OX2-SRSoftware version number:	ORYX F/W v4,00 Oryx Data Collector v3.7.2.0data status	okinstallation	B6 Nyhavnadifferential loss correction	single-endedforward channel	channel 2reverse channel	N/Adate	2023/12/11time	04:30:08forward acquisition time	300,00reverse acquisition time	0,00gamma	499,1914k internal	0,3126k external	0,3126temperature offset calibration	1,0000default loss term (dB/km)	0,3820temperature slope calibration	1,0000multiplexer offset coefficient	1,0000multiplexer slope coefficient	1,0000fibre end	0,00T internal ref (°C)	20,53T ext. ref 1 (°C)	3,28T ext. ref 2 (°C)	3,28length (m)	temperature (°C)	Stokes	anti-Stokes-744,400	-87,646	-0,072	0,016
-743,385	-155,617	-0,176	-0,008
-742,371	147,395	0,032	0,032
-741,356	121,721	-0,205	0,190
-740,342	-96,426	-0,089	-0,017
-739,327	-106,724	-0,195	0,032
-738,312	-200,000	-0,036	-0,128
-737,298	-109,912	-0,245	0,038
-736,283	-200,000	0,012	-0,043
-735,269	438,081	-0,122	0,199
-734,254	182,102	0,050	-0,055
-733,239	-116,816	-0,367	-0,049
-732,225	434,924	0,047	-0,077
-731,210	800,000	0,015	0,032
-730,196	-200,000	-0,008	-0,148
-729,181	800,000	-0,037	-0,087
-728,167	20,632	0,007	-0,004
-727,152	800,000	0,023	-0,056
-726,137	620,671	-0,012	-0,023
-725,123	-125,940	-0,235	-0,026
-724,108	208,776	-0,073	-0,085
-723,094	-200,000	-0,032	-0,170
-722,079	800,000	-0,065	-0,170
-721,064	-155,121	-0,096	0,005
-720,050	83,506	0,023	0,019
-719,035	800,000	0,056	0,123
-718,021	800,000	0,006	-0,017
-717,006	800,000	-0,028	-0,077
-715,991	183,383	-0,042	-0,046
-714,977	297,633	-0,043	0,059
-713,962	-200,000	-0,009	0,083
-712,948	-97,319	0,128	-0,025
-711,933	107,470	-0,051	0,045
-710,918	228,673	0,030	0,036
-709,904	478,866	-0,059	-0,100
-708,889	-66,131	0,051	-0,015
-707,875	103,076	0,068	-0,060
-706,860	153,953	-0,085	-0,087
-705,845	-200,000	0,016	-0,117
-704,831	-15,105	0,054	-0,026
-703,816	-130,432	0,051	0,005
-702,802	-15,800	0,042	-0,020
-701,787	800,000	-0,032	-0,070
-700,772	-16,986	-0,119	-0,056
-699,758	-12,532	0,150	-0,073
-698,743	-2,735	0,075	-0,039
-697,729	-200,000	0,001	0,095
-696,714	172,309	-0,055	0,059
-695,699	281,293	0,034	-0,045
-694,685	-3,910	-0,076	0,039
-693,670	38,690	-0,105	-0,069
-692,656	-80,737	-0,035	0,009
-691,641	254,960	0,061	-0,078
-690,627	800,000	-0,055	0,165
-689,612	141,267	-0,094	-0,092
-688,597	800,000	0,050	-0,128
-687,583	-200,000	-0,013	-0,057
-686,568	-151,364	-0,051	-0,003
-685,554	-200,000	-0,004	-0,059
-684,539	800,000	-0,006	-0,014
-683,524	-6,631	-0,114	-0,057
-682,510	-200,000	0,029	0,124
-681,495	-200,000	-0,033	0,118
-680,481	-200,000	0,002	-0,016
-679,466	23,105	-0,056	-0,034
-678,451	197,413	-0,064	0,072
-677,437	-125,764	-0,092	0,010
-676,422	33,238	0,064	0,041
-675,408	800,000	-0,052	-0,126
-674,393	42,603	-0,038	-0,026
-673,378	218,113	0,031	-0,037
-672,364	-114,463	-0,070	0,010
-671,349	800,000	0,041	-0,087
-670,335	19,024	-0,006	0,004
-669,320	-11,761	0,051	0,025
-668,305	-200,000	0,001	0,103
-667,291	28,238	-0,176	-0,110
-666,276	722,965	-0,034	-0,067
-665,262	-200,000	0,015	0,085
-664,247	-23,389	-0,069	-0,031
-663,232	101,016	0,043	0,037
-662,218	-200,000	0,022	0,084
-661,203	56,391	0,058	-0,042
-660,189	800,000	0,027	0,076
-659,174	46,760	-0,067	-0,046
-658,159	34,771	0,049	0,032
-657,145	182,377	-0,046	-0,051
-656,130	471,608	0,057	0,095
-655,116	298,261	0,044	0,061
-654,101	397,054	0,076	0,118
-653,086	-200,000	0,008	-0,214
-652,072	-122,786	-0,067	0,008
-651,057	-83,474	-0,073	0,017
-650,043	-16,988	-0,178	-0,083
-649,028	145,353	0,083	-0,082
-648,014	-16,169	0,092	0,043
-646,999	683,410	-0,056	0,109
-645,984	1,947	-0,052	0,028
-644,970	-200,000	0,007	-0,108
-643,955	160,700	0,074	-0,076
-642,941	-200,000	0,026	-0,100
-641,926	800,000	-0,006	0,020
-640,911	412,537	0,037	-0,058
-639,897	251,296	0,068	0,086
-638,882	800,000	0,034	-0,094
-637,868	198,961	-0,084	-0,096
-636,853	50,545	-0,058	0,041
-635,838	175,897	0,024	0,025
-634,824	114,844	-0,099	-0,090
-633,809	-70,795	0,185	0,051
-632,795	-58,456	0,023	0,007
-631,780	674,382	0,042	0,080
-630,765	344,661	-0,045	-0,065
-629,751	218,205	0,123	-0,146
-628,736	-26,181	-0,052	0,023
-627,722	800,000	-0,054	0,139
-626,707	-200,000	-0,007	0,032
-625,692	-200,000	0,004	-0,059
-624,678	-200,000	0,002	-0,028
-623,663	12,308	0,070	-0,040
-622,649	228,600	-0,056	-0,068
-621,634	-200,000	0,030	-0,105
-620,619	-62,987	-0,166	0,050
-619,605	800,000	-0,037	-0,095
-618,590	69,437	0,054	0,041
-617,576	54,806	0,162	0,116
-616,561	447,394	0,045	-0,074
-615,546	314,576	-0,047	-0,066
-614,532	598,063	-0,039	0,072
-613,517	33,215	-0,089	-0,057
-612,503	-200,000	0,026	-0,101
-611,488	519,258	0,064	-0,112
-610,474	800,000	0,023	-0,051
-609,459	-200,000	0,004	0,084
-608,444	-10,126	-0,122	0,060
-607,430	-2,992	-0,093	0,048
-606,415	108,913	-0,041	-0,036
-605,401	657,147	-0,029	-0,055
-604,386	-45,603	0,062	0,022
-603,371	337,386	-0,053	-0,077
-602,357	431,225	-0,045	0,072
-601,342	488,344	0,019	0,033
-600,328	101,761	-0,064	0,055
-599,313	800,000	-0,067	-0,140
-598,298	-74,491	0,095	0,025
-597,284	229,033	0,112	-0,136
-596,269	-155,932	-0,170	-0,008
-595,255	55,135	0,118	-0,084
-594,240	-14,815	-0,047	-0,022
-593,225	101,523	-0,162	-0,140
-592,211	-200,000	-0,025	0,135
-591,196	742,119	-0,043	-0,086
-590,182	-70,953	0,184	-0,051
-589,167	27,986	0,006	-0,004
-588,152	-200,000	0,015	-0,051
-587,138	140,644	-0,064	0,062
-586,123	119,596	-0,079	-0,073
-585,109	-200,000	-0,032	-0,183
-584,094	106,800	0,032	-0,028
-583,079	-200,000	0,015	0,071
-582,065	800,000	-0,024	0,052
-581,050	783,297	0,094	0,192
-580,036	-200,000	-0,001	-0,042
-579,021	481,603	0,023	0,039
-578,006	-103,429	-0,041	-0,007
-576,992	-118,938	0,014	0,002
-575,977	35,663	-0,059	-0,038
-574,963	45,249	0,083	0,057
-573,948	71,020	0,151	0,116
-572,934	-47,941	-0,148	-0,053
-571,919	-200,000	0,014	-0,137
-570,904	-53,796	-0,067	-0,023
-569,890	-117,065	0,062	0,008
-568,875	-113,955	0,088	0,012
-567,861	-83,986	0,051	-0,012
-566,846	-200,000	0,004	-0,020
-565,831	-85,438	-0,092	-0,021
-564,817	-200,000	-0,002	-0,024
-563,802	785,485	0,037	-0,076
-562,788	-49,788	0,054	0,019
-561,773	238,038	0,052	-0,064
-560,758	-36,250	-0,179	-0,071
-559,744	-34,740	-0,048	-0,019
-558,729	777,842	-0,059	0,121
-557,715	-57,682	-0,178	-0,057
-556,700	181,869	0,059	0,064
-555,685	181,142	0,051	-0,055
-554,671	-200,000	-0,003	0,029
-553,656	109,123	0,092	-0,081
-552,642	118,956	-0,039	0,035
-551,627	-128,405	-0,081	-0,008
-550,612	-16,110	-0,131	0,061
-549,598	-167,944	-0,086	-0,002
-548,583	-28,785	0,154	-0,065
-547,569	-79,398	0,083	-0,021
-546,554	299,625	-0,032	0,043
-545,539	412,354	0,048	-0,075
-544,525	676,879	-0,095	0,184
-543,510	-200,000	-0,010	-0,062
-542,496	221,133	-0,009	-0,011
-541,481	-7,362	-0,057	-0,028
-540,466	-23,207	-0,142	-0,063
-539,452	-200,000	-0,003	-0,033
-538,437	-200,000	0,012	0,084
-537,423	-30,546	0,041	0,017
-536,408	800,000	0,007	-0,020
-535,393	-16,475	-0,091	-0,042
-534,379	-200,000	-0,008	-0,038
-533,364	7,645	-0,009	-0,005
-532,350	-108,557	0,105	-0,016
-531,335	-200,000	-0,000	0,002
-530,321	-68,511	0,091	-0,026
-529,306	94,880	-0,037	-0,031
-528,291	14,673	-0,089	0,051
-527,277	-112,683	0,120	0,017
-526,262	-27,460	0,045	0,019
-525,248	184,914	0,073	-0,080
-524,233	62,111	0,056	0,041
-523,218	-200,000	-0,008	0,063
-522,204	-192,354	0,136	0,001
-521,189	61,263	-0,091	-0,067
-520,175	-35,517	0,112	-0,045
-519,160	149,326	-0,031	-0,031
-518,145	132,130	-0,150	0,143
-517,131	-127,339	0,033	0,003
-516,116	-27,005	0,035	0,015
-515,102	-200,000	-0,007	-0,059
-514,087	130,353	0,080	0,076
-513,072	-200,000	-0,030	-0,244
-512,058	-6,025	-0,086	0,043
-511,043	125,186	0,101	-0,094
-510,029	-124,037	-0,135	0,015
-509,014	-133,261	-0,121	0,011
-507,999	-200,000	0,005	-0,022
-506,985	-78,475	-0,067	-0,017
-505,970	-200,000	0,006	-0,063
-504,956	-94,675	-0,066	0,013
-503,941	-200,000	-0,007	-0,030
-502,926	-45,669	0,132	-0,048
-501,912	-62,730	0,115	0,035
-500,897	217,170	-0,022	-0,026
-499,883	-200,000	-0,015	-0,175
-498,868	86,825	0,155	-0,126
-497,853	190,270	-0,089	-0,099
-496,839	-68,313	0,016	-0,004
-495,824	-68,032	0,177	-0,051
-494,810	800,000	-0,037	0,102
-493,795	-200,000	0,006	0,198
-492,781	139,341	0,017	-0,017
-491,766	800,000	-0,020	0,048
-490,751	-113,497	-0,109	0,016
-489,737	27,008	0,055	-0,034
-488,722	401,001	-0,038	0,058
-487,708	-94,133	0,159	0,032
-486,693	800,000	0,040	0,115
-485,678	-78,237	-0,090	0,023
-484,664	17,446	-0,069	0,040
-483,649	563,473	-0,077	-0,138
-482,635	-40,535	-0,115	-0,044
-481,620	272,233	-0,049	-0,064
-480,605	-200,000	0,006	0,035
-479,591	293,581	-0,046	0,062
-478,576	-63,667	0,081	0,024
-477,562	619,521	-0,058	-0,108
-476,547	126,738	-0,060	-0,056
-475,532	-22,494	0,032	0,014
-474,518	78,669	-0,062	0,049
-473,503	-73,622	0,088	-0,024
-472,489	-200,000	0,020	-0,082
-471,474	-64,578	-0,031	0,009
-470,459	-11,662	-0,056	-0,027
-469,445	6,423	-0,076	0,042
-468,430	-11,532	-0,084	0,041
-467,416	750,756	-0,016	-0,031
-466,401	172,626	0,039	0,041
-465,386	187,491	0,068	0,074
-464,372	-39,927	0,033	0,013
-463,357	800,000	-0,032	0,099
-462,343	-200,000	0,049	-0,258
-461,328	139,965	-0,045	0,044
-460,313	450,382	-0,015	-0,024
-459,299	144,816	0,109	-0,107
-458,284	58,569	0,136	0,098
-457,270	-76,275	-0,109	-0,028
-456,255	230,159	-0,059	-0,071
-455,241	-200,000	0,013	-0,094
-454,226	9,084	-0,143	-0,079
-453,211	800,000	0,035	-0,109
-452,197	237,641	0,059	0,073
-451,182	-118,563	-0,064	0,008
-450,168	-150,626	0,094	0,005
-449,153	159,694	0,037	-0,038
-448,138	126,333	-0,097	0,090
-447,124	-200,000	-0,026	0,177
-446,109	157,356	0,108	-0,110
-445,095	604,604	-0,037	-0,068
-444,080	-25,174	0,078	0,034
-443,065	-75,548	-0,130	-0,034
-442,051	-69,182	0,075	-0,021
-441,036	128,871	-0,051	-0,048
-440,022	-117,815	-0,117	0,015
-439,007	800,000	0,011	0,025
-437,992	-26,844	0,025	0,011
-436,978	123,188	-0,046	-0,042
-435,963	800,000	-0,020	-0,045
-434,949	35,280	-0,125	0,081
-433,934	-200,000	-0,002	-0,062
-432,919	83,399	-0,059	-0,047
-431,905	152,851	0,090	-0,090
-430,890	-200,000	0,087	0,000
-429,876	90,292	0,094	0,078
-428,861	85,178	-0,013	-0,010
-427,846	-154,836	-0,141	0,007
-426,832	41,239	-0,054	0,036
-425,817	-38,235	-0,190	0,074
-424,803	-135,235	0,020	-0,002
-423,788	-22,194	0,030	-0,013
-422,773	-72,305	0,070	0,019
-421,759	17,746	-0,090	-0,053
-420,744	-75,033	0,139	0,036
-419,730	25,545	0,036	-0,022
-418,715	-200,000	-0,016	-0,082
-417,701	182,591	-0,104	-0,113
-416,686	-100,611	0,063	0,011
-415,671	-58,231	0,162	0,052
-414,657	216,349	-0,044	-0,051
-413,642	-136,019	0,133	0,011
-412,628	292,152	-0,032	0,042
-411,613	24,053	0,055	-0,034
-410,598	800,000	-0,048	-0,120
-409,584	-60,959	0,041	-0,013
-408,569	220,797	-0,039	-0,046
-407,555	-200,000	-0,005	-0,110
-406,540	673,011	-0,026	0,049
-405,525	-87,607	-0,114	-0,025
-404,511	-151,833	0,030	-0,002
-403,496	800,000	0,016	-0,034
-402,482	190,599	0,067	-0,074
-401,467	69,904	0,091	0,069
-400,452	-200,000	-0,011	0,076
-399,438	-96,640	0,060	0,011
-398,423	612,348	0,034	0,063
-397,409	-77,876	-0,106	0,027
-396,394	59,278	0,047	-0,034
-395,379	78,116	-0,116	0,091
-394,365	-56,920	0,099	-0,032
-393,350	58,558	-0,097	0,070
-392,336	233,506	-0,117	0,141
-391,321	800,000	-0,047	0,122
-390,306	87,327	-0,088	-0,071
-389,292	197,595	-0,168	-0,189
-388,277	-200,000	0,001	0,031
-387,263	-200,000	0,008	0,070
-386,248	95,000	0,055	0,046
-385,233	58,168	-0,091	0,065
-384,219	261,078	0,033	0,042
-383,204	122,602	0,062	0,057
-382,190	800,000	0,041	-0,115
-381,175	-200,000	-0,003	-0,050
-380,160	-40,289	-0,075	0,028
-379,146	-200,000	-0,001	-0,106
-378,131	-200,000	0,008	-0,111
-377,117	-73,685	-0,026	0,007
-376,102	-80,147	-0,124	-0,030
-375,088	69,795	-0,088	-0,066
-374,073	-16,759	-0,060	0,028
-373,058	542,644	-0,034	0,060
-372,044	-112,698	0,141	0,020
-371,029	800,000	0,021	-0,048
-370,015	-31,667	-0,091	0,038
-369,000	81,711	-0,122	-0,097
-367,985	59,831	0,149	-0,108
-366,971	369,581	0,019	0,028
-365,956	561,292	0,033	-0,060
-364,942	669,481	-0,026	0,049
-363,927	101,289	0,114	0,097
-362,912	-200,000	0,026	0,092
-361,898	-154,702	0,096	0,005
-360,883	-200,000	0,011	0,117
-359,869	57,143	0,111	-0,080
-358,854	-200,000	-0,013	-0,099
-357,839	-66,744	-0,060	0,017
-356,825	64,490	0,062	0,046
-355,810	339,048	0,071	0,101
-354,796	-200,000	0,009	-0,101
-353,781	-200,000	0,002	-0,043
-352,766	-200,000	-0,015	-0,056
-351,752	-200,000	-0,002	0,032
-350,737	-200,000	0,015	0,153
-349,723	-26,226	0,097	-0,042
-348,708	-76,171	-0,099	-0,025
-347,693	56,328	-0,067	0,048
-346,679	86,326	0,043	-0,035
-345,664	800,000	0,019	-0,056
-344,650	429,069	-0,043	0,069
-343,635	-39,971	-0,024	0,009
-342,620	374,777	0,070	0,106
-341,606	-7,233	-0,062	-0,031
-340,591	111,262	0,061	-0,054
-339,577	-200,000	0,013	0,082
-338,562	6,410	-0,133	-0,072
-337,548	-200,000	0,041	0,136
-336,533	-28,018	-0,054	0,023
-335,518	335,053	0,080	0,114
-334,504	800,000	0,014	0,036
-333,489	-71,885	-0,020	0,005
-332,475	-200,000	0,007	-0,052
-331,460	-81,094	-0,149	0,036
-330,445	-101,020	0,121	0,022
-329,431	-200,000	0,044	0,165
-328,416	800,000	0,026	0,054
-327,402	800,000	0,013	0,041
-326,387	-200,000	0,040	0,241
-325,372	-54,165	-0,139	0,046
-324,358	-137,194	-0,251	0,021
-323,343	51,742	-0,073	0,051
-322,329	800,000	0,047	-0,101
-321,314	414,910	-0,024	-0,038
-320,299	749,263	-0,021	0,042
-319,285	-8,966	-0,045	0,022
-318,270	114,413	0,051	0,045
-317,256	56,421	-0,065	-0,046
-316,241	707,283	-0,047	-0,092
-315,226	-5,965	-0,098	-0,049
-314,212	31,607	-0,058	-0,036
-313,197	23,570	0,156	0,094
-312,183	24,497	0,051	-0,031
-311,168	-123,601	0,042	-0,005
-310,153	-138,117	-0,093	0,007
-309,139	554,172	-0,070	-0,123
-308,124	-140,930	0,033	0,002
-307,110	800,000	0,029	0,063
-306,095	9,236	0,132	0,073
-305,080	119,958	0,160	0,145
-304,066	245,002	0,059	0,073
-303,051	123,602	-0,087	0,080
-302,037	-115,602	-0,114	-0,016
-301,022	-15,013	0,193	0,090
-300,008	800,000	-0,008	0,025
-298,993	-15,536	0,057	-0,027
-297,978	36,584	0,098	0,064
-296,964	-2,470	-0,066	0,034
-295,949	-60,845	0,031	-0,010
-294,935	524,835	0,057	0,098
-293,920	61,676	0,022	-0,016
-292,905	-58,579	-0,070	-0,022
-291,891	274,010	0,064	0,082
-290,876	-49,615	-0,139	0,048
-289,862	104,112	0,066	0,057
-288,847	31,332	-0,110	-0,069
-287,832	200,218	0,067	-0,075
-286,818	-38,111	0,054	-0,021
-285,803	-27,296	0,087	0,037
-284,789	-88,418	0,216	0,047
-283,774	248,425	0,098	0,121
-282,759	42,225	0,104	0,069
-281,745	183,207	-0,066	0,071
-280,730	456,984	-0,069	-0,113
-279,716	-9,031	0,083	0,040
-278,701	68,117	0,135	0,101
-277,686	800,000	0,013	0,036
-276,672	117,339	-0,076	0,068
-275,657	-3,450	-0,038	0,019
-274,643	105,056	0,051	0,044
-273,628	-200,000	0,006	-0,053
-272,613	467,629	-0,081	-0,133
-271,599	114,828	0,072	0,064
-270,584	-200,000	-0,006	0,033
-269,570	166,680	0,086	0,089
-268,555	-138,461	-0,077	-0,006
-267,540	15,322	-0,080	0,046
-266,526	629,015	-0,036	0,067
-265,511	-200,000	0,036	0,116
-264,497	-12,960	-0,073	-0,035
-263,482	449,913	0,075	0,122
-262,467	-8,362	-0,034	-0,017
-261,453	800,000	-0,038	0,090
-260,438	-7,383	-0,138	-0,068
-259,424	24,294	0,114	0,068
-258,409	-2,533	-0,057	-0,029
-257,395	-29,118	0,040	0,017
-256,380	36,570	0,065	0,042
-255,365	-169,961	-0,066	-0,002
-254,351	-161,008	0,082	0,003
-253,336	-200,000	-0,026	-0,104
-252,322	-200,000	0,025	-0,089
-251,307	97,549	-0,100	-0,084
-250,292	130,985	-0,083	-0,078
-249,278	368,423	0,068	0,100
-248,263	-200,000	-0,007	-0,066
-247,249	-200,000	0,028	0,148
-246,234	-119,834	0,185	0,023
-245,219	800,000	0,035	-0,086
-244,205	-16,746	0,089	-0,041
-243,190	151,637	0,092	-0,091
-242,176	150,671	-0,045	-0,044
-241,161	140,367	0,136	0,131
-240,146	-32,783	0,086	-0,035
-239,132	572,739	0,050	0,090
-238,117	177,238	0,050	-0,053
-237,103	79,279	-0,074	0,058
-236,088	-104,966	-0,026	-0,004
-235,073	-23,470	0,084	-0,037
-234,059	77,267	0,048	0,037
-233,044	-32,832	-0,098	0,040
-232,030	800,000	-0,036	0,085
-231,015	121,886	0,045	0,041
-230,000	-5,106	-0,058	-0,029
-228,986	290,242	-0,059	0,079
-227,971	86,818	0,115	0,092
-226,957	-200,000	-0,002	0,012
-225,942	-90,322	-0,092	-0,019
-224,927	-200,000	0,008	-0,083
-223,913	800,000	-0,073	-0,173
-222,898	800,000	-0,020	0,055
-221,884	-85,596	-0,072	-0,016
-220,869	71,886	0,074	0,056
-219,855	-200,000	0,020	-0,078
-218,840	-200,000	-0,017	-0,063
-217,825	-146,323	-0,227	-0,014
-216,811	344,830	-0,075	-0,108
-215,796	-200,000	0,001	-0,134
-214,782	800,000	0,023	0,072
-213,767	-8,163	0,185	0,090
-212,752	-200,000	0,036	0,147
-211,738	-91,332	0,041	0,008
-210,723	-200,000	0,001	-0,044
-209,709	-200,000	0,001	0,138
-208,694	104,215	-0,109	-0,094
-207,679	-200,000	0,015	-0,076
-206,665	187,569	-0,033	0,036
-205,650	-109,762	0,084	-0,013
-204,636	134,262	0,028	0,026
-203,621	230,369	-0,048	-0,058
-202,606	-200,000	-0,007	-0,127
-201,592	346,576	-0,100	-0,145
-200,577	-138,623	0,046	0,004
-199,563	-180,052	-0,118	-0,002
-198,548	47,109	0,099	-0,067
-197,533	800,000	0,016	0,032
-196,519	-101,294	-0,021	-0,004
-195,504	800,000	-0,038	0,094
-194,490	339,980	-0,044	-0,063
-193,475	-15,875	-0,154	-0,071
-192,460	406,367	0,116	-0,180
-191,446	-200,000	-0,028	0,107
-190,431	267,370	0,120	0,153
-189,417	47,632	-0,079	-0,054
-188,402	-95,450	-0,130	0,025
-187,387	134,870	0,041	0,038
-186,373	-132,010	0,105	0,010
-185,358	-183,707	-0,085	-0,001
-184,344	800,000	0,039	0,108
-183,329	-135,755	-0,088	0,008
-182,315	57,401	-0,045	0,032
-181,300	633,381	0,039	0,073
-180,285	563,012	0,050	0,088
-179,271	16,064	-0,055	-0,031
-178,256	-200,000	0,005	0,097
-177,242	-143,920	0,119	0,008
-176,227	-122,466	-0,055	0,006
-175,212	377,827	0,068	0,101
-174,198	-200,000	0,023	0,077
-173,183	348,074	0,042	-0,060
-172,169	-63,243	0,174	0,052
-171,154	88,630	-0,066	0,053
-170,139	-200,000	0,040	-0,131
-169,125	-141,723	0,055	0,004
-168,110	608,763	0,059	0,108
-167,096	800,000	0,020	-0,044
-166,081	-96,968	-0,164	0,031
-165,066	26,187	-0,070	-0,042
-164,052	-200,000	-0,007	0,030
-163,037	-200,000	0,003	0,025
-162,023	800,000	0,025	-0,054
-161,008	19,816	0,098	0,057
-159,993	74,180	-0,070	0,053
-158,979	298,895	0,057	0,076
-157,964	-200,000	-0,005	-0,023
-156,950	-200,000	0,001	-0,035
-155,935	229,044	0,060	-0,071
-154,920	-132,160	0,099	-0,009
-153,906	800,000	0,038	0,091
-152,891	-157,687	-0,110	0,005
-151,877	-78,577	-0,081	-0,020
-150,862	-200,000	0,022	-0,119
-149,847	202,010	-0,092	0,104
-148,833	-143,375	0,160	-0,011
-147,818	-200,000	0,014	-0,085
-146,804	-57,479	0,007	0,002
-145,789	-200,000	-0,016	-0,114
-144,775	-200,000	0,017	-0,070
-143,760	743,276	-0,060	0,117
-142,745	184,505	0,035	0,038
-141,731	-106,502	-0,109	-0,018
-140,716	616,507	0,033	0,061
-139,702	-200,000	0,043	-0,144
-138,687	206,585	0,054	0,061
-137,672	370,810	-0,053	0,078
-136,658	-101,920	-0,102	0,018
-135,643	-200,000	-0,012	-0,169
-134,629	-200,000	-0,030	-0,127
-133,614	800,000	0,029	0,091
-132,599	-200,000	0,022	0,087
-131,585	400,938	0,018	-0,027
-130,570	-124,738	-0,105	-0,012
-129,556	75,429	-0,077	-0,059
-128,541	-119,448	-0,129	-0,016
-127,526	432,491	0,021	-0,034
-126,512	-16,765	0,038	0,017
-125,497	-200,000	0,016	-0,085
-124,483	-113,484	-0,120	0,017
-123,468	170,585	0,059	0,062
-122,453	171,174	-0,072	-0,075
-121,439	64,494	-0,045	-0,033
-120,424	-79,007	0,067	-0,016
-119,410	76,875	-0,020	-0,016
-118,395	-126,096	0,060	-0,006
-117,380	129,583	-0,030	-0,028
-116,366	-11,002	0,038	-0,018
-115,351	46,989	-0,021	0,014
-114,337	586,283	-0,051	-0,092
-113,322	356,801	-0,035	-0,051
-112,307	-51,881	-0,118	0,040
-111,293	216,030	0,070	0,081
-110,278	454,502	0,096	0,156
-109,264	360,738	-0,040	0,059
-108,249	114,040	-0,118	-0,104
-107,234	-200,000	0,008	0,046
-106,220	-200,000	0,002	-0,135
-105,205	800,000	0,016	0,044
-104,191	-46,360	0,113	-0,040
-103,176	-200,000	-0,004	0,106
-102,162	-70,427	-0,071	-0,019
-101,147	255,556	-0,010	0,012
-100,132	120,859	-0,100	-0,091
-99,118	-200,000	-0,006	-0,074
-98,103	-108,283	0,084	-0,013
-97,089	-82,870	-0,078	0,018
-96,074	-200,000	-0,008	0,063
-95,059	417,934	0,074	-0,116
-94,045	-11,297	-0,132	0,063
-93,030	800,000	-0,044	-0,108
-92,016	-96,258	-0,093	-0,018
-91,001	172,384	0,036	-0,038
-89,986	-45,239	-0,104	0,037
-88,972	-200,000	-0,003	-0,137
-87,957	1,057	-0,036	-0,019
-86,943	-200,000	-0,007	0,111
-85,928	-108,814	-0,154	-0,024
-84,913	-200,000	-0,034	-0,151
-83,899	195,127	-0,068	-0,075
-82,884	-200,000	0,012	-0,049
-81,870	-80,566	0,156	0,038
-80,855	-42,035	-0,086	-0,032
-79,840	-35,543	-0,168	0,066
-78,826	107,998	-0,125	-0,108
-77,811	800,000	0,019	-0,045
-76,797	-200,000	-0,001	-0,200
-75,782	531,494	0,050	0,087
-74,767	339,261	0,114	0,162
-73,753	-58,918	0,061	-0,019
-72,738	-200,000	-0,001	0,018
-71,724	-60,403	-0,090	-0,028
-70,709	83,441	0,098	-0,078
-69,694	-92,711	0,076	0,015
-68,680	-110,863	-0,106	-0,016
-67,665	-61,817	-0,085	0,026
-66,651	-4,775	-0,048	-0,024
-65,636	-41,622	0,047	-0,017
-64,622	99,664	-0,071	-0,060
-63,607	-12,560	0,096	-0,045
-62,592	800,000	-0,024	0,063
-61,578	800,000	-0,060	0,154
-60,563	615,877	-0,048	-0,087
-59,549	-95,529	0,083	0,016
-58,534	-104,857	-1,537	-0,253
-57,519	752,996	-0,705	-1,388
-56,505	-200,000	-0,945	-4,542
-55,490	-85,726	0,660	-0,147
-54,476	800,000	5,148	11,827
-53,461	-200,000	14,767	264,631
-52,446	-200,000	698,308	2255,591
-51,432	582,659	1622,639	2898,116
-50,417	121,218	1630,366	1471,481
-49,403	79,974	1284,792	1000,177
-48,388	38,047	1023,249	658,405
-47,373	22,948	983,180	582,914
-46,359	22,069	972,369	573,595
-45,344	20,864	967,997	567,048
-44,330	20,828	966,557	566,066
-43,315	20,651	965,239	564,693
-42,300	20,632	964,129	563,960
-41,286	20,601	963,180	563,281
-40,271	20,566	962,157	562,547
-39,257	20,567	961,435	562,106
-38,242	20,580	960,425	561,535
-37,227	20,534	959,795	560,994
-36,213	20,512	958,709	560,267
-35,198	20,549	957,759	559,808
-34,184	20,568	957,130	559,480
-33,169	20,534	956,210	558,810
-32,154	20,549	955,328	558,321
-31,140	20,539	954,479	557,770
-30,125	20,603	953,550	557,411
-29,111	20,548	952,909	556,840
-28,096	20,566	952,165	556,440
-27,082	20,564	951,388	555,956
-26,067	20,596	950,515	555,527
-25,052	20,556	949,763	554,938
-24,038	20,554	949,283	554,628
-23,023	20,575	948,622	554,289
-22,009	20,582	947,827	553,823
-20,994	20,642	947,201	553,628
-19,979	20,581	946,724	553,131
-18,965	20,534	946,167	552,634
-17,950	20,499	945,609	552,176
-16,936	20,531	944,813	551,791
-15,921	20,488	944,276	551,318
-14,906	20,492	943,545	550,882
-13,892	20,509	942,854	550,511
-12,877	20,418	942,275	549,860
-11,863	20,467	941,452	549,514
-10,848	20,465	941,266	549,378
-9,833	20,499	940,741	549,156
-8,819	20,537	940,114	548,892
-7,804	20,490	939,429	548,318
-6,790	20,423	938,918	547,788
-5,775	20,465	938,194	547,475
-4,760	20,478	937,591	547,142
-3,746	20,446	936,914	546,626
-2,731	20,338	936,175	545,832
-1,717	20,316	935,502	545,348
-0,702	20,291	934,810	544,844
0,313	20,087	934,284	544,715
1,327	23,187	932,423	553,350
2,342	32,583	794,506	496,509
3,356	29,941	450,768	277,692
4,371	-0,750	294,907	150,893
5,386	-5,162	276,094	137,055
6,400	-6,772	270,314	132,672
7,415	-7,233	268,163	131,178
8,429	-6,815	267,005	130,985
9,444	-6,696	266,062	130,621
10,459	-6,492	265,338	130,440
11,473	-6,965	264,908	129,784
12,488	-6,800	264,364	129,658
13,502	-6,757	263,740	129,378
14,517	-6,865	263,461	129,131
15,531	-6,492	263,087	129,276
16,546	-6,367	262,712	129,193
17,561	-6,374	262,376	129,010
18,575	-6,340	261,910	128,800
19,590	-6,355	261,623	128,634
20,604	-6,349	261,435	128,535
21,619	-6,521	261,181	128,244
22,634	-6,297	260,856	128,275
23,648	-6,318	260,463	128,051
24,663	-6,500	260,321	127,807
25,677	-6,409	260,101	127,769
26,692	-6,489	259,823	127,549
27,707	-6,487	259,455	127,359
28,721	-6,373	259,254	127,351
29,736	-6,372	258,987	127,210
30,750	-6,448	258,655	126,967
31,765	-6,549	258,431	126,756
32,780	-6,510	258,244	126,688
33,794	-6,426	258,001	126,631
34,809	-6,516	257,721	126,403
35,823	-6,544	257,528	126,273
36,838	-6,667	257,254	126,018
37,853	-6,469	257,080	126,097
38,867	-6,759	256,902	125,741
39,882	-6,682	256,572	125,637
40,896	-6,680	256,322	125,505
41,911	-6,462	256,115	125,584
42,926	-6,519	255,839	125,388
43,940	-6,636	255,646	125,180
44,955	-6,660	255,414	125,033
45,969	-6,653	255,121	124,885
46,984	-6,805	254,858	124,612
47,999	-7,023	254,808	124,386
49,013	-7,077	254,354	124,105
50,028	-7,096	254,027	123,918
51,042	-7,157	253,891	123,787
52,057	-7,216	253,675	123,619
53,071	-7,272	253,491	123,470
54,086	-7,205	253,356	123,451
55,101	-7,190	253,217	123,386
56,115	-7,025	253,163	123,492
57,130	-6,492	253,034	123,881
58,144	-6,371	252,772	123,847
59,159	-6,365	252,484	123,700
60,174	-6,466	252,320	123,521
61,188	-6,588	252,047	123,271
62,203	-6,550	251,931	123,237
63,217	-6,484	251,734	123,186
64,232	-6,442	251,424	123,060
65,247	-6,649	251,254	122,787
66,261	-6,506	251,123	122,835
67,276	-6,713	250,865	122,520
68,290	-6,991	250,575	122,128
69,305	-7,141	250,281	121,845
70,320	-6,890	250,274	122,047
71,334	-6,654	249,963	122,087
72,349	-6,318	249,706	122,238
73,363	-6,277	249,434	122,129
74,378	-6,539	249,505	121,929
75,393	-6,347	249,184	121,925
76,407	-6,411	248,990	121,765
77,422	-6,453	248,818	121,634
78,436	-6,434	248,712	121,588
79,451	-6,399	248,442	121,474
80,466	-6,610	248,186	121,159
81,480	-6,711	248,064	121,002
82,495	-6,816	247,741	120,745
83,509	-6,727	247,625	120,753
84,524	-6,621	247,330	120,688
85,539	-6,784	247,231	120,491
86,553	-6,780	247,165	120,451
87,568	-6,755	246,780	120,275
88,582	-6,889	246,726	120,124
89,597	-6,803	246,472	120,063
90,611	-6,682	246,407	120,122
91,626	-6,639	246,138	120,016
92,641	-6,497	245,986	120,051
93,655	-6,437	245,796	119,999
94,670	-6,544	245,571	119,788
95,684	-6,717	245,334	119,516
96,699	-6,538	245,098	119,541
97,714	-6,845	245,026	119,237
98,728	-6,745	244,896	119,247
99,743	-6,812	244,470	118,973
100,757	-6,915	244,369	118,827
101,772	-6,935	244,225	118,730
102,787	-6,697	243,967	118,793
103,801	-6,803	243,873	118,647
104,816	-6,679	243,893	118,751
105,830	-6,781	243,812	118,615
106,845	-6,407	243,374	118,703
107,860	-6,560	243,113	118,438
108,874	-6,787	243,069	118,217
109,889	-6,820	242,779	118,038
110,903	-6,832	242,666	117,963
111,918	-6,998	242,394	117,683
112,933	-6,788	242,320	117,810
113,947	-6,864	242,263	117,709
114,962	-6,691	241,975	117,702
115,976	-6,694	241,827	117,616
116,991	-6,651	241,648	117,554
118,006	-6,697	241,454	117,412
119,020	-6,639	241,434	117,440
120,035	-6,411	241,219	117,513
121,049	-6,713	241,165	117,226
122,064	-6,605	240,861	117,158
123,079	-6,772	240,673	116,919
124,093	-6,719	240,327	116,783
125,108	-7,004	240,231	116,492
126,122	-6,929	239,888	116,376
127,137	-7,038	239,830	116,249
128,151	-6,943	239,568	116,189
129,166	-6,886	239,410	116,149
130,181	-6,990	239,354	116,027
131,195	-6,992	239,110	115,896
132,210	-6,706	239,037	116,084
133,224	-6,713	238,892	115,998
134,239	-6,831	238,704	115,800
135,254	-6,625	238,530	115,873
136,268	-6,597	238,091	115,672
137,283	-7,205	237,987	115,117
138,297	-7,206	237,858	115,044
139,312	-7,001	237,606	115,077
140,327	-6,711	237,581	115,290
141,341	-6,451	237,492	115,448
142,356	-6,469	237,311	115,335
143,370	-6,469	237,249	115,294
144,385	-6,395	237,077	115,261
145,400	-6,369	236,965	115,217
146,414	-6,460	236,710	115,009
147,429	-6,292	236,491	115,027
148,443	-6,530	236,327	114,746
149,458	-6,403	236,080	114,718
150,473	-6,379	235,912	114,645
151,487	-6,293	235,721	114,611
152,502	-6,337	235,599	114,507
153,516	-6,223	235,410	114,496
154,531	-6,385	235,188	114,248
155,546	-6,383	235,012	114,154
156,560	-6,450	234,753	113,964
157,575	-6,686	234,810	113,794
158,589	-6,664	234,465	113,634
159,604	-6,408	234,264	113,730
160,619	-6,301	234,265	113,806
161,633	-6,087	234,111	113,892
162,648	-6,246	234,019	113,710
163,662	-6,273	233,806	113,575
164,677	-6,426	233,755	113,418
165,692	-6,313	233,401	113,326
166,706	-6,198	233,428	113,420
167,721	-6,309	233,362	113,290
168,735	-6,288	233,032	113,136
169,750	-6,281	233,027	113,130
170,764	-6,313	232,732	112,951
171,779	-6,358	232,783	112,930
172,794	-6,239	232,297	112,778
173,808	-6,523	232,205	112,499
174,823	-6,872	231,919	112,075
175,837	-7,160	231,786	111,774
176,852	-6,894	231,790	111,975
177,867	-6,357	231,688	112,339
178,881	-6,431	231,509	112,184
179,896	-6,447	231,605	112,208
180,910	-6,361	231,232	112,085
181,925	-6,466	231,103	111,929
182,940	-6,251	230,937	112,009
183,954	-6,156	230,654	111,936
184,969	-6,267	230,611	111,817
185,983	-6,232	230,464	111,764
186,998	-6,151	230,215	111,697
188,013	-6,095	230,006	111,629
189,027	-6,039	229,883	111,603
190,042	-5,941	229,781	111,620
191,056	-6,382	229,764	111,257
192,071	-6,174	229,466	111,265
193,086	-6,212	229,235	111,114
194,100	-6,553	229,121	110,784
195,115	-7,046	228,582	110,131
196,129	-7,716	228,385	109,506
197,144	-4,189	229,469	112,763
198,159	0,629	230,947	117,246
199,173	4,170	231,761	120,420
200,188	4,511	231,961	120,780
201,202	4,691	231,662	120,754
202,217	4,711	231,525	120,688
203,232	4,925	231,433	120,796
204,246	4,961	231,307	120,747
205,261	4,860	231,120	120,561
206,275	5,072	231,086	120,697
207,290	5,430	230,877	120,855
208,304	5,204	230,735	120,595
209,319	5,082	230,551	120,393
210,334	4,928	230,441	120,205
211,348	4,840	230,176	119,988
212,363	4,344	229,845	119,421
213,377	4,097	229,613	119,099
214,392	4,278	229,450	119,143
215,407	4,125	229,399	118,988
216,421	4,526	229,274	119,223
217,436	4,203	229,135	118,890
218,450	4,134	228,870	118,689
219,465	4,135	228,572	118,525
220,480	3,841	228,755	118,382
221,494	3,965	228,401	118,284
222,509	4,093	228,351	118,347
223,523	4,158	228,219	118,317
224,538	3,854	228,129	118,027
225,553	4,291	227,950	118,259
226,567	4,488	227,855	118,350
227,582	4,501	227,645	118,240
228,596	4,840	227,558	118,444
229,611	4,200	227,214	117,765
230,626	4,170	227,152	117,700
231,640	4,106	226,904	117,512
232,655	4,517	226,887	117,806
233,669	4,582	226,950	117,877
234,684	4,798	226,758	117,932
235,699	4,669	226,596	117,739
236,713	4,419	226,232	117,349
237,728	4,369	226,015	117,189
238,742	4,234	225,937	117,035
239,757	4,221	225,825	116,957
240,772	4,120	225,629	116,768
241,786	4,236	225,518	116,788
242,801	4,368	225,464	116,850
243,815	4,618	225,413	117,002
244,830	4,490	225,151	116,759
245,844	4,418	224,910	116,569
246,859	4,570	224,796	116,615
247,874	4,501	224,716	116,511
248,888	4,343	224,653	116,348
249,903	4,540	224,236	116,271
250,917	4,285	224,191	116,045
251,932	4,127	224,119	115,879
252,947	4,236	223,870	115,821
253,961	4,043	223,710	115,583
254,976	4,409	223,457	115,717
255,990	4,372	223,477	115,689
257,005	4,470	223,342	115,682
258,020	4,365	223,354	115,600
259,034	4,832	223,124	115,820
260,049	4,565	222,964	115,526
261,063	4,315	222,897	115,295
262,078	4,450	222,652	115,258
263,093	4,657	222,557	115,353
264,107	4,413	222,434	115,098
265,122	4,492	222,427	115,142
266,136	4,778	222,132	115,193
267,151	4,569	222,134	115,028
268,166	4,299	221,698	114,591
269,180	4,134	221,528	114,370
270,195	4,126	221,418	114,297
271,209	4,322	221,180	114,310
272,224	4,064	221,205	114,121
273,239	4,491	221,079	114,362
274,253	4,327	220,994	114,186
275,268	4,168	220,697	113,905
276,282	4,128	220,499	113,763
277,297	3,891	220,441	113,548
278,312	3,855	220,346	113,462
279,326	4,084	220,023	113,455
280,341	4,105	220,078	113,488
281,355	4,258	219,970	113,536
282,370	4,023	219,808	113,269
283,384	3,848	219,668	113,058
284,399	3,926	219,350	112,941
285,414	3,969	219,409	112,993
286,428	4,267	219,316	113,154
287,443	4,489	219,116	113,204
288,457	4,308	219,049	113,026
289,472	4,377	218,792	112,934
290,487	3,993	218,549	112,518
291,501	3,864	218,364	112,319
292,516	3,842	218,168	112,192
293,530	4,082	218,136	112,341
294,545	3,915	217,997	112,137
295,560	4,057	218,000	112,232
296,574	4,032	217,866	112,134
297,589	4,120	217,723	112,115
298,603	4,219	217,593	112,110
299,618	4,097	217,428	111,926
300,633	4,445	217,278	112,092
301,647	4,373	217,285	112,033
302,662	4,354	217,124	111,926
303,676	4,645	216,802	111,961
304,691	4,349	216,683	111,676
305,706	4,461	216,558	111,682
306,720	4,362	216,637	111,641
307,735	4,221	216,369	111,391
308,749	3,988	216,206	111,129
309,764	4,433	216,059	111,365
310,779	4,488	216,014	111,371
311,793	4,534	215,771	111,269
312,808	4,238	215,559	110,937
313,822	4,412	215,505	111,025
314,837	4,250	215,306	110,796
315,852	4,081	215,060	110,538
316,866	4,003	215,044	110,464
317,881	4,334	215,019	110,679
318,895	4,107	214,927	110,459
319,910	4,378	214,602	110,476
320,925	4,021	214,375	110,094
321,939	3,943	214,230	109,954
322,954	3,938	214,095	109,871
323,968	4,393	214,038	110,157
324,983	4,282	214,076	110,087
325,997	4,594	213,894	110,206
327,012	4,179	213,773	109,838
328,027	4,340	213,659	109,885
329,041	4,661	213,473	110,008
330,056	4,974	213,341	110,153
331,070	4,229	213,128	109,504
332,085	4,099	212,944	109,308
333,100	4,198	212,850	109,319
334,114	4,249	212,733	109,286
335,129	4,288	212,687	109,280
336,143	4,126	212,421	109,018
337,158	3,981	212,360	108,875
338,173	4,133	212,106	108,843
339,187	4,227	211,844	108,765
340,202	3,942	211,678	108,469
341,216	3,809	211,738	108,396
342,231	3,807	211,641	108,336
343,246	3,998	211,473	108,374
344,260	4,009	211,384	108,327
345,275	4,123	211,250	108,329
346,289	4,239	211,252	108,402
347,304	4,111	211,063	108,205
348,319	4,089	210,920	108,107
349,333	4,211	210,704	108,071
350,348	4,106	210,567	107,919
351,362	4,265	210,602	108,038
352,377	4,496	210,365	108,069
353,392	4,141	210,144	107,697
354,406	4,308	210,096	107,779
355,421	192,749	1345,017	1428,382
356,435	153,800	1483,369	1428,488
