DTS Sentinel unit serial number:	SN410029Multiplexer serial number:	ORYXHardware model number:	OX2-SRSoftware version number:	ORYX F/W v4,00 Oryx Data Collector v3.7.2.0data status	okinstallation	B6 Nyhavnadifferential loss correction	single-endedforward channel	channel 2reverse channel	N/Adate	2023/12/09time	22:10:08forward acquisition time	300,00reverse acquisition time	0,00gamma	499,1914k internal	0,3127k external	0,3127temperature offset calibration	1,0000default loss term (dB/km)	0,3820temperature slope calibration	1,0000multiplexer offset coefficient	1,0000multiplexer slope coefficient	1,0000fibre end	0,00T internal ref (°C)	21,66T ext. ref 1 (°C)	5,42T ext. ref 2 (°C)	5,42length (m)	temperature (°C)	Stokes	anti-Stokes-744,400	-76,374	0,095	-0,025
-743,385	-123,239	-0,161	-0,019
-742,371	-93,438	0,069	-0,014
-741,356	224,173	-0,146	0,175
-740,342	-34,187	-0,123	0,050
-739,327	-168,321	-0,376	-0,011
-738,312	-200,000	-0,019	-0,105
-737,298	-92,844	-0,196	0,040
-736,283	-200,000	-0,002	0,054
-735,269	560,850	-0,147	0,265
-734,254	47,234	0,078	-0,054
-733,239	-129,879	-0,476	-0,048
-732,225	98,655	0,105	-0,090
-731,210	-81,025	-0,174	0,042
-730,196	-97,209	0,057	-0,011
-729,181	-94,843	0,052	-0,010
-728,167	-26,355	-0,089	0,039
-727,152	-200,000	-0,015	-0,054
-726,137	-42,109	0,119	-0,045
-725,123	800,000	-0,012	0,033
-724,108	221,031	-0,032	-0,039
-723,094	-117,004	-0,215	-0,029
-722,079	-200,000	-0,028	-0,110
-721,064	-20,519	0,046	-0,021
-720,050	512,615	0,054	-0,094
-719,035	-165,821	0,096	-0,003
-718,021	76,527	-0,065	0,051
-717,006	32,488	-0,071	-0,046
-715,991	38,377	-0,094	-0,062
-714,977	44,341	-0,113	-0,077
-713,962	-33,650	-0,009	0,004
-712,948	32,433	0,041	0,027
-711,933	-200,000	-0,002	-0,048
-710,918	149,801	0,076	-0,077
-709,904	-200,000	-0,005	-0,072
-708,889	-3,890	-0,221	-0,114
-707,875	800,000	-0,026	-0,070
-706,860	-121,903	0,122	0,015
-705,845	83,515	-0,085	0,069
-704,831	260,315	0,086	-0,110
-703,816	280,078	-0,143	-0,191
-702,802	-200,000	-0,006	-0,035
-701,787	-200,000	0,035	-0,172
-700,772	-79,967	0,084	-0,021
-699,758	800,000	0,058	-0,142
-698,743	1,486	-0,031	-0,016
-697,729	60,791	0,065	-0,048
-696,714	-46,113	0,061	-0,022
-695,699	36,492	-0,070	-0,046
-694,685	12,463	0,034	0,020
-693,670	2,745	-0,039	-0,021
-692,656	-200,000	0,049	0,177
-691,641	800,000	0,020	0,062
-690,627	-21,108	0,060	0,027
-689,612	-200,000	0,006	0,062
-688,597	-167,270	-0,033	0,001
-687,583	95,065	0,098	-0,083
-686,568	-200,000	0,004	-0,040
-685,554	79,227	-0,068	-0,054
-684,539	107,377	-0,046	0,041
-683,524	-200,000	0,014	0,140
-682,510	800,000	-0,018	-0,040
-681,495	800,000	-0,054	0,123
-680,481	-116,932	-0,071	0,010
-679,466	-200,000	0,006	-0,023
-678,451	800,000	0,051	-0,129
-677,437	-200,000	-0,007	-0,219
-676,422	22,173	0,044	0,027
-675,408	-2,609	0,059	-0,031
-674,393	-112,025	-0,052	-0,008
-673,378	-16,661	-0,026	0,012
-672,364	264,618	-0,084	-0,109
-671,349	331,091	-0,036	-0,051
-670,335	-168,270	0,127	-0,004
-669,320	-91,409	-0,025	0,005
-668,305	800,000	0,038	-0,089
-667,291	350,669	-0,082	0,120
-666,276	800,000	-0,037	-0,114
-665,262	-136,782	-0,075	0,006
-664,247	30,808	0,025	0,016
-663,232	800,000	0,010	0,030
-662,218	361,333	0,037	0,056
-661,203	800,000	-0,032	-0,075
-660,189	800,000	-0,050	-0,146
-659,174	274,207	-0,047	-0,061
-658,159	347,220	0,067	-0,098
-657,145	30,478	-0,112	-0,071
-656,130	422,479	-0,002	0,003
-655,116	114,802	0,111	-0,100
-654,101	165,459	0,039	-0,041
-653,086	-76,756	-0,055	-0,014
-652,072	429,534	0,038	-0,062
-651,057	800,000	0,060	-0,130
-650,043	536,395	0,014	-0,025
-649,028	496,248	-0,050	0,085
-648,014	364,512	-0,024	-0,036
-646,999	-140,486	0,068	0,005
-645,984	422,580	-0,040	-0,064
-644,970	152,932	0,053	-0,053
-643,955	378,745	-0,081	-0,123
-642,941	-200,000	-0,029	-0,164
-641,926	-200,000	0,002	0,009
-640,911	-200,000	0,050	0,204
-639,897	355,246	-0,055	0,081
-638,882	402,214	0,054	0,084
-637,868	277,057	-0,024	0,032
-636,853	45,424	0,075	0,051
-635,838	-196,421	0,131	-0,001
-634,824	-112,497	-0,173	-0,025
-633,809	-86,737	-0,138	0,031
-632,795	304,299	0,046	0,064
-631,780	-84,161	0,099	-0,023
-630,765	-116,002	-0,073	0,010
-629,751	344,332	-0,056	-0,081
-628,736	-200,000	-0,008	-0,126
-627,722	-91,943	-0,041	-0,009
-626,707	49,471	-0,057	-0,040
-625,692	79,708	-0,061	0,048
-624,678	-200,000	-0,001	-0,062
-623,663	800,000	0,009	-0,026
-622,649	18,973	-0,173	-0,102
-621,634	360,143	-0,099	-0,148
-620,619	-200,000	0,010	-0,045
-619,605	29,645	0,068	-0,043
-618,590	-31,971	-0,148	-0,061
-617,576	338,094	0,021	0,031
-616,561	800,000	0,025	-0,054
-615,546	230,301	0,050	0,060
-614,532	-53,805	-0,079	-0,027
-613,517	125,085	-0,056	-0,052
-612,503	58,665	0,043	0,031
-611,488	-139,798	0,105	0,008
-610,474	-98,098	0,027	-0,005
-609,459	294,746	0,042	0,057
-608,444	-200,000	-0,007	0,141
-607,430	426,106	-0,053	-0,085
-606,415	95,455	0,077	0,065
-605,401	307,841	-0,045	-0,062
-604,386	17,943	0,079	0,046
-603,371	-200,000	0,063	0,237
-602,357	-200,000	0,004	-0,016
-601,342	800,000	0,023	-0,064
-600,328	676,000	0,014	0,028
-599,313	-37,672	0,021	-0,008
-598,298	-200,000	-0,002	-0,014
-597,284	-51,362	0,168	-0,058
-596,269	-200,000	-0,061	0,204
-595,255	407,955	0,091	0,143
-594,240	60,024	-0,033	0,024
-593,225	582,480	-0,062	-0,113
-592,211	-200,000	0,006	-0,072
-591,196	-200,000	-0,002	-0,141
-590,182	403,645	0,065	0,101
-589,167	800,000	-0,008	0,025
-588,152	800,000	-0,036	0,083
-587,138	300,575	-0,020	-0,027
-586,123	-99,019	-0,163	0,030
-585,109	134,581	0,043	0,041
-584,094	-87,159	0,021	-0,005
-583,079	-200,000	0,040	0,188
-582,065	-35,145	-0,062	-0,025
-581,050	-34,374	0,113	0,046
-580,036	-186,671	-0,070	0,001
-579,021	312,742	0,050	0,070
-578,006	16,491	0,075	-0,044
-576,992	800,000	0,010	-0,021
-575,977	59,527	0,104	-0,076
-574,963	770,273	-0,036	0,073
-573,948	-60,282	0,056	-0,018
-572,934	-200,000	-0,013	0,141
-571,919	-82,208	-0,152	-0,036
-570,904	389,136	0,073	0,112
-569,890	-125,002	-0,074	-0,008
-568,875	597,154	-0,048	0,088
-567,861	-11,177	0,083	0,040
-566,846	-200,000	-0,031	-0,102
-565,831	227,418	0,018	-0,021
-564,817	800,000	-0,010	-0,029
-563,802	28,979	0,053	0,033
-562,788	274,150	-0,037	0,049
-561,773	800,000	-0,010	0,026
-560,758	-91,365	-0,090	-0,019
-559,744	33,977	0,040	-0,026
-558,729	-200,000	0,002	-0,022
-557,715	30,400	0,117	0,074
-556,700	-200,000	0,007	0,042
-555,685	-124,922	-0,152	0,017
-554,671	109,666	-0,177	-0,157
-553,656	108,578	-0,030	0,027
-552,642	-200,000	0,003	0,024
-551,627	800,000	-0,017	-0,039
-550,612	-46,810	-0,055	0,020
-549,598	674,972	-0,040	0,076
-548,583	-200,000	-0,013	-0,122
-547,569	-9,298	0,022	-0,011
-546,554	-92,268	-0,018	0,004
-545,539	-94,334	-0,107	0,021
-544,525	415,167	0,101	0,160
-543,510	800,000	0,036	-0,076
-542,496	-200,000	-0,006	0,054
-541,481	-21,499	-0,208	0,093
-540,466	-3,678	0,089	-0,045
-539,452	-200,000	0,001	0,005
-538,437	-133,259	-0,028	-0,003
-537,423	800,000	0,093	0,195
-536,408	-64,839	-0,091	0,027
-535,393	198,597	0,048	0,054
-534,379	800,000	-0,009	-0,023
-533,364	800,000	0,037	0,093
-532,350	-200,000	-0,007	0,055
-531,335	184,463	-0,096	-0,105
-530,321	252,557	0,040	0,051
-529,306	281,755	-0,043	0,058
-528,291	-200,000	-0,001	-0,241
-527,277	669,599	0,050	-0,096
-526,262	242,067	-0,093	0,114
-525,248	164,146	-0,024	0,024
-524,233	13,179	0,116	-0,066
-523,218	130,399	-0,034	0,032
-522,204	204,043	0,040	-0,045
-521,189	-65,724	-0,135	-0,040
-520,175	-70,131	-0,059	-0,016
-519,160	-117,906	0,078	-0,010
-518,145	-148,270	0,105	-0,006
-517,131	-200,000	-0,011	0,091
-516,116	-61,844	-0,156	-0,048
-515,102	132,325	0,084	0,079
-514,087	-200,000	0,008	-0,095
-513,072	-131,656	-0,174	0,017
-512,058	-200,000	0,006	-0,073
-511,043	800,000	0,036	0,080
-510,029	-200,000	-0,000	0,092
-509,014	-133,075	-0,045	0,004
-507,999	-200,000	-0,007	0,170
-506,985	-200,000	-0,006	0,051
-505,970	597,177	-0,107	-0,196
-504,956	152,470	0,045	0,045
-503,941	359,565	-0,039	0,058
-502,926	-200,000	-0,005	0,122
-501,912	31,379	-0,105	0,066
-500,897	588,270	-0,026	-0,048
-499,883	-22,716	-0,099	-0,044
-498,868	800,000	0,013	-0,030
-497,853	-200,000	-0,021	-0,095
-496,839	72,871	-0,045	-0,034
-495,824	21,130	-0,109	-0,065
-494,810	38,971	-0,052	-0,034
-493,795	800,000	0,050	0,161
-492,781	227,969	-0,076	-0,092
-491,766	19,371	-0,116	0,069
-490,751	651,426	-0,039	-0,073
-489,737	-200,000	-0,006	-0,093
-488,722	-200,000	0,038	0,150
-487,708	-200,000	-0,040	0,132
-486,693	-153,642	0,036	0,002
-485,678	-127,139	-0,046	0,005
-484,664	422,623	0,049	-0,077
-483,649	800,000	-0,022	0,062
-482,635	91,643	-0,117	0,097
-481,620	-119,736	0,077	0,010
-480,605	101,281	0,025	0,021
-479,591	65,490	0,066	0,049
-478,576	800,000	-0,005	-0,013
-477,562	-135,093	0,037	-0,003
-476,547	-200,000	0,024	0,108
-475,532	38,934	-0,063	0,041
-474,518	-200,000	0,015	-0,134
-473,503	757,502	-0,083	0,166
-472,489	587,351	-0,062	0,113
-471,474	391,366	0,105	-0,162
-470,459	-14,307	0,042	-0,020
-469,445	20,883	-0,064	-0,038
-468,430	207,098	-0,072	0,083
-467,416	232,877	-0,078	0,094
-466,401	-200,000	0,005	0,026
-465,386	800,000	-0,025	0,073
-464,372	24,244	0,078	0,047
-463,357	-4,606	-0,063	-0,032
-462,343	-68,387	-0,054	-0,015
-461,328	44,542	-0,021	0,014
-460,313	-154,858	0,103	-0,005
-459,299	800,000	-0,028	0,082
-458,284	41,767	0,142	-0,094
-457,270	-200,000	-0,008	0,176
-456,255	-200,000	-0,016	-0,085
-455,241	800,000	0,028	-0,060
-454,226	-200,000	0,003	-0,070
-453,211	800,000	0,029	-0,072
-452,197	652,927	-0,031	0,058
-451,182	334,666	-0,017	0,024
-450,168	472,538	0,024	0,040
-449,153	191,297	0,060	0,067
-448,138	800,000	-0,024	-0,052
-447,124	15,212	-0,072	0,041
-446,109	-77,210	0,056	0,014
-445,095	111,520	0,031	0,027
-444,080	143,868	-0,105	0,103
-443,065	800,000	0,036	-0,073
-442,051	30,666	0,051	-0,032
-441,036	512,244	0,086	-0,149
-440,022	-200,000	-0,024	0,105
-439,007	9,841	0,105	0,059
-437,992	-75,365	0,138	-0,036
-436,978	-200,000	0,002	-0,111
-435,963	-200,000	-0,006	0,047
-434,949	-85,649	-0,063	-0,014
-433,934	800,000	-0,037	-0,079
-432,919	-200,000	-0,008	0,044
-431,905	83,410	0,119	-0,095
-430,890	-121,378	0,094	0,011
-429,876	-106,261	0,151	0,025
-428,861	285,804	0,083	0,110
-427,846	800,000	-0,043	-0,113
-426,832	653,849	0,053	0,101
-425,817	-143,436	0,124	-0,009
-424,803	-200,000	-0,003	-0,028
-423,788	-91,354	-0,063	-0,013
-422,773	-200,000	0,006	0,046
-421,759	-160,197	0,079	0,003
-420,744	-200,000	0,017	0,069
-419,730	800,000	0,012	0,026
-418,715	203,036	-0,089	0,101
-417,701	800,000	0,021	-0,060
-416,686	123,906	-0,108	-0,100
-415,671	251,318	-0,092	-0,115
-414,657	-194,957	0,120	0,001
-413,642	-169,268	-0,023	0,001
-412,628	149,466	-0,082	-0,082
-411,613	181,898	-0,054	-0,059
-410,598	183,105	0,026	-0,029
-409,584	504,536	-0,063	-0,108
-408,569	800,000	-0,044	0,132
-407,555	306,138	-0,017	-0,023
-406,540	126,146	0,070	0,065
-405,525	-200,000	-0,056	-0,188
-404,511	338,436	0,105	-0,150
-403,496	607,674	0,037	-0,067
-402,482	267,820	-0,084	0,109
-401,467	-120,531	0,078	-0,010
-400,452	-74,579	0,021	-0,005
-399,438	800,000	-0,033	0,105
-398,423	-97,920	0,103	-0,019
-397,409	-160,376	-0,096	-0,004
-396,394	130,771	-0,043	-0,041
-395,379	13,897	-0,061	0,035
-394,365	76,917	0,072	-0,056
-393,350	-24,991	0,089	0,039
-392,336	27,260	0,122	-0,075
-391,321	227,870	-0,057	-0,068
-390,306	800,000	-0,017	-0,039
-389,292	-141,026	-0,088	-0,007
-388,277	-200,000	-0,012	-0,093
-387,263	756,338	0,032	-0,064
-386,248	-200,000	-0,020	-0,072
-385,233	251,938	0,046	0,058
-384,219	336,793	-0,088	-0,126
-383,204	122,583	0,060	-0,055
-382,190	800,000	-0,050	-0,123
-381,175	-200,000	0,026	-0,191
-380,160	800,000	-0,058	-0,132
-379,146	-200,000	0,026	0,117
-378,131	-163,899	0,206	0,007
-377,117	-200,000	0,005	0,082
-376,102	415,979	-0,095	-0,149
-375,088	-83,946	0,123	0,029
-374,073	-200,000	-0,023	-0,091
-373,058	477,789	0,049	-0,082
-372,044	-200,000	0,029	-0,103
-371,029	800,000	0,013	-0,030
-370,015	-75,690	-0,118	0,030
-369,000	376,295	-0,031	0,046
-367,985	-108,290	-0,131	-0,021
-366,971	447,763	-0,014	0,023
-365,956	800,000	-0,029	-0,065
-364,942	-200,000	0,031	-0,109
-363,927	426,648	-0,054	-0,086
-362,912	-200,000	-0,030	-0,097
-361,898	152,066	-0,085	-0,085
-360,883	-200,000	0,029	-0,126
-359,869	-200,000	-0,023	-0,096
-358,854	149,125	-0,139	-0,138
-357,839	142,865	-0,071	-0,069
-356,825	-171,492	0,079	0,002
-355,810	800,000	0,017	0,047
-354,796	736,721	-0,063	0,125
-353,781	331,601	0,027	0,039
-352,766	12,148	0,137	0,077
-351,752	88,369	-0,076	0,062
-350,737	141,417	0,077	0,075
-349,723	36,511	0,099	0,064
-348,708	-13,906	0,077	0,036
-347,693	-184,289	-0,073	-0,001
-346,679	-200,000	0,052	-0,184
-345,664	800,000	-0,021	0,046
-344,650	376,836	-0,081	0,122
-343,635	-200,000	0,026	0,107
-342,620	-200,000	0,038	0,151
-341,606	800,000	-0,018	0,047
-340,591	155,487	0,025	0,025
-339,577	-200,000	-0,040	0,165
-338,562	75,835	-0,055	-0,043
-337,548	-162,723	0,157	0,006
-336,533	129,402	0,069	0,065
-335,518	-200,000	0,036	0,120
-334,504	119,919	0,127	0,115
-333,489	116,623	0,097	0,087
-332,475	-88,459	-0,089	0,019
-331,460	-53,195	-0,171	-0,057
-330,445	260,449	0,098	0,125
-329,431	-118,251	0,090	0,012
-328,416	25,865	0,054	0,033
-327,402	-89,824	-0,137	-0,029
-326,387	-200,000	0,011	0,066
-325,372	-45,848	-0,182	0,065
-324,358	-80,938	-0,091	-0,022
-323,343	168,427	0,113	-0,118
-322,329	114,586	-0,054	0,048
-321,314	644,469	-0,048	0,090
-320,299	800,000	0,066	-0,163
-319,285	6,851	-0,084	-0,046
-318,270	219,486	-0,102	-0,120
-317,256	-97,415	0,106	-0,020
-316,241	192,386	-0,031	-0,035
-315,226	121,097	0,058	0,053
-314,212	-200,000	-0,002	0,035
-313,197	800,000	0,022	0,054
-312,183	84,412	0,080	0,064
-311,168	-114,274	0,102	-0,014
-310,153	183,289	0,141	-0,153
-309,139	57,415	-0,031	-0,022
-308,124	-119,863	0,043	-0,005
-307,110	149,857	0,133	0,132
-306,095	-200,000	-0,000	0,033
-305,080	800,000	0,050	0,112
-304,066	-200,000	-0,012	-0,071
-303,051	139,883	-0,068	-0,066
-302,037	228,551	-0,113	-0,134
-301,022	-200,000	0,001	-0,109
-300,008	721,432	-0,048	-0,095
-298,993	1,773	0,090	-0,048
-297,978	-81,312	-0,134	0,032
-296,964	-200,000	0,024	0,198
-295,949	137,515	0,064	-0,061
-294,935	-200,000	0,049	-0,173
-293,920	614,294	-0,065	0,119
-292,905	147,901	-0,049	0,048
-291,891	-200,000	0,024	-0,096
-290,876	100,628	0,069	0,059
-289,862	-200,000	0,004	0,116
-288,847	156,281	-0,053	-0,054
-287,832	-87,571	-0,096	-0,021
-286,818	39,357	0,026	0,017
-285,803	800,000	0,009	0,021
-284,789	169,760	-0,042	-0,044
-283,774	-109,339	-0,128	-0,020
-282,759	-68,702	0,181	-0,051
-281,745	-200,000	0,010	-0,125
-280,730	150,695	0,055	-0,055
-279,716	522,782	-0,024	-0,041
-278,701	707,079	0,035	0,069
-277,686	654,162	0,043	-0,081
-276,672	-200,000	0,020	-0,074
-275,657	209,109	-0,048	-0,055
-274,643	38,227	-0,116	-0,075
-273,628	-163,725	0,069	0,002
-272,613	-200,000	-0,021	-0,103
-271,599	800,000	0,033	-0,093
-270,584	-168,837	0,165	0,004
-269,570	122,565	-0,074	-0,068
-268,555	-129,155	0,073	0,007
-267,540	-200,000	-0,019	0,074
-266,526	-200,000	-0,009	-0,063
-265,511	800,000	0,003	-0,008
-264,497	800,000	0,016	-0,034
-263,482	-200,000	0,026	0,088
-262,467	-59,066	0,082	0,026
-261,453	201,264	0,074	-0,083
-260,438	216,094	-0,059	-0,069
-259,424	-200,000	-0,021	0,142
-258,409	-200,000	0,027	-0,099
-257,395	10,521	0,096	-0,053
-256,380	15,878	0,055	0,031
-255,365	-200,000	0,028	0,128
-254,351	678,921	0,074	0,142
-253,336	430,875	-0,076	-0,120
-252,322	-126,485	0,078	0,008
-251,307	-200,000	0,027	-0,147
-250,292	-200,000	-0,034	-0,229
-249,278	466,130	0,031	-0,051
-248,263	-200,000	-0,011	0,202
-247,249	50,067	0,058	-0,040
-246,234	30,940	-0,175	0,109
-245,219	-200,000	-0,021	0,148
-244,205	-200,000	-0,003	-0,058
-243,190	800,000	-0,036	-0,080
-242,176	800,000	0,041	0,131
-241,161	104,720	0,047	0,040
-240,146	458,692	0,052	0,084
-239,132	-200,000	0,005	0,094
-238,117	86,264	0,016	0,013
-237,103	159,656	-0,057	0,058
-236,088	800,000	0,025	-0,052
-235,073	-9,247	-0,053	-0,026
-234,059	-4,973	0,137	0,068
-233,044	122,740	0,100	-0,092
-232,030	4,916	0,108	0,058
-231,015	-200,000	-0,107	0,000
-230,000	-200,000	-0,022	-0,084
-228,986	800,000	-0,017	-0,053
-227,971	397,074	-0,100	0,153
-226,957	127,293	0,157	0,146
-225,942	623,866	0,029	0,054
-224,927	-66,245	0,176	0,051
-223,913	-200,000	-0,036	0,160
-222,898	800,000	-0,021	-0,055
-221,884	428,394	-0,016	0,025
-220,869	800,000	0,019	-0,040
-219,855	40,814	0,026	-0,017
-218,840	182,119	0,072	-0,077
-217,825	-10,237	-0,232	-0,112
-216,811	3,674	-0,119	-0,063
-215,796	-166,278	-0,090	0,003
-214,782	800,000	-0,023	0,053
-213,767	569,611	0,025	0,045
-212,752	800,000	0,029	-0,083
-211,738	800,000	-0,037	-0,106
-210,723	71,394	-0,077	0,058
-209,709	-200,000	-0,004	-0,031
-208,694	48,738	-0,070	-0,048
-207,679	-11,727	-0,057	-0,027
-206,665	-57,075	0,123	0,039
-205,650	234,989	-0,047	0,056
-204,636	218,554	0,063	0,073
-203,621	639,816	0,012	-0,022
-202,606	800,000	-0,011	-0,035
-201,592	-133,972	-0,076	-0,007
-200,577	680,493	-0,039	-0,075
-199,563	504,113	0,074	-0,126
-198,548	-200,000	-0,019	0,100
-197,533	591,438	0,074	-0,133
-196,519	-115,115	-0,062	0,008
-195,504	-61,244	-0,067	0,021
-194,490	270,381	-0,009	-0,012
-193,475	-75,564	0,058	0,015
-192,460	124,338	-0,067	-0,062
-191,446	307,941	0,059	-0,081
-190,431	99,938	0,051	-0,043
-189,417	-63,664	0,207	0,061
-188,402	-147,825	0,026	-0,002
-187,387	-147,458	-0,062	-0,004
-186,373	80,378	0,070	-0,055
-185,358	29,549	-0,082	0,051
-184,344	800,000	0,082	0,246
-183,329	30,745	0,066	0,041
-182,315	-200,000	-0,017	-0,059
-181,300	328,912	-0,078	0,109
-180,285	-105,414	-0,126	-0,021
-179,271	800,000	0,012	-0,029
-178,256	-34,004	-0,128	0,051
-177,242	198,907	0,033	0,037
-176,227	-200,000	0,011	0,040
-175,212	207,184	0,032	-0,037
-174,198	300,544	0,039	0,053
-173,183	800,000	-0,026	-0,075
-172,169	59,568	-0,025	0,018
-171,154	-200,000	0,013	-0,082
-170,139	-83,924	-0,044	-0,010
-169,125	-90,449	-0,043	0,009
-168,110	169,765	0,071	0,074
-167,096	-200,000	-0,021	0,078
-166,081	216,928	-0,098	-0,114
-165,066	-200,000	-0,037	-0,126
-164,052	741,826	0,013	-0,025
-163,037	466,252	0,067	0,110
-162,023	593,593	-0,057	0,103
-161,008	-36,345	0,030	0,012
-159,993	98,711	0,091	0,076
-158,979	386,759	0,037	0,056
-157,964	-136,000	0,168	-0,014
-156,950	800,000	0,008	0,025
-155,935	-16,361	0,066	-0,031
-154,920	81,750	0,093	-0,073
-153,906	62,085	0,035	0,025
-152,891	25,864	-0,036	-0,022
-151,877	210,767	-0,042	0,048
-150,862	800,000	0,026	0,074
-149,847	-126,097	0,144	-0,015
-148,833	361,058	0,063	-0,093
-147,818	201,148	0,047	-0,053
-146,804	-16,846	0,047	0,022
-145,789	52,244	-0,055	0,038
-144,775	-94,414	0,080	-0,016
-143,760	-200,000	0,014	-0,135
-142,745	289,161	-0,014	-0,018
-141,731	-1,709	-0,007	0,004
-140,716	65,563	-0,059	0,043
-139,702	-200,000	0,064	-0,000
-138,687	-200,000	-0,003	0,096
-137,672	577,015	-0,058	-0,104
-136,658	-143,898	-0,117	0,008
-135,643	-39,929	0,105	0,040
-134,629	-82,366	-0,053	0,013
-133,614	800,000	0,016	0,044
-132,599	-17,067	0,039	-0,018
-131,585	106,187	0,136	0,117
-130,570	181,249	0,013	0,014
-129,556	85,569	-0,146	-0,116
-128,541	169,034	-0,054	-0,056
-127,526	-200,000	0,029	0,160
-126,512	209,826	0,075	-0,085
-125,497	506,044	0,082	0,139
-124,483	54,544	-0,111	0,078
-123,468	-25,451	0,034	0,014
-122,453	-200,000	0,039	-0,149
-121,439	550,905	0,038	-0,066
-120,424	-200,000	-0,038	-0,154
-119,410	374,509	0,071	0,105
-118,395	800,000	0,018	0,040
-117,380	-101,361	-0,027	-0,005
-116,366	10,071	0,074	0,041
-115,351	-200,000	-0,034	-0,150
-114,337	-200,000	0,009	-0,116
-113,322	800,000	-0,026	0,058
-112,307	-84,752	0,074	-0,017
-111,293	440,021	0,060	0,095
-110,278	310,017	-0,068	-0,092
-109,264	118,899	0,062	-0,056
-108,249	401,511	-0,034	0,052
-107,234	-138,809	0,127	0,010
-106,220	495,854	0,060	-0,100
-105,205	800,000	0,074	0,191
-104,191	-7,064	0,065	0,032
-103,176	-28,265	0,089	0,037
-102,162	-200,000	0,001	0,020
-101,147	-24,904	-0,050	0,021
-100,132	40,787	-0,067	-0,044
-99,118	-200,000	0,019	-0,179
-98,103	-179,990	0,042	-0,001
-97,089	219,262	0,041	-0,047
-96,074	167,353	0,072	0,074
-95,059	75,341	-0,085	0,065
-94,045	-200,000	0,014	-0,188
-93,030	-200,000	-0,024	-0,110
-92,016	-200,000	-0,000	-0,172
-91,001	-141,131	-0,095	0,007
-89,986	-128,585	0,053	0,005
-88,972	-135,484	0,029	0,002
-87,957	425,980	-0,036	0,057
-86,943	-200,000	0,014	-0,077
-85,928	340,537	0,031	0,044
-84,913	538,408	-0,047	0,081
-83,899	-4,171	-0,083	0,041
-82,884	-146,485	0,091	0,006
-81,870	762,150	0,014	-0,028
-80,855	-200,000	0,003	0,019
-79,840	-32,918	-0,076	0,030
-78,826	-200,000	0,012	0,087
-77,811	-121,709	-0,009	0,001
-76,797	-200,000	-0,002	-0,024
-75,782	-87,927	0,040	0,009
-74,767	-21,684	-0,148	-0,065
-73,753	260,955	0,042	0,053
-72,738	485,665	0,023	-0,038
-71,724	800,000	0,035	-0,108
-70,709	-94,158	-0,072	-0,014
-69,694	35,240	-0,072	-0,046
-68,680	332,964	0,057	-0,081
-67,665	-200,000	-0,015	-0,121
-66,651	-142,978	-0,076	-0,005
-65,636	407,483	-0,059	0,091
-64,622	-200,000	0,005	-0,068
-63,607	-200,000	-0,026	-0,088
-62,592	188,080	-0,056	0,061
-61,578	355,681	0,013	0,019
-60,563	-15,208	0,064	0,030
-59,549	-13,357	0,159	0,074
-58,534	-96,945	-1,532	-0,288
-57,519	800,000	-0,746	-1,536
-56,505	-200,000	-0,883	-4,515
-55,490	-54,886	0,611	-0,199
-54,476	800,000	4,828	11,721
-53,461	-200,000	14,170	252,944
-52,446	-200,000	695,519	2230,127
-51,432	567,673	1624,345	2869,984
-50,417	116,943	1631,181	1451,338
-49,403	72,880	1284,844	971,250
-48,388	37,448	1022,154	655,404
-47,373	23,694	980,954	583,825
-46,359	22,962	970,166	574,986
-45,344	21,872	966,053	568,969
-44,330	21,899	964,426	568,077
-43,315	21,726	963,093	566,706
-42,300	21,741	961,875	566,017
-41,286	21,702	960,979	565,339
-40,271	21,647	959,945	564,531
-39,257	21,700	959,064	564,161
-38,242	21,690	958,188	563,591
-37,227	21,694	957,301	563,060
-36,213	21,663	956,345	562,374
-35,198	21,647	955,525	561,821
-34,184	21,735	954,695	561,593
-33,169	21,625	953,972	560,791
-32,154	21,714	953,120	560,555
-31,140	21,743	951,987	559,961
-30,125	21,730	951,552	559,640
-29,111	21,760	950,609	559,159
-28,096	21,723	949,862	558,579
-27,082	21,744	949,220	558,248
-26,067	21,723	948,456	557,706
-25,052	21,672	947,827	557,154
-24,038	21,714	946,981	556,767
-23,023	21,650	946,632	556,335
-22,009	21,732	945,826	556,102
-20,994	21,719	945,125	555,625
-19,979	21,766	944,466	555,365
-18,965	21,699	943,935	554,819
-17,950	21,693	943,359	554,439
-16,936	21,581	942,686	553,666
-15,921	21,645	941,896	553,382
-14,906	21,577	941,256	552,768
-13,892	21,568	940,661	552,368
-12,877	21,544	939,904	551,825
-11,863	21,597	939,283	551,606
-10,848	21,617	938,853	551,396
-9,833	21,628	938,472	551,184
-8,819	21,591	937,723	550,607
-7,804	21,568	937,106	550,150
-6,790	21,531	936,640	549,737
-5,775	21,592	935,776	549,401
-4,760	21,568	935,280	549,013
-3,746	21,618	934,576	548,734
-2,731	21,410	933,894	547,657
-1,717	21,389	933,342	547,246
-0,702	21,395	932,613	546,815
0,313	21,258	931,911	546,800
1,327	24,099	929,978	554,532
2,342	33,276	793,416	497,460
3,356	30,774	450,752	278,825
4,371	0,885	294,774	152,420
5,386	-3,590	276,062	138,480
6,400	-4,851	270,358	134,432
7,415	-5,111	268,038	133,025
8,429	-4,970	266,837	132,547
9,444	-5,012	266,008	132,086
10,459	-5,036	265,423	131,761
11,473	-4,964	264,724	131,468
12,488	-5,063	264,199	131,106
13,502	-5,225	263,696	130,697
14,517	-5,176	263,328	130,547
15,531	-5,212	262,864	130,273
16,546	-5,022	262,555	130,280
17,561	-5,176	262,202	129,955
18,575	-4,966	261,949	130,007
19,590	-5,127	261,513	129,633
20,604	-5,139	261,386	129,549
21,619	-5,216	260,920	129,237
22,634	-4,998	260,452	129,190
23,648	-5,265	260,290	128,858
24,663	-5,088	260,124	128,923
25,677	-5,162	259,821	128,695
26,692	-5,187	259,673	128,588
27,707	-5,159	259,207	128,370
28,721	-5,068	258,873	128,275
29,736	-5,244	258,760	128,051
30,750	-5,367	258,546	127,823
31,765	-5,268	258,166	127,712
32,780	-5,332	258,059	127,591
33,794	-5,289	257,813	127,496
34,809	-4,980	257,484	127,596
35,823	-5,222	257,258	127,259
36,838	-5,227	257,007	127,119
37,853	-5,223	256,701	126,960
38,867	-5,254	256,567	126,854
39,882	-5,354	256,517	126,731
40,896	-5,425	256,067	126,434
41,911	-5,308	255,888	126,437
42,926	-5,228	255,674	126,391
43,940	-5,338	255,525	126,209
44,955	-5,270	255,163	126,079
45,969	-5,451	255,061	125,859
46,984	-5,569	254,793	125,612
47,999	-5,762	254,500	125,287
49,013	-5,823	254,220	125,085
50,028	-5,810	253,950	124,952
51,042	-6,066	253,702	124,596
52,057	-6,027	253,526	124,532
53,071	-6,013	253,392	124,467
54,086	-5,945	253,302	124,471
55,101	-5,809	252,942	124,401
56,115	-5,488	252,890	124,644
57,130	-5,323	252,880	124,771
58,144	-5,005	252,502	124,849
59,159	-5,092	252,336	124,680
60,174	-5,159	252,265	124,576
61,188	-5,105	252,015	124,488
62,203	-5,151	251,780	124,321
63,217	-5,287	251,608	124,108
64,232	-5,062	251,251	124,115
65,247	-5,116	251,033	123,950
66,261	-5,253	250,970	123,790
67,276	-5,201	250,570	123,626
68,290	-5,462	250,321	123,268
69,305	-5,573	250,111	123,058
70,320	-5,607	249,896	122,913
71,334	-5,384	249,805	123,048
72,349	-5,130	249,673	123,189
73,363	-5,174	249,678	123,142
74,378	-5,093	249,282	123,006
75,393	-5,237	249,195	122,828
76,407	-5,094	248,852	122,771
77,422	-4,969	248,589	122,737
78,436	-5,056	248,495	122,606
79,451	-5,088	248,227	122,435
80,466	-5,315	248,084	122,161
81,480	-5,420	247,862	121,951
82,495	-5,513	247,685	121,775
83,509	-5,462	247,519	121,725
84,524	-5,312	247,245	121,706
85,539	-5,472	246,893	121,387
86,553	-5,555	246,804	121,262
87,568	-5,400	246,622	121,293
88,582	-5,571	246,486	121,071
89,597	-5,519	246,344	121,034
90,611	-5,469	246,187	120,989
91,626	-5,358	245,997	120,977
92,641	-5,269	245,840	120,965
93,655	-5,425	245,679	120,743
94,670	-5,237	245,358	120,733
95,684	-5,346	245,148	120,527
96,699	-5,202	245,020	120,575
97,714	-5,331	244,836	120,365
98,728	-5,564	244,630	120,058
99,743	-5,375	244,364	120,075
100,757	-5,458	244,092	119,861
101,772	-5,548	244,056	119,758
102,787	-5,530	243,726	119,600
103,801	-5,218	243,504	119,740
104,816	-5,239	243,482	119,702
105,830	-5,108	243,512	119,814
106,845	-5,109	243,219	119,658
107,860	-5,069	242,999	119,573
108,874	-5,148	242,804	119,401
109,889	-5,278	242,590	119,177
110,903	-5,319	242,447	119,062
111,918	-5,575	242,421	118,827
112,933	-5,184	242,019	118,943
113,947	-5,271	241,920	118,812
114,962	-5,295	241,776	118,710
115,976	-5,066	241,511	118,758
116,991	-5,359	241,423	118,463
118,006	-5,285	241,197	118,402
119,020	-5,297	241,037	118,304
120,035	-5,030	241,035	118,511
121,049	-4,907	240,855	118,514
122,064	-5,177	240,786	118,247
123,079	-5,357	240,517	117,957
124,093	-5,281	240,059	117,784
125,108	-5,377	239,906	117,620
126,122	-5,581	239,819	117,399
127,137	-5,636	239,644	117,259
128,151	-5,579	239,478	117,214
129,166	-5,602	239,374	117,133
130,181	-5,632	239,098	116,963
131,195	-5,509	238,911	116,961
132,210	-5,497	238,856	116,934
133,224	-5,143	238,684	117,127
134,239	-5,073	238,478	117,072
135,254	-5,275	238,393	116,857
136,268	-5,449	238,109	116,566
137,283	-5,596	237,920	116,344
138,297	-5,502	237,526	116,217
139,312	-5,648	237,429	116,040
140,327	-5,529	237,561	116,191
141,341	-5,001	237,349	116,504
142,356	-4,964	237,183	116,442
143,370	-4,827	237,112	116,508
144,385	-4,727	236,788	116,419
145,400	-4,858	236,562	116,192
146,414	-4,747	236,516	116,249
147,429	-4,976	236,348	115,971
148,443	-4,950	236,120	115,869
149,458	-4,903	235,898	115,788
150,473	-4,834	235,771	115,771
151,487	-5,082	235,780	115,566
152,502	-4,971	235,440	115,478
153,516	-5,008	235,451	115,443
154,531	-4,949	235,274	115,393
155,546	-4,918	234,971	115,260
156,560	-5,191	234,911	115,001
157,575	-5,095	234,430	114,832
158,589	-5,142	234,376	114,758
159,604	-4,985	234,335	114,853
160,619	-4,792	234,120	114,891
161,633	-4,721	233,994	114,875
162,648	-4,724	233,711	114,724
163,662	-5,175	233,842	114,419
164,677	-5,080	233,487	114,311
165,692	-4,759	233,329	114,478
166,706	-4,689	233,221	114,471
167,721	-4,922	233,247	114,288
168,735	-4,876	233,034	114,210
169,750	-4,988	232,934	114,062
170,764	-4,884	232,621	113,981
171,779	-5,082	232,525	113,767
172,794	-4,863	232,348	113,843
173,808	-5,085	232,221	113,596
174,823	-5,558	231,745	112,980
175,837	-5,685	231,696	112,847
176,852	-4,946	231,579	113,361
177,867	-4,837	231,559	113,427
178,881	-4,939	231,470	113,293
179,896	-4,757	231,304	113,344
180,910	-4,770	231,122	113,235
181,925	-4,754	230,836	113,097
182,940	-4,796	230,768	113,021
183,954	-4,737	230,625	112,987
184,969	-4,671	230,463	112,949
185,983	-4,627	230,316	112,901
186,998	-4,558	230,137	112,858
188,013	-4,796	230,109	112,648
189,027	-4,888	230,094	112,559
190,042	-4,829	229,733	112,418
191,056	-4,622	229,493	112,452
192,071	-4,988	229,462	112,142
193,086	-4,739	229,353	112,272
194,100	-4,860	228,979	111,984
195,115	-5,088	228,699	111,661
196,129	-5,483	228,508	111,252
197,144	-2,558	229,564	114,032
198,159	1,777	230,727	117,982
199,173	3,724	231,221	119,743
200,188	3,814	231,104	119,742
201,202	4,106	230,950	119,879
202,217	4,221	230,931	119,948
203,232	4,401	230,643	119,927
204,246	4,595	230,597	120,043
205,261	4,590	230,395	119,924
206,275	4,654	230,411	119,971
207,290	4,693	230,218	119,890
208,304	4,643	230,095	119,776
209,319	4,558	229,916	119,607
210,334	4,396	229,738	119,378
211,348	4,453	229,364	119,217
212,363	3,978	229,170	118,740
213,377	3,902	228,887	118,524
214,392	3,762	228,806	118,363
215,407	4,004	228,633	118,449
216,421	4,055	228,427	118,371
217,436	3,857	228,246	118,115
218,450	3,778	228,104	117,970
219,465	3,499	227,920	117,650
220,480	3,568	227,965	117,716
221,494	3,541	227,757	117,577
222,509	3,616	227,713	117,602
223,523	3,797	227,482	117,611
224,538	3,750	227,283	117,462
225,553	3,739	227,210	117,404
226,567	3,936	227,066	117,470
227,582	3,948	227,068	117,469
228,596	4,007	226,973	117,455
229,611	3,843	226,756	117,207
230,626	3,624	226,347	116,819
231,640	3,577	226,288	116,742
232,655	4,111	226,207	117,096
233,669	4,251	226,269	117,224
234,684	4,265	226,129	117,152
235,699	4,107	225,831	116,867
236,713	3,894	225,726	116,641
237,728	3,680	225,498	116,350
238,742	3,637	225,281	116,195
239,757	3,881	225,147	116,300
240,772	3,771	224,985	116,124
241,786	3,714	224,785	115,967
242,801	3,777	224,929	116,078
243,815	3,958	224,655	116,063
244,830	4,196	224,491	116,147
245,844	4,054	224,161	115,860
246,859	3,981	224,039	115,732
247,874	3,873	224,027	115,634
248,888	4,063	223,875	115,688
249,903	3,938	223,727	115,507
250,917	3,987	223,564	115,449
251,932	3,787	223,396	115,202
252,947	3,659	223,193	114,991
253,961	3,629	223,056	114,888
254,976	3,706	222,887	114,848
255,990	3,793	222,876	114,897
257,005	3,945	222,631	114,874
258,020	3,970	222,519	114,825
259,034	4,139	222,521	114,942
260,049	3,885	222,442	114,702
261,063	3,835	222,260	114,560
262,078	4,135	221,996	114,637
263,093	4,141	221,922	114,593
264,107	4,272	221,744	114,589
265,122	4,123	221,598	114,392
266,136	4,413	221,427	114,509
267,151	4,207	221,325	114,293
268,166	3,845	221,128	113,912
269,180	3,520	220,811	113,499
270,195	3,614	220,714	113,508
271,209	3,661	220,618	113,483
272,224	3,481	220,641	113,352
273,239	3,934	220,431	113,569
274,253	3,800	220,192	113,337
275,268	3,553	220,085	113,090
276,282	3,467	219,808	112,874
277,297	3,629	219,694	112,924
278,312	3,595	219,601	112,842
279,326	3,910	219,579	113,052
280,341	3,710	219,391	112,798
281,355	3,675	219,274	112,702
282,370	3,620	219,165	112,596
283,384	3,599	218,858	112,412
284,399	3,546	218,580	112,221
285,414	3,432	218,573	112,124
286,428	3,626	218,521	112,229
287,443	3,836	218,526	112,376
288,457	4,014	218,364	112,412
289,472	3,924	218,076	112,188
290,487	3,418	217,849	111,692
291,501	3,278	217,737	111,523
292,516	3,238	217,652	111,441
293,530	3,329	217,625	111,483
294,545	3,483	217,436	111,488
295,560	3,606	217,121	111,407
296,574	3,495	217,070	111,289
297,589	3,476	216,988	111,223
298,603	3,858	216,958	111,476
299,618	3,829	216,877	111,403
300,633	3,986	216,698	111,414
301,647	4,000	216,529	111,328
302,662	4,110	216,475	111,370
303,676	3,959	216,208	111,114
304,691	3,831	216,143	110,978
305,706	3,961	216,047	111,013
306,720	3,966	215,911	110,936
307,735	3,636	215,649	110,554
308,749	3,715	215,360	110,452
309,764	3,780	215,402	110,511
310,779	4,077	215,338	110,682
311,793	4,158	214,958	110,535
312,808	3,979	215,054	110,446
313,822	3,885	214,868	110,273
314,837	3,864	214,749	110,187
315,852	3,628	214,427	109,843
316,866	3,665	214,468	109,881
317,881	3,877	214,359	109,967
318,895	3,972	214,178	109,933
319,910	3,689	214,006	109,632
320,925	3,374	213,875	109,330
321,939	3,118	213,728	109,063
322,954	3,540	213,483	109,229
323,968	3,657	213,529	109,326
324,983	3,886	213,354	109,389
325,997	3,929	213,309	109,387
327,012	4,008	213,098	109,325
328,027	3,974	212,989	109,236
329,041	4,212	212,858	109,327
330,056	4,271	212,710	109,283
331,070	3,757	212,488	108,795
332,085	3,533	212,358	108,561
333,100	3,943	212,189	108,754
334,114	3,891	212,088	108,657
335,129	3,729	211,939	108,456
336,143	3,478	211,786	108,191
337,158	3,479	211,669	108,123
338,173	3,625	211,461	108,109
339,187	3,482	211,371	107,953
340,202	3,422	211,257	107,843
341,216	3,630	211,044	107,871
342,231	3,403	210,952	107,654
343,246	3,567	210,753	107,659
344,260	3,593	210,734	107,657
345,275	3,787	210,540	107,685
346,289	3,846	210,539	107,716
347,304	3,955	210,277	107,649
348,319	3,819	210,132	107,470
349,333	3,766	210,032	107,372
350,348	3,826	209,877	107,325
351,362	3,878	209,848	107,337
352,377	3,799	209,766	107,230
353,392	3,640	209,677	107,065
354,406	3,633	209,544	106,982
355,421	193,086	1346,739	1430,734
356,435	154,053	1485,377	1430,830
