DTS Sentinel unit serial number:	SN410029Multiplexer serial number:	ORYXHardware model number:	OX2-SRSoftware version number:	ORYX F/W v4,00 Oryx Data Collector v3.7.2.0data status	okinstallation	B6 Nyhavnadifferential loss correction	single-endedforward channel	channel 2reverse channel	N/Adate	2023/12/10time	05:00:08forward acquisition time	300,00reverse acquisition time	0,00gamma	499,1914k internal	0,3125k external	0,3125temperature offset calibration	1,0000default loss term (dB/km)	0,3820temperature slope calibration	1,0000multiplexer offset coefficient	1,0000multiplexer slope coefficient	1,0000fibre end	0,00T internal ref (°C)	22,32T ext. ref 1 (°C)	6,38T ext. ref 2 (°C)	6,34length (m)	temperature (°C)	Stokes	anti-Stokes-744,400	-79,774	-0,063	0,016
-743,385	-89,888	-0,145	0,031
-742,371	800,000	-0,026	0,059
-741,356	79,240	-0,177	0,141
-740,342	800,000	0,014	0,036
-739,327	-26,867	-0,226	0,098
-738,312	3,854	0,036	0,020
-737,298	168,383	-0,205	0,217
-736,283	-200,000	0,020	-0,068
-735,269	-38,287	-0,245	0,096
-734,254	-200,000	-0,030	-0,128
-733,239	-116,348	-0,361	-0,049
-732,225	-48,834	0,118	0,042
-731,210	183,757	0,095	0,104
-730,196	-200,000	-0,018	-0,092
-729,181	800,000	-0,021	0,068
-728,167	-200,000	-0,050	0,168
-727,152	-37,032	0,020	-0,008
-726,137	800,000	-0,028	-0,071
-725,123	-200,000	-0,004	0,174
-724,108	-4,920	-0,033	0,017
-723,094	800,000	-0,026	-0,059
-722,079	-121,992	-0,124	-0,015
-721,064	663,996	0,084	-0,161
-720,050	-65,400	0,023	-0,007
-719,035	-133,777	-0,012	0,001
-718,021	98,100	0,012	-0,010
-717,006	45,348	-0,068	-0,046
-715,991	471,779	-0,042	-0,071
-714,977	-200,000	0,023	0,078
-713,962	416,467	0,016	0,026
-712,948	161,276	0,071	0,073
-711,933	-37,062	-0,115	-0,045
-710,918	-93,535	-0,085	-0,017
-709,904	800,000	-0,026	-0,073
-708,889	27,398	-0,054	0,034
-707,875	-196,075	-0,156	0,001
-706,860	86,041	0,106	0,087
-705,845	-171,666	0,035	-0,001
-704,831	44,144	0,049	0,033
-703,816	126,953	-0,039	0,037
-702,802	2,837	-0,026	0,014
-701,787	-165,095	-0,079	-0,003
-700,772	27,882	-0,109	-0,068
-699,758	8,546	0,127	-0,071
-698,743	36,411	0,092	0,060
-697,729	800,000	0,034	0,093
-696,714	12,511	-0,108	-0,062
-695,699	-141,080	-0,113	0,008
-694,685	800,000	-0,046	0,121
-693,670	800,000	-0,048	0,142
-692,656	-200,000	0,027	-0,149
-691,641	127,382	0,018	-0,017
-690,627	-200,000	-0,024	0,193
-689,612	-37,825	0,063	-0,025
-688,597	-200,000	0,008	-0,035
-687,583	76,162	-0,039	0,030
-686,568	800,000	0,019	-0,060
-685,554	-200,000	0,004	-0,077
-684,539	-200,000	0,006	-0,116
-683,524	127,952	-0,103	-0,097
-682,510	-200,000	0,022	0,099
-681,495	9,567	-0,037	-0,021
-680,481	800,000	-0,041	-0,119
-679,466	407,002	-0,080	-0,126
-678,451	800,000	0,031	-0,095
-677,437	-200,000	0,001	0,080
-676,422	-12,098	-0,122	0,059
-675,408	-21,803	-0,047	0,021
-674,393	179,142	-0,029	-0,032
-673,378	68,331	-0,037	-0,028
-672,364	-200,000	-0,024	-0,130
-671,349	-123,765	-0,195	-0,023
-670,335	788,515	0,049	0,100
-669,320	-200,000	0,006	-0,062
-668,305	122,010	0,077	0,072
-667,291	64,942	0,067	-0,050
-666,276	102,154	-0,082	0,071
-665,262	481,002	0,027	-0,046
-664,247	190,680	-0,050	0,056
-663,232	-131,994	-0,064	0,006
-662,218	-25,320	0,076	0,033
-661,203	138,983	-0,030	0,029
-660,189	239,425	-0,073	0,090
-659,174	800,000	-0,041	-0,099
-658,159	-200,000	0,010	-0,076
-657,145	734,016	-0,035	-0,070
-656,130	87,716	0,061	-0,050
-655,116	31,019	-0,017	-0,011
-654,101	-10,772	-0,101	-0,050
-653,086	-200,000	0,012	0,103
-652,072	-200,000	0,009	-0,218
-651,057	-200,000	0,021	-0,161
-650,043	102,225	-0,038	-0,033
-649,028	-200,000	-0,017	-0,077
-648,014	134,529	-0,135	-0,130
-646,999	800,000	0,055	-0,127
-645,984	800,000	-0,048	0,102
-644,970	800,000	0,016	-0,034
-643,955	-200,000	0,000	-0,221
-642,941	-200,000	0,009	-0,072
-641,926	-48,546	-0,075	-0,027
-640,911	-200,000	0,001	0,146
-639,897	789,461	0,030	0,062
-638,882	77,795	0,076	-0,060
-637,868	-200,000	-0,015	0,069
-636,853	179,492	-0,083	0,091
-635,838	18,646	-0,080	0,047
-634,824	-200,000	0,018	-0,143
-633,809	800,000	0,049	-0,115
-632,795	-92,403	-0,127	-0,026
-631,780	-100,293	0,062	-0,011
-630,765	-12,300	-0,052	0,025
-629,751	191,358	-0,143	0,160
-628,736	14,028	-0,037	-0,022
-627,722	38,856	0,223	-0,147
-626,707	556,179	0,050	-0,089
-625,692	-118,662	0,127	0,016
-624,678	-200,000	-0,022	-0,115
-623,663	-200,000	0,022	-0,121
-622,649	-113,595	-0,065	-0,009
-621,634	725,342	0,019	0,039
-620,619	-92,677	-0,067	-0,014
-619,605	-200,000	0,012	-0,135
-618,590	-119,769	0,143	0,018
-617,576	-42,110	0,112	-0,042
-616,561	800,000	0,058	-0,127
-615,546	-200,000	-0,017	-0,110
-614,532	-200,000	-0,004	-0,208
-613,517	-200,000	-0,025	-0,136
-612,503	-195,912	-0,112	0,001
-611,488	690,519	-0,022	-0,044
-610,474	-53,783	0,159	0,054
-609,459	-116,895	-0,108	0,015
-608,444	-50,859	-0,069	0,024
-607,430	109,748	-0,018	-0,016
-606,415	-152,026	0,047	0,003
-605,401	336,892	-0,050	0,072
-604,386	-200,000	0,011	0,098
-603,371	-200,000	0,047	0,161
-602,357	165,129	-0,020	-0,021
-601,342	800,000	0,018	0,055
-600,328	16,558	-0,109	-0,064
-599,313	438,070	-0,083	-0,134
-598,298	74,732	-0,017	-0,013
-597,284	624,482	0,050	0,094
-596,269	-200,000	0,002	0,025
-595,255	-104,381	0,142	-0,024
-594,240	138,288	-0,095	0,092
-593,225	-200,000	-0,036	0,166
-592,211	53,931	-0,085	-0,061
-591,196	87,290	0,027	0,022
-590,182	-200,000	0,018	0,063
-589,167	-200,000	0,002	-0,108
-588,152	-200,000	-0,028	0,099
-587,138	-200,000	0,011	-0,076
-586,123	55,171	-0,107	0,077
-585,109	31,238	0,050	-0,031
-584,094	76,378	-0,053	0,041
-583,079	-154,667	0,066	-0,003
-582,065	159,031	0,096	-0,099
-581,050	135,104	0,057	0,055
-580,036	450,673	0,064	-0,104
-579,021	644,077	-0,027	-0,050
-578,006	15,531	0,035	-0,020
-576,992	262,019	0,011	-0,015
-575,977	-23,070	-0,065	0,029
-574,963	-193,026	0,077	0,000
-573,948	165,460	-0,008	0,008
-572,934	621,119	0,063	-0,117
-571,919	-37,037	-0,059	0,023
-570,904	-174,183	-0,090	0,002
-569,890	-62,802	0,051	-0,016
-568,875	-147,834	-0,120	0,007
-567,861	213,970	0,110	0,129
-566,846	-200,000	0,025	0,083
-565,831	-200,000	-0,017	0,112
-564,817	-67,152	0,036	-0,011
-563,802	800,000	0,014	0,041
-562,788	-71,488	-0,023	0,006
-561,773	800,000	0,034	-0,073
-560,758	74,443	0,076	-0,059
-559,744	51,683	0,059	-0,041
-558,729	469,048	-0,066	0,109
-557,715	117,967	-0,093	0,085
-556,700	411,798	-0,062	0,098
-555,685	267,703	0,125	0,162
-554,671	-200,000	-0,025	-0,094
-553,656	20,648	-0,145	0,087
-552,642	213,739	-0,072	0,084
-551,627	-141,774	-0,036	0,003
-550,612	-121,093	-0,140	-0,017
-549,598	15,095	-0,041	-0,024
-548,583	-200,000	0,004	-0,059
-547,569	-89,239	0,081	-0,018
-546,554	-73,921	0,062	0,016
-545,539	-88,954	-0,067	-0,015
-544,525	196,901	-0,106	0,119
-543,510	696,408	-0,052	-0,102
-542,496	415,729	0,009	-0,015
-541,481	-78,283	-0,021	0,005
-540,466	-101,340	0,188	0,034
-539,452	730,508	0,047	-0,094
-538,437	353,999	-0,024	0,035
-537,423	557,589	0,061	0,109
-536,408	85,151	0,066	-0,053
-535,393	-200,000	-0,007	-0,175
-534,379	800,000	-0,056	-0,169
-533,364	-21,736	-0,058	-0,026
-532,350	218,739	0,010	-0,012
-531,335	510,948	0,076	0,131
-530,321	800,000	-0,033	0,107
-529,306	386,773	0,089	0,136
-528,291	800,000	-0,044	-0,131
-527,277	92,322	0,172	-0,143
-526,262	-20,759	-0,068	-0,031
-525,248	-49,388	0,105	0,037
-524,233	-44,150	0,119	-0,044
-523,218	-32,650	-0,136	0,056
-522,204	376,135	0,024	-0,036
-521,189	-33,361	-0,145	-0,059
-520,175	-153,176	-0,198	-0,010
-519,160	468,010	-0,063	-0,105
-518,145	121,927	0,081	-0,075
-517,131	-124,110	-0,064	0,007
-516,116	327,298	0,073	0,104
-515,102	81,468	-0,067	-0,054
-514,087	453,827	0,064	0,105
-513,072	-119,261	0,144	0,018
-512,058	647,797	0,023	-0,045
-511,043	663,005	0,043	-0,082
-510,029	-116,367	-0,076	-0,010
-509,014	-200,000	-0,004	0,135
-507,999	-37,206	0,105	0,041
-506,985	-106,822	-0,160	0,026
-505,970	326,085	-0,101	0,143
-504,956	-94,020	0,110	-0,022
-503,941	239,112	-0,033	-0,040
-502,926	-200,000	-0,009	-0,072
-501,912	-109,519	-0,030	0,005
-500,897	800,000	-0,013	-0,041
-499,883	-200,000	-0,047	0,207
-498,868	-200,000	-0,036	-0,149
-497,853	-14,658	-0,046	-0,022
-496,839	-200,000	-0,001	-0,015
-495,824	657,400	-0,112	0,214
-494,810	127,001	0,012	0,011
-493,795	800,000	-0,041	0,093
-492,781	742,563	0,016	0,033
-491,766	40,882	0,030	-0,020
-490,751	800,000	-0,032	-0,068
-489,737	-200,000	-0,001	-0,092
-488,722	-29,771	0,107	0,045
-487,708	-200,000	-0,014	0,055
-486,693	-127,673	0,049	0,005
-485,678	-84,626	-0,068	-0,016
-484,664	278,596	-0,030	-0,040
-483,649	-98,077	-0,140	-0,026
-482,635	767,330	0,056	0,112
-481,620	427,174	-0,064	0,103
-480,605	800,000	0,038	-0,123
-479,591	-50,382	0,042	0,015
-478,576	126,658	-0,071	0,067
-477,562	257,311	0,016	-0,020
-476,547	259,026	-0,016	-0,021
-475,532	-200,000	0,001	-0,005
-474,518	-113,657	0,070	-0,010
-473,503	800,000	0,033	0,086
-472,489	137,297	0,064	0,061
-471,474	-89,372	-0,073	-0,016
-470,459	304,887	-0,021	0,029
-469,445	800,000	-0,018	-0,043
-468,430	-200,000	0,041	-0,133
-467,416	-125,564	0,136	0,015
-466,401	-55,285	0,121	-0,040
-465,386	237,948	0,058	0,072
-464,372	-159,041	0,031	-0,001
-463,357	454,742	0,029	0,047
-462,343	-7,084	0,028	-0,014
-461,328	196,980	-0,040	-0,045
-460,313	457,403	-0,059	-0,096
-459,299	-200,000	-0,003	-0,056
-458,284	650,169	-0,067	0,127
-457,270	-75,882	0,101	0,026
-456,255	-200,000	0,010	-0,105
-455,241	800,000	0,030	-0,093
-454,226	11,383	0,064	-0,036
-453,211	-200,000	-0,013	-0,051
-452,197	16,097	-0,034	-0,020
-451,182	575,512	-0,022	-0,040
-450,168	-116,800	-0,120	0,016
-449,153	28,571	-0,136	-0,084
-448,138	319,578	-0,029	0,040
-447,124	800,000	-0,047	-0,097
-446,109	276,180	-0,043	-0,056
-445,095	30,047	0,063	-0,039
-444,080	-200,000	0,024	0,190
-443,065	-106,007	0,116	-0,019
-442,051	606,663	-0,033	0,060
-441,036	108,592	-0,088	-0,077
-440,022	90,291	-0,013	0,010
-439,007	-200,000	-0,016	-0,089
-437,992	-80,414	-0,099	0,024
-436,978	-38,008	0,164	0,064
-435,963	83,569	-0,048	0,038
-434,949	-42,499	-0,022	-0,008
-433,934	94,497	0,041	-0,034
-432,919	-200,000	0,004	-0,057
-431,905	-200,000	-0,033	0,139
-430,890	-50,446	-0,078	0,027
-429,876	-169,864	0,091	-0,002
-428,861	-200,000	0,026	0,121
-427,846	-200,000	-0,010	0,077
-426,832	-53,928	-0,130	-0,043
-425,817	75,912	-0,096	0,075
-424,803	-200,000	-0,000	0,081
-423,788	161,250	0,132	0,136
-422,773	-92,163	0,066	0,014
-421,759	-200,000	-0,013	0,056
-420,744	-100,035	-0,136	0,025
-419,730	-24,072	-0,037	0,016
-418,715	264,572	-0,030	-0,039
-417,701	-129,051	-0,009	0,001
-416,686	-200,000	0,011	-0,088
-415,671	-200,000	0,005	0,101
-414,657	800,000	-0,012	0,032
-413,642	800,000	-0,032	-0,066
-412,628	-20,350	0,077	-0,035
-411,613	122,993	-0,053	0,048
-410,598	-200,000	0,026	-0,106
-409,584	-146,957	-0,135	-0,008
-408,569	800,000	0,053	0,131
-407,555	44,389	-0,094	0,064
-406,540	-200,000	0,001	0,118
-405,525	22,233	0,027	-0,016
-404,511	-49,504	0,103	0,036
-403,496	-42,720	0,072	-0,027
-402,482	55,747	0,027	0,019
-401,467	124,927	-0,046	0,043
-400,452	66,356	0,132	0,098
-399,438	-39,026	-0,032	-0,012
-398,423	47,887	0,033	-0,023
-397,409	188,263	-0,031	-0,034
-396,394	-27,030	0,017	0,007
-395,379	68,632	-0,033	0,025
-394,365	-200,000	0,016	-0,091
-393,350	166,593	0,079	0,082
-392,336	800,000	-0,029	-0,069
-391,321	620,898	0,032	0,059
-390,306	-200,000	0,011	0,044
-389,292	-77,229	0,169	0,043
-388,277	-63,138	-0,067	0,020
-387,263	-139,873	-0,108	0,008
-386,248	-81,933	0,136	0,032
-385,233	-200,000	0,038	-0,149
-384,219	10,762	-0,082	0,046
-383,204	-78,583	0,038	0,010
-382,190	-92,678	0,057	-0,012
-381,175	-200,000	-0,009	-0,096
-380,160	184,915	-0,011	0,012
-379,146	-200,000	0,026	0,100
-378,131	320,233	0,044	-0,062
-377,117	-200,000	0,014	0,060
-376,102	-200,000	0,019	-0,123
-375,088	-200,000	-0,050	0,165
-374,073	-22,027	-0,128	0,057
-373,058	132,749	0,110	0,104
-372,044	-200,000	0,001	-0,051
-371,029	8,869	-0,113	-0,063
-370,015	-54,378	0,081	-0,027
-369,000	-200,000	-0,002	-0,064
-367,985	-200,000	-0,018	-0,090
-366,971	95,150	-0,066	-0,056
-365,956	-200,000	-0,002	-0,012
-364,942	-14,724	0,072	0,034
-363,927	800,000	0,081	0,169
-362,912	92,785	0,069	-0,057
-361,898	28,105	0,076	-0,047
-360,883	-200,000	-0,012	-0,052
-359,869	97,640	-0,052	-0,044
-358,854	792,172	0,038	0,077
-357,839	-200,000	-0,005	-0,082
-356,825	-200,000	0,007	0,112
-355,810	800,000	-0,039	0,107
-354,796	-200,000	-0,036	0,143
-353,781	800,000	0,046	0,123
-352,766	179,328	-0,055	-0,059
-351,752	-71,955	-0,048	-0,013
-350,737	346,952	0,060	0,086
-349,723	-87,397	0,116	0,026
-348,708	-76,695	0,037	0,009
-347,693	7,278	-0,115	0,063
-346,679	292,313	0,023	0,031
-345,664	800,000	0,043	-0,093
-344,650	114,710	0,015	-0,013
-343,635	9,144	-0,061	-0,034
-342,620	19,876	0,198	0,116
-341,606	523,929	0,022	-0,037
-340,591	-200,000	0,003	-0,172
-339,577	261,124	-0,065	-0,083
-338,562	248,882	-0,052	0,065
-337,548	17,485	0,088	0,051
-336,533	-174,598	0,091	0,002
-335,518	800,000	0,032	0,071
-334,504	-200,000	-0,010	0,152
-333,489	340,685	0,068	-0,098
-332,475	800,000	0,046	-0,094
-331,460	-109,963	-0,137	0,021
-330,445	800,000	-0,029	-0,078
-329,431	-129,210	0,024	0,002
-328,416	-200,000	0,002	-0,033
-327,402	-200,000	-0,060	0,205
-326,387	-200,000	0,033	-0,114
-325,372	231,748	-0,071	-0,086
-324,358	174,266	-0,018	-0,019
-323,343	557,883	-0,044	-0,079
-322,329	29,920	-0,096	-0,060
-321,314	-200,000	-0,033	0,125
-320,299	-200,000	-0,001	0,024
-319,285	-109,451	-0,081	-0,012
-318,270	731,379	-0,049	0,096
-317,256	-200,000	0,003	0,040
-316,241	-151,998	0,071	0,004
-315,226	-6,037	0,043	-0,021
-314,212	-23,811	0,115	-0,050
-313,197	-136,076	-0,058	0,005
-312,183	-200,000	-0,019	0,089
-311,168	800,000	-0,057	-0,127
-310,153	80,654	0,041	0,033
-309,139	-123,784	-0,197	-0,023
-308,124	800,000	-0,042	-0,109
-307,110	-19,804	0,154	0,069
-306,095	454,627	0,051	-0,083
-305,080	-72,445	0,038	-0,010
-304,066	122,950	-0,016	-0,014
-303,051	56,694	-0,009	0,006
-302,037	271,815	0,047	0,061
-301,022	-84,759	0,096	0,022
-300,008	-200,000	-0,009	0,101
-298,993	29,030	-0,058	0,036
-297,978	-200,000	-0,019	0,120
-296,964	177,929	-0,055	0,059
-295,949	-200,000	0,016	0,124
-294,935	-171,147	0,025	0,001
-293,920	-24,662	0,076	0,033
-292,905	-200,000	-0,001	0,042
-291,891	-86,616	0,022	0,005
-290,876	-200,000	-0,022	0,076
-289,862	556,061	0,063	0,111
-288,847	-104,698	0,089	-0,015
-287,832	212,452	-0,070	-0,081
-286,818	-14,531	0,076	-0,036
-285,803	79,678	0,082	-0,064
-284,789	364,186	0,041	-0,060
-283,774	800,000	-0,003	0,010
-282,759	771,184	0,016	0,031
-281,745	-45,512	-0,059	-0,021
-280,730	800,000	0,026	-0,073
-279,716	-81,953	0,155	-0,037
-278,701	585,672	-0,044	-0,080
-277,686	800,000	0,049	-0,103
-276,672	-32,686	-0,106	-0,043
-275,657	-200,000	0,017	-0,152
-274,643	351,264	-0,092	-0,133
-273,628	800,000	0,002	-0,005
-272,613	631,543	-0,022	0,041
-271,599	-24,511	0,104	0,045
-270,584	-126,486	0,076	-0,008
-269,570	-13,080	-0,214	-0,101
-268,555	638,659	-0,060	0,112
-267,540	99,748	0,034	0,029
-266,526	-90,791	-0,145	-0,030
-265,511	73,808	-0,055	-0,042
-264,497	800,000	-0,041	0,100
-263,482	83,562	0,065	0,052
-262,467	731,960	-0,017	-0,033
-261,453	-150,125	0,073	-0,004
-260,438	-76,048	0,020	0,005
-259,424	-200,000	0,001	0,035
-258,409	-33,122	-0,109	0,044
-257,395	-150,082	0,057	-0,003
-256,380	-65,043	0,068	-0,020
-255,365	149,100	0,009	0,009
-254,351	-134,383	0,076	0,007
-253,336	63,187	-0,152	0,111
-252,322	-200,000	-0,004	0,078
-251,307	60,735	-0,036	-0,026
-250,292	-40,065	0,121	0,046
-249,278	-59,050	0,114	-0,036
-248,263	-66,501	0,063	-0,018
-247,249	-136,298	-0,025	0,002
-246,234	519,853	0,042	0,073
-245,219	-25,783	-0,093	-0,040
-244,205	800,000	0,035	-0,086
-243,190	30,310	0,083	-0,052
-242,176	270,234	-0,019	0,024
-241,161	115,274	0,044	0,039
-240,146	-109,752	-0,092	0,014
-239,132	92,757	-0,087	-0,072
-238,117	60,510	0,129	-0,093
-237,103	-117,308	-0,142	-0,019
-236,088	161,904	-0,069	0,070
-235,073	151,501	-0,011	0,011
-234,059	-19,210	-0,004	0,002
-233,044	800,000	-0,032	-0,084
-232,030	-52,871	-0,063	-0,021
-231,015	-155,486	-0,074	-0,003
-230,000	-33,161	0,040	-0,016
-228,986	800,000	0,041	0,119
-227,971	298,594	0,081	0,109
-226,957	-24,744	0,163	0,070
-225,942	230,549	-0,025	0,030
-224,927	-200,000	-0,006	-0,097
-223,913	55,607	-0,057	-0,040
-222,898	-200,000	-0,006	-0,067
-221,884	-200,000	-0,026	0,186
-220,869	137,509	-0,116	0,111
-219,855	-134,922	0,130	-0,011
-218,840	531,640	-0,016	-0,027
-217,825	84,892	0,092	-0,073
-216,811	-149,268	-0,085	0,005
-215,796	800,000	-0,031	0,088
-214,782	782,542	-0,094	-0,188
-213,767	-200,000	0,004	0,048
-212,752	800,000	0,022	0,056
-211,738	23,483	-0,055	-0,033
-210,723	175,629	-0,047	-0,050
-209,709	608,085	-0,020	0,037
-208,694	179,605	-0,073	-0,078
-207,679	-91,758	0,104	-0,021
-206,665	41,347	-0,043	0,029
-205,650	-184,277	-0,070	0,001
-204,636	-200,000	0,018	0,072
-203,621	100,235	-0,071	0,060
-202,606	75,354	-0,026	-0,020
-201,592	800,000	-0,019	0,047
-200,577	351,603	0,022	-0,032
-199,563	-91,108	0,022	-0,005
-198,548	-38,455	0,033	-0,013
-197,533	-5,793	0,057	0,029
-196,519	391,239	-0,057	-0,087
-195,504	723,742	-0,061	0,119
-194,490	204,557	0,047	-0,053
-193,475	-141,796	-0,167	0,012
-192,460	-60,685	0,077	0,024
-191,446	-53,944	0,117	-0,039
-190,431	69,828	0,097	0,073
-189,417	381,487	-0,051	-0,076
-188,402	75,590	-0,030	-0,023
-187,387	800,000	0,015	-0,043
-186,373	247,028	-0,077	-0,095
-185,358	-161,737	0,087	-0,003
-184,344	59,679	-0,067	0,048
-183,329	-103,012	0,089	-0,015
-182,315	-168,216	-0,122	0,003
-181,300	-20,042	0,024	-0,011
-180,285	-139,582	0,092	0,007
-179,271	206,104	-0,085	-0,097
-178,256	268,977	0,066	-0,085
-177,242	-79,285	0,031	-0,008
-176,227	717,391	0,048	0,094
-175,212	800,000	0,014	0,039
-174,198	800,000	-0,068	0,158
-173,183	117,840	0,059	0,053
-172,169	-117,161	0,078	-0,010
-171,154	53,104	-0,089	-0,062
-170,139	-107,163	0,103	-0,016
-169,125	-38,665	0,100	0,038
-168,110	-200,000	0,009	0,134
-167,096	98,184	-0,087	0,073
-166,081	233,119	-0,035	-0,042
-165,066	800,000	-0,003	-0,008
-164,052	387,677	-0,104	-0,157
-163,037	525,082	0,045	-0,078
-162,023	800,000	0,024	0,052
-161,008	-200,000	0,021	0,118
-159,993	-200,000	-0,022	0,098
-158,979	800,000	0,070	-0,205
-157,964	-200,000	-0,048	-0,174
-156,950	800,000	0,022	-0,069
-155,935	-151,767	0,079	0,004
-154,920	6,847	0,094	-0,051
-153,906	-200,000	0,031	-0,107
-152,891	-116,731	-0,102	0,013
-151,877	800,000	-0,055	-0,166
-150,862	800,000	-0,071	-0,148
-149,847	410,482	0,060	-0,093
-148,833	-151,371	0,066	-0,004
-147,818	140,964	-0,036	0,035
-146,804	23,759	-0,019	0,011
-145,789	726,973	0,017	-0,033
-144,775	-168,458	-0,077	0,002
-143,760	-200,000	0,060	-0,197
-142,745	675,905	-0,081	-0,153
-141,731	-200,000	0,032	0,133
-140,716	308,934	0,026	0,036
-139,702	800,000	0,070	0,146
-138,687	-29,337	-0,089	-0,037
-137,672	49,822	-0,068	0,047
-136,658	-26,963	-0,117	-0,050
-135,643	800,000	-0,022	-0,068
-134,629	800,000	-0,004	0,011
-133,614	21,724	0,115	-0,068
-132,599	800,000	0,041	0,096
-131,585	29,084	0,111	0,068
-130,570	242,817	0,014	0,017
-129,556	-179,139	0,039	-0,001
-128,541	-200,000	0,022	-0,078
-127,526	-36,754	-0,111	0,043
-126,512	313,374	0,025	0,035
-125,497	-200,000	-0,017	0,068
-124,483	135,347	0,048	0,045
-123,468	-200,000	-0,001	0,021
-122,453	-111,191	-0,104	-0,015
-121,439	355,339	-0,011	-0,016
-120,424	233,095	-0,050	-0,060
-119,410	-200,000	0,003	0,017
-118,395	254,912	0,050	-0,062
-117,380	589,581	-0,050	0,090
-116,366	-99,847	-0,040	-0,007
-115,351	-200,000	0,012	-0,159
-114,337	14,853	-0,078	-0,044
-113,322	-101,641	0,114	-0,020
-112,307	297,810	-0,056	-0,075
-111,293	-200,000	0,009	-0,051
-110,278	170,028	-0,046	0,048
-109,264	-200,000	-0,017	0,155
-108,249	175,685	-0,123	0,130
-107,234	82,241	0,061	0,048
-106,220	-23,036	-0,080	0,035
-105,205	-18,267	-0,053	-0,024
-104,191	14,141	-0,084	0,048
-103,176	800,000	-0,039	0,104
-102,162	81,840	0,060	0,047
-101,147	-200,000	0,024	0,102
-100,132	-107,506	-0,065	-0,010
-99,118	-20,808	-0,062	-0,027
-98,103	148,599	-0,102	0,100
-97,089	-200,000	0,034	0,173
-96,074	-200,000	0,004	0,094
-95,059	-200,000	0,006	0,021
-94,045	-200,000	0,013	0,051
-93,030	-107,186	-0,039	0,006
-92,016	315,986	-0,048	-0,066
-91,001	70,823	0,089	-0,067
-89,986	62,735	0,054	0,039
-88,972	-200,000	0,021	0,109
-87,957	211,319	-0,028	-0,032
-86,943	416,684	0,034	-0,053
-85,928	-63,961	-0,062	0,018
-84,913	-200,000	0,010	0,053
-83,899	178,933	0,031	0,033
-82,884	800,000	-0,051	0,145
-81,870	800,000	0,052	0,127
-80,855	-89,664	-0,144	0,030
-79,840	197,489	-0,014	-0,015
-78,826	-200,000	0,004	0,048
-77,811	-148,641	-0,114	0,007
-76,797	9,900	-0,022	0,012
-75,782	-200,000	0,022	0,000
-74,767	-36,114	0,109	-0,043
-73,753	-85,275	0,139	0,031
-72,738	-106,393	0,045	0,007
-71,724	91,194	-0,083	-0,068
-70,709	-130,023	0,097	-0,009
-69,694	116,289	-0,050	-0,044
-68,680	-200,000	0,007	0,099
-67,665	-200,000	0,023	0,123
-66,651	800,000	0,020	0,043
-65,636	-112,063	0,089	0,013
-64,622	-200,000	-0,016	-0,069
-63,607	-67,192	0,112	0,032
-62,592	53,846	-0,205	-0,142
-61,578	84,028	0,010	-0,008
-60,563	-114,294	0,074	0,010
-59,549	-200,000	0,023	0,115
-58,534	-117,267	-1,455	-0,189
-57,519	585,921	-0,798	-1,429
-56,505	-200,000	-0,953	-4,345
-55,490	1,520	0,536	-0,279
-54,476	800,000	4,917	11,628
-53,461	-200,000	13,708	252,916
-52,446	-200,000	689,466	2254,439
-51,432	587,248	1622,367	2907,776
-50,417	119,410	1634,625	1467,310
-49,403	73,022	1288,584	975,426
-48,388	38,043	1023,752	658,971
-47,373	24,316	981,420	586,623
-46,359	23,516	971,150	577,841
-45,344	22,586	966,927	572,271
-44,330	22,459	965,547	571,017
-43,315	22,314	964,101	569,668
-42,300	22,361	962,998	569,145
-41,286	22,356	962,071	568,559
-40,271	22,341	961,104	567,917
-39,257	22,317	960,252	567,310
-38,242	22,296	959,220	566,610
-37,227	22,336	958,408	566,238
-36,213	22,313	957,676	565,708
-35,198	22,307	956,688	565,085
-34,184	22,323	956,337	564,906
-33,169	22,319	955,248	564,227
-32,154	22,370	954,275	563,795
-31,140	22,354	953,414	563,211
-30,125	22,328	952,694	562,682
-29,111	22,356	951,957	562,312
-28,096	22,420	951,193	562,044
-27,082	22,362	950,409	561,374
-26,067	22,391	949,536	560,929
-25,052	22,406	948,819	560,532
-24,038	22,353	948,295	560,030
-23,023	22,363	947,505	559,573
-22,009	22,413	947,075	559,457
-20,994	22,431	946,444	559,119
-19,979	22,407	945,836	558,660
-18,965	22,369	945,169	558,123
-17,950	22,379	944,558	557,772
-16,936	22,312	944,004	557,208
-15,921	22,304	943,051	556,599
-14,906	22,256	942,343	556,008
-13,892	22,283	941,748	555,720
-12,877	22,297	941,193	555,415
-11,863	22,256	940,447	554,820
-10,848	22,212	940,153	554,488
-9,833	22,325	939,573	554,480
-8,819	22,276	939,245	554,111
-7,804	22,234	938,453	553,486
-6,790	22,205	937,790	552,984
-5,775	22,224	937,171	552,656
-4,760	22,278	936,414	552,358
-3,746	22,210	936,047	551,904
-2,731	22,131	935,156	551,110
-1,717	22,035	934,555	550,428
-0,702	22,055	933,763	550,004
0,313	21,919	933,211	550,081
1,327	25,052	931,314	558,759
2,342	34,660	795,905	503,086
3,356	32,725	451,288	282,319
4,371	1,670	293,407	152,625
5,386	-2,822	274,397	138,481
6,400	-4,120	268,629	134,356
7,415	-4,556	266,276	132,766
8,429	-4,199	265,012	132,450
9,444	-4,410	264,170	131,825
10,459	-4,278	263,725	131,711
11,473	-4,363	262,967	131,245
12,488	-4,461	262,407	130,865
13,502	-4,515	261,766	130,484
14,517	-4,395	261,448	130,422
15,531	-4,488	260,996	130,102
16,546	-4,558	260,653	129,856
17,561	-4,531	260,334	129,710
18,575	-4,509	259,999	129,551
19,590	-4,578	259,725	129,342
20,604	-4,436	259,198	129,194
21,619	-4,515	258,977	129,002
22,634	-4,472	258,645	128,863
23,648	-4,747	258,428	128,499
24,663	-4,767	258,267	128,390
25,677	-4,678	258,003	128,326
26,692	-4,473	257,743	128,367
27,707	-4,628	257,505	128,100
28,721	-4,435	257,088	128,052
29,736	-4,572	256,837	127,794
30,750	-4,652	256,614	127,601
31,765	-4,521	256,498	127,648
32,780	-4,762	256,261	127,306
33,794	-4,629	255,899	127,232
34,809	-4,653	255,812	127,156
35,823	-4,900	255,462	126,754
36,838	-4,783	255,232	126,731
37,853	-4,686	254,875	126,628
38,867	-4,644	254,786	126,608
39,882	-4,687	254,426	126,381
40,896	-4,597	254,351	126,412
41,911	-4,763	254,172	126,166
42,926	-4,668	253,854	126,080
43,940	-4,707	253,618	125,917
44,955	-4,931	253,458	125,632
45,969	-4,829	253,126	125,545
46,984	-4,886	252,927	125,384
47,999	-5,083	252,599	125,040
49,013	-5,494	252,407	124,577
50,028	-5,387	252,158	124,535
51,042	-5,407	251,998	124,428
52,057	-5,397	251,775	124,316
53,071	-5,422	251,408	124,102
54,086	-5,245	251,259	124,171
55,101	-5,131	251,148	124,203
56,115	-4,883	250,942	124,303
57,130	-4,565	250,927	124,559
58,144	-4,262	250,761	124,726
59,159	-4,263	250,569	124,619
60,174	-4,389	250,357	124,394
61,188	-4,683	250,274	124,089
62,203	-4,429	249,955	124,138
63,217	-4,737	249,827	123,799
64,232	-4,406	249,580	123,950
65,247	-4,502	249,381	123,757
66,261	-4,591	249,014	123,488
67,276	-4,475	248,670	123,406
68,290	-4,896	248,588	122,995
69,305	-4,721	248,352	123,016
70,320	-4,842	248,081	122,768
71,334	-4,786	248,166	122,846
72,349	-4,355	247,996	123,119
73,363	-4,358	247,746	122,981
74,378	-4,485	247,511	122,745
75,393	-4,740	247,472	122,499
76,407	-4,465	247,043	122,508
77,422	-4,272	246,839	122,559
78,436	-4,590	246,677	122,199
79,451	-4,561	246,498	122,124
80,466	-4,598	246,199	121,934
81,480	-4,836	245,934	121,591
82,495	-4,808	245,776	121,525
83,509	-4,689	245,675	121,565
84,524	-4,914	245,531	121,294
85,539	-5,017	245,392	121,127
86,553	-4,963	245,069	121,003
87,568	-4,873	244,900	120,984
88,582	-4,851	244,694	120,890
89,597	-4,895	244,521	120,757
90,611	-4,534	244,400	120,988
91,626	-4,715	244,362	120,808
92,641	-4,689	244,098	120,688
93,655	-4,667	243,857	120,576
94,670	-4,683	243,746	120,498
95,684	-4,669	243,493	120,373
96,699	-4,702	243,217	120,198
97,714	-4,693	243,137	120,155
98,728	-5,004	242,932	119,785
99,743	-5,067	242,710	119,613
100,757	-4,861	242,470	119,654
101,772	-4,905	242,266	119,507
102,787	-4,808	242,251	119,569
103,801	-4,638	241,939	119,545
104,816	-4,633	241,830	119,485
105,830	-4,433	241,637	119,544
106,845	-4,532	241,666	119,466
107,860	-4,627	241,382	119,236
108,874	-4,512	241,093	119,178
109,889	-4,597	241,015	119,058
110,903	-4,525	240,678	118,941
111,918	-4,901	240,631	118,598
112,933	-4,770	240,348	118,555
113,947	-4,755	240,314	118,540
114,962	-4,609	240,062	118,525
115,976	-4,539	239,915	118,500
116,991	-4,422	239,775	118,515
118,006	-4,586	239,557	118,263
119,020	-4,840	239,669	118,100
120,035	-4,397	239,200	118,220
121,049	-4,597	239,262	118,076
122,064	-4,380	239,005	118,117
123,079	-4,449	238,744	117,921
124,093	-4,633	238,608	117,693
125,108	-4,976	238,419	117,310
126,122	-4,966	238,126	117,164
127,137	-5,165	237,900	116,880
128,151	-5,194	237,840	116,817
129,166	-4,700	237,684	117,131
130,181	-4,798	237,431	116,916
131,195	-4,821	237,237	116,792
132,210	-4,793	237,152	116,762
133,224	-4,482	237,059	116,957
134,239	-4,507	236,753	116,776
135,254	-4,507	236,687	116,733
136,268	-4,699	236,390	116,421
137,283	-4,982	236,096	116,038
138,297	-4,818	235,967	116,096
139,312	-5,087	235,946	115,859
140,327	-4,651	235,741	116,098
141,341	-4,292	235,741	116,377
142,356	-4,203	235,650	116,392
143,370	-4,167	235,400	116,288
144,385	-4,289	235,331	116,146
145,400	-4,360	235,113	115,971
146,414	-4,376	234,904	115,844
147,429	-4,274	234,731	115,830
148,443	-4,513	234,646	115,587
149,458	-4,305	234,338	115,591
150,473	-4,123	234,181	115,648
151,487	-4,257	234,041	115,463
152,502	-4,456	233,899	115,223
153,516	-4,314	233,732	115,244
154,531	-4,300	233,452	115,107
155,546	-4,362	233,448	115,046
156,560	-4,590	233,262	114,763
157,575	-4,398	233,046	114,798
158,589	-4,278	232,781	114,753
159,604	-4,110	232,595	114,783
160,619	-4,104	232,540	114,751
161,633	-4,156	232,405	114,633
162,648	-4,195	232,274	114,527
163,662	-4,013	232,151	114,600
164,677	-4,350	232,023	114,260
165,692	-4,210	231,795	114,249
166,706	-4,206	231,799	114,243
167,721	-4,247	231,523	114,065
168,735	-4,273	231,394	113,971
169,750	-4,264	231,286	113,914
170,764	-4,309	231,065	113,760
171,779	-4,165	230,871	113,767
172,794	-4,051	230,766	113,795
173,808	-4,337	230,479	113,419
174,823	-4,809	230,256	112,930
175,837	-4,903	230,093	112,767
176,852	-4,593	230,158	113,031
177,867	-4,239	229,959	113,200
178,881	-4,244	229,834	113,124
179,896	-4,340	229,688	112,967
180,910	-4,304	229,503	112,894
181,925	-4,166	229,398	112,940
182,940	-4,217	229,217	112,801
183,954	-4,134	229,131	112,813
184,969	-4,317	229,005	112,600
185,983	-4,063	228,707	112,640
186,998	-4,210	228,632	112,479
188,013	-4,058	228,404	112,474
189,027	-3,953	228,234	112,462
190,042	-3,894	228,091	112,427
191,056	-3,993	227,955	112,273
192,071	-4,040	227,864	112,182
193,086	-4,148	227,631	111,974
194,100	-4,039	227,496	111,982
195,115	-3,948	227,177	111,885
196,129	-4,767	227,057	111,185
197,144	-2,461	227,671	113,256
198,159	0,618	228,621	116,102
199,173	3,656	229,396	118,840
200,188	4,570	229,216	119,443
201,202	4,278	229,215	119,206
202,217	4,393	228,998	119,171
203,232	4,382	229,040	119,174
204,246	4,708	228,817	119,298
205,261	4,818	228,717	119,321
206,275	4,753	228,575	119,186
207,290	4,807	228,400	119,126
208,304	4,923	228,314	119,159
209,319	4,578	228,223	118,836
210,334	4,700	228,048	118,828
211,348	4,461	227,667	118,436
212,363	4,424	227,228	118,168
213,377	3,780	227,188	117,644
214,392	4,006	227,083	117,752
215,407	3,999	227,039	117,713
216,421	4,120	226,881	117,713
217,436	4,103	226,581	117,534
218,450	3,698	226,370	117,106
219,465	3,673	226,283	117,030
220,480	3,963	226,052	117,121
221,494	3,799	226,036	116,979
222,509	4,134	225,898	117,151
223,523	3,857	225,777	116,867
224,538	3,813	225,606	116,735
225,553	3,909	225,324	116,651
226,567	3,879	225,337	116,625
227,582	4,366	225,278	116,953
228,596	4,281	225,262	116,870
229,611	4,030	225,065	116,567
230,626	3,723	224,652	116,112
231,640	3,786	224,532	116,086
232,655	4,112	224,505	116,308
233,669	4,559	224,563	116,665
234,684	4,450	224,424	116,500
235,699	4,446	224,170	116,356
236,713	4,096	223,962	115,974
237,728	3,922	223,749	115,722
238,742	3,844	223,527	115,538
239,757	3,935	223,455	115,559
240,772	3,923	223,280	115,449
241,786	3,821	223,035	115,236
242,801	3,952	223,040	115,326
243,815	4,160	222,945	115,423
244,830	4,256	222,725	115,370
245,844	4,102	222,513	115,135
246,859	3,890	222,432	114,924
247,874	4,283	222,235	115,106
248,888	4,336	222,195	115,115
249,903	4,040	221,906	114,734
250,917	3,947	221,921	114,662
251,932	3,964	221,685	114,542
252,947	4,079	221,450	114,496
253,961	3,894	221,331	114,287
254,976	3,963	221,265	114,294
255,990	4,063	221,256	114,353
257,005	4,114	220,997	114,247
258,020	4,136	220,735	114,118
259,034	4,357	220,672	114,239
260,049	4,097	220,692	114,046
261,063	4,141	220,508	113,974
262,078	4,132	220,445	113,925
263,093	4,076	220,264	113,780
264,107	4,041	220,111	113,665
265,122	4,199	219,883	113,653
266,136	4,493	219,910	113,873
267,151	4,316	219,672	113,610
268,166	4,086	219,340	113,259
269,180	3,721	219,156	112,885
270,195	3,719	219,076	112,832
271,209	3,696	218,956	112,744
272,224	3,585	218,901	112,624
273,239	3,817	218,846	112,756
274,253	3,704	218,374	112,420
275,268	3,574	218,373	112,314
276,282	3,427	218,271	112,144
277,297	3,607	218,033	112,143
278,312	3,790	217,930	112,214
279,326	3,836	217,722	112,131
280,341	3,765	217,781	112,099
281,355	3,891	217,620	112,099
282,370	4,082	217,297	112,061
283,384	3,597	217,349	111,725
284,399	3,620	217,063	111,584
285,414	3,569	216,904	111,456
286,428	3,905	216,898	111,687
287,443	4,097	216,767	111,748
288,457	4,165	216,778	111,793
289,472	3,995	216,350	111,440
290,487	3,270	216,178	110,817
291,501	3,458	215,985	110,844
292,516	3,732	215,914	110,995
293,530	3,880	215,805	111,036
294,545	3,661	215,717	110,823
295,560	3,600	215,563	110,690
296,574	3,627	215,474	110,655
297,589	3,904	215,193	110,699
298,603	3,771	215,171	110,583
299,618	3,868	215,028	110,569
300,633	3,975	214,968	110,605
301,647	4,096	214,956	110,676
302,662	4,136	214,828	110,629
303,676	4,221	214,553	110,539
304,691	4,124	214,497	110,430
305,706	4,259	214,324	110,428
306,720	4,136	214,147	110,239
307,735	4,031	214,032	110,095
308,749	3,754	213,809	109,772
309,764	4,108	213,635	109,926
310,779	4,227	213,671	110,019
311,793	3,963	213,587	109,778
312,808	4,029	213,274	109,655
313,822	4,049	213,142	109,591
314,837	4,052	212,976	109,498
315,852	3,916	212,680	109,239
316,866	3,870	212,774	109,245
317,881	4,342	212,548	109,454
318,895	4,197	212,599	109,368
319,910	3,949	212,239	108,997
320,925	3,596	212,117	108,675
321,939	3,413	211,988	108,470
322,954	3,736	211,889	108,638
323,968	4,135	211,732	108,830
324,983	3,962	211,833	108,750
325,997	4,271	211,534	108,804
327,012	4,091	211,427	108,613
328,027	4,053	211,338	108,531
329,041	4,392	211,246	108,712
330,056	4,480	211,064	108,671
331,070	3,880	210,925	108,168
332,085	3,461	210,647	107,721
333,100	3,672	210,634	107,853
334,114	4,018	210,329	107,930
335,129	4,077	210,200	107,895
336,143	3,954	210,049	107,722
337,158	3,918	210,058	107,692
338,173	3,897	209,903	107,588
339,187	3,640	209,763	107,328
340,202	3,503	209,477	107,076
341,216	3,413	209,481	107,006
342,231	3,728	209,357	107,152
343,246	3,584	209,133	106,927
344,260	3,672	209,155	106,990
345,275	3,679	209,116	106,966
346,289	4,078	208,909	107,129
347,304	4,207	208,592	107,046
348,319	3,861	208,604	106,802
349,333	3,592	208,529	106,567
350,348	4,004	208,250	106,701
351,362	3,989	208,284	106,699
352,377	4,260	207,972	106,717
353,392	4,103	207,978	106,602
354,406	3,930	207,948	106,457
355,421	194,251	1345,966	1434,874
356,435	154,989	1484,716	1434,987
