DTS Sentinel unit serial number:	SN410029Multiplexer serial number:	ORYXHardware model number:	OX2-SRSoftware version number:	ORYX F/W v4,00 Oryx Data Collector v3.7.2.0data status	okinstallation	B6 Nyhavnadifferential loss correction	single-endedforward channel	channel 2reverse channel	N/Adate	2023/12/10time	18:10:08forward acquisition time	300,00reverse acquisition time	0,00gamma	499,1914k internal	0,3123k external	0,3123temperature offset calibration	1,0000default loss term (dB/km)	0,3820temperature slope calibration	1,0000multiplexer offset coefficient	1,0000multiplexer slope coefficient	1,0000fibre end	0,00T internal ref (°C)	22,37T ext. ref 1 (°C)	5,98T ext. ref 2 (°C)	5,99length (m)	temperature (°C)	Stokes	anti-Stokes-744,400	-127,115	-0,097	-0,010
-743,385	-112,251	-0,236	0,035
-742,371	685,380	0,077	-0,151
-741,356	12,135	-0,234	0,134
-740,342	-200,000	0,018	-0,069
-739,327	-55,976	-0,253	0,084
-738,312	557,027	0,052	-0,093
-737,298	-144,201	-0,138	0,009
-736,283	800,000	0,057	-0,141
-735,269	-65,588	-0,263	0,078
-734,254	32,539	0,062	0,040
-733,239	-106,079	-0,442	-0,073
-732,225	-55,003	0,172	0,057
-731,210	672,047	0,024	0,047
-730,196	-11,057	0,058	0,028
-729,181	383,786	0,048	-0,074
-728,167	202,151	-0,039	0,045
-727,152	222,305	-0,024	0,029
-726,137	603,516	-0,015	-0,028
-725,123	10,428	-0,108	-0,061
-724,108	800,000	-0,042	-0,087
-723,094	-31,745	-0,082	-0,034
-722,079	75,087	-0,081	-0,063
-721,064	-200,000	0,009	0,043
-720,050	144,809	-0,030	-0,030
-719,035	-118,505	-0,103	-0,013
-718,021	687,037	-0,041	0,081
-717,006	755,876	-0,068	-0,138
-715,991	31,667	-0,165	-0,106
-714,977	-200,000	-0,012	-0,078
-713,962	-133,047	-0,043	0,004
-712,948	202,320	-0,065	0,074
-711,933	535,051	-0,058	0,102
-710,918	231,381	-0,025	0,031
-709,904	375,682	0,063	0,097
-708,889	82,059	-0,105	-0,085
-707,875	-12,239	-0,124	-0,060
-706,860	112,315	0,140	-0,126
-705,845	131,537	0,051	0,048
-704,831	296,040	-0,009	-0,012
-703,816	404,974	0,047	0,075
-702,802	287,116	0,038	0,051
-701,787	237,211	0,072	-0,089
-700,772	-57,972	-0,058	-0,019
-699,758	425,192	0,045	-0,072
-698,743	-200,000	0,002	-0,009
-697,729	132,774	-0,069	-0,066
-696,714	302,979	-0,035	-0,049
-695,699	7,849	-0,134	-0,074
-694,685	800,000	-0,033	-0,079
-693,670	176,690	-0,069	-0,075
-692,656	57,386	-0,053	0,039
-691,641	12,295	0,121	-0,069
-690,627	709,910	0,097	0,191
-689,612	-133,886	0,127	0,012
-688,597	-55,534	-0,082	-0,027
-687,583	604,517	-0,052	-0,096
-686,568	63,258	-0,048	0,036
-685,554	13,426	-0,066	0,038
-684,539	-40,237	0,049	0,019
-683,524	161,805	-0,084	0,088
-682,510	454,337	0,066	-0,110
-681,495	80,332	-0,173	0,138
-680,481	45,697	-0,157	0,108
-679,466	-39,801	-0,031	-0,012
-678,451	-38,577	-0,053	-0,021
-677,437	-200,000	-0,006	0,081
-676,422	319,793	0,052	0,073
-675,408	301,179	-0,052	-0,072
-674,393	-112,565	-0,092	-0,014
-673,378	-200,000	-0,006	0,113
-672,364	-89,691	0,106	-0,023
-671,349	69,578	-0,108	-0,082
-670,335	-200,000	0,037	0,133
-669,320	-37,897	-0,052	-0,020
-668,305	95,010	0,035	-0,030
-667,291	-200,000	0,011	-0,062
-666,276	-105,685	0,050	0,008
-665,262	-49,646	0,012	0,004
-664,247	134,139	0,073	0,071
-663,232	800,000	-0,029	0,071
-662,218	469,406	-0,113	0,189
-661,203	-200,000	-0,020	-0,102
-660,189	118,951	-0,049	0,045
-659,174	-200,000	-0,002	-0,134
-658,159	-104,457	-0,151	-0,026
-657,145	800,000	0,039	-0,108
-656,130	508,601	0,045	-0,078
-655,116	-200,000	0,025	0,172
-654,101	301,916	0,043	-0,059
-653,086	-200,000	-0,025	-0,142
-652,072	800,000	-0,057	-0,124
-651,057	800,000	-0,056	-0,121
-650,043	284,307	-0,118	-0,158
-649,028	349,468	-0,073	0,108
-648,014	172,966	-0,086	-0,092
-646,999	77,896	0,045	0,036
-645,984	1,737	-0,058	-0,031
-644,970	64,611	-0,085	-0,063
-643,955	351,514	0,011	-0,017
-642,941	-32,969	-0,146	-0,060
-641,926	351,002	-0,083	-0,122
-640,911	-104,543	-0,028	-0,005
-639,897	-43,145	0,088	0,033
-638,882	286,717	-0,063	0,084
-637,868	383,097	-0,108	0,166
-636,853	40,565	0,111	0,074
-635,838	350,323	-0,050	0,073
-634,824	229,840	-0,086	0,104
-633,809	237,484	0,034	-0,041
-632,795	-200,000	-0,010	0,068
-631,780	114,066	-0,134	0,121
-630,765	118,539	-0,147	-0,135
-629,751	-200,000	-0,005	-0,096
-628,736	-78,999	-0,045	-0,011
-627,722	-36,207	0,058	-0,023
-626,707	433,595	0,037	0,061
-625,692	229,964	0,069	0,084
-624,678	370,887	0,087	-0,131
-623,663	800,000	0,020	0,043
-622,649	-15,332	-0,057	-0,027
-621,634	228,396	-0,036	-0,043
-620,619	800,000	0,049	-0,108
-619,605	-200,000	-0,010	0,038
-618,590	81,492	0,065	-0,052
-617,576	250,681	0,032	0,041
-616,561	-200,000	-0,005	-0,098
-615,546	800,000	-0,033	-0,072
-614,532	-200,000	-0,010	0,038
-613,517	-200,000	0,001	0,151
-612,503	298,953	-0,060	0,082
-611,488	454,097	-0,045	0,074
-610,474	187,969	0,035	0,038
-609,459	-180,817	-0,086	0,001
-608,444	94,524	-0,117	-0,098
-607,430	97,701	0,046	0,039
-606,415	-147,820	-0,062	0,004
-605,401	198,228	0,052	-0,059
-604,386	-200,000	-0,019	0,076
-603,371	-200,000	0,030	0,113
-602,357	-200,000	0,011	0,100
-601,342	82,660	-0,030	-0,025
-600,328	36,377	-0,033	0,022
-599,313	151,558	-0,014	0,014
-598,298	157,938	0,081	-0,083
-597,284	-200,000	0,019	0,079
-596,269	-200,000	-0,011	-0,145
-595,255	-64,953	0,066	0,020
-594,240	-102,282	-0,167	0,029
-593,225	271,027	-0,125	0,164
-592,211	800,000	-0,040	-0,121
-591,196	13,651	0,039	0,022
-590,182	430,196	-0,079	0,127
-589,167	-45,300	-0,072	0,026
-588,152	-25,216	-0,042	-0,018
-587,138	77,281	0,049	-0,039
-586,123	193,815	-0,027	0,030
-585,109	-62,360	-0,094	-0,029
-584,094	-102,575	0,073	0,013
-583,079	-200,000	-0,008	0,081
-582,065	121,966	0,044	0,041
-581,050	104,235	0,008	-0,007
-580,036	800,000	-0,021	-0,046
-579,021	-200,000	-0,009	-0,090
-578,006	97,898	0,063	-0,054
-576,992	34,064	-0,054	-0,035
-575,977	-86,655	-0,012	-0,003
-574,963	11,485	0,069	-0,039
-573,948	-200,000	0,018	0,064
-572,934	313,043	-0,105	0,146
-571,919	-95,635	-0,049	-0,010
-570,904	58,652	-0,022	0,016
-569,890	356,388	-0,043	0,063
-568,875	-198,940	0,228	-0,001
-567,861	220,382	-0,034	-0,041
-566,846	-200,000	0,042	0,137
-565,831	800,000	-0,042	0,106
-564,817	22,599	-0,041	0,025
-563,802	264,854	-0,140	-0,180
-562,788	411,240	-0,074	-0,117
-561,773	-200,000	-0,024	-0,085
-560,758	-78,192	-0,029	-0,007
-559,744	-22,333	-0,136	0,061
-558,729	-200,000	-0,016	0,070
-557,715	-200,000	-0,015	-0,110
-556,700	-200,000	0,015	0,049
-555,685	450,563	0,041	-0,067
-554,671	581,024	0,066	0,121
-553,656	62,936	0,077	0,057
-552,642	-200,000	-0,002	-0,015
-551,627	-57,638	0,023	-0,007
-550,612	149,322	-0,016	0,016
-549,598	-191,867	-0,046	0,000
-548,583	49,292	0,021	-0,015
-547,569	800,000	-0,009	0,019
-546,554	-200,000	-0,016	-0,077
-545,539	-5,191	-0,115	-0,058
-544,525	156,156	0,080	-0,082
-543,510	245,802	0,058	-0,072
-542,496	-200,000	0,025	-0,088
-541,481	195,162	0,128	-0,144
-540,466	-200,000	-0,002	-0,018
-539,452	-28,098	0,212	-0,090
-538,437	106,859	-0,051	0,045
-537,423	199,718	-0,045	0,051
-536,408	317,056	-0,024	-0,034
-535,393	800,000	-0,044	-0,136
-534,379	-54,418	-0,192	-0,064
-533,364	800,000	0,037	0,114
-532,350	-63,067	0,068	-0,021
-531,335	-43,059	-0,072	0,027
-530,321	-49,073	-0,178	-0,063
-529,306	-53,695	-0,136	-0,046
-528,291	-200,000	-0,026	-0,138
-527,277	394,686	-0,056	-0,087
-526,262	-147,107	-0,129	-0,008
-525,248	-10,038	0,087	0,043
-524,233	-200,000	0,018	0,197
-523,218	77,448	-0,087	0,069
-522,204	60,588	0,044	-0,032
-521,189	-104,977	0,020	0,003
-520,175	570,934	-0,091	-0,165
-519,160	210,761	0,029	-0,034
-518,145	64,364	0,070	-0,052
-517,131	-70,498	-0,088	0,025
-516,116	-200,000	0,002	-0,085
-515,102	-200,000	0,015	0,077
-514,087	-200,000	-0,013	-0,170
-513,072	92,216	0,026	-0,022
-512,058	-37,234	-0,038	0,015
-511,043	-200,000	-0,022	0,103
-510,029	86,273	0,093	-0,076
-509,014	-200,000	-0,001	-0,032
-507,999	275,736	0,086	0,114
-506,985	-200,000	0,021	-0,153
-505,970	375,698	0,042	-0,064
-504,956	83,046	-0,098	0,078
-503,941	92,500	0,065	-0,054
-502,926	298,439	-0,058	0,079
-501,912	-37,556	-0,043	0,017
-500,897	129,873	0,088	0,083
-499,883	800,000	-0,091	-0,198
-498,868	-200,000	0,036	-0,119
-497,853	314,739	-0,042	-0,059
-496,839	-137,626	0,096	0,008
-495,824	11,599	0,136	-0,077
-494,810	135,218	0,054	-0,052
-493,795	800,000	0,051	0,106
-492,781	-172,182	-0,121	0,003
-491,766	7,367	0,138	-0,076
-490,751	-155,327	-0,248	-0,012
-489,737	-200,000	0,003	0,066
-488,722	800,000	-0,021	0,055
-487,708	800,000	-0,015	0,047
-486,693	-200,000	0,015	-0,055
-485,678	-85,735	0,071	-0,016
-484,664	66,267	-0,047	-0,035
-483,649	-42,809	-0,088	0,033
-482,635	350,061	-0,028	-0,041
-481,620	-200,000	-0,008	-0,106
-480,605	-105,743	0,156	0,026
-479,591	-200,000	-0,005	0,046
-478,576	81,510	0,082	-0,065
-477,562	149,352	0,082	-0,082
-476,547	347,183	-0,067	-0,097
-475,532	800,000	-0,023	-0,070
-474,518	225,108	0,081	0,097
-473,503	289,974	-0,057	-0,077
-472,489	-133,989	0,092	-0,008
-471,474	-200,000	0,018	-0,104
-470,459	-200,000	0,012	-0,044
-469,445	-171,343	-0,167	-0,004
-468,430	389,050	-0,045	-0,068
-467,416	800,000	0,058	0,156
-466,401	326,385	0,100	0,142
-465,386	60,872	0,074	0,054
-464,372	-200,000	0,045	0,172
-463,357	731,543	0,011	-0,022
-462,343	-68,621	-0,154	-0,044
-461,328	270,053	-0,047	-0,061
-460,313	-129,587	0,023	0,002
-459,299	-200,000	-0,028	0,097
-458,284	-200,000	0,014	0,189
-457,270	-200,000	0,004	0,025
-456,255	639,480	-0,000	-0,000
-455,241	168,529	-0,046	-0,049
-454,226	-200,000	0,019	-0,089
-453,211	33,674	0,119	0,076
-452,197	800,000	-0,074	0,170
-451,182	-5,365	0,047	-0,024
-450,168	678,879	-0,075	0,144
-449,153	-93,738	0,104	-0,021
-448,138	169,812	0,014	0,015
-447,124	800,000	-0,041	0,131
-446,109	-32,360	-0,074	-0,030
-445,095	-134,490	0,085	-0,008
-444,080	526,230	0,052	0,090
-443,065	-109,476	0,071	0,011
-442,051	371,522	-0,056	-0,083
-441,036	-72,618	-0,081	0,022
-440,022	759,586	0,072	-0,144
-439,007	-54,754	-0,061	0,020
-437,992	232,192	0,049	0,059
-436,978	-200,000	-0,035	0,141
-435,963	165,521	0,051	0,053
-434,949	-200,000	-0,015	-0,048
-433,934	-200,000	-0,020	-0,108
-432,919	-94,571	-0,079	0,016
-431,905	67,670	-0,075	-0,057
-430,890	-200,000	0,009	0,066
-429,876	-36,635	0,071	0,028
-428,861	149,325	-0,093	-0,093
-427,846	-200,000	-0,007	-0,089
-426,832	130,500	-0,102	-0,097
-425,817	545,946	0,074	-0,131
-424,803	-200,000	0,004	-0,093
-423,788	-84,877	0,051	0,012
-422,773	17,746	0,068	0,040
-421,759	27,955	0,104	-0,064
-420,744	259,803	-0,027	0,034
-419,730	800,000	-0,031	0,072
-418,715	98,874	0,081	-0,068
-417,701	188,195	-0,147	0,162
-416,686	-200,000	-0,004	0,085
-415,671	30,104	0,106	0,066
-414,657	-200,000	0,036	0,154
-413,642	-23,765	-0,114	-0,050
-412,628	800,000	-0,046	0,127
-411,613	-96,516	0,061	-0,012
-410,598	-200,000	-0,015	-0,082
-409,584	113,659	0,097	0,086
-408,569	800,000	-0,084	0,201
-407,555	-100,029	0,093	0,017
-406,540	-200,000	-0,002	0,015
-405,525	39,965	-0,042	-0,028
-404,511	800,000	-0,056	0,143
-403,496	800,000	-0,015	-0,034
-402,482	-77,810	0,051	0,013
-401,467	-200,000	0,006	0,051
-400,452	184,229	0,060	0,065
-399,438	231,808	0,059	0,071
-398,423	316,518	-0,080	0,111
-397,409	57,486	-0,092	-0,066
-396,394	39,725	0,023	0,015
-395,379	95,574	-0,037	0,031
-394,365	-200,000	-0,026	0,105
-393,350	62,765	0,049	-0,036
-392,336	115,269	-0,036	0,032
-391,321	-65,074	-0,040	-0,012
-390,306	800,000	0,048	0,135
-389,292	233,249	0,017	-0,021
-388,277	800,000	-0,017	0,046
-387,263	22,468	0,097	0,058
-386,248	200,904	0,043	0,049
-385,233	582,025	-0,063	-0,115
-384,219	-200,000	0,003	-0,136
-383,204	105,486	0,066	-0,057
-382,190	-200,000	-0,011	-0,111
-381,175	105,738	0,073	-0,064
-380,160	-17,277	-0,096	-0,044
-379,146	573,111	0,038	0,069
-378,131	220,298	-0,049	0,058
-377,117	800,000	-0,021	-0,047
-376,102	-151,725	-0,061	-0,003
-375,088	43,149	-0,037	0,025
-374,073	800,000	0,090	-0,184
-373,058	201,521	0,069	-0,078
-372,044	-200,000	0,032	-0,145
-371,029	-117,994	-0,109	0,014
-370,015	-81,708	0,034	0,008
-369,000	9,404	-0,025	-0,014
-367,985	-80,613	-0,027	-0,007
-366,971	346,147	-0,054	-0,078
-365,956	15,918	-0,047	0,027
-364,942	483,469	-0,024	0,040
-363,927	-200,000	0,015	0,060
-362,912	41,126	0,042	-0,028
-361,898	-26,243	-0,050	-0,021
-360,883	-135,061	-0,049	-0,004
-359,869	-10,251	0,053	-0,026
-358,854	-200,000	-0,020	0,076
-357,839	64,027	0,090	-0,066
-356,825	259,757	0,067	-0,085
-355,810	800,000	0,033	-0,082
-354,796	-200,000	-0,002	0,070
-353,781	465,069	-0,042	-0,070
-352,766	321,172	0,048	-0,068
-351,752	-151,242	0,049	-0,003
-350,737	-200,000	0,013	0,078
-349,723	6,665	0,108	0,059
-348,708	452,356	0,026	0,043
-347,693	-200,000	0,022	0,083
-346,679	-179,941	0,120	0,002
-345,664	172,283	-0,108	-0,114
-344,650	-85,507	0,132	0,030
-343,635	-32,058	-0,135	-0,055
-342,620	-95,086	-0,025	-0,005
-341,606	168,648	-0,038	0,039
-340,591	267,376	0,050	0,064
-339,577	641,625	-0,040	-0,075
-338,562	800,000	-0,042	0,096
-337,548	280,465	-0,022	0,029
-336,533	262,322	0,068	0,087
-335,518	-200,000	-0,008	0,097
-334,504	589,584	-0,018	-0,032
-333,489	657,984	-0,034	-0,065
-332,475	42,336	0,073	-0,048
-331,460	343,510	0,024	-0,035
-330,445	-15,701	0,059	-0,027
-329,431	206,638	0,073	-0,084
-328,416	-30,501	0,078	0,032
-327,402	800,000	-0,033	0,072
-326,387	-98,106	0,150	-0,028
-325,372	186,468	-0,088	-0,096
-324,358	-52,754	-0,111	0,037
-323,343	-70,102	0,156	0,043
-322,329	-200,000	-0,020	-0,228
-321,314	-147,788	0,058	-0,003
-320,299	-200,000	-0,017	-0,062
-319,285	800,000	0,010	-0,031
-318,270	118,586	-0,097	0,088
-317,256	585,025	0,027	-0,048
-316,241	-112,866	-0,104	0,015
-315,226	-41,771	-0,101	0,038
-314,212	800,000	-0,018	0,051
-313,197	70,509	0,086	-0,065
-312,183	800,000	0,041	-0,107
-311,168	170,706	0,110	0,116
-310,153	97,829	-0,097	-0,082
-309,139	-57,117	0,140	-0,045
-308,124	-70,915	0,027	-0,007
-307,110	-90,611	0,064	-0,013
-306,095	-200,000	0,001	-0,064
-305,080	-122,016	0,064	-0,008
-304,066	-35,348	-0,120	0,047
-303,051	72,307	-0,123	-0,093
-302,037	3,733	0,117	-0,062
-301,022	-140,300	0,153	-0,012
-300,008	-200,000	0,015	-0,107
-298,993	24,105	0,062	-0,037
-297,978	33,599	0,055	-0,035
-296,964	228,219	-0,072	-0,086
-295,949	-164,205	-0,166	0,006
-294,935	315,613	-0,024	0,033
-293,920	-200,000	0,021	-0,077
-292,905	507,563	0,040	-0,069
-291,891	-33,637	0,139	0,056
-290,876	-35,996	-0,059	0,023
-289,862	-200,000	-0,014	0,132
-288,847	-200,000	0,009	0,103
-287,832	800,000	0,023	-0,051
-286,818	523,544	-0,044	0,076
-285,803	-64,178	0,092	0,027
-284,789	-20,654	0,130	0,058
-283,774	-200,000	0,019	0,152
-282,759	-119,160	-0,061	0,008
-281,745	-200,000	-0,014	-0,179
-280,730	-200,000	0,029	0,149
-279,716	172,094	0,048	-0,051
-278,701	-200,000	0,002	-0,048
-277,686	800,000	-0,009	0,023
-276,672	-200,000	0,001	0,109
-275,657	800,000	-0,043	0,092
-274,643	25,318	-0,073	-0,044
-273,628	430,396	-0,103	0,164
-272,613	69,814	-0,053	0,040
-271,599	800,000	-0,009	0,019
-270,584	-27,152	0,080	0,034
-269,570	-200,000	-0,008	0,062
-268,555	116,951	0,058	-0,052
-267,540	172,948	-0,101	-0,107
-266,526	453,317	0,011	-0,017
-265,511	-89,672	0,075	0,016
-264,497	437,142	0,065	0,104
-263,482	215,506	-0,022	0,025
-262,467	-100,487	-0,122	0,022
-261,453	-126,312	0,150	0,016
-260,438	-73,242	0,036	0,010
-259,424	39,185	0,043	0,028
-258,409	356,396	0,054	0,079
-257,395	-200,000	-0,020	0,072
-256,380	-98,944	-0,153	0,028
-255,365	100,418	-0,079	-0,067
-254,351	-46,831	0,064	-0,023
-253,336	381,557	-0,015	-0,022
-252,322	800,000	0,038	-0,086
-251,307	800,000	0,016	-0,042
-250,292	88,070	0,052	0,043
-249,278	233,745	-0,078	0,094
-248,263	-85,395	-0,012	-0,003
-247,249	800,000	0,029	0,063
-246,234	336,549	-0,031	0,044
-245,219	-137,875	0,149	-0,012
-244,205	-200,000	-0,004	-0,128
-243,190	-124,489	0,047	-0,005
-242,176	296,865	0,017	-0,023
-241,161	-98,801	0,097	0,018
-240,146	-68,570	-0,094	0,026
-239,132	-200,000	0,016	0,120
-238,117	-200,000	0,032	0,162
-237,103	86,429	-0,077	-0,062
-236,088	-41,766	0,178	-0,067
-235,073	-200,000	0,009	0,129
-234,059	800,000	-0,032	-0,096
-233,044	-169,102	-0,097	-0,003
-232,030	-84,441	-0,084	-0,019
-231,015	-103,383	0,156	0,027
-230,000	-200,000	-0,017	-0,061
-228,986	53,309	-0,050	-0,035
-227,971	193,932	0,076	-0,084
-226,957	157,543	0,044	-0,045
-225,942	800,000	-0,009	0,023
-224,927	257,342	0,062	0,078
-223,913	800,000	-0,064	-0,157
-222,898	60,331	-0,135	0,097
-221,884	97,881	0,047	0,039
-220,869	582,235	0,048	0,087
-219,855	-200,000	0,028	0,131
-218,840	312,657	0,042	-0,058
-217,825	-200,000	-0,023	0,087
-216,811	235,228	0,036	0,044
-215,796	204,921	0,037	-0,042
-214,782	143,566	-0,121	-0,118
-213,767	-87,046	-0,045	0,010
-212,752	698,416	-0,061	0,117
-211,738	637,033	0,071	0,132
-210,723	57,713	0,076	-0,054
-209,709	-67,639	0,098	-0,028
-208,694	289,844	-0,044	-0,059
-207,679	83,871	-0,066	-0,052
-206,665	-101,257	-0,094	-0,017
-205,650	-151,310	-0,062	0,003
-204,636	-54,176	0,070	0,023
-203,621	-2,973	-0,041	0,021
-202,606	360,614	0,043	-0,063
-201,592	82,751	0,103	-0,082
-200,577	-200,000	-0,002	-0,095
-199,563	800,000	0,026	-0,059
-198,548	63,883	0,061	0,044
-197,533	-50,359	0,062	-0,021
-196,519	-200,000	0,015	0,064
-195,504	634,676	0,067	-0,124
-194,490	800,000	-0,044	-0,098
-193,475	-200,000	-0,014	-0,045
-192,460	800,000	0,020	-0,053
-191,446	51,474	0,067	-0,046
-190,431	-200,000	0,013	-0,049
-189,417	-200,000	0,026	0,162
-188,402	-56,120	0,135	-0,044
-187,387	570,604	-0,061	-0,108
-186,373	287,618	-0,064	-0,084
-185,358	-200,000	0,010	-0,064
-184,344	57,689	0,167	0,119
-183,329	-200,000	0,025	0,084
-182,315	800,000	-0,006	-0,016
-181,300	5,625	0,029	0,015
-180,285	-58,958	-0,059	-0,018
-179,271	349,138	0,024	-0,035
-178,256	345,409	0,008	-0,012
-177,242	-200,000	0,012	0,110
-176,227	303,374	-0,025	0,034
-175,212	373,047	-0,035	-0,053
-174,198	177,321	0,118	-0,126
-173,183	-200,000	0,022	-0,099
-172,169	28,211	-0,053	0,033
-171,154	-133,754	-0,096	0,009
-170,139	1,661	0,021	-0,011
-169,125	800,000	0,037	-0,111
-168,110	-172,018	-0,014	-0,000
-167,096	-200,000	-0,014	0,105
-166,081	800,000	-0,020	0,057
-165,066	-200,000	-0,008	-0,121
-164,052	519,827	-0,008	-0,014
-163,037	800,000	0,040	-0,104
-162,023	-200,000	0,034	0,171
-161,008	196,076	0,033	-0,037
-159,993	18,274	0,109	0,063
-158,979	246,923	-0,148	0,182
-157,964	1,535	-0,059	-0,031
-156,950	75,862	0,046	-0,035
-155,935	-26,845	-0,070	0,029
-154,920	196,129	-0,119	0,132
-153,906	437,542	0,083	0,132
-152,891	23,339	0,028	-0,017
-151,877	183,021	0,080	0,086
-150,862	-200,000	0,000	-0,004
-149,847	287,382	-0,057	0,076
-148,833	360,059	0,025	0,036
-147,818	285,237	-0,049	0,064
-146,804	119,620	-0,122	0,110
-145,789	-90,383	0,082	0,017
-144,775	327,924	-0,040	-0,056
-143,760	94,322	0,053	-0,044
-142,745	69,989	-0,041	-0,031
-141,731	-153,883	-0,049	0,002
-140,716	356,068	0,033	-0,049
-139,702	-146,714	-0,131	-0,008
-138,687	-200,000	-0,029	0,156
-137,672	-95,649	-0,106	0,021
-136,658	-112,932	0,031	0,004
-135,643	-200,000	0,025	0,115
-134,629	800,000	-0,081	-0,241
-133,614	-200,000	0,031	-0,105
-132,599	-200,000	-0,003	0,107
-131,585	-200,000	-0,028	0,115
-130,570	-200,000	0,005	-0,091
-129,556	-200,000	0,004	0,015
-128,541	-200,000	-0,001	0,030
-127,526	-200,000	-0,043	0,171
-126,512	111,507	0,109	-0,096
-125,497	110,819	-0,074	-0,065
-124,483	-200,000	0,011	0,060
-123,468	7,482	0,012	0,006
-122,453	75,702	0,050	-0,038
-121,439	-200,000	-0,002	-0,113
-120,424	64,741	0,043	-0,032
-119,410	-200,000	0,011	0,113
-118,395	-33,503	0,034	-0,013
-117,380	800,000	-0,064	0,148
-116,366	206,406	-0,041	0,047
-115,351	-92,995	-0,040	0,008
-114,337	-40,383	-0,130	-0,049
-113,322	-200,000	-0,024	0,129
-112,307	-200,000	-0,006	0,043
-111,293	134,898	-0,041	0,039
-110,278	246,429	0,050	0,061
-109,264	-200,000	-0,010	-0,041
-108,249	69,431	0,063	0,047
-107,234	11,061	-0,138	0,076
-106,220	-200,000	0,024	-0,106
-105,205	-200,000	-0,022	0,073
-104,191	62,209	0,149	-0,108
-103,176	-200,000	0,003	-0,200
-102,162	-74,550	0,074	-0,019
-101,147	159,975	0,039	0,040
-100,132	384,810	0,096	-0,145
-99,118	22,663	-0,132	0,078
-98,103	71,939	-0,161	-0,122
-97,089	631,709	0,052	-0,096
-96,074	221,512	-0,071	-0,083
-95,059	12,520	0,084	-0,047
-94,045	252,574	-0,062	0,077
-93,030	-200,000	0,020	-0,163
-92,016	308,484	-0,126	-0,171
-91,001	98,079	0,117	0,098
-89,986	-170,073	-0,076	0,002
-88,972	-200,000	0,011	0,064
-87,957	264,317	0,116	0,146
-86,943	-102,666	0,055	0,009
-85,928	-200,000	-0,008	0,091
-84,913	180,437	-0,032	-0,034
-83,899	68,009	-0,066	-0,049
-82,884	138,510	0,075	-0,072
-81,870	-160,854	-0,141	-0,005
-80,855	172,703	-0,094	0,099
-79,840	250,708	0,060	-0,074
-78,826	-28,161	-0,110	0,046
-77,811	-200,000	0,008	-0,075
-76,797	545,614	-0,057	-0,099
-75,782	-41,055	-0,155	-0,058
-74,767	800,000	0,061	0,147
-73,753	-142,219	-0,136	-0,010
-72,738	800,000	0,033	0,080
-71,724	-200,000	-0,007	-0,085
-70,709	-13,249	-0,104	-0,049
-69,694	72,658	-0,085	-0,065
-68,680	18,178	-0,030	-0,018
-67,665	-200,000	-0,010	-0,056
-66,651	0,139	0,078	0,040
-65,636	288,556	0,036	0,048
-64,622	-200,000	0,022	-0,087
-63,607	-200,000	-0,019	-0,104
-62,592	-200,000	-0,007	-0,120
-61,578	-200,000	-0,006	-0,030
-60,563	-51,185	0,127	0,043
-59,549	263,374	-0,049	-0,061
-58,534	-113,334	-1,309	-0,185
-57,519	560,434	-0,788	-1,388
-56,505	-200,000	-0,879	-4,414
-55,490	93,593	0,614	-0,505
-54,476	800,000	5,052	11,841
-53,461	-200,000	13,616	253,120
-52,446	-200,000	689,451	2260,371
-51,432	591,907	1622,303	2918,788
-50,417	119,428	1635,137	1468,876
-49,403	73,310	1289,085	977,656
-48,388	38,140	1024,316	660,119
-47,373	24,316	982,046	587,407
-46,359	23,632	971,426	578,789
-45,344	22,625	967,385	573,066
-44,330	22,540	965,926	571,901
-43,315	22,469	964,374	570,729
-42,300	22,434	963,482	570,065
-41,286	22,472	962,444	569,550
-40,271	22,399	961,483	568,723
-39,257	22,396	960,517	568,119
-38,242	22,372	959,596	567,472
-37,227	22,414	958,808	567,123
-36,213	22,350	957,886	566,347
-35,198	22,334	957,163	565,843
-34,184	22,425	956,427	565,681
-33,169	22,393	955,523	565,022
-32,154	22,476	954,498	564,661
-31,140	22,429	953,685	564,007
-30,125	22,454	952,821	563,554
-29,111	22,419	952,114	563,001
-28,096	22,398	951,508	562,550
-27,082	22,392	950,865	562,127
-26,067	22,365	950,097	561,567
-25,052	22,415	949,292	561,228
-24,038	22,445	948,576	560,879
-23,023	22,433	948,016	560,488
-22,009	22,485	947,332	560,227
-20,994	22,527	946,589	559,900
-19,979	22,398	946,131	559,193
-18,965	22,381	945,559	558,781
-17,950	22,427	944,926	558,529
-16,936	22,352	944,009	557,728
-15,921	22,349	943,471	557,378
-14,906	22,321	942,595	556,749
-13,892	22,260	942,265	556,337
-12,877	22,236	941,648	555,876
-11,863	22,246	940,937	555,464
-10,848	22,275	940,418	555,227
-9,833	22,362	939,929	555,192
-8,819	22,378	939,292	554,847
-7,804	22,328	938,527	554,213
-6,790	22,284	938,155	553,833
-5,775	22,400	937,336	553,695
-4,760	22,279	936,913	553,041
-3,746	22,337	936,142	552,747
-2,731	22,200	935,588	551,965
-1,717	22,099	934,745	551,126
-0,702	22,122	934,222	550,868
0,313	21,953	933,399	550,682
1,327	25,030	931,561	559,225
2,342	34,719	796,195	503,777
3,356	32,652	451,613	282,610
4,371	1,661	293,626	152,836
5,386	-2,831	274,480	138,610
6,400	-4,429	268,799	134,247
7,415	-5,035	266,431	132,495
8,429	-4,576	265,044	132,213
9,444	-4,279	264,128	132,015
10,459	-4,503	263,705	131,589
11,473	-4,742	263,142	131,079
12,488	-4,828	262,502	130,670
13,502	-4,832	261,927	130,369
14,517	-4,656	261,600	130,353
15,531	-4,632	261,160	130,144
16,546	-4,555	260,966	130,105
17,561	-4,812	260,510	129,635
18,575	-4,673	260,250	129,619
19,590	-4,723	259,791	129,334
20,604	-4,501	259,516	129,384
21,619	-4,592	259,296	129,182
22,634	-4,601	258,860	128,946
23,648	-4,598	258,571	128,792
24,663	-4,609	258,211	128,591
25,677	-4,669	258,157	128,500
26,692	-4,659	257,829	128,334
27,707	-4,522	257,534	128,297
28,721	-4,708	257,260	127,985
29,736	-4,926	257,168	127,735
30,750	-4,886	256,766	127,558
31,765	-4,697	256,586	127,624
32,780	-4,688	256,389	127,523
33,794	-4,709	256,149	127,374
34,809	-4,747	255,891	127,201
35,823	-4,625	255,494	127,100
36,838	-4,874	255,433	126,839
37,853	-4,804	255,221	126,784
38,867	-4,925	254,999	126,556
39,882	-4,719	254,697	126,575
40,896	-5,002	254,624	126,280
41,911	-4,830	254,293	126,255
42,926	-4,900	254,095	126,084
43,940	-4,922	253,750	125,882
44,955	-4,880	253,534	125,800
45,969	-5,120	253,390	125,509
46,984	-5,231	253,139	125,277
47,999	-5,346	252,841	125,018
49,013	-5,594	252,499	124,622
50,028	-5,460	252,232	124,595
51,042	-5,619	252,059	124,361
52,057	-5,654	251,864	124,224
53,071	-5,595	251,612	124,140
54,086	-5,437	251,513	124,216
55,101	-5,694	251,404	123,929
56,115	-5,150	251,202	124,288
57,130	-4,928	251,193	124,464
58,144	-4,416	250,869	124,734
59,159	-4,462	250,818	124,658
60,174	-4,450	250,430	124,464
61,188	-4,660	250,301	124,209
62,203	-4,662	250,143	124,117
63,217	-4,766	249,895	123,894
64,232	-4,661	249,672	123,863
65,247	-4,678	249,503	123,753
66,261	-4,698	249,287	123,617
67,276	-5,033	249,001	123,178
68,290	-4,996	248,723	123,062
69,305	-5,303	248,517	122,686
70,320	-5,235	248,433	122,692
71,334	-5,030	248,442	122,861
72,349	-4,591	248,096	123,052
73,363	-4,591	247,929	122,958
74,378	-4,667	247,802	122,820
75,393	-4,789	247,572	122,591
76,407	-4,743	247,314	122,491
77,422	-4,650	246,982	122,396
78,436	-4,649	246,906	122,347
79,451	-4,744	246,777	122,193
80,466	-4,829	246,458	121,952
81,480	-4,989	246,298	121,726
82,495	-5,080	246,046	121,514
83,509	-4,908	245,759	121,507
84,524	-4,977	245,671	121,394
85,539	-5,141	245,472	121,146
86,553	-5,203	245,409	121,053
87,568	-4,909	245,046	121,110
88,582	-4,984	244,878	120,953
89,597	-4,980	244,711	120,863
90,611	-4,839	244,620	120,926
91,626	-4,807	244,407	120,837
92,641	-4,814	244,360	120,796
93,655	-4,842	243,937	120,554
94,670	-4,754	243,807	120,552
95,684	-4,757	243,587	120,430
96,699	-4,769	243,593	120,412
97,714	-4,991	243,201	120,023
98,728	-4,897	243,047	120,014
99,743	-5,096	242,736	119,684
100,757	-5,068	242,573	119,616
101,772	-5,165	242,519	119,499
102,787	-5,111	242,428	119,488
103,801	-5,097	242,287	119,419
104,816	-4,891	242,201	119,537
105,830	-4,809	241,950	119,471
106,845	-4,775	241,766	119,397
107,860	-4,761	241,687	119,360
108,874	-5,024	241,410	118,995
109,889	-4,862	241,071	118,950
110,903	-4,942	240,841	118,760
111,918	-5,021	240,785	118,657
112,933	-5,267	240,571	118,339
113,947	-4,991	240,488	118,514
114,962	-4,619	240,226	118,680
115,976	-4,790	240,169	118,501
116,991	-4,775	239,808	118,324
118,006	-4,711	239,770	118,348
119,020	-4,881	239,778	118,201
120,035	-4,881	239,627	118,117
121,049	-4,709	239,374	118,122
122,064	-4,805	239,198	117,947
123,079	-4,850	238,960	117,782
124,093	-4,805	238,659	117,660
125,108	-5,130	238,471	117,292
126,122	-5,190	238,241	117,119
127,137	-5,162	238,100	117,063
128,151	-5,050	237,863	117,026
129,166	-4,980	237,973	117,127
130,181	-5,177	237,646	116,796
131,195	-5,132	237,398	116,700
132,210	-5,146	237,328	116,644
133,224	-4,996	237,197	116,690
134,239	-4,826	237,124	116,782
135,254	-4,713	236,820	116,713
136,268	-4,782	236,581	116,529
137,283	-5,263	236,380	116,031
138,297	-5,111	236,066	115,989
139,312	-5,074	235,898	115,926
140,327	-4,962	235,894	116,004
141,341	-4,504	235,798	116,315
142,356	-4,441	235,814	116,364
143,370	-4,554	235,621	116,167
144,385	-4,420	235,425	116,167
145,400	-4,532	235,348	116,030
146,414	-4,484	235,069	115,920
147,429	-4,578	234,954	115,778
148,443	-4,490	234,621	115,674
149,458	-4,493	234,600	115,651
150,473	-4,463	234,420	115,576
151,487	-4,647	234,139	115,280
152,502	-4,543	234,093	115,330
153,516	-4,621	233,910	115,167
154,531	-4,519	233,813	115,190
155,546	-4,402	233,486	115,113
156,560	-4,427	233,441	115,060
157,575	-4,857	233,094	114,537
158,589	-4,492	233,009	114,775
159,604	-4,426	232,821	114,724
160,619	-4,287	232,627	114,729
161,633	-4,321	232,554	114,656
162,648	-4,492	232,585	114,525
163,662	-4,633	232,325	114,276
164,677	-4,752	232,155	114,088
165,692	-4,515	232,001	114,189
166,706	-4,271	231,827	114,286
167,721	-4,283	231,702	114,204
168,735	-4,412	231,664	114,073
169,750	-4,645	231,603	113,849
170,764	-4,629	231,392	113,748
171,779	-4,419	231,191	113,805
172,794	-4,507	231,102	113,682
173,808	-4,621	230,735	113,402
174,823	-5,094	230,594	112,951
175,837	-4,993	230,219	112,837
176,852	-4,909	230,187	112,876
177,867	-4,536	230,229	113,179
178,881	-4,482	230,043	113,120
179,896	-4,416	229,899	113,090
180,910	-4,328	229,745	113,073
181,925	-4,324	229,384	112,888
182,940	-4,477	229,532	112,832
183,954	-4,446	229,258	112,712
184,969	-4,281	229,079	112,742
185,983	-4,446	229,115	112,621
186,998	-4,176	228,823	112,677
188,013	-4,123	228,567	112,583
189,027	-4,197	228,620	112,541
190,042	-4,217	228,462	112,438
191,056	-4,269	228,195	112,256
192,071	-4,356	228,125	112,144
193,086	-4,180	227,845	112,133
194,100	-4,612	227,910	111,820
195,115	-4,637	227,408	111,545
196,129	-4,963	227,036	111,101
197,144	-2,101	228,194	113,873
198,159	2,050	229,200	117,587
199,173	4,032	229,703	119,373
200,188	4,237	229,736	119,539
201,202	4,571	229,531	119,680
202,217	4,599	229,445	119,646
203,232	4,637	229,268	119,572
204,246	4,694	229,284	119,614
205,261	5,027	228,934	119,678
206,275	4,960	228,983	119,641
207,290	4,865	228,932	119,531
208,304	5,208	228,557	119,588
209,319	4,874	228,410	119,243
210,334	4,940	228,254	119,202
211,348	4,365	228,143	118,692
212,363	4,362	227,810	118,505
213,377	3,927	227,457	117,978
214,392	3,858	227,456	117,914
215,407	4,041	227,368	117,998
216,421	4,282	227,240	118,105
217,436	4,235	226,885	117,875
218,450	3,881	226,831	117,565
219,465	3,915	226,586	117,454
220,480	3,958	226,542	117,453
221,494	3,846	226,274	117,218
222,509	3,758	226,337	117,174
223,523	3,971	226,090	117,197
224,538	3,864	225,893	117,003
225,553	4,093	225,787	117,113
226,567	4,364	225,653	117,238
227,582	4,302	225,690	117,200
228,596	4,574	225,520	117,308
229,611	4,141	225,280	116,844
230,626	3,899	225,112	116,563
231,640	3,974	224,948	116,524
232,655	4,313	224,829	116,709
233,669	4,632	224,820	116,935
234,684	4,773	224,694	116,966
235,699	4,432	224,514	116,604
236,713	4,124	224,390	116,297
237,728	3,958	224,034	115,977
238,742	3,878	223,845	115,809
239,757	3,873	223,690	115,714
240,772	3,756	223,590	115,564
241,786	4,091	223,441	115,729
242,801	4,352	223,442	115,915
243,815	4,418	223,333	115,898
244,830	4,454	223,170	115,829
245,844	4,272	222,805	115,493
246,859	4,464	222,661	115,552
247,874	4,261	222,697	115,409
248,888	4,493	222,526	115,483
249,903	4,021	222,427	115,069
250,917	4,240	222,109	115,058
251,932	4,039	222,049	114,867
252,947	3,980	221,825	114,697
253,961	3,890	221,825	114,618
254,976	4,005	221,677	114,618
255,990	4,104	221,541	114,611
257,005	4,399	221,401	114,748
258,020	4,183	221,276	114,512
259,034	4,513	221,239	114,728
260,049	4,355	221,063	114,509
261,063	4,468	220,787	114,440
262,078	4,443	220,720	114,376
263,093	4,423	220,642	114,311
264,107	4,480	220,421	114,228
265,122	4,531	220,351	114,220
266,136	4,616	220,140	114,163
267,151	4,435	220,062	113,978
268,166	4,245	219,730	113,656
269,180	4,070	219,644	113,473
270,195	4,015	219,389	113,291
271,209	4,253	219,234	113,375
272,224	4,079	219,130	113,183
273,239	4,182	219,104	113,236
274,253	4,217	218,878	113,135
275,268	3,895	218,731	112,812
276,282	3,773	218,682	112,687
277,297	3,537	218,420	112,369
278,312	3,851	218,175	112,463
279,326	3,922	218,226	112,532
280,341	4,073	218,184	112,610
281,355	4,054	217,969	112,475
282,370	4,142	217,780	112,431
283,384	3,885	217,657	112,171
284,399	4,082	217,304	112,123
285,414	3,883	217,328	111,980
286,428	4,146	217,197	112,094
287,443	4,117	217,055	111,990
288,457	4,157	216,927	111,942
289,472	4,037	216,839	111,800
290,487	3,693	216,396	111,312
291,501	3,556	216,449	111,230
292,516	3,777	216,371	111,341
293,530	3,943	216,228	111,377
294,545	3,723	216,163	111,175
295,560	3,805	215,985	111,132
296,574	4,054	215,836	111,226
297,589	4,087	215,780	111,211
298,603	4,333	215,566	111,267
299,618	4,247	215,336	111,077
300,633	3,940	215,326	110,841
301,647	4,573	215,195	111,220
302,662	4,508	215,081	111,104
303,676	4,205	215,031	110,851
304,691	4,371	214,936	110,910
305,706	4,352	214,740	110,786
306,720	4,275	214,606	110,651
307,735	4,185	214,346	110,443
308,749	4,093	214,087	110,234
309,764	4,229	214,172	110,365
310,779	4,498	214,015	110,467
311,793	4,258	213,874	110,213
312,808	4,298	213,721	110,153
313,822	4,188	213,458	109,929
314,837	4,073	213,376	109,795
315,852	3,847	213,177	109,521
316,866	3,752	213,172	109,442
317,881	4,144	212,967	109,605
318,895	4,240	212,826	109,592
319,910	4,013	212,725	109,368
320,925	3,746	212,439	109,022
321,939	3,538	212,391	108,841
322,954	3,736	212,289	108,919
323,968	4,006	212,237	109,074
324,983	4,170	211,988	109,052
325,997	4,274	211,991	109,117
327,012	3,938	211,757	108,750
328,027	4,213	211,681	108,895
329,041	4,491	211,623	109,052
330,056	4,678	211,340	109,028
331,070	4,143	211,139	108,538
332,085	3,705	211,105	108,202
333,100	3,751	210,962	108,152
334,114	4,250	210,790	108,405
335,129	4,047	210,707	108,210
336,143	3,918	210,608	108,059
337,158	4,046	210,472	108,069
338,173	4,088	210,212	107,956
339,187	3,922	210,005	107,724
340,202	3,684	209,923	107,505
341,216	3,705	209,781	107,437
342,231	3,941	209,533	107,466
343,246	3,822	209,514	107,363
344,260	3,965	209,466	107,429
345,275	4,137	209,328	107,468
346,289	4,076	209,239	107,370
347,304	4,135	209,123	107,343
348,319	4,238	208,855	107,267
349,333	3,882	208,845	107,005
350,348	4,158	208,666	107,095
351,362	4,369	208,650	107,224
352,377	4,422	208,339	107,092
353,392	4,110	208,199	106,794
354,406	4,073	208,222	106,771
355,421	193,730	1346,869	1435,123
356,435	154,554	1485,711	1435,247
