DTS Sentinel unit serial number:	SN410029Multiplexer serial number:	ORYXHardware model number:	OX2-SRSoftware version number:	ORYX F/W v4,00 Oryx Data Collector v3.7.2.0data status	okinstallation	B6 Nyhavnadifferential loss correction	single-endedforward channel	channel 2reverse channel	N/Adate	2023/12/10time	08:30:08forward acquisition time	300,00reverse acquisition time	0,00gamma	499,1914k internal	0,3123k external	0,3123temperature offset calibration	1,0000default loss term (dB/km)	0,3820temperature slope calibration	1,0000multiplexer offset coefficient	1,0000multiplexer slope coefficient	1,0000fibre end	0,00T internal ref (°C)	22,57T ext. ref 1 (°C)	6,32T ext. ref 2 (°C)	6,33length (m)	temperature (°C)	Stokes	anti-Stokes-744,400	35,053	0,087	0,056
-743,385	-82,253	-0,326	0,079
-742,371	42,117	0,067	-0,045
-741,356	209,034	-0,159	0,186
-740,342	146,773	0,072	0,072
-739,327	-178,484	-0,336	-0,006
-738,312	224,633	0,093	-0,112
-737,298	-116,022	-0,324	-0,044
-736,283	64,431	-0,145	0,109
-735,269	164,498	-0,123	0,129
-734,254	453,515	0,022	0,037
-733,239	-12,610	-0,263	-0,127
-732,225	-3,210	-0,009	0,005
-731,210	338,084	0,034	0,050
-730,196	800,000	-0,024	-0,077
-729,181	21,155	-0,087	-0,053
-728,167	-200,000	-0,017	-0,059
-727,152	-200,000	-0,026	0,090
-726,137	556,375	-0,045	0,081
-725,123	-200,000	0,024	-0,218
-724,108	93,042	-0,101	-0,085
-723,094	113,973	-0,093	-0,084
-722,079	800,000	0,028	-0,068
-721,064	278,286	-0,065	0,086
-720,050	18,981	-0,071	-0,042
-719,035	244,568	0,041	0,051
-718,021	115,447	0,043	-0,039
-717,006	517,598	0,111	-0,194
-715,991	-78,604	-0,151	-0,038
-714,977	-200,000	-0,018	-0,062
-713,962	241,358	-0,043	-0,054
-712,948	205,715	-0,030	0,034
-711,933	-57,085	0,028	-0,009
-710,918	280,058	-0,057	0,076
-709,904	-156,072	-0,139	-0,006
-708,889	-19,670	-0,026	0,012
-707,875	-200,000	0,016	-0,111
-706,860	800,000	0,042	0,095
-705,845	138,654	-0,008	0,007
-704,831	-69,622	0,069	0,019
-703,816	764,455	-0,015	0,031
-702,802	-200,000	-0,012	-0,160
-701,787	-200,000	0,021	-0,192
-700,772	798,930	0,056	-0,116
-699,758	408,860	-0,044	-0,070
-698,743	-200,000	-0,024	0,099
-697,729	-98,380	0,028	0,005
-696,714	550,730	0,087	0,156
-695,699	8,749	0,103	-0,058
-694,685	123,848	-0,091	0,085
-693,670	-39,593	-0,074	-0,029
-692,656	142,211	0,061	0,060
-691,641	13,606	-0,070	-0,040
-690,627	-200,000	-0,022	0,145
-689,612	120,389	-0,046	0,043
-688,597	398,507	-0,030	-0,047
-687,583	800,000	-0,048	-0,157
-686,568	-200,000	-0,008	-0,155
-685,554	18,570	0,145	-0,086
-684,539	23,049	0,090	-0,055
-683,524	-200,000	-0,005	-0,034
-682,510	800,000	0,021	0,055
-681,495	546,168	-0,068	0,121
-680,481	-200,000	0,006	0,077
-679,466	-200,000	0,014	0,053
-678,451	-123,201	-0,176	0,021
-677,437	256,362	0,006	0,008
-676,422	800,000	0,024	0,053
-675,408	159,065	0,046	-0,047
-674,393	800,000	-0,019	0,051
-673,378	340,722	-0,026	0,037
-672,364	-32,331	-0,098	-0,040
-671,349	800,000	0,045	-0,144
-670,335	800,000	0,046	0,128
-669,320	231,500	0,057	0,070
-668,305	800,000	-0,040	-0,085
-667,291	-70,428	-0,086	0,024
-666,276	-200,000	0,021	-0,158
-665,262	800,000	0,041	-0,109
-664,247	-108,835	0,072	0,011
-663,232	-28,012	0,056	-0,024
-662,218	651,487	0,018	-0,034
-661,203	-43,979	0,062	-0,023
-660,189	-120,638	0,151	-0,019
-659,174	176,529	-0,086	-0,093
-658,159	32,945	0,078	-0,050
-657,145	79,828	-0,127	-0,101
-656,130	-75,939	-0,074	0,019
-655,116	562,172	0,039	-0,071
-654,101	281,650	0,080	-0,107
-653,086	-112,914	-0,124	-0,018
-652,072	800,000	0,059	-0,190
-651,057	-200,000	0,007	-0,063
-650,043	-200,000	-0,001	0,029
-649,028	800,000	-0,072	-0,165
-648,014	393,437	0,071	0,110
-646,999	43,217	0,144	0,098
-645,984	16,526	-0,061	-0,036
-644,970	-147,411	-0,048	-0,003
-643,955	-200,000	-0,013	-0,055
-642,941	5,211	-0,084	-0,046
-641,926	-200,000	0,014	0,230
-640,911	-78,063	-0,029	0,007
-639,897	113,572	0,013	-0,012
-638,882	-48,740	0,071	-0,025
-637,868	-111,002	0,053	0,008
-636,853	-108,039	0,049	0,008
-635,838	-106,415	-0,101	0,017
-634,824	250,904	0,061	-0,077
-633,809	-71,943	0,088	-0,024
-632,795	578,469	0,060	-0,109
-631,780	1,670	-0,078	0,041
-630,765	58,646	0,079	-0,058
-629,751	-97,677	-0,066	-0,012
-628,736	-44,308	0,142	-0,053
-627,722	363,182	-0,067	0,100
-626,707	212,233	0,035	-0,041
-625,692	800,000	-0,034	-0,090
-624,678	-11,260	0,020	0,010
-623,663	-160,182	-0,174	-0,007
-622,649	19,889	-0,010	0,006
-621,634	800,000	-0,007	0,016
-620,619	-28,779	0,123	-0,052
-619,605	800,000	-0,050	0,138
-618,590	188,624	0,020	-0,022
-617,576	-33,379	0,083	0,034
-616,561	-14,694	0,066	0,031
-615,546	46,224	-0,088	-0,060
-614,532	800,000	-0,037	0,077
-613,517	-121,255	-0,079	-0,010
-612,503	-109,756	-0,096	-0,015
-611,488	-200,000	0,002	-0,091
-610,474	-125,618	0,083	0,009
-609,459	-84,482	-0,031	-0,007
-608,444	800,000	-0,021	-0,067
-607,430	-97,178	0,084	-0,016
-606,415	124,543	-0,075	-0,070
-605,401	-180,147	0,174	-0,003
-604,386	20,242	0,124	-0,074
-603,371	-200,000	0,003	0,099
-602,357	800,000	0,042	0,130
-601,342	-114,733	-0,048	-0,007
-600,328	398,727	0,047	-0,073
-599,313	511,547	-0,050	-0,087
-598,298	8,484	-0,055	0,031
-597,284	728,497	0,067	0,134
-596,269	800,000	-0,053	0,139
-595,255	-9,463	-0,086	-0,042
-594,240	800,000	-0,029	-0,063
-593,225	800,000	0,029	-0,069
-592,211	800,000	0,002	-0,005
-591,196	731,501	-0,042	-0,083
-590,182	-200,000	0,055	-0,222
-589,167	-200,000	-0,015	0,048
-588,152	652,819	-0,043	-0,082
-587,138	-69,807	0,038	0,011
-586,123	54,004	-0,102	-0,073
-585,109	-136,369	-0,116	-0,010
-584,094	349,947	-0,017	0,025
-583,079	800,000	-0,025	0,073
-582,065	299,521	-0,034	0,046
-581,050	171,784	-0,078	-0,083
-580,036	-200,000	0,025	0,185
-579,021	180,651	0,040	-0,044
-578,006	-42,722	0,098	-0,037
-576,992	61,101	-0,054	0,039
-575,977	-200,000	-0,005	0,022
-574,963	800,000	0,026	-0,073
-573,948	-200,000	0,050	0,166
-572,934	93,797	-0,111	0,093
-571,919	103,024	-0,112	0,097
-570,904	474,424	-0,093	-0,156
-569,890	297,919	0,096	0,131
-568,875	236,075	0,068	0,084
-567,861	56,833	-0,030	0,022
-566,846	1,666	-0,032	-0,017
-565,831	-200,000	-0,028	0,145
-564,817	-74,951	-0,157	-0,041
-563,802	-200,000	-0,003	-0,127
-562,788	-200,000	0,007	-0,072
-561,773	-48,335	-0,110	-0,039
-560,758	162,952	0,080	0,084
-559,744	-96,091	-0,197	0,038
-558,729	800,000	-0,061	-0,150
-557,715	-6,812	-0,107	-0,054
-556,700	407,624	0,028	-0,044
-555,685	678,729	-0,078	0,150
-554,671	71,474	-0,122	0,093
-553,656	60,631	-0,108	0,079
-552,642	194,104	-0,098	0,110
-551,627	-200,000	0,034	0,114
-550,612	-110,954	0,175	0,026
-549,598	-200,000	-0,003	-0,049
-548,583	-200,000	-0,017	-0,057
-547,569	78,687	-0,065	0,051
-546,554	386,943	0,099	0,151
-545,539	399,155	0,022	0,034
-544,525	-200,000	-0,017	0,159
-543,510	-200,000	0,022	-0,077
-542,496	800,000	0,026	-0,066
-541,481	800,000	-0,046	-0,112
-540,466	12,802	0,076	-0,043
-539,452	56,728	0,102	0,074
-538,437	-200,000	0,021	0,077
-537,423	598,150	0,028	0,052
-536,408	0,092	0,046	0,024
-535,393	670,841	-0,035	-0,067
-534,379	-108,623	-0,158	0,025
-533,364	185,482	-0,067	0,073
-532,350	800,000	0,025	0,061
-531,335	99,589	-0,075	0,064
-530,321	-47,535	0,060	0,022
-529,306	687,776	-0,093	-0,181
-528,291	729,710	-0,032	0,063
-527,277	169,999	0,027	-0,029
-526,262	230,016	-0,086	-0,104
-525,248	267,455	0,027	0,035
-524,233	-200,000	-0,007	0,047
-523,218	-169,268	-0,034	0,001
-522,204	-200,000	0,046	-0,205
-521,189	-50,959	-0,041	0,014
-520,175	-27,432	-0,143	-0,061
-519,160	141,410	-0,074	-0,072
-518,145	76,390	0,084	0,066
-517,131	-89,402	0,044	0,009
-516,116	-106,980	0,131	0,021
-515,102	-200,000	-0,022	0,090
-514,087	182,434	-0,017	-0,018
-513,072	-200,000	-0,023	-0,092
-512,058	24,526	-0,053	-0,033
-511,043	370,033	0,070	-0,105
-510,029	365,849	0,019	0,028
-509,014	65,322	-0,073	0,054
-507,999	-200,000	-0,000	0,143
-506,985	800,000	0,010	0,022
-505,970	-200,000	-0,020	-0,072
-504,956	-39,264	-0,092	0,036
-503,941	-102,607	-0,091	0,016
-502,926	-29,708	-0,098	0,041
-501,912	221,038	0,035	-0,042
-500,897	95,334	-0,051	-0,043
-499,883	-200,000	0,020	0,112
-498,868	800,000	-0,055	-0,126
-497,853	-157,508	-0,108	-0,005
-496,839	-123,736	-0,097	0,011
-495,824	53,932	0,059	0,042
-494,810	415,489	0,074	0,117
-493,795	-200,000	0,003	0,066
-492,781	-59,548	0,028	-0,009
-491,766	73,975	-0,151	-0,117
-490,751	-200,000	0,030	-0,151
-489,737	-200,000	0,025	-0,155
-488,722	-83,355	-0,048	0,011
-487,708	-76,066	0,024	-0,006
-486,693	-95,130	0,075	0,015
-485,678	-200,000	0,007	0,170
-484,664	-69,037	0,052	0,015
-483,649	-200,000	0,008	0,120
-482,635	-116,514	-0,107	-0,014
-481,620	202,872	0,062	0,071
-480,605	357,062	0,061	0,090
-479,591	219,827	0,088	-0,104
-478,576	-200,000	-0,007	-0,036
-477,562	800,000	-0,040	0,089
-476,547	201,948	-0,069	-0,078
-475,532	-125,353	0,105	0,012
-474,518	-40,017	0,107	-0,041
-473,503	302,068	0,080	0,109
-472,489	61,115	-0,073	0,053
-471,474	-47,147	-0,087	-0,031
-470,459	436,339	0,069	-0,111
-469,445	176,946	0,066	0,070
-468,430	166,638	0,071	-0,074
-467,416	187,301	0,129	0,142
-466,401	-160,269	-0,043	0,002
-465,386	-25,796	0,037	0,016
-464,372	253,223	0,127	0,160
-463,357	-72,228	-0,114	-0,031
-462,343	-200,000	0,026	-0,083
-461,328	85,063	0,039	-0,031
-460,313	800,000	0,036	0,111
-459,299	-142,514	-0,082	0,006
-458,284	-21,801	0,123	0,055
-457,270	283,353	0,049	0,065
-456,255	166,511	-0,088	-0,092
-455,241	800,000	0,015	-0,046
-454,226	1,091	-0,071	-0,038
-453,211	27,666	0,113	0,070
-452,197	-154,143	0,168	-0,008
-451,182	-40,495	0,024	0,009
-450,168	-200,000	0,012	0,128
-449,153	800,000	-0,029	0,062
-448,138	-44,733	-0,137	-0,050
-447,124	-200,000	0,011	-0,047
-446,109	-200,000	-0,001	0,072
-445,095	30,550	0,104	-0,065
-444,080	420,495	0,084	0,134
-443,065	-69,267	-0,078	0,022
-442,051	6,601	-0,159	-0,087
-441,036	110,141	-0,083	-0,073
-440,022	800,000	-0,021	0,043
-439,007	-40,936	0,076	-0,029
-437,992	240,081	-0,024	0,030
-436,978	-200,000	0,026	0,096
-435,963	-93,677	-0,123	-0,025
-434,949	800,000	-0,033	-0,103
-433,934	800,000	0,055	-0,125
-432,919	-26,262	0,062	-0,027
-431,905	27,985	0,111	-0,069
-430,890	-172,290	-0,026	-0,001
-429,876	59,125	0,034	-0,024
-428,861	-10,241	-0,101	-0,049
-427,846	495,433	-0,072	-0,123
-426,832	-104,148	0,139	-0,024
-425,817	800,000	0,060	-0,159
-424,803	-64,098	-0,036	-0,011
-423,788	566,351	-0,013	0,024
-422,773	-74,204	0,157	0,041
-421,759	684,624	-0,015	-0,029
-420,744	-73,307	-0,077	-0,021
-419,730	-200,000	-0,035	-0,124
-418,715	800,000	-0,068	-0,180
-417,701	-200,000	-0,013	0,043
-416,686	-140,379	0,132	0,010
-415,671	-67,583	0,028	-0,008
-414,657	-200,000	-0,015	0,076
-413,642	146,386	-0,081	-0,080
-412,628	111,468	0,025	-0,022
-411,613	241,072	0,068	0,083
-410,598	-200,000	-0,007	-0,201
-409,584	88,595	0,052	0,043
-408,569	-200,000	0,034	0,122
-407,555	-200,000	-0,029	0,261
-406,540	11,020	0,033	-0,018
-405,525	42,751	-0,070	-0,047
-404,511	-200,000	-0,016	-0,107
-403,496	-129,892	-0,089	-0,009
-402,482	-200,000	-0,009	0,114
-401,467	800,000	-0,012	0,033
-400,452	800,000	0,064	-0,163
-399,438	800,000	0,035	-0,094
-398,423	288,564	0,096	-0,128
-397,409	-200,000	-0,013	-0,127
-396,394	-200,000	-0,017	-0,103
-395,379	129,986	0,015	0,015
-394,365	23,262	0,090	0,054
-393,350	-83,397	0,129	-0,030
-392,336	98,797	0,145	0,123
-391,321	-200,000	0,004	-0,032
-390,306	-113,767	-0,020	-0,003
-389,292	166,797	0,122	-0,128
-388,277	-84,762	0,106	-0,024
-387,263	800,000	-0,063	0,151
-386,248	-200,000	-0,013	0,110
-385,233	-200,000	0,024	0,184
-384,219	-70,168	-0,060	0,017
-383,204	-200,000	0,010	-0,136
-382,190	505,580	-0,060	-0,102
-381,175	-200,000	0,005	-0,028
-380,160	-200,000	-0,015	-0,103
-379,146	800,000	0,052	0,117
-378,131	108,049	0,178	0,156
-377,117	-200,000	-0,010	0,075
-376,102	800,000	-0,073	-0,158
-375,088	-200,000	0,011	-0,054
-374,073	-26,543	0,077	0,033
-373,058	177,786	-0,020	0,022
-372,044	-41,429	0,079	-0,030
-371,029	-55,743	-0,072	-0,023
-370,015	-101,950	-0,128	-0,022
-369,000	800,000	0,036	-0,091
-367,985	91,941	-0,131	-0,108
-366,971	800,000	-0,035	-0,086
-365,956	-112,918	0,040	0,006
-364,942	-137,645	0,100	0,008
-363,927	-45,587	-0,126	-0,046
-362,912	71,546	0,117	-0,089
-361,898	235,673	0,078	-0,094
-360,883	-69,685	-0,047	-0,013
-359,869	697,238	-0,015	-0,029
-358,854	-92,332	0,037	0,008
-357,839	389,177	0,046	-0,070
-356,825	-200,000	0,022	0,152
-355,810	423,851	-0,045	0,071
-354,796	-46,145	-0,061	0,022
-353,781	-200,000	-0,012	0,105
-352,766	62,975	-0,058	0,042
-351,752	800,000	0,048	-0,120
-350,737	207,442	-0,050	-0,058
-349,723	206,683	0,092	-0,105
-348,708	-200,000	-0,011	0,067
-347,693	-68,087	-0,115	-0,033
-346,679	77,434	-0,057	-0,044
-345,664	557,191	-0,108	-0,192
-344,650	347,215	0,056	-0,081
-343,635	-200,000	0,018	-0,067
-342,620	216,558	0,113	-0,133
-341,606	99,648	0,049	0,042
-340,591	-98,266	-0,065	0,012
-339,577	330,344	0,068	0,096
-338,562	115,526	0,041	0,037
-337,548	458,854	0,072	-0,118
-336,533	800,000	-0,060	0,147
-335,518	31,745	0,033	0,021
-334,504	108,871	0,083	-0,073
-333,489	800,000	-0,022	0,057
-332,475	382,036	0,019	-0,029
-331,460	17,043	0,021	-0,012
-330,445	-23,320	0,137	0,060
-329,431	446,732	-0,082	0,133
-328,416	-200,000	-0,048	0,162
-327,402	34,196	0,032	0,021
-326,387	800,000	0,023	0,066
-325,372	-71,186	-0,078	-0,021
-324,358	58,214	-0,075	-0,054
-323,343	303,862	-0,050	0,068
-322,329	-49,077	0,073	0,026
-321,314	-200,000	0,013	-0,063
-320,299	-200,000	0,014	-0,099
-319,285	-119,467	-0,090	-0,011
-318,270	174,746	-0,046	-0,049
-317,256	623,502	0,053	0,099
-316,241	146,399	-0,111	-0,110
-315,226	-200,000	-0,009	-0,061
-314,212	-193,092	-0,094	0,001
-313,197	148,253	0,030	-0,030
-312,183	271,286	0,067	-0,087
-311,168	78,958	-0,110	-0,086
-310,153	800,000	-0,018	0,054
-309,139	-200,000	0,033	-0,115
-308,124	-164,568	0,078	-0,003
-307,110	-64,541	-0,058	0,017
-306,095	-167,657	0,097	-0,003
-305,080	-200,000	0,003	0,039
-304,066	-149,986	-0,109	-0,006
-303,051	-56,030	0,108	0,035
-302,037	-139,059	0,154	-0,012
-301,022	-101,302	0,033	-0,006
-300,008	485,765	0,040	0,067
-298,993	35,906	0,097	-0,062
-297,978	-92,149	0,116	-0,024
-296,964	-200,000	-0,029	-0,158
-295,949	-200,000	0,001	-0,005
-294,935	800,000	-0,014	-0,032
-293,920	-94,238	-0,011	-0,002
-292,905	-40,263	0,046	0,018
-291,891	-58,689	0,115	0,036
-290,876	254,422	0,029	0,036
-289,862	-200,000	0,033	-0,110
-288,847	-139,957	-0,083	-0,006
-287,832	258,665	0,078	0,099
-286,818	-76,006	0,013	0,003
-285,803	800,000	0,018	-0,050
-284,789	800,000	-0,046	-0,095
-283,774	800,000	0,051	-0,104
-282,759	434,822	0,018	-0,029
-281,745	35,581	-0,181	-0,116
-280,730	-47,599	0,153	-0,054
-279,716	35,788	0,057	0,036
-278,701	390,960	0,024	-0,037
-277,686	284,192	0,064	0,084
-276,672	800,000	-0,022	-0,064
-275,657	-79,599	-0,055	0,013
-274,643	107,201	-0,069	0,060
-273,628	-134,105	-0,148	0,013
-272,613	143,126	-0,058	-0,057
-271,599	-200,000	-0,037	0,160
-270,584	-200,000	-0,003	0,035
-269,570	-114,174	0,100	-0,014
-268,555	136,956	-0,065	0,062
-267,540	176,384	-0,058	-0,062
-266,526	-200,000	0,009	-0,050
-265,511	27,832	0,127	-0,078
-264,497	-200,000	0,000	-0,035
-263,482	-200,000	-0,024	0,079
-262,467	-200,000	-0,019	0,103
-261,453	-65,926	-0,106	-0,031
-260,438	-200,000	0,012	-0,069
-259,424	676,853	-0,044	0,084
-258,409	77,061	-0,097	0,075
-257,395	800,000	-0,028	0,065
-256,380	177,087	0,086	0,091
-255,365	-138,650	0,076	-0,006
-254,351	-171,848	0,080	0,002
-253,336	-127,481	-0,159	0,017
-252,322	30,667	-0,097	0,061
-251,307	15,869	-0,115	-0,066
-250,292	-162,438	0,099	0,004
-249,278	32,358	0,098	0,062
-248,263	750,383	-0,071	0,141
-247,249	800,000	0,042	-0,117
-246,234	-130,255	-0,191	0,019
-245,219	800,000	0,042	-0,110
-244,205	-19,955	0,095	-0,043
-243,190	117,293	0,017	0,016
-242,176	576,305	0,057	-0,102
-241,161	-35,527	0,107	0,042
-240,146	-185,031	0,112	-0,001
-239,132	800,000	0,024	-0,057
-238,117	-6,466	-0,143	-0,071
-237,103	-137,353	-0,113	-0,009
-236,088	617,968	-0,025	0,046
-235,073	-68,004	-0,015	0,004
-234,059	-200,000	0,014	0,131
-233,044	-16,156	-0,072	0,033
-232,030	-161,168	0,091	-0,003
-231,015	800,000	0,028	0,069
-230,000	-171,657	-0,099	-0,002
-228,986	800,000	0,062	0,165
-227,971	370,056	-0,055	0,082
-226,957	-73,856	-0,046	-0,012
-225,942	1,765	0,082	0,043
-224,927	800,000	0,039	-0,088
-223,913	-42,751	-0,076	0,028
-222,898	-27,517	-0,072	-0,030
-221,884	290,613	-0,036	0,048
-220,869	4,461	0,026	0,014
-219,855	90,025	0,071	0,058
-218,840	800,000	0,054	0,144
-217,825	800,000	-0,031	-0,073
-216,811	186,842	0,008	0,009
-215,796	800,000	0,036	0,085
-214,782	-103,302	-0,077	-0,013
-213,767	-200,000	0,009	0,054
-212,752	-75,863	0,056	-0,014
-211,738	16,687	-0,078	0,045
-210,723	182,990	0,066	0,072
-209,709	-30,178	0,013	-0,005
-208,694	-16,655	-0,070	-0,032
-207,679	-2,124	0,142	-0,073
-206,665	89,630	-0,025	-0,020
-205,650	592,108	-0,021	0,039
-204,636	462,542	0,074	0,121
-203,621	800,000	0,010	0,031
-202,606	144,487	-0,050	0,049
-201,592	203,689	0,077	-0,087
-200,577	334,778	-0,079	-0,112
-199,563	272,958	0,060	-0,078
-198,548	178,729	0,022	-0,023
-197,533	44,425	0,106	-0,071
-196,519	-200,000	0,040	0,165
-195,504	318,325	0,092	-0,128
-194,490	47,519	-0,073	-0,050
-193,475	-79,599	-0,082	-0,020
-192,460	33,445	0,023	0,015
-191,446	-200,000	-0,011	0,142
-190,431	-137,971	0,131	0,011
-189,417	105,665	-0,064	-0,055
-188,402	264,822	-0,019	-0,024
-187,387	800,000	0,033	0,092
-186,373	-68,474	-0,051	0,014
-185,358	39,270	0,080	0,052
-184,344	146,280	0,097	0,095
-183,329	-200,000	-0,032	0,130
-182,315	486,630	-0,074	-0,123
-181,300	-10,784	-0,101	0,048
-180,285	-200,000	0,003	-0,051
-179,271	800,000	-0,046	-0,103
-178,256	-38,579	-0,058	-0,022
-177,242	-200,000	0,079	0,000
-176,227	-98,825	-0,074	-0,014
-175,212	110,351	0,077	0,067
-174,198	294,218	-0,041	0,055
-173,183	800,000	0,053	-0,132
-172,169	-58,588	-0,086	0,027
-171,154	34,235	-0,079	-0,050
-170,139	10,423	0,072	-0,040
-169,125	285,724	-0,054	0,071
-168,110	86,724	-0,036	0,029
-167,096	-200,000	0,001	0,008
-166,081	-98,204	-0,032	-0,006
-165,066	86,045	-0,103	0,083
-164,052	216,355	0,048	0,055
-163,037	-136,590	0,067	0,006
-162,023	-200,000	-0,001	0,093
-161,008	-75,575	0,052	-0,013
-159,993	596,224	-0,012	-0,023
-158,979	-53,764	-0,024	-0,008
-157,964	800,000	0,095	0,245
-156,950	-200,000	-0,019	0,065
-155,935	-200,000	0,014	-0,200
-154,920	-200,000	0,029	0,130
-153,906	-200,000	0,021	0,194
-152,891	26,526	-0,154	-0,094
-151,877	55,940	-0,061	0,043
-150,862	732,489	0,059	-0,116
-149,847	410,431	-0,022	0,034
-148,833	35,769	0,035	-0,023
-147,818	34,662	0,076	0,048
-146,804	-15,073	0,204	0,095
-145,789	800,000	-0,002	-0,006
-144,775	-200,000	0,049	-0,170
-143,760	305,489	-0,016	-0,021
-142,745	-200,000	-0,013	-0,097
-141,731	190,468	-0,151	-0,166
-140,716	-200,000	0,027	-0,086
-139,702	-59,533	0,119	0,037
-138,687	-200,000	-0,008	0,071
-137,672	800,000	0,079	-0,197
-136,658	-51,031	-0,058	-0,020
-135,643	800,000	-0,016	-0,038
-134,629	-33,548	0,053	0,021
-133,614	-49,954	0,056	0,019
-132,599	-1,135	0,153	0,079
-131,585	123,069	-0,113	0,103
-130,570	648,381	0,047	-0,089
-129,556	-36,892	-0,145	0,056
-128,541	14,074	0,167	-0,095
-127,526	-200,000	-0,009	-0,107
-126,512	-149,390	0,086	0,005
-125,497	-200,000	-0,008	0,088
-124,483	-69,461	0,065	0,018
-123,468	800,000	-0,054	0,171
-122,453	18,011	-0,130	-0,075
-121,439	6,204	0,027	0,015
-120,424	-79,695	0,132	0,032
-119,410	-37,378	0,198	0,077
-118,395	800,000	0,060	0,183
-117,380	-59,051	0,026	-0,008
-116,366	15,009	0,053	-0,030
-115,351	27,491	-0,091	0,055
-114,337	-1,128	0,110	0,056
-113,322	-128,423	-0,121	-0,012
-112,307	489,064	-0,046	-0,076
-111,293	278,540	0,061	0,080
-110,278	-200,000	-0,016	-0,126
-109,264	-200,000	0,019	-0,092
-108,249	667,884	0,041	0,078
-107,234	800,000	-0,005	0,010
-106,220	249,329	-0,088	-0,109
-105,205	-153,511	-0,069	0,003
-104,191	203,721	0,055	-0,062
-103,176	-73,038	-0,112	-0,030
-102,162	-8,138	0,100	-0,049
-101,147	43,449	-0,018	-0,012
-100,132	-200,000	0,021	-0,095
-99,118	310,364	0,115	0,157
-98,103	98,485	0,090	0,076
-97,089	-167,274	0,122	0,004
-96,074	-200,000	0,006	-0,067
-95,059	-161,623	-0,138	0,005
-94,045	800,000	0,032	-0,081
-93,030	20,587	0,069	-0,041
-92,016	800,000	-0,048	0,108
-91,001	-200,000	0,012	0,185
-89,986	24,384	-0,027	-0,016
-88,972	-4,148	-0,034	0,017
-87,957	-200,000	0,027	0,095
-86,943	189,870	0,080	-0,087
-85,928	-200,000	0,012	-0,177
-84,913	96,189	-0,130	-0,108
-83,899	584,731	0,088	0,157
-82,884	-200,000	0,011	-0,050
-81,870	800,000	0,016	0,040
-80,855	800,000	-0,053	0,143
-79,840	414,757	-0,061	0,095
-78,826	25,302	-0,117	0,070
-77,811	130,512	-0,075	0,070
-76,797	800,000	-0,015	0,032
-75,782	-200,000	-0,131	0,000
-74,767	-86,788	0,122	0,027
-73,753	-200,000	-0,042	0,137
-72,738	-200,000	-0,015	0,060
-71,724	800,000	0,028	-0,065
-70,709	800,000	-0,024	-0,056
-69,694	-200,000	-0,002	0,015
-68,680	-34,722	-0,085	0,034
-67,665	222,109	0,032	0,037
-66,651	-200,000	0,001	0,046
-65,636	800,000	0,044	0,113
-64,622	-200,000	-0,010	-0,092
-63,607	381,467	-0,060	-0,090
-62,592	-200,000	0,007	0,093
-61,578	-179,306	0,086	0,001
-60,563	800,000	-0,011	0,023
-59,549	288,362	0,144	0,189
-58,534	-144,420	-1,271	-0,084
-57,519	724,354	-0,834	-1,620
-56,505	-200,000	-0,908	-4,379
-55,490	-36,953	0,845	-0,327
-54,476	800,000	5,107	11,796
-53,461	-200,000	13,369	252,817
-52,446	-200,000	689,090	2267,751
-51,432	595,497	1622,940	2926,391
-50,417	120,643	1636,280	1475,423
-49,403	73,610	1290,051	979,436
-48,388	38,387	1024,924	661,237
-47,373	24,520	982,518	588,261
-46,359	23,759	972,141	579,527
-45,344	22,812	967,886	573,874
-44,330	22,698	966,520	572,669
-43,315	22,657	965,033	571,632
-42,300	22,632	964,161	571,012
-41,286	22,616	963,113	570,314
-40,271	22,555	962,258	569,589
-39,257	22,599	961,392	569,195
-38,242	22,568	960,437	568,507
-37,227	22,584	959,350	567,893
-36,213	22,578	958,617	567,417
-35,198	22,522	957,884	566,779
-34,184	22,539	957,223	566,421
-33,169	22,519	956,085	565,659
-32,154	22,602	955,073	565,306
-31,140	22,553	954,391	564,724
-30,125	22,654	953,433	564,460
-29,111	22,656	952,783	564,058
-28,096	22,643	952,031	563,547
-27,082	22,545	951,628	562,974
-26,067	22,582	950,633	562,479
-25,052	22,574	950,021	562,071
-24,038	22,610	949,350	561,766
-23,023	22,634	948,635	561,397
-22,009	22,695	948,002	561,196
-20,994	22,666	947,291	560,661
-19,979	22,596	947,015	560,253
-18,965	22,577	946,270	559,728
-17,950	22,666	945,507	559,537
-16,936	22,590	944,801	558,857
-15,921	22,599	944,084	558,437
-14,906	22,486	943,506	557,713
-13,892	22,517	942,754	557,347
-12,877	22,501	942,080	556,875
-11,863	22,443	941,562	556,363
-10,848	22,443	941,157	556,101
-9,833	22,566	940,550	556,111
-8,819	22,564	939,904	555,700
-7,804	22,497	939,481	555,215
-6,790	22,483	938,723	554,703
-5,775	22,537	938,055	554,454
-4,760	22,443	937,752	553,955
-3,746	22,499	936,877	553,595
-2,731	22,374	936,281	552,825
-1,717	22,322	935,369	552,102
-0,702	22,335	934,721	551,737
0,313	22,179	934,004	551,655
1,327	25,116	932,004	559,663
2,342	34,704	796,872	504,078
3,356	32,873	451,871	283,055
4,371	1,869	293,807	153,114
5,386	-2,522	274,667	138,973
6,400	-4,171	268,730	134,428
7,415	-4,604	266,391	132,848
8,429	-4,333	265,237	132,509
9,444	-4,351	264,319	132,022
10,459	-4,358	263,736	131,713
11,473	-4,454	263,117	131,305
12,488	-4,425	262,612	131,067
13,502	-4,666	262,076	130,570
14,517	-4,507	261,629	130,479
15,531	-4,356	261,284	130,432
16,546	-4,528	260,922	130,085
17,561	-4,302	260,400	130,016
18,575	-4,387	260,103	129,779
19,590	-4,396	259,861	129,639
20,604	-4,582	259,826	129,443
21,619	-4,395	259,207	129,291
22,634	-4,206	258,786	129,238
23,648	-4,398	258,619	128,972
24,663	-4,556	258,408	128,714
25,677	-4,358	258,030	128,690
26,692	-4,529	257,869	128,447
27,707	-4,471	257,582	128,344
28,721	-4,441	257,323	128,230
29,736	-4,409	256,988	128,080
30,750	-4,651	256,857	127,789
31,765	-4,540	256,586	127,741
32,780	-4,635	256,566	127,635
33,794	-4,458	256,162	127,580
34,809	-4,630	255,969	127,320
35,823	-4,494	255,672	127,281
36,838	-4,621	255,409	127,027
37,853	-4,598	255,257	126,960
38,867	-4,531	254,967	126,864
39,882	-4,530	254,815	126,777
40,896	-4,543	254,548	126,622
41,911	-4,449	254,255	126,548
42,926	-4,547	254,123	126,384
43,940	-4,671	253,877	126,143
44,955	-4,586	253,693	126,114
45,969	-4,602	253,349	125,918
46,984	-4,775	253,145	125,655
47,999	-4,967	252,836	125,323
49,013	-5,202	252,617	124,999
50,028	-5,087	252,304	124,933
51,042	-5,377	252,169	124,603
52,057	-5,320	251,903	124,511
53,071	-5,093	251,769	124,630
54,086	-5,162	251,555	124,453
55,101	-4,985	251,394	124,515
56,115	-4,806	251,310	124,617
57,130	-4,462	251,220	124,858
58,144	-4,189	251,057	125,001
59,159	-4,203	250,757	124,829
60,174	-4,254	250,693	124,742
61,188	-4,235	250,422	124,613
62,203	-4,430	250,237	124,341
63,217	-4,681	250,106	124,050
64,232	-4,414	249,957	124,194
65,247	-4,348	249,610	124,067
66,261	-4,390	249,444	123,938
67,276	-4,538	249,104	123,631
68,290	-4,923	249,007	123,243
69,305	-5,080	248,697	122,945
70,320	-4,710	248,468	123,136
71,334	-4,672	248,375	123,111
72,349	-4,440	248,257	123,240
73,363	-4,344	248,030	123,198
74,378	-4,347	247,761	123,050
75,393	-4,106	247,605	123,166
76,407	-4,278	247,348	122,882
77,422	-4,350	247,235	122,753
78,436	-4,425	246,995	122,560
79,451	-4,262	246,732	122,556
80,466	-4,451	246,493	122,266
81,480	-4,562	246,241	122,037
82,495	-4,674	246,197	121,910
83,509	-4,701	246,069	121,813
84,524	-4,827	245,919	121,622
85,539	-4,808	245,573	121,456
86,553	-4,824	245,428	121,360
87,568	-4,723	245,195	121,319
88,582	-4,719	244,897	121,164
89,597	-4,898	244,982	121,045
90,611	-4,640	244,630	121,076
91,626	-4,402	244,518	121,209
92,641	-4,530	244,363	121,015
93,655	-4,500	244,199	120,948
94,670	-4,576	244,004	120,777
95,684	-4,611	243,734	120,604
96,699	-4,681	243,762	120,548
97,714	-4,741	243,489	120,352
98,728	-4,757	243,172	120,171
99,743	-4,750	243,062	120,112
100,757	-4,876	242,716	119,826
101,772	-4,830	242,536	119,764
102,787	-4,829	242,438	119,706
103,801	-4,564	242,188	119,792
104,816	-4,686	242,244	119,708
105,830	-4,316	241,975	119,870
106,845	-4,424	241,992	119,778
107,860	-4,467	241,670	119,573
108,874	-4,591	241,581	119,416
109,889	-4,431	241,170	119,334
110,903	-4,662	241,054	119,076
111,918	-4,730	240,880	118,923
112,933	-4,514	240,774	119,038
113,947	-4,514	240,638	118,960
114,962	-4,385	240,435	118,955
115,976	-4,633	240,209	118,629
116,991	-4,389	239,934	118,683
118,006	-4,355	239,749	118,608
119,020	-4,478	239,761	118,503
120,035	-4,449	239,701	118,487
121,049	-4,227	239,461	118,539
122,064	-4,537	239,298	118,194
123,079	-4,244	239,003	118,277
124,093	-4,470	238,872	118,017
125,108	-4,536	238,630	117,834
126,122	-4,978	238,482	117,390
127,137	-5,015	238,264	117,242
128,151	-4,817	238,010	117,268
129,166	-4,955	238,025	117,153
130,181	-4,775	237,589	117,073
131,195	-4,944	237,585	116,924
132,210	-4,675	237,334	117,008
133,224	-4,586	237,357	117,081
134,239	-4,581	237,094	116,945
135,254	-4,346	236,872	117,015
136,268	-4,591	236,715	116,729
137,283	-4,835	236,528	116,430
138,297	-4,737	236,145	116,309
139,312	-4,872	236,029	116,133
140,327	-4,532	235,901	116,333
141,341	-4,288	236,028	116,582
142,356	-4,294	235,926	116,517
143,370	-4,180	235,649	116,460
144,385	-4,260	235,491	116,308
145,400	-3,912	235,368	116,516
146,414	-4,247	235,117	116,113
147,429	-4,182	234,909	116,052
148,443	-4,254	234,848	115,954
149,458	-4,319	234,625	115,781
150,473	-4,323	234,443	115,678
151,487	-4,331	234,393	115,637
152,502	-4,330	234,277	115,570
153,516	-4,316	234,107	115,487
154,531	-4,419	233,915	115,300
155,546	-4,378	233,655	115,195
156,560	-4,274	233,473	115,177
157,575	-4,433	233,291	114,951
158,589	-4,425	233,093	114,849
159,604	-4,363	232,979	114,832
160,619	-4,172	232,902	114,935
161,633	-3,987	232,611	114,928
162,648	-4,061	232,579	114,843
163,662	-4,247	232,434	114,615
164,677	-4,316	232,170	114,420
165,692	-4,195	232,172	114,506
166,706	-4,126	232,032	114,481
167,721	-3,981	231,821	114,480
168,735	-3,947	231,531	114,355
169,750	-4,283	231,577	114,102
170,764	-4,183	231,275	114,022
171,779	-4,209	231,143	113,926
172,794	-3,936	230,942	114,031
173,808	-4,167	230,766	113,753
174,823	-4,654	230,407	113,184
175,837	-5,011	230,357	112,869
176,852	-4,550	230,351	113,218
177,867	-4,326	230,275	113,346
178,881	-4,287	230,086	113,274
179,896	-4,159	229,912	113,278
180,910	-4,258	229,824	113,147
181,925	-4,104	229,769	113,230
182,940	-4,151	229,533	113,067
183,954	-4,034	229,364	113,064
184,969	-4,136	229,295	112,941
185,983	-3,904	228,978	112,955
186,998	-3,815	228,786	112,920
188,013	-3,750	228,611	112,873
189,027	-4,066	228,590	112,608
190,042	-3,787	228,423	112,732
191,056	-3,889	228,103	112,485
192,071	-3,919	228,130	112,465
193,086	-4,010	227,974	112,308
194,100	-4,085	227,754	112,132
195,115	-4,335	227,493	111,799
196,129	-4,895	227,231	111,229
197,144	-1,731	228,067	114,076
198,159	2,069	229,111	117,536
199,173	3,833	229,733	119,214
200,188	3,968	229,590	119,233
201,202	4,099	229,377	119,213
202,217	4,212	229,469	119,338
203,232	4,795	229,130	119,602
204,246	4,641	229,237	119,528
205,261	4,499	229,080	119,325
206,275	4,896	228,777	119,463
207,290	4,912	228,687	119,418
208,304	4,958	228,533	119,363
209,319	4,868	228,430	119,228
210,334	4,758	228,142	118,983
211,348	4,434	227,870	118,582
212,363	4,045	227,629	118,147
213,377	3,934	227,340	117,902
214,392	3,861	227,261	117,794
215,407	3,853	227,219	117,756
216,421	4,073	227,112	117,858
217,436	3,935	226,862	117,612
218,450	3,734	226,736	117,383
219,465	3,584	226,407	117,088
220,480	3,724	226,378	117,169
221,494	3,618	226,254	117,013
222,509	3,798	226,114	117,068
223,523	3,949	226,006	117,116
224,538	3,728	225,857	116,861
225,553	3,864	225,688	116,866
226,567	4,168	225,596	117,039
227,582	4,512	225,514	117,247
228,596	4,359	225,352	117,036
229,611	4,027	225,088	116,638
230,626	3,854	224,767	116,330
231,640	3,600	224,901	116,196
232,655	3,984	224,759	116,403
233,669	4,366	224,801	116,704
234,684	4,711	224,592	116,846
235,699	4,407	224,242	116,424
236,713	4,074	224,169	116,124
237,728	4,131	223,973	116,056
238,742	3,692	223,821	115,636
239,757	4,096	223,574	115,801
240,772	4,203	223,516	115,842
241,786	4,006	223,327	115,585
242,801	4,025	223,442	115,648
243,815	4,248	223,173	115,667
244,830	4,218	222,990	115,539
245,844	4,037	222,800	115,295
246,859	4,089	222,613	115,227
247,874	3,986	222,605	115,135
248,888	4,361	222,439	115,319
249,903	3,980	222,215	114,909
250,917	3,894	222,140	114,795
251,932	4,032	221,878	114,753
252,947	3,901	221,777	114,592
253,961	3,756	221,667	114,417
254,976	3,785	221,523	114,354
255,990	3,935	221,422	114,404
257,005	3,986	221,367	114,403
258,020	4,119	221,140	114,374
259,034	4,243	221,258	114,517
260,049	4,226	220,832	114,274
261,063	4,217	220,686	114,181
262,078	4,372	220,668	114,276
263,093	4,289	220,602	114,171
264,107	4,299	220,369	114,048
265,122	4,342	220,120	113,940
266,136	4,451	220,073	113,987
267,151	4,556	219,854	113,940
268,166	3,943	219,616	113,355
269,180	3,816	219,449	113,165
270,195	3,750	219,314	113,036
271,209	3,687	219,190	112,916
272,224	3,891	219,062	112,991
273,239	4,066	219,021	113,088
274,253	3,945	218,792	112,870
275,268	3,827	218,619	112,685
276,282	3,711	218,407	112,480
277,297	3,771	218,313	112,466
278,312	3,904	218,212	112,501
279,326	3,963	218,026	112,438
280,341	4,100	217,888	112,457
281,355	3,929	217,807	112,280
282,370	3,868	217,676	112,159
283,384	3,821	217,440	111,993
284,399	3,795	217,150	111,814
285,414	3,497	217,197	111,612
286,428	3,795	217,146	111,792
287,443	4,054	217,135	111,965
288,457	4,054	216,875	111,821
289,472	3,983	216,613	111,624
290,487	3,573	216,453	111,235
291,501	3,437	216,206	111,000
292,516	3,732	216,016	111,105
293,530	3,539	216,050	110,974
294,545	3,490	215,960	110,882
295,560	3,633	215,795	110,891
296,574	3,906	215,685	111,021
297,589	3,932	215,596	110,985
298,603	3,945	215,538	110,954
299,618	3,775	215,435	110,769
300,633	3,949	215,300	110,814
301,647	4,231	215,100	110,904
302,662	4,337	214,854	110,844
303,676	4,037	214,892	110,638
304,691	4,085	214,695	110,562
305,706	4,191	214,586	110,572
306,720	4,220	214,426	110,500
307,735	4,043	214,238	110,266
308,749	3,921	214,030	110,062
309,764	4,042	214,074	110,162
310,779	4,187	213,916	110,174
311,793	4,024	213,695	109,934
312,808	3,783	213,508	109,656
313,822	4,070	213,430	109,811
314,837	4,121	213,164	109,701
315,852	3,761	213,023	109,362
316,866	3,999	212,925	109,471
317,881	4,192	212,801	109,535
318,895	4,227	212,722	109,509
319,910	3,919	212,630	109,234
320,925	3,644	212,411	108,916
321,939	3,474	212,191	108,673
322,954	3,606	212,041	108,680
323,968	3,992	212,035	108,941
324,983	4,248	211,905	109,045
325,997	4,394	211,748	109,058
327,012	4,080	211,714	108,809
328,027	4,145	211,419	108,693
329,041	4,136	211,468	108,702
330,056	4,632	211,252	108,932
331,070	3,840	211,137	108,304
332,085	3,660	210,824	108,008
333,100	3,831	210,748	108,079
334,114	3,936	210,646	108,091
335,129	3,920	210,436	107,962
336,143	3,656	210,386	107,742
337,158	3,697	210,248	107,691
338,173	3,866	210,172	107,761
339,187	3,749	209,969	107,565
340,202	3,432	209,850	107,272
341,216	3,449	209,518	107,105
342,231	3,818	209,430	107,308
343,246	3,688	209,331	107,157
344,260	3,640	209,325	107,111
345,275	3,657	209,207	107,053
346,289	4,073	209,156	107,307
347,304	4,050	208,918	107,159
348,319	3,949	208,675	106,955
349,333	4,035	208,690	107,013
350,348	4,042	208,504	106,913
351,362	4,324	208,464	107,078
352,377	4,028	208,404	106,833
353,392	3,836	208,196	106,583
354,406	4,157	207,888	106,639
355,421	193,551	1345,952	1433,303
356,435	154,397	1484,724	1433,424
