DTS Sentinel unit serial number:	SN410029Multiplexer serial number:	ORYXHardware model number:	OX2-SRSoftware version number:	ORYX F/W v4,00 Oryx Data Collector v3.7.2.0data status	okinstallation	B6 Nyhavnadifferential loss correction	single-endedforward channel	channel 2reverse channel	N/Adate	2023/12/09time	17:25:08forward acquisition time	300,00reverse acquisition time	0,00gamma	499,1914k internal	0,3130k external	0,3130temperature offset calibration	1,0000default loss term (dB/km)	0,3820temperature slope calibration	1,0000multiplexer offset coefficient	1,0000multiplexer slope coefficient	1,0000fibre end	0,00T internal ref (°C)	21,00T ext. ref 1 (°C)	4,71T ext. ref 2 (°C)	4,71length (m)	temperature (°C)	Stokes	anti-Stokes-744,400	39,913	0,094	-0,062
-743,385	-140,805	-0,176	0,013
-742,371	121,493	0,082	0,076
-741,356	-24,410	-0,197	0,087
-740,342	-24,259	0,116	-0,051
-739,327	39,748	-0,257	0,171
-738,312	314,809	0,032	-0,044
-737,298	-121,456	-0,281	0,034
-736,283	-200,000	0,016	-0,119
-735,269	-74,243	-0,265	-0,071
-734,254	-200,000	-0,016	-0,077
-733,239	-57,699	-0,501	-0,162
-732,225	36,853	0,104	-0,068
-731,210	-5,177	0,038	0,020
-730,196	267,260	-0,054	-0,070
-729,181	-79,328	0,177	0,044
-728,167	-200,000	-0,003	0,063
-727,152	-1,384	-0,112	-0,058
-726,137	116,436	0,050	-0,046
-725,123	-68,271	-0,099	-0,028
-724,108	611,154	-0,056	-0,104
-723,094	-143,792	-0,033	0,002
-722,079	619,956	-0,039	-0,074
-721,064	800,000	0,043	0,089
-720,050	-131,825	-0,044	0,004
-719,035	320,846	-0,036	-0,050
-718,021	-117,768	0,028	-0,004
-717,006	63,636	-0,015	0,011
-715,991	-200,000	-0,009	0,044
-714,977	800,000	0,031	-0,067
-713,962	-200,000	-0,024	-0,117
-712,948	612,042	-0,074	0,139
-711,933	262,808	0,038	-0,049
-710,918	-200,000	0,015	-0,111
-709,904	800,000	-0,070	-0,151
-708,889	156,758	-0,031	0,031
-707,875	211,801	0,032	-0,037
-706,860	-200,000	0,018	-0,075
-705,845	-168,221	-0,052	-0,001
-704,831	119,773	-0,028	-0,025
-703,816	-118,849	0,149	0,019
-702,802	67,646	-0,084	0,064
-701,787	800,000	-0,036	-0,085
-700,772	69,429	0,068	-0,052
-699,758	659,966	0,069	-0,133
-698,743	-194,813	-0,107	-0,001
-697,729	-200,000	-0,006	0,184
-696,714	114,042	0,057	-0,052
-695,699	260,392	-0,102	0,131
-694,685	-50,711	-0,121	0,042
-693,670	-7,931	0,145	-0,072
-692,656	-40,475	0,058	0,022
-691,641	800,000	0,021	0,066
-690,627	-90,908	-0,033	-0,007
-689,612	690,173	-0,019	0,037
-688,597	61,779	0,033	0,025
-687,583	-39,556	-0,051	-0,020
-686,568	800,000	0,018	-0,044
-685,554	101,473	0,059	0,051
-684,539	-200,000	-0,034	0,141
-683,524	-18,950	-0,019	0,009
-682,510	-148,605	-0,033	0,002
-681,495	800,000	-0,031	0,091
-680,481	-80,045	0,092	0,023
-679,466	-84,917	-0,099	-0,023
-678,451	800,000	-0,052	-0,133
-677,437	-123,759	-0,116	-0,013
-676,422	-200,000	-0,003	0,081
-675,408	-200,000	-0,011	-0,106
-674,393	-200,000	0,000	-0,033
-673,378	232,526	-0,016	-0,020
-672,364	159,077	0,039	-0,040
-671,349	-200,000	0,040	-0,236
-670,335	17,988	0,042	-0,025
-669,320	800,000	-0,049	-0,120
-668,305	-200,000	0,004	0,078
-667,291	-200,000	-0,015	-0,081
-666,276	29,244	0,003	-0,002
-665,262	0,706	-0,081	-0,043
-664,247	308,113	0,016	0,022
-663,232	295,070	0,010	0,014
-662,218	521,406	-0,013	-0,023
-661,203	-11,250	-0,083	-0,040
-660,189	-200,000	0,023	-0,181
-659,174	-143,095	-0,043	0,003
-658,159	-200,000	-0,004	-0,029
-657,145	-200,000	-0,026	-0,172
-656,130	286,315	0,071	0,096
-655,116	120,182	0,078	0,072
-654,101	-200,000	-0,005	0,133
-653,086	4,966	0,060	-0,032
-652,072	-200,000	-0,013	0,158
-651,057	-167,722	0,033	-0,001
-650,043	800,000	-0,042	-0,090
-649,028	-70,187	0,033	0,009
-648,014	-200,000	-0,004	0,014
-646,999	-200,000	-0,004	0,019
-645,984	-200,000	-0,008	0,046
-644,970	800,000	-0,028	-0,078
-643,955	-200,000	-0,003	0,044
-642,941	63,869	-0,081	-0,060
-641,926	700,836	0,033	-0,066
-640,911	-88,189	0,061	-0,013
-639,897	-200,000	-0,025	0,137
-638,882	93,933	-0,081	0,068
-637,868	-66,201	-0,078	-0,023
-636,853	-200,000	0,005	-0,038
-635,838	55,700	0,089	-0,064
-634,824	-120,501	-0,097	-0,012
-633,809	800,000	0,053	0,124
-632,795	662,279	0,068	0,130
-631,780	-83,335	-0,034	0,008
-630,765	-114,239	-0,116	0,016
-629,751	-158,587	-0,032	-0,001
-628,736	-200,000	-0,033	-0,119
-627,722	-200,000	-0,039	-0,189
-626,707	354,615	-0,030	-0,044
-625,692	-200,000	-0,009	-0,054
-624,678	-200,000	-0,001	0,061
-623,663	-200,000	-0,016	0,129
-622,649	-54,931	-0,065	-0,022
-621,634	-25,891	-0,123	-0,054
-620,619	-18,042	0,075	-0,034
-619,605	-50,812	0,035	-0,012
-618,590	-159,533	0,069	-0,003
-617,576	-127,779	0,131	-0,014
-616,561	-29,016	-0,054	-0,023
-615,546	-200,000	0,002	-0,150
-614,532	24,849	-0,123	-0,075
-613,517	30,869	-0,076	0,048
-612,503	16,967	-0,049	-0,029
-611,488	33,513	-0,081	-0,052
-610,474	-200,000	0,025	0,000
-609,459	-200,000	0,019	-0,061
-608,444	-45,792	-0,081	0,030
-607,430	35,623	0,075	-0,048
-606,415	-200,000	-0,008	0,062
-605,401	800,000	0,044	0,095
-604,386	800,000	-0,028	-0,071
-603,371	-200,000	-0,010	0,101
-602,357	800,000	-0,070	0,150
-601,342	-200,000	-0,025	-0,166
-600,328	-200,000	-0,041	-0,137
-599,313	800,000	-0,035	-0,075
-598,298	-20,864	0,122	0,055
-597,284	239,033	0,061	0,075
-596,269	37,545	-0,102	0,067
-595,255	-200,000	0,006	0,033
-594,240	-127,648	-0,048	-0,005
-593,225	-31,028	-0,065	-0,027
-592,211	800,000	-0,041	-0,106
-591,196	-28,580	-0,066	-0,028
-590,182	-200,000	0,016	0,052
-589,167	381,620	0,087	0,132
-588,152	800,000	-0,033	0,090
-587,138	800,000	-0,070	0,193
-586,123	689,762	-0,104	0,201
-585,109	-44,306	-0,119	0,044
-584,094	-13,590	0,164	0,078
-583,079	800,000	-0,031	0,076
-582,065	263,637	0,065	0,083
-581,050	450,604	0,038	0,062
-580,036	-148,296	-0,076	0,005
-579,021	24,538	0,064	-0,039
-578,006	-127,017	-0,142	0,015
-576,992	149,997	0,017	-0,017
-575,977	19,803	0,040	-0,024
-574,963	-86,360	0,160	0,036
-573,948	40,270	-0,053	0,035
-572,934	-64,536	-0,110	0,033
-571,919	20,858	0,088	0,052
-570,904	232,663	-0,065	0,079
-569,890	-200,000	-0,037	-0,128
-568,875	800,000	0,032	-0,103
-567,861	0,806	0,109	-0,058
-566,846	-200,000	0,009	0,109
-565,831	-200,000	0,020	0,080
-564,817	135,147	-0,066	-0,063
-563,802	-70,174	-0,042	-0,012
-562,788	-12,176	-0,061	0,029
-561,773	-65,058	-0,051	0,015
-560,758	147,867	-0,123	0,123
-559,744	181,581	0,094	-0,103
-558,729	295,255	0,025	0,034
-557,715	-200,000	-0,020	0,080
-556,700	130,373	-0,027	0,025
-555,685	800,000	0,062	0,156
-554,671	-126,943	-0,031	0,003
-553,656	335,766	0,084	0,120
-552,642	55,618	-0,071	-0,051
-551,627	69,746	-0,090	0,069
-550,612	-66,295	0,025	-0,007
-549,598	605,593	0,008	-0,015
-548,583	-200,000	0,004	-0,092
-547,569	800,000	-0,044	-0,125
-546,554	-117,652	-0,158	0,021
-545,539	800,000	-0,030	0,072
-544,525	54,118	-0,055	-0,039
-543,510	33,529	0,137	-0,088
-542,496	34,787	-0,046	-0,030
-541,481	-200,000	0,037	-0,198
-540,466	-200,000	0,018	-0,085
-539,452	-200,000	-0,009	-0,164
-538,437	-200,000	-0,005	-0,021
-537,423	-13,714	-0,103	-0,049
-536,408	12,504	-0,025	-0,014
-535,393	-200,000	0,001	-0,073
-534,379	134,064	0,060	-0,057
-533,364	-200,000	-0,012	-0,167
-532,350	800,000	-0,080	-0,173
-531,335	24,061	-0,126	-0,076
-530,321	450,145	0,033	-0,054
-529,306	671,017	0,047	-0,091
-528,291	162,434	-0,036	0,037
-527,277	688,088	-0,055	-0,107
-526,262	-44,975	-0,092	-0,034
-525,248	46,133	0,050	-0,034
-524,233	72,623	-0,088	0,068
-523,218	800,000	0,029	-0,088
-522,204	-200,000	-0,027	-0,163
-521,189	-106,766	-0,131	-0,021
-520,175	800,000	-0,061	-0,148
-519,160	16,967	0,123	0,072
-518,145	800,000	-0,025	-0,066
-517,131	-1,456	0,031	0,016
-516,116	800,000	0,041	0,102
-515,102	-97,043	-0,079	-0,015
-514,087	707,369	-0,062	-0,121
-513,072	-200,000	0,008	0,130
-512,058	431,970	0,036	0,057
-511,043	49,237	-0,055	0,038
-510,029	183,995	0,050	-0,054
-509,014	69,573	0,075	0,057
-507,999	-200,000	-0,023	0,191
-506,985	432,375	-0,040	-0,063
-505,970	221,797	-0,047	-0,056
-504,956	800,000	-0,051	-0,114
-503,941	367,097	0,094	0,140
-502,926	31,668	-0,080	0,050
-501,912	800,000	0,075	0,235
-500,897	579,045	0,087	0,157
-499,883	33,471	-0,083	-0,053
-498,868	-85,395	0,062	-0,014
-497,853	62,582	-0,112	-0,083
-496,839	420,315	-0,108	-0,170
-495,824	-100,504	0,140	-0,025
-494,810	-97,867	-0,063	-0,012
-493,795	-200,000	-0,005	0,041
-492,781	-102,757	-0,169	0,029
-491,766	-159,853	-0,146	-0,006
-490,751	60,052	-0,054	0,039
-489,737	94,066	-0,004	0,003
-488,722	-56,612	-0,039	-0,013
-487,708	-200,000	0,002	0,027
-486,693	59,333	-0,059	-0,043
-485,678	-108,885	-0,087	0,014
-484,664	-200,000	0,014	-0,078
-483,649	-200,000	0,019	0,086
-482,635	177,412	0,099	0,106
-481,620	-50,697	0,037	-0,013
-480,605	-200,000	0,020	0,121
-479,591	781,578	-0,030	0,060
-478,576	518,299	-0,055	-0,095
-477,562	-200,000	-0,003	-0,042
-476,547	800,000	-0,011	-0,024
-475,532	-200,000	-0,012	-0,162
-474,518	800,000	-0,010	0,032
-473,503	266,969	0,101	0,130
-472,489	-200,000	0,002	-0,010
-471,474	-200,000	0,016	0,092
-470,459	287,202	0,037	-0,049
-469,445	-32,582	-0,121	-0,049
-468,430	115,254	-0,086	-0,078
-467,416	578,622	0,021	-0,038
-466,401	-105,129	0,112	0,019
-465,386	445,877	0,069	0,112
-464,372	63,058	0,031	0,022
-463,357	-16,922	-0,113	0,053
-462,343	16,560	-0,126	-0,073
-461,328	161,781	-0,055	0,057
-460,313	-61,694	-0,088	-0,027
-459,299	540,640	0,035	0,061
-458,284	-6,484	0,048	0,024
-457,270	486,375	0,016	-0,026
-456,255	6,497	-0,128	-0,070
-455,241	32,494	-0,210	-0,133
-454,226	-131,270	0,148	-0,014
-453,211	-200,000	0,011	-0,155
-452,197	-106,402	-0,035	-0,006
-451,182	-200,000	0,000	-0,016
-450,168	-200,000	0,028	-0,120
-449,153	207,240	-0,059	-0,068
-448,138	-200,000	-0,029	-0,176
-447,124	-200,000	-0,019	0,085
-446,109	607,158	-0,024	0,044
-445,095	14,675	0,102	0,058
-444,080	-24,200	0,130	-0,057
-443,065	324,387	-0,034	-0,048
-442,051	279,078	-0,070	-0,092
-441,036	48,837	-0,031	0,021
-440,022	92,706	0,084	0,070
-439,007	-139,444	-0,094	-0,007
-437,992	684,313	-0,061	0,117
-436,978	114,287	-0,077	0,069
-435,963	-200,000	-0,021	0,082
-434,949	-200,000	0,010	-0,098
-433,934	800,000	-0,040	-0,089
-432,919	-126,288	-0,082	-0,009
-431,905	-200,000	-0,009	0,065
-430,890	800,000	-0,012	-0,033
-429,876	220,942	0,081	0,095
-428,861	-138,349	0,086	-0,007
-427,846	-128,702	-0,043	0,004
-426,832	-10,806	-0,116	0,056
-425,817	800,000	0,013	-0,028
-424,803	-29,573	-0,132	-0,055
-423,788	-119,746	0,082	-0,010
-422,773	77,146	0,111	0,086
-421,759	-13,309	0,085	0,040
-420,744	-136,318	0,095	-0,008
-419,730	-200,000	0,035	-0,123
-418,715	144,829	-0,050	-0,049
-417,701	166,057	-0,081	0,085
-416,686	-200,000	-0,012	0,091
-415,671	-200,000	-0,028	0,100
-414,657	-150,584	-0,050	0,003
-413,642	-80,744	0,141	-0,034
-412,628	800,000	-0,015	-0,046
-411,613	-200,000	-0,004	0,120
-410,598	-200,000	0,001	-0,092
-409,584	-31,091	-0,074	-0,031
-408,569	800,000	-0,020	0,043
-407,555	-71,799	0,042	-0,011
-406,540	-63,373	0,070	-0,021
-405,525	139,287	-0,048	-0,047
-404,511	212,989	-0,036	0,042
-403,496	800,000	0,016	-0,050
-402,482	800,000	-0,031	0,082
-401,467	346,448	0,075	0,108
-400,452	271,983	0,081	-0,105
-399,438	439,238	0,053	-0,085
-398,423	-1,156	-0,140	0,073
-397,409	-200,000	-0,015	0,095
-396,394	-184,205	0,160	-0,002
-395,379	-24,631	-0,163	0,071
-394,365	37,611	-0,097	0,063
-393,350	-20,188	0,081	0,036
-392,336	-128,325	0,080	0,008
-391,321	39,177	0,105	-0,069
-390,306	-46,766	-0,077	0,027
-389,292	251,755	0,051	-0,064
-388,277	-23,361	-0,018	-0,008
-387,263	-103,197	0,083	-0,014
-386,248	-200,000	-0,012	-0,112
-385,233	-70,120	-0,119	0,033
-384,219	114,082	0,046	-0,041
-383,204	58,615	-0,101	-0,073
-382,190	-200,000	-0,006	-0,149
-381,175	800,000	0,015	-0,042
-380,160	81,889	0,081	0,064
-379,146	-131,375	0,144	0,014
-378,131	800,000	-0,034	0,110
-377,117	-111,005	-0,073	-0,011
-376,102	172,035	-0,100	-0,106
-375,088	-200,000	0,023	-0,143
-374,073	391,571	0,060	0,092
-373,058	800,000	0,027	0,057
-372,044	-200,000	0,010	-0,036
-371,029	27,003	-0,100	0,061
-370,015	-78,795	-0,106	-0,026
-369,000	-200,000	-0,006	0,047
-367,985	-100,938	0,043	0,008
-366,971	93,488	0,123	-0,102
-365,956	-45,721	0,051	-0,019
-364,942	41,936	0,083	0,055
-363,927	210,231	-0,053	-0,061
-362,912	-154,842	-0,074	-0,004
-361,898	-200,000	0,005	-0,082
-360,883	15,171	0,046	0,027
-359,869	-26,827	0,118	-0,050
-358,854	800,000	-0,046	0,125
-357,839	-200,000	0,002	0,159
-356,825	-35,257	-0,112	0,045
-355,810	800,000	-0,008	0,020
-354,796	6,896	0,062	-0,034
-353,781	709,049	-0,018	-0,035
-352,766	-200,000	0,034	-0,147
-351,752	320,639	0,048	-0,068
-350,737	-125,277	0,086	-0,009
-349,723	493,758	0,080	-0,135
-348,708	32,143	-0,046	-0,029
-347,693	-137,868	0,057	-0,005
-346,679	-96,398	0,132	0,025
-345,664	32,395	-0,101	-0,064
-344,650	246,357	0,020	-0,025
-343,635	345,532	0,069	0,100
-342,620	-36,165	0,102	0,040
-341,606	-116,570	0,230	-0,031
-340,591	84,129	0,117	0,093
-339,577	171,596	-0,055	0,058
-338,562	800,000	-0,035	0,072
-337,548	800,000	-0,019	0,056
-336,533	800,000	0,026	-0,066
-335,518	800,000	-0,020	-0,042
-334,504	800,000	-0,020	0,062
-333,489	-200,000	0,004	0,059
-332,475	-200,000	-0,009	-0,132
-331,460	57,790	-0,063	-0,045
-330,445	-200,000	-0,020	0,071
-329,431	-200,000	0,000	-0,059
-328,416	-200,000	0,015	0,053
-327,402	-63,752	-0,055	0,016
-326,387	-41,284	0,009	-0,004
-325,372	22,439	0,084	-0,050
-324,358	124,068	-0,032	-0,030
-323,343	215,201	0,081	0,095
-322,329	-200,000	0,009	-0,051
-321,314	-200,000	0,011	-0,042
-320,299	149,135	-0,129	0,128
-319,285	31,581	0,061	0,038
-318,270	-200,000	-0,009	0,047
-317,256	-41,357	-0,074	0,028
-316,241	-200,000	-0,007	0,095
-315,226	-191,633	0,114	0,001
-314,212	114,649	0,055	0,049
-313,197	407,854	-0,014	-0,022
-312,183	-21,708	0,053	0,023
-311,168	63,884	0,065	-0,048
-310,153	26,000	-0,078	-0,047
-309,139	-58,082	0,059	0,019
-308,124	-98,987	0,156	-0,029
-307,110	42,077	0,129	0,086
-306,095	144,336	0,013	0,012
-305,080	97,462	0,063	0,053
-304,066	28,842	0,114	-0,070
-303,051	-49,878	-0,072	0,025
-302,037	136,795	-0,077	-0,074
-301,022	-24,807	-0,058	-0,025
-300,008	40,461	0,034	0,022
-298,993	-58,141	-0,039	-0,012
-297,978	-200,000	-0,018	0,069
-296,964	-200,000	-0,076	-0,249
-295,949	600,452	0,063	0,115
-294,935	800,000	-0,009	0,021
-293,920	307,745	0,054	0,074
-292,905	-148,858	-0,096	-0,006
-291,891	323,764	0,074	0,103
-290,876	1,618	0,053	0,028
-289,862	-200,000	0,019	-0,070
-288,847	-78,519	-0,053	-0,013
-287,832	92,719	-0,035	0,029
-286,818	-200,000	-0,012	0,069
-285,803	-117,627	0,097	0,013
-284,789	-155,266	0,142	0,007
-283,774	-102,385	-0,046	0,008
-282,759	-200,000	-0,009	0,090
-281,745	73,528	0,073	0,056
-280,730	-200,000	-0,009	-0,083
-279,716	715,513	-0,029	0,056
-278,701	-200,000	0,005	0,084
-277,686	357,089	-0,019	0,028
-276,672	48,527	0,198	-0,136
-275,657	349,404	-0,041	0,059
-274,643	133,335	-0,055	0,052
-273,628	-200,000	0,008	-0,090
-272,613	187,068	0,041	-0,045
-271,599	241,544	0,037	0,045
-270,584	-200,000	0,024	0,094
-269,570	494,523	0,059	-0,099
-268,555	15,417	-0,172	-0,098
-267,540	-72,065	-0,043	0,011
-266,526	-200,000	-0,018	-0,166
-265,511	-22,711	0,078	0,034
-264,497	-56,140	0,050	-0,016
-263,482	-35,933	-0,107	0,042
-262,467	-200,000	0,019	0,077
-261,453	-37,797	0,074	0,029
-260,438	-49,580	0,036	0,012
-259,424	-8,270	0,055	-0,027
-258,409	-61,617	0,095	-0,029
-257,395	-200,000	0,012	-0,145
-256,380	-200,000	0,013	-0,123
-255,365	156,083	-0,117	0,117
-254,351	-200,000	-0,023	0,123
-253,336	449,538	-0,045	-0,073
-252,322	800,000	-0,051	-0,155
-251,307	247,120	-0,034	0,042
-250,292	164,480	-0,043	-0,044
-249,278	291,932	0,027	0,036
-248,263	800,000	0,020	-0,050
-247,249	-200,000	0,022	0,088
-246,234	51,618	-0,085	0,059
-245,219	-46,485	0,125	-0,045
-244,205	-200,000	-0,045	-0,219
-243,190	367,941	0,037	-0,054
-242,176	-24,718	0,037	-0,016
-241,161	-200,000	-0,002	-0,041
-240,146	363,267	0,080	0,118
-239,132	-200,000	-0,035	0,144
-238,117	122,223	0,050	-0,046
-237,103	-200,000	-0,025	0,089
-236,088	351,874	0,090	0,131
-235,073	-200,000	-0,007	0,072
-234,059	-200,000	-0,027	-0,088
-233,044	800,000	0,029	0,068
-232,030	129,902	0,041	0,038
-231,015	800,000	-0,056	-0,143
-230,000	-92,660	-0,094	-0,019
-228,986	-200,000	-0,002	-0,057
-227,971	800,000	0,020	-0,045
-226,957	800,000	-0,021	-0,057
-225,942	135,468	0,060	0,057
-224,927	82,779	0,109	-0,086
-223,913	-137,709	-0,138	0,011
-222,898	-152,834	-0,116	0,006
-221,884	-200,000	0,014	0,050
-220,869	-30,259	-0,035	-0,015
-219,855	-200,000	0,017	0,136
-218,840	-200,000	-0,009	-0,039
-217,825	79,254	0,137	-0,107
-216,811	-107,083	-0,089	0,014
-215,796	96,970	0,068	0,057
-214,782	-92,595	0,119	-0,024
-213,767	507,309	0,008	-0,014
-212,752	84,860	-0,116	0,092
-211,738	800,000	0,066	0,161
-210,723	26,065	0,035	0,021
-209,709	-200,000	-0,003	-0,146
-208,694	-200,000	0,010	-0,074
-207,679	-200,000	-0,011	0,104
-206,665	-43,907	-0,081	0,030
-205,650	-150,591	0,090	0,005
-204,636	-108,433	0,117	-0,018
-203,621	800,000	0,021	-0,049
-202,606	13,013	0,091	0,051
-201,592	-200,000	0,000	-0,062
-200,577	311,119	-0,050	-0,069
-199,563	26,151	0,094	0,057
-198,548	-73,617	0,067	0,018
-197,533	406,017	0,035	-0,054
-196,519	374,999	-0,054	0,080
-195,504	-200,000	-0,030	-0,113
-194,490	-200,000	-0,009	-0,175
-193,475	-200,000	-0,012	-0,052
-192,460	78,567	-0,035	0,027
-191,446	-86,468	0,191	-0,042
-190,431	634,859	-0,035	0,065
-189,417	-117,165	0,062	0,008
-188,402	20,055	0,034	0,020
-187,387	-123,397	-0,155	-0,018
-186,373	140,908	0,081	-0,078
-185,358	-27,149	0,077	0,032
-184,344	-200,000	-0,016	0,072
-183,329	-200,000	0,028	0,151
-182,315	2,489	-0,068	0,036
-181,300	-200,000	0,021	0,172
-180,285	50,543	-0,099	-0,068
-179,271	43,453	0,069	-0,046
-178,256	163,886	0,044	0,045
-177,242	56,095	-0,024	0,017
-176,227	3,973	0,230	-0,122
-175,212	800,000	0,014	0,034
-174,198	-200,000	-0,001	0,053
-173,183	417,548	0,049	0,077
-172,169	87,358	-0,021	-0,016
-171,154	-200,000	0,028	-0,098
-170,139	-7,443	0,100	0,049
-169,125	-200,000	-0,016	0,088
-168,110	16,015	-0,128	0,073
-167,096	-114,601	0,043	0,006
-166,081	202,726	0,041	-0,046
-165,066	-200,000	0,010	-0,068
-164,052	-200,000	-0,024	-0,106
-163,037	-200,000	0,005	0,071
-162,023	569,500	-0,044	0,079
-161,008	-111,164	0,052	0,008
-159,993	800,000	-0,035	-0,098
-158,979	-200,000	0,006	0,149
-157,964	228,963	-0,053	-0,063
-156,950	174,973	-0,060	0,063
-155,935	187,585	0,097	0,105
-154,920	-161,347	0,145	0,005
-153,906	618,009	0,074	0,136
-152,891	161,920	0,071	0,073
-151,877	-175,540	0,088	-0,002
-150,862	-200,000	-0,008	0,095
-149,847	-200,000	0,045	-0,229
-148,833	583,413	0,059	0,105
-147,818	-8,288	-0,106	0,052
-146,804	800,000	0,017	0,039
-145,789	591,455	-0,047	0,084
-144,775	800,000	0,039	-0,085
-143,760	210,465	0,053	-0,061
-142,745	481,588	-0,034	-0,056
-141,731	447,942	-0,027	-0,043
-140,716	198,073	0,079	0,087
-139,702	-200,000	0,017	0,069
-138,687	-200,000	-0,016	-0,066
-137,672	800,000	-0,034	-0,085
-136,658	-200,000	0,000	0,119
-135,643	-166,963	0,083	0,002
-134,629	800,000	-0,018	0,051
-133,614	132,045	0,038	0,036
-132,599	-66,424	0,068	0,019
-131,585	151,614	0,111	-0,109
-130,570	45,567	0,122	-0,081
-129,556	48,590	-0,074	0,050
-128,541	231,500	-0,039	-0,047
-127,526	-200,000	-0,012	0,060
-126,512	800,000	0,034	0,075
-125,497	201,126	-0,077	0,086
-124,483	122,869	-0,082	0,075
-123,468	-48,503	-0,095	0,033
-122,453	207,628	0,045	0,051
-121,439	56,020	0,104	-0,073
-120,424	-11,286	-0,061	-0,029
-119,410	-93,496	0,202	-0,040
-118,395	800,000	-0,030	-0,083
-117,380	-200,000	-0,014	-0,137
-116,366	-200,000	0,002	-0,035
-115,351	233,445	0,060	-0,072
-114,337	-41,356	-0,120	0,045
-113,322	-59,291	0,069	-0,021
-112,307	-200,000	0,036	0,154
-111,293	-200,000	-0,002	-0,017
-110,278	-141,750	0,198	-0,014
-109,264	57,313	-0,097	-0,069
-108,249	-200,000	0,016	-0,140
-107,234	800,000	-0,045	0,138
-106,220	-200,000	-0,007	0,083
-105,205	-200,000	-0,013	0,093
-104,191	800,000	-0,028	0,075
-103,176	246,966	0,028	-0,035
-102,162	398,551	-0,036	-0,056
-101,147	800,000	0,013	-0,037
-100,132	662,286	0,040	-0,076
-99,118	189,469	-0,085	-0,093
-98,103	-200,000	-0,016	0,153
-97,089	193,485	-0,082	-0,090
-96,074	-135,268	-0,011	-0,001
-95,059	-200,000	0,020	0,087
-94,045	-62,494	-0,147	-0,044
-93,030	-200,000	0,000	-0,040
-92,016	246,010	-0,060	-0,073
-91,001	-200,000	0,017	-0,054
-89,986	-200,000	0,019	0,077
-88,972	598,115	-0,039	-0,070
-87,957	-200,000	0,004	-0,113
-86,943	55,394	-0,028	0,020
-85,928	-111,634	-0,042	0,006
-84,913	-65,208	-0,101	-0,029
-83,899	332,658	0,042	0,059
-82,884	753,298	0,045	-0,088
-81,870	-8,715	0,073	-0,035
-80,855	180,452	-0,098	0,104
-79,840	200,986	0,047	0,052
-78,826	800,000	-0,022	-0,063
-77,811	388,846	-0,089	0,134
-76,797	-200,000	-0,003	-0,024
-75,782	12,797	0,059	0,033
-74,767	-57,209	0,088	0,028
-73,753	503,344	0,071	-0,120
-72,738	292,785	-0,060	-0,079
-71,724	339,911	0,033	-0,047
-70,709	-52,161	-0,049	0,016
-69,694	-200,000	-0,010	0,093
-68,680	134,054	0,040	0,038
-67,665	-200,000	0,081	0,270
-66,651	48,107	0,056	0,038
-65,636	147,390	-0,086	0,084
-64,622	-12,263	0,103	0,048
-63,607	-200,000	-0,027	0,098
-62,592	800,000	0,028	-0,080
-61,578	537,453	0,080	0,139
-60,563	-94,226	-0,158	-0,031
-59,549	41,995	-0,077	-0,050
-58,534	-83,432	-1,432	-0,330
-57,519	800,000	-0,716	-1,479
-56,505	-200,000	-1,023	-4,661
-55,490	-112,909	0,623	-0,088
-54,476	800,000	5,100	11,867
-53,461	-200,000	14,627	259,396
-52,446	-200,000	696,057	2234,858
-51,432	565,363	1622,193	2858,516
-50,417	117,814	1629,937	1452,858
-49,403	74,742	1284,251	977,307
-48,388	37,418	1022,443	654,803
-47,373	23,252	981,726	582,213
-46,359	22,391	970,963	572,987
-45,344	21,161	966,790	566,490
-44,330	21,236	965,247	565,807
-43,315	21,070	963,651	564,310
-42,300	21,051	962,670	563,650
-41,286	21,099	961,708	563,222
-40,271	21,007	960,799	562,367
-39,257	21,123	959,580	562,010
-38,242	21,032	958,806	561,237
-37,227	21,052	957,912	560,758
-36,213	21,046	957,094	560,236
-35,198	20,901	956,394	559,337
-34,184	21,009	955,557	559,172
-33,169	20,948	954,833	558,531
-32,154	21,018	953,744	558,098
-31,140	21,015	952,948	557,599
-30,125	21,096	952,205	557,403
-29,111	21,063	951,462	556,839
-28,096	21,039	950,706	556,298
-27,082	21,018	949,952	555,767
-26,067	21,076	949,025	555,390
-25,052	21,021	948,398	554,825
-24,038	21,031	947,818	554,496
-23,023	21,002	947,343	554,102
-22,009	21,125	946,567	554,021
-20,994	21,094	945,847	553,478
-19,979	21,057	945,327	553,033
-18,965	21,039	944,786	552,637
-17,950	20,995	944,082	552,063
-16,936	20,981	943,523	551,669
-15,921	20,936	942,925	551,154
-14,906	20,933	942,155	550,675
-13,892	20,934	941,418	550,225
-12,877	20,956	940,907	549,975
-11,863	20,902	940,225	549,380
-10,848	20,950	939,686	549,196
-9,833	20,961	939,350	549,014
-8,819	20,953	938,807	548,651
-7,804	20,943	937,853	548,039
-6,790	20,880	937,456	547,586
-5,775	20,930	936,852	547,369
-4,760	20,908	936,139	546,862
-3,746	20,897	935,538	546,452
-2,731	20,742	934,786	545,503
-1,717	20,763	933,964	545,070
-0,702	20,764	933,315	544,671
0,313	20,588	932,735	544,602
1,327	23,595	930,768	552,844
2,342	32,719	794,141	495,921
3,356	30,271	450,307	277,503
4,371	0,077	293,911	150,999
5,386	-4,326	275,059	137,136
6,400	-5,518	269,396	133,194
7,415	-5,870	267,036	131,692
8,429	-5,695	265,855	131,258
9,444	-5,820	264,997	130,708
10,459	-5,592	264,384	130,603
11,473	-5,779	263,789	130,126
12,488	-5,754	263,236	129,865
13,502	-5,967	262,716	129,405
14,517	-5,963	262,377	129,229
15,531	-5,757	261,921	129,179
16,546	-5,526	261,499	129,168
17,561	-5,862	261,239	128,726
18,575	-5,848	260,965	128,591
19,590	-5,759	260,434	128,398
20,604	-5,792	260,279	128,280
21,619	-5,890	259,883	127,986
22,634	-5,830	259,535	127,857
23,648	-5,826	259,207	127,688
24,663	-5,915	259,124	127,556
25,677	-5,883	258,741	127,385
26,692	-5,783	258,367	127,278
27,707	-6,028	258,285	127,009
28,721	-5,802	257,950	127,033
29,736	-6,132	257,710	126,611
30,750	-6,013	257,541	126,622
31,765	-5,961	257,302	126,540
32,780	-5,975	256,902	126,320
33,794	-5,859	256,754	126,338
34,809	-5,849	256,474	126,198
35,823	-5,921	256,247	126,010
36,838	-5,983	255,928	125,788
37,853	-5,982	255,759	125,695
38,867	-6,069	255,686	125,571
39,882	-6,009	255,315	125,430
40,896	-5,937	255,090	125,372
41,911	-6,021	255,018	125,251
42,926	-6,126	254,610	124,948
43,940	-6,047	254,469	124,937
44,955	-6,020	254,193	124,814
45,969	-6,166	254,041	124,600
46,984	-6,126	253,643	124,430
47,999	-6,372	253,275	124,024
49,013	-6,785	253,247	123,640
50,028	-6,893	253,076	123,451
51,042	-6,689	252,597	123,383
52,057	-6,857	252,515	123,187
53,071	-6,693	252,246	123,187
54,086	-6,542	252,028	123,200
55,101	-6,559	252,019	123,170
56,115	-6,282	251,764	123,274
57,130	-5,947	251,774	123,557
58,144	-5,478	251,506	123,818
59,159	-5,754	251,315	123,476
60,174	-5,813	251,124	123,321
61,188	-5,796	250,881	123,205
62,203	-5,894	250,805	123,072
63,217	-5,999	250,530	122,836
64,232	-5,656	250,355	123,034
65,247	-5,727	250,001	122,788
66,261	-5,837	249,862	122,615
67,276	-6,096	249,603	122,255
68,290	-6,052	249,286	122,126
69,305	-6,225	249,118	121,885
70,320	-6,268	249,005	121,782
71,334	-6,082	248,875	121,866
72,349	-5,896	248,762	121,959
73,363	-5,572	248,388	122,040
74,378	-5,929	248,210	121,639
75,393	-5,889	248,087	121,601
76,407	-5,913	247,887	121,472
77,422	-6,050	247,722	121,264
78,436	-5,646	247,550	121,512
79,451	-5,759	247,228	121,247
80,466	-6,024	246,951	120,876
81,480	-5,944	246,572	120,748
82,495	-6,278	246,602	120,470
83,509	-6,228	246,467	120,436
84,524	-6,197	246,157	120,299
85,539	-6,158	245,826	120,159
86,553	-6,204	245,697	120,047
87,568	-6,239	245,604	119,962
88,582	-6,029	245,349	120,002
89,597	-6,165	245,153	119,782
90,611	-5,998	245,240	119,953
91,626	-5,922	244,912	119,846
92,641	-5,966	244,781	119,735
93,655	-5,992	244,602	119,615
94,670	-6,071	244,420	119,449
95,684	-6,078	244,219	119,334
96,699	-5,857	243,937	119,370
97,714	-6,180	243,732	118,990
98,728	-6,191	243,535	118,874
99,743	-6,294	243,345	118,685
100,757	-6,308	243,191	118,588
101,772	-6,171	243,161	118,676
102,787	-6,326	242,943	118,431
103,801	-6,290	242,623	118,294
104,816	-6,000	242,446	118,438
105,830	-5,923	242,455	118,495
106,845	-5,779	242,233	118,495
107,860	-5,986	242,023	118,210
108,874	-5,998	241,883	118,122
109,889	-6,106	241,634	117,901
110,903	-5,920	241,297	117,879
111,918	-5,912	241,132	117,795
112,933	-6,034	241,080	117,657
113,947	-5,946	240,848	117,607
114,962	-5,750	240,631	117,651
115,976	-6,049	240,702	117,430
116,991	-6,057	240,386	117,259
118,006	-6,176	240,333	117,125
119,020	-5,993	240,203	117,201
120,035	-5,819	240,009	117,238
121,049	-5,924	239,945	117,110
122,064	-6,036	239,710	116,894
123,079	-5,971	239,477	116,823
124,093	-6,048	239,187	116,608
125,108	-5,971	238,838	116,491
126,122	-6,235	238,571	116,135
127,137	-6,321	238,594	116,065
128,151	-6,373	238,361	115,900
129,166	-5,919	238,213	116,187
130,181	-6,323	238,045	115,766
131,195	-6,380	237,865	115,622
132,210	-6,135	237,688	115,724
133,224	-6,152	237,507	115,612
134,239	-6,109	237,406	115,587
135,254	-6,162	237,450	115,556
136,268	-6,170	237,026	115,332
137,283	-6,157	236,585	115,119
138,297	-6,191	236,533	115,056
139,312	-6,379	236,426	114,842
140,327	-5,883	236,288	115,164
141,341	-5,804	236,379	115,261
142,356	-5,722	236,081	115,171
143,370	-5,676	236,111	115,213
144,385	-5,605	235,704	115,061
145,400	-5,473	235,609	115,110
146,414	-5,755	235,524	114,832
147,429	-5,540	235,284	114,877
148,443	-5,591	235,006	114,691
149,458	-5,542	234,889	114,662
150,473	-5,741	234,825	114,462
151,487	-5,667	234,511	114,357
152,502	-5,774	234,374	114,195
153,516	-5,692	234,210	114,170
154,531	-5,759	234,121	114,063
155,546	-5,760	234,047	114,017
156,560	-5,690	233,840	113,961
157,575	-5,680	233,546	113,815
158,589	-5,608	233,370	113,777
159,604	-5,451	233,279	113,847
160,619	-5,543	232,993	113,624
161,633	-5,721	232,915	113,435
162,648	-5,481	232,835	113,576
163,662	-5,743	232,759	113,321
164,677	-5,913	232,608	113,103
165,692	-5,593	232,349	113,220
166,706	-5,606	232,270	113,161
167,721	-5,445	231,990	113,142
168,735	-5,647	231,828	112,893
169,750	-5,604	231,765	112,887
170,764	-5,649	231,605	112,763
171,779	-5,725	231,553	112,668
172,794	-5,595	231,252	112,614
173,808	-5,807	230,954	112,292
174,823	-6,097	230,813	111,986
175,837	-6,205	230,685	111,830
176,852	-5,907	230,544	111,984
177,867	-5,675	230,577	112,172
178,881	-5,557	230,258	112,099
179,896	-5,536	230,288	112,120
180,910	-5,695	230,019	111,856
181,925	-5,587	229,828	111,836
182,940	-5,573	229,782	111,815
183,954	-5,483	229,711	111,841
184,969	-5,437	229,587	111,807
185,983	-5,287	229,413	111,828
186,998	-5,305	229,112	111,657
188,013	-5,313	228,925	111,550
189,027	-5,500	228,833	111,351
190,042	-5,559	228,733	111,246
191,056	-5,371	228,570	111,303
192,071	-5,452	228,405	111,150
193,086	-5,602	228,169	110,908
194,100	-5,530	227,993	110,869
195,115	-5,817	227,701	110,496
196,129	-6,274	227,522	110,047
197,144	-3,477	228,545	112,697
198,159	0,821	229,614	116,550
199,173	3,418	230,385	118,949
200,188	3,883	230,235	119,221
201,202	3,828	230,058	119,076
202,217	4,076	229,958	119,206
203,232	4,249	229,833	119,264
204,246	4,385	229,673	119,275
205,261	4,179	229,727	119,134
206,275	4,403	229,658	119,260
207,290	4,483	229,364	119,159
208,304	4,344	229,359	119,038
209,319	4,650	228,959	119,056
210,334	4,379	228,877	118,794
211,348	4,087	228,646	118,438
212,363	3,929	228,310	118,133
213,377	3,520	228,258	117,781
214,392	3,735	227,977	117,791
215,407	3,711	228,015	117,781
216,421	3,652	227,808	117,618
217,436	3,519	227,499	117,347
218,450	3,204	227,234	116,959
219,465	3,313	227,122	116,975
220,480	3,597	227,011	117,123
221,494	3,586	226,818	117,005
222,509	3,606	226,801	117,001
223,523	3,616	226,664	116,928
224,538	3,392	226,526	116,675
225,553	3,428	226,321	116,587
226,567	3,529	226,374	116,681
227,582	3,838	226,154	116,792
228,596	4,073	225,973	116,866
229,611	3,929	225,776	116,645
230,626	3,485	225,589	116,201
231,640	3,427	225,351	116,024
232,655	3,806	225,383	116,318
233,669	4,118	225,357	116,530
234,684	4,179	225,290	116,531
235,699	3,836	225,159	116,193
236,713	3,600	224,857	115,849
237,728	3,719	224,547	115,769
238,742	3,477	224,383	115,491
239,757	3,719	224,170	115,553
240,772	3,554	224,105	115,386
241,786	3,653	223,937	115,364
242,801	3,866	223,987	115,539
243,815	4,099	223,732	115,572
244,830	3,939	223,746	115,449
245,844	3,775	223,360	115,116
246,859	3,667	223,296	114,992
247,874	3,761	223,245	115,026
248,888	3,813	223,035	114,946
249,903	3,588	222,913	114,705
250,917	3,660	222,685	114,631
251,932	3,724	222,465	114,555
252,947	3,662	222,383	114,457
253,961	3,283	222,248	114,095
254,976	3,758	222,050	114,337
255,990	3,783	221,986	114,312
257,005	3,855	221,865	114,293
258,020	3,864	221,725	114,217
259,034	4,230	221,654	114,443
260,049	4,087	221,426	114,209
261,063	4,063	221,239	114,084
262,078	3,988	221,214	114,005
263,093	3,982	221,114	113,940
264,107	3,764	220,876	113,645
265,122	3,877	220,729	113,643
266,136	4,154	220,646	113,794
267,151	4,377	220,416	113,830
268,166	3,707	220,259	113,246
269,180	3,508	220,028	112,970
270,195	3,504	219,887	112,885
271,209	3,717	219,762	112,967
272,224	3,666	219,711	112,893
273,239	3,677	219,679	112,875
274,253	3,833	219,329	112,799
275,268	3,315	219,291	112,390
276,282	3,364	219,070	112,302
277,297	3,274	218,962	112,171
278,312	3,495	218,801	112,240
279,326	3,583	218,659	112,222
280,341	3,582	218,551	112,155
281,355	3,594	218,475	112,115
282,370	3,803	218,160	112,096
283,384	3,288	218,093	111,676
284,399	3,179	218,000	111,539
285,414	3,496	217,782	111,648
286,428	3,512	217,618	111,566
287,443	3,820	217,606	111,774
288,457	3,865	217,462	111,723
289,472	3,814	217,208	111,545
290,487	3,142	217,127	111,006
291,501	3,113	217,008	110,914
292,516	3,529	216,732	111,064
293,530	3,468	216,712	111,000
294,545	3,255	216,517	110,736
295,560	3,482	216,495	110,879
296,574	3,473	216,318	110,772
297,589	3,699	216,066	110,796
298,603	3,486	216,072	110,636
299,618	3,681	215,915	110,687
300,633	3,734	215,790	110,651
301,647	4,016	215,633	110,763
302,662	3,795	215,505	110,529
303,676	3,843	215,294	110,445
304,691	3,810	215,267	110,398
305,706	4,117	215,032	110,487
306,720	3,834	215,128	110,324
307,735	3,793	214,735	110,083
308,749	3,723	214,589	109,949
309,764	3,795	214,617	110,005
310,779	4,009	214,443	110,058
311,793	3,928	214,281	109,908
312,808	3,908	214,005	109,742
313,822	3,597	214,038	109,527
314,837	3,515	213,835	109,355
315,852	3,576	213,708	109,324
316,866	3,623	213,516	109,249
317,881	4,078	213,489	109,549
318,895	3,782	213,314	109,239
319,910	3,807	213,111	109,144
320,925	3,341	212,905	108,698
321,939	2,991	212,803	108,387
322,954	3,150	212,725	108,451
323,968	3,617	212,635	108,727
324,983	3,862	212,473	108,807
325,997	3,805	212,407	108,723
327,012	3,917	212,152	108,662
328,027	3,790	212,026	108,498
329,041	4,073	212,029	108,690
330,056	4,339	211,949	108,827
331,070	3,703	211,776	108,280
332,085	3,384	211,419	107,863
333,100	3,430	211,288	107,819
334,114	3,882	211,222	108,094
335,129	3,780	211,119	107,960
336,143	3,647	210,993	107,793
337,158	3,425	210,867	107,562
338,173	3,598	210,731	107,605
339,187	3,351	210,593	107,352
340,202	3,398	210,355	107,253
341,216	3,364	210,235	107,159
342,231	3,607	210,117	107,259
343,246	3,498	210,031	107,130
344,260	3,301	209,981	106,957
345,275	3,345	209,809	106,891
346,289	3,671	209,713	107,060
347,304	3,706	209,701	107,068
348,319	3,563	209,352	106,781
349,333	3,454	209,214	106,625
350,348	3,503	209,277	106,682
351,362	3,858	209,095	106,826
352,377	3,775	208,957	106,689
353,392	3,663	208,662	106,451
354,406	3,697	208,687	106,478
355,421	194,343	1344,816	1431,318
356,435	155,095	1483,319	1431,422
