DTS Sentinel unit serial number:	SN410029Multiplexer serial number:	ORYXHardware model number:	OX2-SRSoftware version number:	ORYX F/W v4,00 Oryx Data Collector v3.7.2.0data status	okinstallation	B6 Nyhavnadifferential loss correction	single-endedforward channel	channel 2reverse channel	N/Adate	2023/12/09time	19:35:08forward acquisition time	300,00reverse acquisition time	0,00gamma	499,1914k internal	0,3130k external	0,3130temperature offset calibration	1,0000default loss term (dB/km)	0,3820temperature slope calibration	1,0000multiplexer offset coefficient	1,0000multiplexer slope coefficient	1,0000fibre end	0,00T internal ref (°C)	21,12T ext. ref 1 (°C)	5,07T ext. ref 2 (°C)	5,04length (m)	temperature (°C)	Stokes	anti-Stokes-744,400	215,794	0,044	-0,052
-743,385	-51,211	-0,237	-0,082
-742,371	-178,276	0,077	-0,001
-741,356	33,212	-0,227	0,146
-740,342	-104,510	0,145	0,025
-739,327	-23,704	-0,306	0,136
-738,312	-200,000	-0,011	-0,075
-737,298	-127,873	-0,176	-0,019
-736,283	31,045	0,118	0,075
-735,269	161,884	-0,121	0,126
-734,254	-1,308	0,071	0,037
-733,239	-19,249	-0,338	-0,155
-732,225	-165,660	0,202	-0,006
-731,210	29,751	-0,110	0,069
-730,196	132,975	0,086	-0,083
-729,181	800,000	0,023	-0,068
-728,167	38,796	0,048	0,032
-727,152	-200,000	0,013	0,070
-726,137	800,000	-0,041	0,096
-725,123	-200,000	-0,043	-0,144
-724,108	800,000	-0,064	-0,168
-723,094	131,166	-0,129	-0,123
-722,079	800,000	-0,031	-0,070
-721,064	-92,689	0,161	0,033
-720,050	617,907	-0,041	-0,076
-719,035	594,734	0,052	-0,097
-718,021	-82,328	-0,014	-0,003
-717,006	529,840	-0,057	-0,100
-715,991	628,816	-0,074	-0,140
-714,977	92,906	0,068	0,057
-713,962	135,734	-0,152	-0,147
-712,948	-200,000	0,014	0,094
-711,933	-200,000	-0,017	-0,090
-710,918	-90,476	-0,184	0,039
-709,904	305,930	-0,086	-0,120
-708,889	-200,000	-0,038	0,160
-707,875	800,000	-0,028	-0,058
-706,860	46,678	-0,046	0,032
-705,845	-105,032	-0,074	0,013
-704,831	107,135	0,062	0,055
-703,816	411,987	-0,088	0,139
-702,802	24,599	-0,052	-0,032
-701,787	800,000	0,025	-0,068
-700,772	-67,961	-0,040	0,012
-699,758	124,950	-0,020	-0,018
-698,743	-61,782	-0,052	-0,016
-697,729	107,957	0,038	-0,034
-696,714	800,000	-0,024	-0,064
-695,699	-2,587	-0,077	0,040
-694,685	800,000	-0,041	-0,122
-693,670	800,000	-0,081	-0,180
-692,656	800,000	-0,037	-0,089
-691,641	252,677	0,101	-0,129
-690,627	-200,000	0,010	0,191
-689,612	-200,000	0,002	0,039
-688,597	-200,000	-0,001	0,106
-687,583	-23,546	-0,097	-0,043
-686,568	-200,000	-0,038	0,140
-685,554	-176,113	-0,114	-0,002
-684,539	-200,000	0,004	0,100
-683,524	136,144	0,016	-0,016
-682,510	241,340	0,059	0,073
-681,495	0,878	-0,088	0,047
-680,481	800,000	-0,066	-0,142
-679,466	-72,101	-0,081	-0,022
-678,451	-65,760	-0,032	-0,009
-677,437	485,154	-0,030	-0,050
-676,422	-107,226	-0,063	-0,010
-675,408	86,559	-0,064	-0,053
-674,393	373,336	-0,096	0,145
-673,378	184,240	-0,025	0,027
-672,364	-51,590	-0,130	-0,045
-671,349	421,999	0,025	-0,039
-670,335	800,000	0,007	-0,020
-669,320	-200,000	-0,017	-0,068
-668,305	188,932	-0,034	-0,038
-667,291	800,000	0,069	-0,207
-666,276	-120,775	-0,077	-0,009
-665,262	800,000	-0,042	0,100
-664,247	-117,921	-0,090	-0,012
-663,232	209,410	0,048	0,056
-662,218	172,911	0,067	0,072
-661,203	-35,760	-0,057	0,023
-660,189	335,038	-0,038	0,055
-659,174	-77,324	-0,090	0,023
-658,159	-200,000	-0,004	-0,027
-657,145	-200,000	0,000	-0,153
-656,130	-200,000	-0,001	0,068
-655,116	-55,904	-0,042	-0,014
-654,101	800,000	0,025	0,062
-653,086	-3,498	-0,158	-0,081
-652,072	-108,479	-0,136	0,021
-651,057	-200,000	0,003	-0,174
-650,043	-200,000	0,011	-0,069
-649,028	800,000	0,025	-0,078
-648,014	-200,000	0,007	0,035
-646,999	800,000	0,082	0,187
-645,984	-144,189	-0,057	0,004
-644,970	-101,816	-0,073	-0,013
-643,955	405,107	0,092	-0,144
-642,941	115,148	-0,116	-0,105
-641,926	40,036	-0,067	-0,044
-640,911	32,842	-0,046	-0,029
-639,897	351,087	0,063	0,092
-638,882	148,929	-0,043	0,043
-637,868	252,453	-0,051	0,064
-636,853	-200,000	0,025	-0,118
-635,838	-101,844	-0,094	0,017
-634,824	-112,875	-0,152	0,022
-633,809	31,147	0,021	0,013
-632,795	-200,000	0,022	0,113
-631,780	501,410	0,031	-0,054
-630,765	-131,221	0,143	-0,014
-629,751	800,000	-0,026	-0,070
-628,736	101,809	-0,105	-0,091
-627,722	-86,055	0,078	0,018
-626,707	-184,237	0,062	0,001
-625,692	800,000	0,023	-0,051
-624,678	69,670	0,055	-0,042
-623,663	464,597	0,068	-0,113
-622,649	32,266	-0,125	0,080
-621,634	-79,306	-0,052	-0,013
-620,619	73,810	-0,117	-0,090
-619,605	530,174	-0,085	0,149
-618,590	101,882	0,116	0,100
-617,576	-200,000	0,001	0,085
-616,561	763,798	-0,017	0,034
-615,546	-117,868	-0,079	-0,010
-614,532	-200,000	0,009	0,165
-613,517	-200,000	0,017	-0,183
-612,503	-200,000	0,014	-0,087
-611,488	-16,480	0,046	0,021
-610,474	-152,198	0,022	0,001
-609,459	-200,000	0,008	0,082
-608,444	-200,000	0,008	0,094
-607,430	800,000	-0,020	0,046
-606,415	182,485	0,039	-0,042
-605,401	55,239	0,103	0,074
-604,386	-50,463	0,058	0,020
-603,371	-20,520	0,159	-0,072
-602,357	12,836	-0,012	0,007
-601,342	800,000	-0,034	-0,096
-600,328	70,473	0,050	-0,038
-599,313	219,881	0,098	-0,116
-598,298	-132,214	-0,117	-0,011
-597,284	-60,889	-0,129	0,040
-596,269	800,000	0,013	-0,032
-595,255	-124,489	-0,154	-0,017
-594,240	-85,574	-0,050	0,011
-593,225	140,005	-0,122	-0,119
-592,211	-200,000	0,009	-0,099
-591,196	230,305	-0,034	-0,041
-590,182	-12,326	-0,080	0,038
-589,167	-4,406	0,063	-0,032
-588,152	-130,111	0,076	-0,008
-587,138	-0,763	-0,117	-0,061
-586,123	77,773	-0,054	0,042
-585,109	-200,000	0,011	-0,110
-584,094	-200,000	-0,003	-0,072
-583,079	-99,155	-0,156	0,029
-582,065	407,212	0,029	0,046
-581,050	88,442	0,090	-0,074
-580,036	-88,564	-0,131	0,029
-579,021	800,000	-0,019	0,053
-578,006	288,476	-0,062	-0,084
-576,992	-200,000	-0,013	0,092
-575,977	40,001	0,101	-0,067
-574,963	-87,001	0,005	-0,001
-573,948	-27,023	-0,070	0,030
-572,934	800,000	0,022	0,066
-571,919	597,296	0,045	0,083
-570,904	-136,397	-0,052	-0,004
-569,890	99,117	-0,059	-0,051
-568,875	-200,000	-0,003	-0,127
-567,861	87,723	0,080	-0,065
-566,846	-200,000	-0,008	-0,082
-565,831	98,835	-0,022	-0,019
-564,817	-52,928	-0,087	0,029
-563,802	157,464	0,060	0,061
-562,788	-14,649	-0,076	-0,036
-561,773	-6,681	-0,096	-0,048
-560,758	-163,139	0,139	0,005
-559,744	800,000	0,066	-0,177
-558,729	800,000	0,058	0,140
-557,715	-21,214	-0,014	-0,006
-556,700	47,412	-0,026	-0,018
-555,685	-30,924	0,021	0,009
-554,671	226,917	0,104	-0,125
-553,656	800,000	-0,103	0,221
-552,642	189,177	-0,011	0,012
-551,627	-200,000	0,004	0,082
-550,612	-200,000	0,018	-0,167
-549,598	-0,404	-0,080	-0,042
-548,583	-135,870	0,036	-0,003
-547,569	-41,632	-0,088	0,033
-546,554	-164,261	-0,055	-0,002
-545,539	119,387	-0,041	0,038
-544,525	-200,000	0,016	0,132
-543,510	800,000	0,010	-0,022
-542,496	341,413	-0,054	0,078
-541,481	723,051	-0,098	-0,193
-540,466	336,334	0,089	-0,128
-539,452	-152,678	0,038	-0,002
-538,437	-7,500	0,045	-0,022
-537,423	-59,075	-0,043	-0,014
-536,408	78,377	-0,079	-0,062
-535,393	-88,841	-0,071	0,015
-534,379	478,805	0,067	-0,112
-533,364	-200,000	0,010	0,132
-532,350	-200,000	0,006	-0,039
-531,335	478,400	-0,037	0,063
-530,321	155,791	-0,057	-0,058
-529,306	791,390	0,011	0,022
-528,291	800,000	0,031	0,075
-527,277	68,281	0,068	-0,051
-526,262	-200,000	-0,030	0,143
-525,248	-161,841	0,151	-0,006
-524,233	-200,000	-0,003	-0,118
-523,218	-138,584	0,034	-0,003
-522,204	172,579	0,014	-0,015
-521,189	436,249	-0,083	-0,133
-520,175	229,481	0,098	-0,118
-519,160	225,820	-0,109	-0,131
-518,145	-95,523	0,061	0,012
-517,131	-15,432	0,097	-0,046
-516,116	-182,811	0,058	-0,001
-515,102	247,416	-0,026	0,032
-514,087	408,259	0,060	-0,095
-513,072	402,672	-0,041	0,064
-512,058	-200,000	-0,006	0,021
-511,043	-2,776	-0,062	-0,032
-510,029	-200,000	0,017	0,083
-509,014	800,000	-0,007	0,018
-507,999	338,713	0,102	0,147
-506,985	33,212	-0,018	-0,011
-505,970	53,956	-0,032	0,023
-504,956	65,440	-0,072	-0,054
-503,941	-40,155	-0,126	-0,048
-502,926	-119,783	-0,092	0,012
-501,912	132,570	0,091	0,087
-500,897	-200,000	-0,014	0,089
-499,883	114,798	-0,043	-0,038
-498,868	-101,709	-0,184	-0,033
-497,853	800,000	0,081	0,206
-496,839	11,616	-0,018	0,010
-495,824	425,731	-0,042	-0,067
-494,810	231,498	-0,052	0,063
-493,795	66,416	0,075	0,056
-492,781	800,000	0,013	-0,037
-491,766	-104,252	-0,109	-0,018
-490,751	-105,080	0,016	-0,003
-489,737	-92,051	0,190	0,039
-488,722	56,657	-0,100	-0,071
-487,708	-59,901	-0,104	0,032
-486,693	530,072	0,044	0,078
-485,678	-200,000	-0,026	-0,121
-484,664	79,785	-0,085	-0,067
-483,649	38,930	-0,072	-0,047
-482,635	-92,108	0,034	-0,007
-481,620	-62,662	0,025	0,008
-480,605	748,288	0,067	-0,134
-479,591	-67,630	0,100	-0,029
-478,576	488,046	0,009	0,015
-477,562	800,000	-0,039	-0,097
-476,547	-200,000	0,011	-0,054
-475,532	-200,000	-0,016	-0,083
-474,518	-200,000	-0,004	0,035
-473,503	-69,832	0,049	0,014
-472,489	-200,000	-0,018	-0,057
-471,474	800,000	0,044	-0,102
-470,459	22,943	-0,070	0,042
-469,445	119,846	-0,139	-0,127
-468,430	800,000	0,003	0,007
-467,416	137,434	-0,085	0,082
-466,401	404,859	-0,049	0,077
-465,386	548,909	0,024	0,042
-464,372	-200,000	0,006	0,110
-463,357	-200,000	0,015	-0,116
-462,343	-24,184	-0,202	-0,088
-461,328	-200,000	-0,016	-0,076
-460,313	68,081	0,008	-0,006
-459,299	-200,000	0,032	-0,150
-458,284	-200,000	0,009	0,029
-457,270	305,287	0,067	0,092
-456,255	-200,000	0,002	-0,040
-455,241	-65,127	-0,082	-0,024
-454,226	-200,000	-0,003	0,034
-453,211	490,776	0,021	-0,035
-452,197	680,884	0,041	-0,079
-451,182	800,000	-0,032	0,101
-450,168	57,178	-0,070	0,050
-449,153	-20,360	0,078	-0,035
-448,138	800,000	-0,029	-0,059
-447,124	-200,000	-0,011	-0,070
-446,109	15,288	0,026	-0,015
-445,095	800,000	0,024	0,064
-444,080	-200,000	-0,015	0,101
-443,065	-200,000	-0,003	-0,136
-442,051	-20,503	-0,107	-0,048
-441,036	-81,098	-0,044	-0,011
-440,022	35,313	-0,047	-0,030
-439,007	-200,000	-0,002	-0,080
-437,992	-200,000	-0,001	0,019
-436,978	252,717	-0,067	0,084
-435,963	531,101	-0,045	-0,078
-434,949	-200,000	0,045	-0,150
-433,934	168,268	0,058	-0,060
-432,919	-57,247	0,035	0,011
-431,905	295,993	0,019	-0,025
-430,890	491,760	0,059	0,099
-429,876	-110,807	0,070	0,010
-428,861	-136,502	0,080	-0,007
-427,846	-200,000	-0,002	-0,051
-426,832	229,056	0,035	0,041
-425,817	-200,000	-0,012	0,119
-424,803	-200,000	0,015	0,060
-423,788	-65,116	0,107	0,031
-422,773	69,141	0,099	-0,075
-421,759	181,062	-0,113	0,122
-420,744	534,618	-0,054	-0,095
-419,730	-200,000	0,000	0,076
-418,715	800,000	-0,060	-0,136
-417,701	800,000	-0,024	-0,054
-416,686	-200,000	-0,006	-0,043
-415,671	-179,048	0,086	0,001
-414,657	-200,000	0,040	0,182
-413,642	800,000	-0,032	-0,076
-412,628	800,000	-0,062	-0,132
-411,613	-200,000	-0,005	-0,031
-410,598	293,949	0,147	-0,198
-409,584	4,279	0,035	0,019
-408,569	800,000	0,016	0,046
-407,555	431,131	0,052	0,084
-406,540	-134,842	-0,112	0,010
-405,525	-141,125	-0,086	0,006
-404,511	800,000	-0,037	0,088
-403,496	-15,225	0,087	-0,041
-402,482	-22,942	-0,059	-0,026
-401,467	-45,810	0,152	-0,055
-400,452	278,085	-0,121	0,159
-399,438	623,756	0,042	-0,078
-398,423	119,319	-0,066	-0,060
-397,409	-158,743	-0,014	-0,001
-396,394	563,584	-0,016	0,029
-395,379	-200,000	-0,003	0,070
-394,365	191,031	-0,021	-0,024
-393,350	-200,000	-0,023	0,102
-392,336	-200,000	-0,003	0,051
-391,321	800,000	-0,047	-0,106
-390,306	-200,000	0,001	-0,052
-389,292	-186,783	-0,186	-0,002
-388,277	-88,192	-0,023	0,005
-387,263	-8,907	0,096	0,047
-386,248	305,025	0,061	0,083
-385,233	153,864	0,039	-0,039
-384,219	175,179	0,003	-0,004
-383,204	8,125	0,091	-0,050
-382,190	-166,430	0,071	-0,002
-381,175	237,063	0,054	0,066
-380,160	97,874	0,091	0,077
-379,146	800,000	0,012	-0,035
-378,131	393,395	0,043	0,065
-377,117	-91,273	0,086	-0,018
-376,102	424,843	-0,108	-0,171
-375,088	53,074	-0,143	-0,101
-374,073	800,000	0,067	0,146
-373,058	24,725	0,136	-0,082
-372,044	800,000	-0,069	0,184
-371,029	275,609	0,050	0,065
-370,015	-65,860	0,140	0,041
-369,000	6,836	-0,025	-0,014
-367,985	144,483	-0,089	-0,087
-366,971	-54,874	-0,041	-0,014
-365,956	-200,000	-0,009	0,047
-364,942	-83,050	0,155	-0,036
-363,927	-200,000	0,005	-0,047
-362,912	13,804	0,150	-0,085
-361,898	24,055	-0,077	0,046
-360,883	-77,608	-0,128	-0,032
-359,869	26,599	0,047	-0,029
-358,854	60,677	0,112	0,081
-357,839	800,000	-0,035	0,107
-356,825	672,919	0,051	-0,096
-355,810	206,978	-0,102	0,116
-354,796	127,913	-0,060	0,056
-353,781	-36,346	-0,149	-0,059
-352,766	800,000	-0,030	-0,096
-351,752	383,402	-0,017	-0,026
-350,737	800,000	0,028	-0,060
-349,723	50,267	0,068	-0,047
-348,708	-191,567	0,079	-0,001
-347,693	120,215	-0,116	0,105
-346,679	132,428	0,019	-0,018
-345,664	-200,000	0,009	-0,041
-344,650	800,000	-0,073	0,156
-343,635	800,000	0,049	-0,114
-342,620	-200,000	-0,037	0,140
-341,606	-134,653	0,093	0,008
-340,591	265,613	0,018	0,023
-339,577	-42,410	0,074	-0,028
-338,562	800,000	-0,020	0,045
-337,548	-117,798	-0,082	0,011
-336,533	-200,000	-0,035	0,134
-335,518	119,938	0,054	0,049
-334,504	800,000	-0,055	0,112
-333,489	156,253	0,063	0,064
-332,475	-159,716	-0,109	-0,004
-331,460	-45,896	0,074	0,027
-330,445	-200,000	0,009	-0,098
-329,431	-81,542	0,032	-0,008
-328,416	-200,000	-0,033	0,133
-327,402	800,000	0,061	0,136
-326,387	19,460	-0,059	-0,035
-325,372	-200,000	-0,094	0,000
-324,358	800,000	-0,022	-0,050
-323,343	-75,522	0,049	0,013
-322,329	800,000	0,050	-0,123
-321,314	800,000	-0,029	-0,086
-320,299	-77,646	0,164	0,041
-319,285	545,053	-0,029	0,052
-318,270	65,037	-0,105	0,078
-317,256	-19,811	-0,085	-0,038
-316,241	-49,954	0,054	-0,019
-315,226	-26,927	0,121	0,052
-314,212	-200,000	-0,004	0,131
-313,197	800,000	-0,030	-0,063
-312,183	-93,391	-0,073	-0,015
-311,168	-129,343	-0,074	-0,007
-310,153	-200,000	0,016	-0,150
-309,139	469,762	0,074	0,122
-308,124	-200,000	-0,004	-0,063
-307,110	40,149	0,094	0,062
-306,095	-106,527	0,034	-0,005
-305,080	-111,058	0,038	-0,006
-304,066	-157,753	-0,173	-0,007
-303,051	774,212	0,031	0,062
-302,037	-49,746	-0,084	0,029
-301,022	-200,000	-0,006	0,075
-300,008	234,538	0,082	0,099
-298,993	-200,000	0,008	-0,037
-297,978	-200,000	-0,009	-0,055
-296,964	800,000	-0,009	0,022
-295,949	634,763	-0,020	-0,037
-294,935	288,636	-0,080	-0,106
-293,920	-103,202	0,040	0,007
-292,905	800,000	-0,028	0,064
-291,891	-114,341	0,123	0,017
-290,876	275,476	0,058	0,075
-289,862	800,000	-0,084	0,211
-288,847	-200,000	-0,017	0,088
-287,832	213,298	0,100	-0,115
-286,818	-62,736	0,132	0,040
-285,803	-152,635	0,217	0,011
-284,789	800,000	0,031	0,064
-283,774	357,982	0,076	-0,111
-282,759	328,461	-0,034	-0,048
-281,745	161,958	-0,064	-0,066
-280,730	133,154	0,067	0,063
-279,716	206,557	-0,032	0,036
-278,701	8,953	0,036	0,020
-277,686	149,749	-0,080	0,079
-276,672	-117,065	0,189	0,025
-275,657	800,000	0,030	0,072
-274,643	-77,142	-0,050	-0,013
-273,628	152,214	0,010	0,010
-272,613	-99,192	-0,068	-0,013
-271,599	-41,203	0,112	-0,042
-270,584	-86,055	0,072	0,016
-269,570	205,923	-0,098	0,111
-268,555	800,000	0,023	-0,055
-267,540	255,803	-0,047	0,059
-266,526	59,346	0,114	-0,082
-265,511	-200,000	0,002	-0,055
-264,497	-135,298	-0,123	-0,011
-263,482	-200,000	-0,022	0,079
-262,467	467,717	0,132	0,216
-261,453	5,247	0,028	0,015
-260,438	245,146	0,089	-0,109
-259,424	57,110	-0,066	-0,047
-258,409	-200,000	0,014	-0,058
-257,395	-65,499	0,055	-0,016
-256,380	-200,000	-0,038	0,200
-255,365	84,200	0,036	0,029
-254,351	800,000	-0,020	0,056
-253,336	41,406	0,059	0,039
-252,322	147,968	-0,076	0,075
-251,307	-200,000	0,001	0,066
-250,292	115,116	-0,110	0,098
-249,278	-122,580	0,100	0,012
-248,263	-200,000	0,014	0,055
-247,249	449,009	0,028	0,046
-246,234	-200,000	-0,023	-0,127
-245,219	64,550	-0,095	-0,070
-244,205	64,297	0,011	0,008
-243,190	-87,530	0,032	-0,007
-242,176	-98,508	0,091	0,017
-241,161	-200,000	-0,000	0,124
-240,146	800,000	-0,012	-0,033
-239,132	-50,904	0,081	-0,028
-238,117	-7,204	-0,014	0,007
-237,103	-80,972	-0,133	0,032
-236,088	800,000	0,010	-0,029
-235,073	-6,759	0,060	0,030
-234,059	-200,000	0,023	0,166
-233,044	166,376	-0,025	0,026
-232,030	-200,000	0,025	-0,112
-231,015	-79,284	0,178	-0,044
-230,000	187,991	-0,084	-0,091
-228,986	218,728	-0,028	-0,033
-227,971	7,805	0,064	-0,035
-226,957	-200,000	0,003	0,051
-225,942	268,472	0,057	-0,073
-224,927	428,839	0,037	0,058
-223,913	800,000	0,006	0,015
-222,898	157,567	-0,081	-0,082
-221,884	-3,992	0,090	-0,045
-220,869	-200,000	0,006	0,078
-219,855	-200,000	0,035	0,142
-218,840	-95,247	0,101	0,020
-217,825	-200,000	0,001	0,043
-216,811	303,345	0,002	0,003
-215,796	800,000	-0,017	-0,047
-214,782	681,406	0,034	0,065
-213,767	45,970	-0,073	-0,049
-212,752	3,012	0,093	-0,049
-211,738	800,000	0,037	-0,097
-210,723	10,890	0,146	-0,081
-209,709	74,194	-0,073	0,056
-208,694	-200,000	0,003	0,036
-207,679	-93,511	0,049	0,010
-206,665	-200,000	-0,009	-0,104
-205,650	-110,547	-0,035	0,005
-204,636	331,361	-0,075	0,106
-203,621	-155,012	-0,119	-0,006
-202,606	800,000	0,044	-0,110
-201,592	260,656	0,029	-0,037
-200,577	5,856	0,039	0,021
-199,563	-124,124	0,054	0,006
-198,548	162,668	0,025	-0,025
-197,533	-200,000	0,023	0,076
-196,519	-48,861	0,080	-0,028
-195,504	800,000	-0,038	-0,091
-194,490	-200,000	0,007	-0,057
-193,475	401,610	-0,082	-0,125
-192,460	-200,000	0,026	0,118
-191,446	253,320	-0,092	0,115
-190,431	-159,532	0,164	-0,006
-189,417	167,166	-0,098	0,101
-188,402	120,707	0,010	-0,009
-187,387	90,118	-0,044	-0,036
-186,373	341,267	-0,071	-0,101
-185,358	-200,000	0,003	-0,035
-184,344	-157,539	-0,103	0,004
-183,329	63,316	0,050	0,037
-182,315	256,731	-0,080	0,100
-181,300	-154,636	0,111	0,005
-180,285	-200,000	-0,027	-0,156
-179,271	31,881	0,096	-0,060
-178,256	-53,085	-0,050	-0,017
-177,242	37,428	-0,059	0,038
-176,227	-23,413	-0,056	0,024
-175,212	800,000	-0,048	0,129
-174,198	159,476	0,098	0,099
-173,183	-117,569	-0,205	0,027
-172,169	87,761	0,084	0,068
-171,154	-63,056	-0,136	-0,041
-170,139	-200,000	-0,012	0,073
-169,125	34,074	-0,087	-0,055
-168,110	122,832	0,062	-0,057
-167,096	115,711	-0,034	-0,030
-166,081	483,605	0,041	-0,068
-165,066	-154,151	-0,016	0,001
-164,052	-33,691	0,056	-0,022
-163,037	119,726	0,035	0,031
-162,023	404,758	0,028	0,043
-161,008	116,449	-0,159	0,142
-159,993	152,819	0,073	-0,072
-158,979	-200,000	0,007	0,040
-157,964	469,674	-0,017	-0,028
-156,950	242,466	-0,066	0,080
-155,935	61,976	0,030	-0,022
-154,920	486,847	0,058	0,097
-153,906	-112,339	0,093	0,013
-152,891	-62,474	0,076	0,023
-151,877	718,406	-0,047	-0,092
-150,862	-200,000	0,013	-0,137
-149,847	193,479	0,094	-0,104
-148,833	-200,000	0,014	-0,093
-147,818	548,998	0,044	0,077
-146,804	522,465	0,058	0,099
-145,789	800,000	-0,029	0,080
-144,775	-200,000	-0,009	-0,040
-143,760	-200,000	0,018	-0,081
-142,745	-200,000	-0,018	-0,078
-141,731	6,570	-0,098	-0,053
-140,716	-8,167	0,099	0,048
-139,702	-200,000	0,019	-0,099
-138,687	593,180	-0,019	0,034
-137,672	74,241	0,062	-0,047
-136,658	-149,416	0,095	-0,005
-135,643	21,976	0,165	-0,097
-134,629	285,587	0,056	-0,074
-133,614	101,822	0,121	-0,102
-132,599	22,857	-0,044	0,026
-131,585	-119,084	0,108	0,014
-130,570	88,617	-0,044	-0,036
-129,556	67,991	0,052	-0,039
-128,541	-86,235	-0,115	-0,026
-127,526	800,000	0,010	0,022
-126,512	-200,000	-0,022	-0,078
-125,497	-200,000	0,010	0,132
-124,483	-33,196	0,031	0,012
-123,468	45,081	0,051	-0,034
-122,453	59,508	-0,182	-0,130
-121,439	-7,650	-0,134	-0,066
-120,424	-36,809	0,147	0,057
-119,410	-200,000	-0,012	0,059
-118,395	471,580	0,049	0,081
-117,380	359,567	-0,092	0,133
-116,366	-200,000	-0,006	-0,050
-115,351	69,176	0,032	-0,024
-114,337	119,538	-0,150	-0,135
-113,322	800,000	0,037	-0,106
-112,307	53,052	-0,026	0,018
-111,293	-36,146	-0,019	0,007
-110,278	632,306	0,106	0,195
-109,264	-90,911	0,086	-0,018
-108,249	271,288	0,024	0,031
-107,234	-43,409	-0,128	-0,047
-106,220	-52,671	0,085	-0,028
-105,205	-55,942	0,014	-0,004
-104,191	-6,448	-0,051	0,025
-103,176	50,234	0,088	0,060
-102,162	-134,939	-0,064	-0,005
-101,147	-73,363	-0,064	0,017
-100,132	-200,000	0,015	-0,182
-99,118	3,276	-0,063	-0,033
-98,103	-200,000	-0,004	0,068
-97,089	-200,000	0,013	0,109
-96,074	-84,864	-0,060	0,014
-95,059	-200,000	-0,022	0,187
-94,045	-110,555	-0,033	0,005
-93,030	271,776	-0,089	0,114
-92,016	65,137	0,081	0,059
-91,001	194,809	0,094	0,104
-89,986	-54,620	0,121	0,040
-88,972	800,000	-0,024	-0,052
-87,957	401,360	0,021	0,031
-86,943	587,216	0,070	-0,126
-85,928	-200,000	-0,011	-0,079
-84,913	559,494	-0,031	-0,055
-83,899	-200,000	-0,008	-0,146
-82,884	331,664	0,031	0,043
-81,870	-200,000	0,000	-0,007
-80,855	332,075	0,101	0,142
-79,840	-200,000	-0,005	-0,160
-78,826	374,241	-0,044	-0,065
-77,811	-93,350	-0,153	0,031
-76,797	438,181	-0,083	0,131
-75,782	-33,223	0,047	-0,019
-74,767	-102,898	0,091	-0,015
-73,753	-119,300	-0,066	0,008
-72,738	707,719	0,009	0,017
-71,724	-200,000	-0,027	-0,101
-70,709	-111,572	-0,049	0,007
-69,694	96,070	-0,066	-0,054
-68,680	800,000	0,034	-0,080
-67,665	-138,198	0,052	0,004
-66,651	367,999	0,068	0,100
-65,636	-200,000	-0,033	0,287
-64,622	79,675	0,058	0,045
-63,607	-115,213	-0,223	-0,030
-62,592	224,832	-0,041	0,048
-61,578	-200,000	-0,000	0,077
-60,563	-81,326	-0,098	0,023
-59,549	-103,967	-0,083	-0,014
-58,534	-87,551	-1,467	-0,319
-57,519	713,756	-0,742	-1,430
-56,505	-200,000	-1,003	-4,567
-55,490	-2,486	0,582	-0,294
-54,476	800,000	4,962	11,720
-53,461	-200,000	14,587	257,897
-52,446	-200,000	696,196	2233,877
-51,432	566,180	1622,721	2861,189
-50,417	117,532	1630,442	1452,012
-49,403	74,410	1284,398	976,109
-48,388	37,413	1022,695	654,967
-47,373	23,348	981,467	582,394
-46,359	22,486	970,940	573,302
-45,344	21,389	966,534	567,103
-44,330	21,366	965,255	566,255
-43,315	21,169	963,814	564,744
-42,300	21,153	962,738	564,039
-41,286	21,217	961,774	563,659
-40,271	21,136	960,670	562,728
-39,257	21,138	959,653	562,115
-38,242	21,153	958,890	561,696
-37,227	21,141	958,007	561,118
-36,213	21,132	957,259	560,629
-35,198	21,060	956,097	559,693
-34,184	21,054	955,694	559,417
-33,169	21,162	954,592	559,096
-32,154	21,165	953,927	558,693
-31,140	21,193	952,854	558,132
-30,125	21,135	952,206	557,546
-29,111	21,230	951,303	557,300
-28,096	21,170	950,595	556,671
-27,082	21,120	950,042	556,163
-26,067	21,166	949,191	555,793
-25,052	21,144	948,469	555,275
-24,038	21,130	947,876	554,862
-23,023	21,161	947,218	554,553
-22,009	21,211	946,527	554,286
-20,994	21,201	945,890	553,862
-19,979	21,163	945,455	553,462
-18,965	21,180	944,802	553,113
-17,950	21,266	944,011	552,902
-16,936	21,087	943,408	551,957
-15,921	21,122	942,721	551,645
-14,906	21,071	941,936	551,001
-13,892	21,039	941,470	550,606
-12,877	21,101	940,665	550,308
-11,863	21,005	940,134	549,671
-10,848	21,066	939,692	549,584
-9,833	21,134	939,278	549,537
-8,819	21,125	938,537	549,052
-7,804	21,016	937,978	548,358
-6,790	21,051	937,423	548,122
-5,775	21,128	936,695	547,920
-4,760	21,123	936,073	547,518
-3,746	21,040	935,376	546,828
-2,731	20,896	934,732	545,973
-1,717	20,871	934,044	545,472
-0,702	20,911	933,279	545,131
0,313	20,665	932,864	544,935
1,327	23,773	930,798	553,435
2,342	33,046	793,933	496,671
3,356	30,543	450,822	278,237
4,371	0,348	294,810	151,741
5,386	-4,099	275,839	137,745
6,400	-5,078	270,154	133,983
7,415	-5,637	267,900	132,337
8,429	-5,321	266,591	131,969
9,444	-5,425	265,603	131,373
10,459	-5,403	265,145	131,155
11,473	-5,549	264,521	130,701
12,488	-5,620	263,993	130,364
13,502	-5,781	263,577	130,001
14,517	-5,624	262,869	129,783
15,531	-5,800	262,593	129,475
16,546	-5,555	262,199	129,491
17,561	-5,702	261,835	129,167
18,575	-5,472	261,365	129,130
19,590	-5,595	261,070	128,863
20,604	-5,759	261,027	128,683
21,619	-5,569	260,599	128,631
22,634	-5,647	260,291	128,397
23,648	-5,606	259,899	128,229
24,663	-5,822	259,795	127,974
25,677	-5,432	259,225	128,029
26,692	-5,614	259,116	127,801
27,707	-5,812	259,014	127,563
28,721	-5,729	258,639	127,441
29,736	-5,879	258,359	127,158
30,750	-5,855	258,169	127,075
31,765	-5,901	257,907	126,894
32,780	-5,513	257,668	127,108
33,794	-5,791	257,651	126,843
34,809	-5,707	257,151	126,660
35,823	-5,917	256,955	126,366
36,838	-5,906	256,616	126,198
37,853	-5,906	256,476	126,118
38,867	-5,923	256,210	125,961
39,882	-5,860	256,057	125,930
40,896	-5,662	255,771	125,952
41,911	-5,718	255,618	125,817
42,926	-5,919	255,329	125,487
43,940	-5,671	255,026	125,544
44,955	-5,916	254,838	125,225
45,969	-5,966	254,556	125,032
46,984	-6,307	254,457	124,675
47,999	-6,381	254,216	124,480
49,013	-6,229	253,793	124,395
50,028	-6,556	253,676	124,042
51,042	-6,470	253,322	123,932
52,057	-6,591	253,188	123,750
53,071	-6,368	252,997	123,839
54,086	-6,331	252,752	123,740
55,101	-6,419	252,741	123,648
56,115	-6,007	252,470	123,862
57,130	-5,676	252,346	124,076
58,144	-5,660	252,363	124,087
59,159	-5,759	252,131	123,876
60,174	-5,716	251,871	123,774
61,188	-5,621	251,575	123,700
62,203	-5,648	251,334	123,547
63,217	-5,635	251,134	123,450
64,232	-5,717	251,116	123,359
65,247	-5,700	250,785	123,200
66,261	-5,741	250,536	123,031
67,276	-5,911	250,295	122,756
68,290	-5,948	249,834	122,487
69,305	-6,127	249,797	122,305
70,320	-5,969	249,559	122,313
71,334	-5,850	249,484	122,366
72,349	-5,521	249,362	122,577
73,363	-5,662	249,158	122,345
74,378	-5,582	248,911	122,282
75,393	-5,563	248,631	122,150
76,407	-5,680	248,552	122,000
77,422	-5,792	248,429	121,833
78,436	-5,691	248,166	121,779
79,451	-5,661	247,866	121,647
80,466	-5,746	247,519	121,394
81,480	-5,702	247,342	121,334
82,495	-5,822	247,281	121,191
83,509	-5,929	246,980	120,943
84,524	-6,146	246,923	120,720
85,539	-6,161	246,615	120,546
86,553	-6,106	246,445	120,499
87,568	-6,130	246,287	120,390
88,582	-5,920	246,122	120,476
89,597	-5,866	245,829	120,367
90,611	-5,831	245,666	120,306
91,626	-5,780	245,781	120,395
92,641	-5,719	245,371	120,235
93,655	-5,834	245,268	120,076
94,670	-5,919	244,994	119,861
95,684	-6,038	244,917	119,712
96,699	-5,922	244,588	119,638
97,714	-5,929	244,512	119,584
98,728	-5,970	244,282	119,427
99,743	-6,022	244,004	119,236
100,757	-6,097	243,780	119,054
101,772	-6,058	243,722	119,048
102,787	-5,974	243,420	118,960
103,801	-5,952	243,406	118,960
104,816	-5,839	243,176	118,931
105,830	-5,742	243,025	118,927
106,845	-5,779	242,854	118,802
107,860	-5,622	242,654	118,824
108,874	-5,653	242,416	118,671
109,889	-5,868	242,257	118,405
110,903	-5,665	242,063	118,467
111,918	-5,783	241,921	118,290
112,933	-5,848	241,779	118,156
113,947	-5,814	241,669	118,120
114,962	-5,692	241,399	118,078
115,976	-5,577	241,108	118,019
116,991	-5,766	240,975	117,789
118,006	-5,841	240,936	117,698
119,020	-5,779	240,831	117,687
120,035	-5,702	240,726	117,688
121,049	-5,719	240,677	117,639
122,064	-5,829	240,358	117,383
123,079	-5,752	240,192	117,354
124,093	-5,684	239,934	117,274
125,108	-5,960	239,747	116,946
126,122	-6,268	239,527	116,576
127,137	-6,051	239,267	116,617
128,151	-5,935	239,131	116,635
129,166	-6,155	239,043	116,403
130,181	-6,100	238,741	116,289
131,195	-6,062	238,496	116,191
132,210	-5,938	238,451	116,259
133,224	-5,691	238,218	116,336
134,239	-5,890	238,150	116,131
135,254	-5,920	238,055	116,050
136,268	-5,956	237,892	115,931
137,283	-5,989	237,466	115,687
138,297	-5,895	237,231	115,637
139,312	-6,215	237,083	115,297
140,327	-5,965	237,071	115,482
141,341	-5,297	237,044	115,998
142,356	-5,405	236,906	115,833
143,370	-5,436	236,698	115,696
144,385	-5,674	236,601	115,446
145,400	-5,570	236,403	115,423
146,414	-5,549	236,254	115,357
147,429	-5,512	236,033	115,269
148,443	-5,477	235,918	115,230
149,458	-5,616	235,760	115,031
150,473	-5,635	235,561	114,909
151,487	-5,505	235,335	114,892
152,502	-5,543	235,123	114,748
153,516	-5,629	235,020	114,619
154,531	-5,378	234,888	114,745
155,546	-5,325	234,606	114,639
156,560	-5,530	234,446	114,388
157,575	-5,647	234,212	114,170
158,589	-5,778	234,056	113,980
159,604	-5,260	234,017	114,362
160,619	-5,396	233,854	114,164
161,633	-5,209	233,605	114,181
162,648	-5,359	233,643	114,070
163,662	-5,448	233,379	113,860
164,677	-5,448	233,155	113,741
165,692	-5,257	233,074	113,843
166,706	-5,435	233,041	113,675
167,721	-5,352	232,839	113,632
168,735	-5,397	232,733	113,535
169,750	-5,243	232,401	113,484
170,764	-5,275	232,210	113,356
171,779	-5,306	232,140	113,287
172,794	-5,399	232,145	113,206
173,808	-5,406	231,832	113,039
174,823	-6,026	231,588	112,421
175,837	-6,156	231,342	112,190
176,852	-5,769	231,234	112,432
177,867	-5,637	231,246	112,531
178,881	-5,515	231,071	112,531
179,896	-5,408	230,940	112,542
180,910	-5,305	230,792	112,540
181,925	-5,323	230,663	112,452
182,940	-5,536	230,410	112,153
183,954	-5,233	230,360	112,355
184,969	-5,200	230,223	112,304
185,983	-5,117	229,889	112,196
186,998	-5,289	229,830	112,023
188,013	-5,218	229,576	111,945
189,027	-5,325	229,444	111,787
190,042	-5,110	229,381	111,914
191,056	-5,400	229,244	111,612
192,071	-5,075	229,095	111,781
193,086	-5,191	228,868	111,571
194,100	-5,240	228,750	111,465
195,115	-5,462	228,460	111,142
196,129	-5,767	228,297	110,816
197,144	-2,847	229,118	113,471
198,159	1,382	230,562	117,471
199,173	3,780	231,018	119,561
200,188	3,935	230,834	119,575
201,202	3,918	230,785	119,526
202,217	4,247	230,583	119,666
203,232	4,120	230,539	119,534
204,246	4,138	230,501	119,518
205,261	4,333	230,199	119,501
206,275	4,571	230,104	119,625
207,290	4,591	230,051	119,603
208,304	4,390	229,746	119,278
209,319	4,649	229,658	119,421
210,334	4,483	229,525	119,214
211,348	4,178	229,213	118,806
212,363	3,863	228,937	118,410
213,377	3,874	228,708	118,289
214,392	3,556	228,634	117,995
215,407	3,756	228,572	118,107
216,421	3,726	228,397	117,983
217,436	3,703	228,187	117,847
218,450	3,452	227,964	117,528
219,465	3,221	227,857	117,286
220,480	3,461	227,743	117,401
221,494	3,225	227,606	117,138
222,509	3,713	227,323	117,356
223,523	3,715	227,239	117,303
224,538	3,611	227,083	117,133
225,553	3,674	226,939	117,097
226,567	3,765	226,788	117,077
227,582	3,818	226,777	117,102
228,596	3,942	226,672	117,132
229,611	3,779	226,357	116,834
230,626	3,468	226,307	116,561
231,640	3,533	226,035	116,460
232,655	3,930	225,957	116,711
233,669	4,138	226,057	116,910
234,684	4,330	225,883	116,955
235,699	4,151	225,643	116,685
236,713	3,773	225,451	116,290
237,728	3,429	225,387	115,986
238,742	3,515	224,900	115,790
239,757	3,658	224,928	115,901
240,772	3,640	224,724	115,773
241,786	3,707	224,468	115,681
242,801	3,781	224,508	115,747
243,815	4,176	224,419	115,988
244,830	4,222	224,284	115,942
245,844	3,767	224,035	115,462
246,859	3,903	223,822	115,444
247,874	3,992	223,866	115,523
248,888	4,009	223,656	115,417
249,903	3,877	223,366	115,158
250,917	3,758	223,207	114,977
251,932	3,717	223,129	114,896
252,947	3,687	222,958	114,775
253,961	3,659	222,920	114,724
254,976	3,410	222,723	114,427
255,990	3,916	222,674	114,769
257,005	3,914	222,463	114,649
258,020	3,976	222,274	114,587
259,034	4,277	222,257	114,793
260,049	4,231	222,084	114,658
261,063	3,963	221,883	114,346
262,078	3,993	221,914	114,373
263,093	4,017	221,708	114,275
264,107	3,933	221,435	114,062
265,122	3,809	221,358	113,920
266,136	4,152	221,172	114,068
267,151	4,294	221,012	114,081
268,166	3,728	220,862	113,575
269,180	3,501	220,623	113,273
270,195	3,401	220,437	113,094
271,209	3,296	220,425	113,001
272,224	3,718	220,290	113,232
273,239	3,513	220,182	113,015
274,253	3,711	220,034	113,076
275,268	3,481	219,759	112,755
276,282	3,348	219,653	112,592
277,297	3,260	219,483	112,431
278,312	3,543	219,422	112,597
279,326	3,934	219,279	112,801
280,341	3,731	219,149	112,575
281,355	3,635	219,084	112,461
282,370	3,682	218,820	112,350
283,384	3,331	218,723	112,034
284,399	3,109	218,512	111,753
285,414	3,674	218,261	112,027
286,428	3,801	218,278	112,118
287,443	3,882	218,151	112,102
288,457	3,660	218,168	111,940
289,472	3,596	217,822	111,706
290,487	3,267	217,673	111,379
291,501	3,264	217,475	111,266
292,516	3,452	217,321	111,314
293,530	3,335	217,325	111,221
294,545	3,392	217,293	111,236
295,560	3,691	217,002	111,294
296,574	3,786	216,888	111,294
297,589	3,516	216,820	111,054
298,603	3,662	216,685	111,080
299,618	3,735	216,473	111,015
300,633	3,542	216,362	110,808
301,647	3,619	216,402	110,875
302,662	4,023	216,233	111,070
303,676	4,031	216,087	110,990
304,691	3,904	215,939	110,813
305,706	3,888	215,720	110,680
306,720	4,009	215,623	110,707
307,735	3,686	215,387	110,344
308,749	3,483	215,234	110,110
309,764	3,509	215,122	110,061
310,779	3,838	215,115	110,284
311,793	3,843	214,821	110,127
312,808	3,763	214,780	110,039
313,822	3,601	214,669	109,856
314,837	3,566	214,531	109,751
315,852	3,661	214,286	109,683
316,866	3,627	214,226	109,619
317,881	3,747	214,085	109,622
318,895	3,875	213,872	109,595
319,910	3,780	213,668	109,413
320,925	3,489	213,406	109,062
321,939	3,355	213,252	108,879
322,954	3,428	213,347	108,969
323,968	3,686	213,403	109,171
324,983	3,781	213,057	109,052
325,997	3,859	212,966	109,051
327,012	3,748	212,803	108,879
328,027	3,736	212,673	108,794
329,041	4,011	212,657	108,971
330,056	4,027	212,583	108,935
331,070	3,547	212,299	108,441
332,085	3,420	211,937	108,156
333,100	3,701	211,977	108,365
334,114	3,754	211,843	108,325
335,129	3,677	211,701	108,188
336,143	3,697	211,453	108,065
337,158	3,486	211,436	107,899
338,173	3,626	211,344	107,941
339,187	3,533	211,109	107,746
340,202	3,532	210,929	107,644
341,216	3,277	210,884	107,432
342,231	3,479	210,698	107,470
343,246	3,336	210,555	107,287
344,260	3,259	210,585	107,239
345,275	3,304	210,363	107,147
346,289	3,866	210,297	107,497
347,304	3,558	210,315	107,282
348,319	3,587	210,008	107,136
349,333	3,597	209,927	107,092
350,348	3,667	209,907	107,121
351,362	3,869	209,617	107,104
352,377	3,794	209,568	107,017
353,392	3,529	209,412	106,744
354,406	3,499	209,389	106,702
355,421	194,064	1344,682	1430,306
356,435	154,884	1483,071	1430,404
