DTS Sentinel unit serial number:	SN410029Multiplexer serial number:	ORYXHardware model number:	OX2-SRSoftware version number:	ORYX F/W v4,00 Oryx Data Collector v3.7.2.0data status	okinstallation	B6 Nyhavnadifferential loss correction	single-endedforward channel	channel 2reverse channel	N/Adate	2023/12/10time	10:20:08forward acquisition time	300,00reverse acquisition time	0,00gamma	499,1914k internal	0,3123k external	0,3123temperature offset calibration	1,0000default loss term (dB/km)	0,3820temperature slope calibration	1,0000multiplexer offset coefficient	1,0000multiplexer slope coefficient	1,0000fibre end	0,00T internal ref (°C)	22,56T ext. ref 1 (°C)	6,41T ext. ref 2 (°C)	6,39length (m)	temperature (°C)	Stokes	anti-Stokes-744,400	193,084	0,118	0,133
-743,385	22,479	-0,271	0,165
-742,371	-173,572	0,017	-0,000
-741,356	365,443	-0,112	0,168
-740,342	461,864	0,044	0,074
-739,327	27,659	-0,159	0,099
-738,312	151,782	-0,023	0,023
-737,298	4,057	-0,174	0,095
-736,283	-32,136	0,090	0,038
-735,269	50,550	-0,268	0,188
-734,254	-200,000	0,020	0,065
-733,239	-91,076	-0,392	-0,083
-732,225	15,720	0,168	0,098
-731,210	-22,870	0,138	0,062
-730,196	350,114	0,010	-0,014
-729,181	-171,255	-0,085	0,002
-728,167	-200,000	-0,011	-0,172
-727,152	-22,750	0,127	-0,057
-726,137	-200,000	-0,005	0,045
-725,123	631,646	-0,028	-0,053
-724,108	800,000	-0,065	-0,183
-723,094	404,974	-0,108	-0,170
-722,079	-200,000	-0,014	-0,117
-721,064	145,960	-0,079	-0,079
-720,050	47,467	0,013	0,009
-719,035	-87,482	0,120	-0,027
-718,021	-36,190	-0,114	-0,046
-717,006	-13,545	-0,058	-0,028
-715,991	-73,095	-0,130	-0,035
-714,977	-62,478	-0,080	0,025
-713,962	47,599	-0,052	0,036
-712,948	119,857	-0,020	-0,019
-711,933	-114,597	-0,098	0,014
-710,918	-200,000	0,015	-0,070
-709,904	-200,000	0,010	0,057
-708,889	38,086	-0,065	-0,043
-707,875	-200,000	-0,006	-0,179
-706,860	103,102	-0,091	-0,079
-705,845	-48,437	0,044	-0,016
-704,831	800,000	-0,017	0,050
-703,816	43,941	-0,090	0,062
-702,802	-101,347	0,050	-0,009
-701,787	292,562	0,091	-0,124
-700,772	153,404	-0,058	-0,059
-699,758	-200,000	-0,012	-0,101
-698,743	79,683	-0,047	0,038
-697,729	84,049	0,102	-0,083
-696,714	341,150	0,062	-0,090
-695,699	800,000	0,047	0,148
-694,685	395,954	-0,071	0,110
-693,670	106,308	0,075	0,066
-692,656	-68,512	-0,174	-0,050
-691,641	83,538	-0,067	0,055
-690,627	800,000	0,086	0,185
-689,612	-27,539	-0,077	0,033
-688,597	-69,008	0,101	0,029
-687,583	-91,647	-0,132	0,028
-686,568	-92,227	-0,153	0,032
-685,554	137,615	-0,048	-0,047
-684,539	71,451	0,155	-0,120
-683,524	-200,000	0,004	-0,028
-682,510	-73,856	0,126	0,034
-681,495	-67,921	0,183	-0,053
-680,481	78,356	-0,123	0,098
-679,466	30,765	0,020	-0,013
-678,451	-107,986	-0,096	-0,015
-677,437	-200,000	-0,001	0,114
-676,422	-173,678	-0,073	-0,002
-675,408	13,886	0,128	-0,074
-674,393	-138,613	0,088	-0,007
-673,378	-136,380	0,006	-0,000
-672,364	-158,670	-0,059	-0,002
-671,349	800,000	-0,059	-0,130
-670,335	-140,569	-0,085	-0,006
-669,320	800,000	0,017	0,055
-668,305	238,750	-0,050	0,062
-667,291	-133,443	-0,188	0,017
-666,276	800,000	-0,018	0,046
-665,262	116,512	-0,021	0,019
-664,247	-125,557	-0,058	-0,006
-663,232	-170,970	-0,124	0,003
-662,218	-200,000	0,019	-0,139
-661,203	80,398	0,081	-0,065
-660,189	-200,000	0,012	-0,134
-659,174	800,000	-0,047	-0,118
-658,159	-107,611	-0,116	0,019
-657,145	26,573	0,051	0,031
-656,130	167,553	-0,028	-0,029
-655,116	111,542	0,093	0,083
-654,101	800,000	0,066	0,146
-653,086	-120,163	-0,061	-0,008
-652,072	-167,946	-0,069	0,002
-651,057	-39,881	0,054	0,021
-650,043	-87,275	-0,075	-0,017
-649,028	742,176	0,029	0,058
-648,014	-14,581	-0,030	0,014
-646,999	800,000	0,007	-0,015
-645,984	-81,839	0,112	0,027
-644,970	762,932	0,028	0,057
-643,955	-79,827	-0,094	0,023
-642,941	502,330	-0,013	-0,023
-641,926	323,601	-0,074	-0,105
-640,911	99,606	0,083	0,071
-639,897	653,590	0,075	0,144
-638,882	14,074	0,075	0,043
-637,868	-45,879	0,145	-0,053
-636,853	800,000	-0,026	0,064
-635,838	-200,000	-0,034	-0,140
-634,824	-3,266	-0,249	-0,128
-633,809	800,000	-0,029	-0,073
-632,795	172,962	0,123	0,132
-631,780	84,639	0,055	0,045
-630,765	-169,776	-0,035	-0,001
-629,751	109,977	0,060	-0,054
-628,736	217,469	0,035	0,042
-627,722	467,633	0,010	-0,017
-626,707	-98,656	0,033	0,006
-625,692	-92,035	0,103	-0,021
-624,678	653,154	-0,037	0,071
-623,663	-160,130	-0,057	-0,002
-622,649	-88,041	-0,110	-0,024
-621,634	132,825	-0,132	-0,126
-620,619	-92,461	-0,045	-0,009
-619,605	13,471	0,054	0,031
-618,590	-88,261	0,017	0,004
-617,576	277,573	-0,042	0,056
-616,561	59,357	0,070	-0,051
-615,546	29,650	-0,036	0,023
-614,532	465,571	-0,082	-0,137
-613,517	481,729	-0,059	0,099
-612,503	-155,924	-0,132	0,006
-611,488	3,253	0,021	0,011
-610,474	-200,000	0,020	0,076
-609,459	-144,717	-0,021	-0,001
-608,444	800,000	-0,006	-0,012
-607,430	124,678	-0,111	-0,104
-606,415	533,819	-0,040	-0,071
-605,401	800,000	-0,045	0,146
-604,386	-59,494	0,155	-0,049
-603,371	-200,000	0,003	-0,050
-602,357	-200,000	-0,024	0,155
-601,342	227,576	-0,071	0,086
-600,328	-90,581	-0,032	0,007
-599,313	38,060	0,010	-0,007
-598,298	-200,000	-0,008	0,039
-597,284	800,000	-0,051	0,165
-596,269	800,000	0,056	-0,160
-595,255	419,955	0,079	-0,126
-594,240	13,159	-0,098	-0,056
-593,225	122,095	-0,080	-0,074
-592,211	281,360	-0,109	-0,145
-591,196	185,786	0,034	-0,037
-590,182	-74,399	-0,107	0,028
-589,167	-200,000	0,013	0,075
-588,152	112,613	-0,100	-0,090
-587,138	93,090	-0,078	0,065
-586,123	172,581	0,047	0,050
-585,109	78,775	-0,083	-0,066
-584,094	-86,462	-0,129	0,029
-583,079	290,141	-0,050	0,068
-582,065	205,410	0,089	0,102
-581,050	-200,000	0,019	-0,069
-580,036	20,757	-0,058	0,035
-579,021	-169,379	0,025	0,001
-578,006	-200,000	0,001	-0,047
-576,992	-200,000	-0,017	0,067
-575,977	22,126	-0,083	0,050
-574,963	270,080	0,050	0,065
-573,948	800,000	-0,039	-0,118
-572,934	-200,000	0,010	0,098
-571,919	-200,000	0,021	-0,074
-570,904	-13,126	-0,067	-0,032
-569,890	800,000	-0,087	-0,208
-568,875	-200,000	0,009	-0,032
-567,861	159,766	-0,046	0,047
-566,846	-48,285	0,026	0,009
-565,831	238,181	-0,030	-0,036
-564,817	-105,721	0,066	-0,011
-563,802	800,000	0,055	-0,157
-562,788	2,734	-0,108	-0,058
-561,773	162,914	0,103	0,107
-560,758	-200,000	0,007	0,064
-559,744	-200,000	0,000	0,000
-558,729	502,245	-0,029	-0,050
-557,715	410,816	-0,059	-0,093
-556,700	-58,840	-0,030	-0,010
-555,685	-72,357	0,055	-0,015
-554,671	-200,000	0,016	-0,116
-553,656	66,195	0,072	0,054
-552,642	-200,000	0,004	-0,040
-551,627	-40,114	-0,127	0,049
-550,612	70,209	-0,068	-0,052
-549,598	59,610	0,012	-0,009
-548,583	52,863	-0,092	-0,065
-547,569	-161,165	0,053	-0,002
-546,554	-120,560	-0,039	-0,005
-545,539	-200,000	-0,004	0,067
-544,525	63,675	-0,075	-0,056
-543,510	180,405	0,128	-0,139
-542,496	685,358	-0,042	-0,082
-541,481	-200,000	0,024	-0,101
-540,466	-200,000	0,001	-0,054
-539,452	215,410	0,060	0,071
-538,437	155,187	-0,060	0,061
-537,423	-200,000	0,006	0,035
-536,408	26,355	0,027	0,016
-535,393	800,000	-0,016	-0,034
-534,379	-75,326	-0,181	-0,047
-533,364	-200,000	-0,002	0,055
-532,350	-79,346	0,051	0,013
-531,335	37,723	0,147	0,096
-530,321	-115,756	0,014	0,002
-529,306	353,893	0,049	-0,072
-528,291	52,537	0,027	0,019
-527,277	800,000	-0,032	0,076
-526,262	6,616	0,066	0,036
-525,248	487,342	0,048	-0,082
-524,233	-200,000	0,020	0,074
-523,218	-90,917	-0,004	-0,001
-522,204	-200,000	0,011	0,060
-521,189	130,798	0,070	0,066
-520,175	569,556	0,073	0,132
-519,160	800,000	-0,061	0,130
-518,145	-92,930	0,098	0,020
-517,131	556,786	-0,063	0,113
-516,116	800,000	0,048	0,149
-515,102	-90,015	-0,090	0,019
-514,087	-200,000	-0,022	-0,136
-513,072	800,000	0,007	-0,021
-512,058	-200,000	-0,007	-0,112
-511,043	87,366	-0,031	-0,025
-510,029	-76,218	0,136	-0,035
-509,014	5,039	0,104	0,056
-507,999	-200,000	-0,001	0,039
-506,985	18,470	0,082	0,048
-505,970	-73,871	-0,099	-0,026
-504,956	-200,000	0,002	-0,072
-503,941	-105,196	0,101	0,017
-502,926	800,000	0,043	0,090
-501,912	284,366	-0,097	0,129
-500,897	-180,769	0,114	-0,002
-499,883	-81,516	-0,117	0,028
-498,868	-5,381	0,049	-0,025
-497,853	-142,261	-0,087	-0,006
-496,839	47,557	0,136	0,094
-495,824	260,883	0,100	0,128
-494,810	-55,838	0,140	-0,046
-493,795	-89,821	0,121	-0,026
-492,781	800,000	-0,012	0,030
-491,766	113,974	0,165	-0,148
-490,751	-175,860	-0,159	-0,003
-489,737	-200,000	0,018	0,063
-488,722	-200,000	0,013	0,132
-487,708	800,000	-0,057	0,143
-486,693	506,508	-0,046	0,079
-485,678	211,304	0,016	-0,018
-484,664	-150,249	-0,034	0,002
-483,649	-145,051	0,077	0,005
-482,635	-56,855	0,088	-0,029
-481,620	-200,000	0,023	0,141
-480,605	-200,000	0,006	0,094
-479,591	621,612	-0,019	-0,035
-478,576	13,484	-0,090	-0,052
-477,562	800,000	-0,032	-0,081
-476,547	500,543	-0,042	-0,072
-475,532	-200,000	-0,000	-0,017
-474,518	-200,000	0,003	0,017
-473,503	88,026	0,023	0,019
-472,489	-200,000	0,025	0,000
-471,474	-200,000	-0,013	0,164
-470,459	-87,173	-0,167	0,037
-469,445	-94,183	-0,125	0,025
-468,430	-200,000	-0,016	-0,151
-467,416	85,063	0,114	-0,092
-466,401	-200,000	0,005	0,131
-465,386	623,761	-0,040	0,074
-464,372	-127,291	-0,136	0,014
-463,357	96,906	-0,093	-0,078
-462,343	306,090	-0,139	-0,191
-461,328	80,618	-0,110	0,087
-460,313	-25,395	0,067	0,029
-459,299	-200,000	-0,016	0,073
-458,284	-200,000	0,036	-0,147
-457,270	-7,334	-0,064	0,032
-456,255	-186,921	-0,124	-0,001
-455,241	261,450	-0,043	0,055
-454,226	-200,000	-0,000	0,111
-453,211	372,928	0,037	-0,055
-452,197	-200,000	0,017	-0,069
-451,182	-86,546	0,158	-0,035
-450,168	-156,666	0,085	-0,004
-449,153	27,146	0,014	-0,009
-448,138	-45,746	-0,079	0,029
-447,124	-31,597	-0,114	-0,047
-446,109	-200,000	-0,005	-0,039
-445,095	614,312	0,045	-0,083
-444,080	-81,672	0,072	0,017
-443,065	-114,674	0,128	-0,018
-442,051	163,478	-0,080	-0,083
-441,036	29,700	-0,041	-0,025
-440,022	784,805	-0,071	-0,145
-439,007	-78,431	0,053	0,013
-437,992	-7,124	-0,004	-0,002
-436,978	-200,000	0,048	0,160
-435,963	-200,000	0,029	0,103
-434,949	30,440	-0,095	-0,060
-433,934	109,016	0,059	0,052
-432,919	-88,943	-0,141	-0,030
-431,905	347,150	0,021	0,031
-430,890	-200,000	-0,026	-0,095
-429,876	15,845	0,091	0,053
-428,861	81,847	0,160	0,128
-427,846	175,142	-0,104	-0,111
-426,832	-200,000	0,003	0,028
-425,817	-77,804	0,084	-0,021
-424,803	168,002	0,023	0,024
-423,788	-118,379	0,053	0,007
-422,773	-76,917	0,131	0,033
-421,759	-200,000	0,004	-0,068
-420,744	-15,320	0,072	0,034
-419,730	-80,072	-0,162	-0,040
-418,715	431,359	-0,084	0,134
-417,701	-200,000	-0,010	-0,071
-416,686	800,000	0,015	0,043
-415,671	800,000	0,064	0,165
-414,657	-50,266	0,027	-0,009
-413,642	-101,362	0,032	-0,006
-412,628	33,324	0,062	0,039
-411,613	-74,984	-0,028	0,007
-410,598	283,856	0,015	-0,020
-409,584	-58,651	-0,098	0,031
-408,569	512,781	-0,083	-0,143
-407,555	682,486	-0,048	0,092
-406,540	800,000	0,016	0,036
-405,525	298,174	0,049	0,066
-404,511	393,457	0,055	0,085
-403,496	-200,000	-0,009	-0,084
-402,482	301,957	0,026	-0,036
-401,467	371,924	-0,033	-0,049
-400,452	-97,702	0,100	-0,019
-399,438	-104,843	-0,046	-0,008
-398,423	-200,000	-0,024	-0,092
-397,409	22,023	-0,018	0,011
-396,394	371,836	0,092	-0,137
-395,379	44,813	-0,074	-0,050
-394,365	-12,608	-0,031	-0,015
-393,350	-200,000	-0,011	0,065
-392,336	116,786	0,095	0,086
-391,321	235,666	0,045	-0,055
-390,306	-200,000	-0,000	0,006
-389,292	-72,388	0,106	-0,029
-388,277	29,574	-0,038	-0,024
-387,263	800,000	0,046	0,096
-386,248	800,000	-0,022	0,060
-385,233	128,818	-0,080	0,075
-384,219	-93,133	-0,138	-0,028
-383,204	-101,885	0,057	0,010
-382,190	-139,395	-0,041	0,003
-381,175	396,499	-0,049	0,075
-380,160	-200,000	-0,014	-0,089
-379,146	-200,000	0,009	0,069
-378,131	-200,000	0,022	-0,098
-377,117	800,000	-0,052	-0,120
-376,102	764,201	-0,019	0,037
-375,088	317,539	-0,072	0,100
-374,073	1,938	0,168	0,089
-373,058	-200,000	-0,027	0,101
-372,044	169,945	0,020	0,021
-371,029	800,000	0,055	0,123
-370,015	219,277	-0,076	0,090
-369,000	110,569	0,047	-0,041
-367,985	-144,023	-0,024	0,002
-366,971	74,752	0,065	0,050
-365,956	-200,000	0,015	-0,056
-364,942	-123,278	0,079	0,009
-363,927	627,225	0,082	0,152
-362,912	-46,416	0,086	0,031
-361,898	295,275	0,036	0,049
-360,883	-200,000	-0,010	-0,084
-359,869	-200,000	-0,008	0,029
-358,854	188,353	0,070	0,077
-357,839	273,949	0,044	0,058
-356,825	-200,000	-0,006	0,095
-355,810	223,725	0,107	-0,127
-354,796	-74,055	-0,086	0,023
-353,781	-70,868	0,084	-0,023
-352,766	-19,132	-0,083	-0,038
-351,752	7,203	-0,039	-0,021
-350,737	-200,000	-0,015	0,083
-349,723	-10,769	0,093	0,045
-348,708	2,332	0,062	-0,033
-347,693	570,695	-0,012	-0,022
-346,679	-200,000	-0,003	-0,022
-345,664	-99,411	0,071	0,013
-344,650	499,190	-0,021	-0,036
-343,635	161,042	-0,092	-0,095
-342,620	-62,469	0,030	0,009
-341,606	800,000	-0,025	-0,069
-340,591	348,227	0,033	0,048
-339,577	-140,582	0,065	0,005
-338,562	-200,000	-0,008	-0,040
-337,548	21,485	0,076	-0,045
-336,533	41,329	-0,091	-0,060
-335,518	262,713	0,052	-0,067
-334,504	-98,373	0,037	-0,007
-333,489	350,517	0,071	-0,103
-332,475	-200,000	0,001	-0,023
-331,460	800,000	-0,009	0,025
-330,445	800,000	0,046	-0,139
-329,431	654,008	0,020	0,038
-328,416	18,123	-0,096	-0,056
-327,402	-200,000	0,007	0,056
-326,387	127,729	0,077	0,072
-325,372	-89,387	-0,009	0,002
-324,358	243,600	-0,062	-0,076
-323,343	480,671	0,049	0,082
-322,329	563,518	-0,043	-0,077
-321,314	-137,906	-0,075	0,006
-320,299	62,331	0,061	0,045
-319,285	615,651	-0,024	-0,043
-318,270	-166,748	0,122	-0,004
-317,256	9,972	0,045	-0,025
-316,241	-35,873	0,135	-0,053
-315,226	-123,866	0,061	-0,007
-314,212	-58,780	-0,059	0,019
-313,197	800,000	-0,039	-0,123
-312,183	4,424	-0,075	-0,040
-311,168	658,218	-0,103	-0,195
-310,153	-122,916	-0,075	0,009
-309,139	212,389	0,034	-0,040
-308,124	23,691	-0,099	0,060
-307,110	217,252	-0,110	0,129
-306,095	397,014	-0,071	0,110
-305,080	-100,982	0,089	0,016
-304,066	-141,619	0,042	-0,003
-303,051	-178,350	-0,160	-0,003
-302,037	361,770	0,085	-0,125
-301,022	-200,000	0,008	0,074
-300,008	-118,191	0,124	0,016
-298,993	389,391	0,023	0,036
-297,978	-200,000	-0,021	0,090
-296,964	307,183	-0,026	-0,036
-295,949	800,000	-0,057	-0,141
-294,935	38,525	-0,034	-0,022
-293,920	800,000	0,030	0,086
-292,905	800,000	0,087	0,188
-291,891	103,318	0,010	-0,009
-290,876	-77,461	-0,094	-0,024
-289,862	-69,665	0,106	-0,030
-288,847	800,000	0,058	-0,149
-287,832	628,008	0,028	0,052
-286,818	-158,859	0,138	0,006
-285,803	114,722	0,029	0,026
-284,789	103,171	0,088	0,075
-283,774	-120,989	0,124	0,015
-282,759	-200,000	-0,009	-0,109
-281,745	800,000	0,027	0,074
-280,730	-0,247	0,138	0,072
-279,716	386,455	-0,088	0,134
-278,701	-91,036	0,036	-0,007
-277,686	252,152	-0,027	-0,033
-276,672	116,524	0,078	0,070
-275,657	-151,091	-0,133	0,007
-274,643	36,307	0,057	0,037
-273,628	78,237	0,046	0,036
-272,613	-64,103	0,040	0,012
-271,599	113,050	0,089	-0,079
-270,584	-53,084	-0,052	0,018
-269,570	-66,998	0,130	-0,037
-268,555	284,246	-0,068	-0,090
-267,540	120,613	-0,051	-0,046
-266,526	800,000	-0,049	-0,119
-265,511	-85,005	0,052	-0,012
-264,497	-200,000	0,001	-0,014
-263,482	185,778	0,026	-0,028
-262,467	-200,000	0,011	0,127
-261,453	703,011	0,076	-0,148
-260,438	77,134	-0,038	-0,029
-259,424	22,142	-0,041	0,025
-258,409	67,415	0,017	0,013
-257,395	-45,189	-0,144	0,052
-256,380	-55,457	0,062	-0,020
-255,365	-200,000	-0,002	-0,067
-254,351	59,237	-0,008	-0,006
-253,336	38,345	0,105	-0,068
-252,322	404,928	-0,144	-0,223
-251,307	800,000	0,055	-0,138
-250,292	710,868	0,017	-0,034
-249,278	454,385	0,049	0,080
-248,263	94,173	0,022	-0,018
-247,249	84,889	0,065	-0,052
-246,234	325,243	0,047	-0,066
-245,219	-200,000	-0,010	-0,039
-244,205	478,976	0,021	0,035
-243,190	-11,391	-0,065	0,031
-242,176	800,000	0,033	0,087
-241,161	34,886	-0,052	-0,033
-240,146	-41,966	-0,041	0,015
-239,132	-115,098	-0,259	0,036
-238,117	519,947	-0,032	-0,055
-237,103	-4,099	0,079	-0,040
-236,088	368,063	-0,020	0,030
-235,073	-200,000	-0,042	0,251
-234,059	-200,000	-0,011	0,093
-233,044	-84,986	0,147	-0,033
-232,030	335,368	-0,054	-0,077
-231,015	-6,708	-0,083	0,041
-230,000	134,878	0,061	0,058
-228,986	-200,000	-0,001	0,035
-227,971	-117,994	0,080	0,010
-226,957	545,718	-0,056	0,098
-225,942	448,996	-0,012	0,020
-224,927	-200,000	-0,002	0,015
-223,913	536,647	0,046	-0,081
-222,898	115,212	-0,093	0,083
-221,884	73,716	-0,059	0,045
-220,869	91,604	0,019	-0,016
-219,855	-200,000	0,020	0,152
-218,840	95,342	0,097	0,081
-217,825	-27,933	0,054	0,023
-216,811	-200,000	0,010	-0,036
-215,796	88,383	-0,027	-0,022
-214,782	-200,000	0,039	-0,139
-213,767	-174,739	-0,025	-0,001
-212,752	123,638	0,135	-0,124
-211,738	800,000	0,038	-0,102
-210,723	-86,207	-0,099	0,022
-209,709	-200,000	0,017	-0,102
-208,694	33,086	0,096	-0,061
-207,679	243,491	-0,037	-0,045
-206,665	-200,000	-0,002	-0,071
-205,650	201,632	-0,096	0,108
-204,636	800,000	0,029	0,066
-203,621	800,000	-0,051	-0,121
-202,606	97,826	-0,088	0,073
-201,592	800,000	-0,044	-0,094
-200,577	-34,709	0,067	-0,027
-199,563	-51,660	-0,101	-0,034
-198,548	49,319	0,057	0,039
-197,533	-42,887	-0,168	0,062
-196,519	-62,076	-0,066	0,020
-195,504	-200,000	-0,024	0,083
-194,490	110,550	0,066	-0,057
-193,475	39,605	-0,017	0,011
-192,460	-200,000	-0,037	0,118
-191,446	-96,463	0,144	-0,028
-190,431	79,307	0,029	-0,023
-189,417	-101,105	-0,085	-0,015
-188,402	-121,695	-0,018	0,002
-187,387	127,083	-0,103	-0,096
-186,373	640,753	-0,081	0,152
-185,358	167,951	-0,052	-0,054
-184,344	143,681	0,096	-0,093
-183,329	-200,000	-0,006	0,036
-182,315	-39,929	-0,143	0,054
-181,300	-92,914	0,073	0,015
-180,285	75,205	-0,125	-0,096
-179,271	-200,000	-0,011	-0,114
-178,256	81,719	-0,114	-0,090
-177,242	-103,335	0,187	0,032
-176,227	-82,358	-0,045	0,011
-175,212	130,272	0,017	-0,015
-174,198	109,546	0,058	0,050
-173,183	-100,225	-0,105	-0,019
-172,169	665,708	0,046	-0,088
-171,154	-36,301	-0,040	0,015
-170,139	800,000	-0,049	-0,157
-169,125	283,973	-0,078	-0,102
-168,110	92,773	0,051	-0,042
-167,096	-200,000	0,001	0,093
-166,081	-51,996	-0,066	-0,022
-165,066	-200,000	0,023	-0,082
-164,052	-141,055	-0,077	0,006
-163,037	200,892	-0,026	0,029
-162,023	-138,685	0,118	0,009
-161,008	800,000	0,011	0,035
-159,993	-95,516	0,139	-0,027
-158,979	685,789	-0,043	0,082
-157,964	246,972	0,059	-0,073
-156,950	34,238	-0,042	-0,027
-155,935	-29,109	0,103	-0,043
-154,920	431,273	-0,078	0,124
-153,906	-200,000	0,021	0,143
-152,891	-200,000	-0,020	0,073
-151,877	-200,000	0,003	-0,079
-150,862	800,000	-0,038	-0,093
-149,847	52,179	-0,037	-0,026
-148,833	-200,000	0,002	0,051
-147,818	561,434	0,088	0,155
-146,804	84,258	0,075	0,060
-145,789	208,132	0,034	-0,039
-144,775	89,141	0,021	-0,017
-143,760	-200,000	0,033	0,186
-142,745	476,290	0,038	-0,063
-141,731	53,001	0,119	0,083
-140,716	122,405	-0,132	0,120
-139,702	-200,000	-0,006	-0,098
-138,687	197,381	0,055	0,061
-137,672	-200,000	0,002	-0,048
-136,658	-76,861	-0,077	0,019
-135,643	-200,000	0,019	0,137
-134,629	-18,725	-0,015	0,007
-133,614	-159,459	-0,023	0,001
-132,599	145,230	-0,044	-0,043
-131,585	250,461	0,069	0,085
-130,570	-200,000	0,015	-0,062
-129,556	374,871	0,035	-0,052
-128,541	454,516	0,056	-0,090
-127,526	-116,267	0,090	0,012
-126,512	-200,000	0,027	0,206
-125,497	169,394	0,074	0,077
-124,483	-40,336	0,108	-0,041
-123,468	-84,977	0,131	0,030
-122,453	157,750	-0,120	-0,121
-121,439	-147,602	0,072	-0,004
-120,424	143,171	-0,072	0,069
-119,410	270,300	-0,046	-0,059
-118,395	-200,000	0,040	0,180
-117,380	196,410	0,035	-0,039
-116,366	800,000	0,103	-0,236
-115,351	176,411	-0,040	-0,042
-114,337	800,000	-0,045	-0,106
-113,322	-76,146	-0,088	-0,022
-112,307	800,000	-0,044	-0,117
-111,293	88,598	-0,040	0,032
-110,278	800,000	0,024	0,075
-109,264	-10,463	0,109	-0,052
-108,249	-29,750	-0,099	-0,041
-107,234	800,000	-0,038	-0,088
-106,220	480,608	-0,080	-0,133
-105,205	166,140	0,090	-0,093
-104,191	-74,995	0,055	-0,014
-103,176	800,000	-0,042	0,104
-102,162	800,000	-0,038	0,091
-101,147	230,827	-0,020	0,024
-100,132	-136,415	0,120	-0,010
-99,118	97,703	-0,084	-0,070
-98,103	-200,000	0,009	0,086
-97,089	-200,000	0,022	-0,151
-96,074	25,496	0,097	0,059
-95,059	800,000	0,026	0,055
-94,045	-200,000	-0,006	-0,116
-93,030	800,000	-0,028	-0,058
-92,016	800,000	-0,026	-0,061
-91,001	280,663	0,033	-0,042
-89,986	-200,000	0,027	0,146
-88,972	-200,000	-0,028	0,102
-87,957	-200,000	0,005	0,041
-86,943	381,536	-0,031	0,046
-85,928	6,005	0,110	-0,059
-84,913	799,369	-0,042	0,085
-83,899	439,918	-0,071	-0,113
-82,884	25,220	0,106	0,064
-81,870	-59,473	-0,035	0,011
-80,855	800,000	0,046	-0,093
-79,840	-200,000	-0,009	0,149
-78,826	-172,818	-0,120	0,003
-77,811	-116,376	-0,110	0,015
-76,797	-73,288	0,068	-0,018
-75,782	-81,669	0,030	-0,007
-74,767	167,938	0,071	0,074
-73,753	197,549	0,057	-0,063
-72,738	-123,867	-0,099	0,011
-71,724	384,075	-0,025	-0,038
-70,709	-200,000	0,000	-0,099
-69,694	-81,182	0,004	-0,001
-68,680	53,242	0,035	-0,024
-67,665	-200,000	0,053	0,000
-66,651	-134,389	0,126	0,011
-65,636	-84,598	0,048	0,011
-64,622	27,328	-0,042	0,025
-63,607	-25,228	0,082	-0,035
-62,592	-17,330	0,044	-0,020
-61,578	33,275	-0,043	-0,027
-60,563	545,216	0,072	0,125
-59,549	-200,000	0,008	0,033
-58,534	-128,200	-1,434	-0,147
-57,519	762,716	-0,790	-1,564
-56,505	-200,000	-0,957	-4,608
-55,490	-17,723	0,558	-0,253
-54,476	800,000	4,924	11,858
-53,461	-200,000	13,453	253,199
-52,446	-200,000	688,798	2267,502
-51,432	595,922	1622,476	2926,773
-50,417	120,607	1636,067	1475,260
-49,403	73,581	1289,958	979,383
-48,388	38,345	1024,889	661,161
-47,373	24,507	982,292	588,163
-46,359	23,726	972,134	579,495
-45,344	22,818	967,761	573,896
-44,330	22,709	966,384	572,702
-43,315	22,606	964,894	571,460
-42,300	22,568	963,895	570,721
-41,286	22,631	962,928	570,331
-40,271	22,543	962,141	569,558
-39,257	22,506	961,145	568,825
-38,242	22,583	960,046	568,402
-37,227	22,526	959,355	567,786
-36,213	22,550	958,374	567,260
-35,198	22,493	957,746	566,680
-34,184	22,615	956,955	566,584
-33,169	22,522	956,096	565,753
-32,154	22,568	955,243	565,376
-31,140	22,626	954,199	564,921
-30,125	22,619	953,488	564,455
-29,111	22,624	952,489	563,857
-28,096	22,604	951,992	563,476
-27,082	22,581	951,158	562,888
-26,067	22,605	950,375	562,480
-25,052	22,624	949,697	562,117
-24,038	22,588	949,121	561,638
-23,023	22,568	948,516	561,193
-22,009	22,603	947,838	560,881
-20,994	22,654	947,276	560,688
-19,979	22,669	946,424	560,210
-18,965	22,639	945,948	559,811
-17,950	22,668	945,268	559,478
-16,936	22,595	944,702	558,890
-15,921	22,518	944,007	558,210
-14,906	22,472	943,194	557,560
-13,892	22,486	942,552	557,204
-12,877	22,475	941,973	556,805
-11,863	22,490	941,173	556,357
-10,848	22,483	940,854	556,124
-9,833	22,588	940,461	556,204
-8,819	22,599	939,700	555,764
-7,804	22,473	939,007	554,933
-6,790	22,525	938,353	554,689
-5,775	22,542	937,895	554,452
-4,760	22,482	937,322	553,900
-3,746	22,455	936,618	553,379
-2,731	22,385	936,081	552,818
-1,717	22,332	935,286	552,158
-0,702	22,329	934,439	551,628
0,313	22,073	934,096	551,450
1,327	25,162	931,880	559,810
2,342	34,782	796,631	504,199
3,356	32,889	451,854	283,106
4,371	2,044	293,855	153,336
5,386	-2,397	274,689	139,121
6,400	-4,050	268,958	134,673
7,415	-4,342	266,412	133,117
8,429	-4,085	265,310	132,790
9,444	-4,366	264,505	132,120
10,459	-4,161	263,765	131,925
11,473	-4,379	263,196	131,430
12,488	-4,462	262,748	131,119
13,502	-4,476	262,185	130,814
14,517	-4,555	261,676	130,477
15,531	-4,495	261,461	130,412
16,546	-4,278	260,926	130,330
17,561	-4,475	260,635	129,995
18,575	-4,270	260,388	130,045
19,590	-4,403	259,946	129,693
20,604	-4,394	259,764	129,599
21,619	-4,368	259,390	129,424
22,634	-4,234	258,970	129,323
23,648	-4,433	258,698	128,998
24,663	-4,520	258,638	128,879
25,677	-4,455	258,303	128,758
26,692	-4,476	257,989	128,571
27,707	-4,326	257,772	128,585
28,721	-4,470	257,482	128,302
29,736	-4,697	257,190	127,943
30,750	-4,549	256,823	127,880
31,765	-4,426	256,740	127,936
32,780	-4,474	256,518	127,771
33,794	-4,459	256,209	127,619
34,809	-4,434	255,984	127,518
35,823	-4,590	255,831	127,293
36,838	-4,561	255,591	127,187
37,853	-4,709	255,406	126,955
38,867	-4,658	255,118	126,844
39,882	-4,713	254,902	126,677
40,896	-4,449	254,548	126,722
41,911	-4,574	254,452	126,552
42,926	-4,509	254,156	126,452
43,940	-4,608	254,042	126,296
44,955	-4,722	253,813	126,072
45,969	-4,805	253,384	125,775
46,984	-4,829	253,246	125,674
47,999	-4,946	253,031	125,456
49,013	-5,332	252,751	124,969
50,028	-5,268	252,504	124,891
51,042	-5,442	252,339	124,648
52,057	-5,238	252,006	124,650
53,071	-5,161	251,811	124,608
54,086	-5,280	251,820	124,499
55,101	-5,005	251,570	124,602
56,115	-5,021	251,475	124,530
57,130	-4,428	251,306	124,947
58,144	-4,212	251,221	125,080
59,159	-4,323	251,120	124,923
60,174	-4,287	250,831	124,799
61,188	-4,158	250,512	124,740
62,203	-4,400	250,415	124,473
63,217	-4,483	250,155	124,261
64,232	-4,433	249,938	124,185
65,247	-4,284	249,755	124,212
66,261	-4,243	249,471	124,094
67,276	-4,632	249,146	123,589
68,290	-4,894	248,894	123,228
69,305	-4,703	248,741	123,305
70,320	-4,811	248,563	123,113
71,334	-4,564	248,491	123,277
72,349	-4,303	248,352	123,420
73,363	-4,197	248,189	123,418
74,378	-4,440	247,924	123,069
75,393	-4,353	247,687	123,014
76,407	-4,495	247,602	122,840
77,422	-4,317	247,263	122,812
78,436	-4,404	247,156	122,674
79,451	-4,379	246,908	122,561
80,466	-4,466	246,630	122,339
81,480	-4,571	246,340	122,096
82,495	-4,832	246,417	121,902
83,509	-4,557	246,127	121,980
84,524	-4,702	245,855	121,712
85,539	-4,821	245,598	121,474
86,553	-4,933	245,365	121,253
87,568	-4,694	245,300	121,411
88,582	-4,758	245,130	121,262
89,597	-4,626	244,813	121,206
90,611	-4,430	244,828	121,367
91,626	-4,427	244,800	121,344
92,641	-4,482	244,406	121,093
93,655	-4,544	244,294	120,975
94,670	-4,580	244,139	120,857
95,684	-4,479	243,907	120,815
96,699	-4,517	243,674	120,658
97,714	-4,799	243,570	120,360
98,728	-4,750	243,325	120,269
99,743	-4,768	243,111	120,137
100,757	-5,111	243,035	119,804
101,772	-4,667	242,622	119,958
102,787	-4,768	242,526	119,816
103,801	-4,656	242,440	119,856
104,816	-4,569	242,208	119,803
105,830	-4,389	242,096	119,886
106,845	-4,173	241,948	119,981
107,860	-4,456	241,703	119,614
108,874	-4,611	241,635	119,442
109,889	-4,683	241,509	119,310
110,903	-4,588	241,190	119,220
111,918	-4,756	240,969	118,961
112,933	-4,616	240,824	118,995
113,947	-4,489	240,687	119,021
114,962	-4,489	240,462	118,899
115,976	-4,667	240,278	118,651
116,991	-4,441	240,148	118,762
118,006	-4,572	239,992	118,567
119,020	-4,564	239,842	118,489
120,035	-4,573	239,723	118,412
121,049	-4,625	239,659	118,327
122,064	-4,601	239,330	118,174
123,079	-4,503	239,161	118,160
124,093	-4,552	238,941	118,001
125,108	-4,678	238,772	117,804
126,122	-4,895	238,367	117,417
127,137	-4,754	238,196	117,437
128,151	-4,716	238,145	117,433
129,166	-4,705	237,944	117,331
130,181	-4,917	237,804	117,080
131,195	-4,809	237,570	117,041
132,210	-4,626	237,612	117,200
133,224	-4,460	237,414	117,226
134,239	-4,678	237,155	116,912
135,254	-4,549	237,002	116,931
136,268	-4,742	236,753	116,641
137,283	-4,702	236,421	116,500
138,297	-4,948	236,366	116,264
139,312	-5,012	236,227	116,133
140,327	-4,805	236,267	116,309
141,341	-4,350	236,237	116,651
142,356	-4,184	236,013	116,664
143,370	-4,234	235,824	116,519
144,385	-4,195	235,577	116,419
145,400	-4,217	235,416	116,311
146,414	-4,260	235,311	116,214
147,429	-4,270	235,001	116,043
148,443	-4,323	234,881	115,931
149,458	-4,121	234,863	116,073
150,473	-4,227	234,545	115,821
151,487	-4,227	234,341	115,710
152,502	-4,322	234,167	115,537
153,516	-4,241	234,113	115,566
154,531	-4,188	233,979	115,531
155,546	-4,268	233,855	115,396
156,560	-4,405	233,576	115,139
157,575	-4,416	233,412	115,039
158,589	-4,331	233,202	114,993
159,604	-4,257	233,127	115,004
160,619	-3,900	232,922	115,176
161,633	-4,046	232,792	114,986
162,648	-4,055	232,715	114,931
163,662	-4,112	232,445	114,741
164,677	-4,217	232,274	114,565
165,692	-4,295	232,169	114,440
166,706	-4,108	232,002	114,496
167,721	-3,973	231,801	114,493
168,735	-3,983	231,707	114,428
169,750	-4,279	231,743	114,203
170,764	-4,185	231,432	114,113
171,779	-4,136	231,333	114,093
172,794	-3,985	231,067	114,070
173,808	-4,076	230,755	113,834
174,823	-4,563	230,604	113,367
175,837	-4,570	230,370	113,237
176,852	-4,473	230,538	113,386
177,867	-4,085	230,219	113,522
178,881	-4,164	230,150	113,417
179,896	-4,075	230,002	113,403
180,910	-4,087	229,995	113,380
181,925	-3,865	229,641	113,368
182,940	-3,998	229,488	113,179
183,954	-4,011	229,337	113,084
184,969	-4,054	229,334	113,040
185,983	-3,913	229,162	113,055
186,998	-3,974	228,990	112,912
188,013	-3,901	228,861	112,895
189,027	-3,889	228,678	112,804
190,042	-3,902	228,674	112,781
191,056	-4,103	228,542	112,551
192,071	-4,034	228,248	112,449
193,086	-4,249	228,186	112,242
194,100	-4,089	227,923	112,227
195,115	-4,206	227,441	111,889
196,129	-5,003	227,456	111,271
197,144	-1,315	228,554	114,658
198,159	2,719	229,612	118,313
199,173	4,115	229,736	119,450
200,188	4,055	229,763	119,406
201,202	3,926	229,709	119,267
202,217	4,168	229,418	119,293
203,232	4,697	229,259	119,609
204,246	4,533	229,248	119,466
205,261	4,507	229,088	119,352
206,275	4,783	228,984	119,500
207,290	5,033	228,765	119,568
208,304	4,959	228,620	119,424
209,319	4,917	228,410	119,272
210,334	4,841	228,335	119,163
211,348	4,596	228,089	118,836
212,363	4,082	227,875	118,319
213,377	3,923	227,570	118,028
214,392	3,882	227,507	117,954
215,407	4,240	227,211	118,064
216,421	4,382	227,211	118,162
217,436	3,971	227,027	117,742
218,450	3,777	226,803	117,466
219,465	3,768	226,613	117,350
220,480	3,815	226,491	117,313
221,494	3,851	226,355	117,260
222,509	3,840	226,296	117,210
223,523	3,818	226,161	117,113
224,538	3,762	225,830	116,889
225,553	3,883	225,776	116,942
226,567	4,036	225,755	117,037
227,582	4,036	225,723	117,010
228,596	4,263	225,634	117,126
229,611	4,017	225,414	116,815
230,626	3,688	225,200	116,444
231,640	3,772	224,959	116,372
232,655	4,175	224,876	116,624
233,669	4,537	224,762	116,828
234,684	4,446	224,818	116,778
235,699	4,465	224,509	116,622
236,713	4,032	224,291	116,172
237,728	4,010	224,039	116,014
238,742	3,858	223,976	115,856
239,757	4,021	223,715	115,834
240,772	3,791	223,565	115,573
241,786	3,713	223,406	115,422
242,801	4,026	223,426	115,657
243,815	4,533	223,210	115,915
244,830	4,453	223,237	115,859
245,844	4,250	222,812	115,476
246,859	4,144	222,804	115,382
247,874	4,028	222,810	115,288
248,888	4,482	222,531	115,473
249,903	3,959	222,390	114,998
250,917	4,070	222,309	115,029
251,932	4,074	222,046	114,886
252,947	3,917	221,902	114,685
253,961	3,899	221,805	114,610
254,976	3,854	221,664	114,494
255,990	4,180	221,518	114,651
257,005	4,150	221,446	114,581
258,020	4,195	221,228	114,491
259,034	4,392	221,211	114,618
260,049	4,226	220,911	114,330
261,063	4,160	220,802	114,215
262,078	4,519	220,661	114,397
263,093	4,449	220,582	114,294
264,107	4,350	220,549	114,194
265,122	4,322	220,261	114,014
266,136	4,444	220,181	114,053
267,151	4,610	220,059	114,101
268,166	4,072	219,721	113,520
269,180	3,715	219,686	113,228
270,195	3,749	219,483	113,138
271,209	3,816	219,430	113,150
272,224	4,007	219,276	113,202
273,239	4,114	219,113	113,186
274,253	3,934	218,958	112,964
275,268	3,599	218,902	112,678
276,282	3,719	218,544	112,572
277,297	3,506	218,388	112,325
278,312	3,797	218,387	112,528
279,326	3,900	218,171	112,483
280,341	3,999	218,067	112,491
281,355	4,268	217,923	112,603
282,370	3,922	217,784	112,269
283,384	3,884	217,576	112,124
284,399	3,655	217,467	111,891
285,414	3,619	217,287	111,762
286,428	4,155	217,257	112,127
287,443	4,076	217,108	111,983
288,457	4,070	217,072	111,950
289,472	3,995	216,848	111,769
290,487	3,571	216,646	111,347
291,501	3,611	216,443	111,262
292,516	3,551	216,373	111,173
293,530	3,783	216,224	111,255
294,545	3,680	216,127	111,120
295,560	3,967	215,911	111,206
296,574	4,051	215,742	111,170
297,589	3,906	215,700	111,034
298,603	3,937	215,676	111,034
299,618	3,970	215,471	110,943
300,633	3,815	215,340	110,753
301,647	4,176	215,140	110,901
302,662	4,178	215,210	110,928
303,676	4,207	214,941	110,801
304,691	4,075	214,895	110,672
305,706	4,002	214,839	110,581
306,720	4,282	214,609	110,654
307,735	4,010	214,327	110,303
308,749	3,818	214,094	110,036
309,764	4,201	214,076	110,291
310,779	4,323	214,016	110,338
311,793	4,215	213,877	110,179
312,808	3,902	213,625	109,816
313,822	4,095	213,512	109,886
314,837	3,889	213,358	109,650
315,852	3,803	213,248	109,523
316,866	3,787	213,007	109,378
317,881	4,030	213,048	109,562
318,895	4,193	212,839	109,561
319,910	3,974	212,652	109,298
320,925	3,872	212,392	109,083
321,939	3,532	212,277	108,774
322,954	3,712	212,173	108,838
323,968	3,916	212,233	109,003
324,983	4,042	212,037	108,982
325,997	4,264	212,002	109,112
327,012	4,256	211,718	108,950
328,027	4,086	211,677	108,799
329,041	4,314	211,617	108,920
330,056	4,434	211,512	108,941
331,070	3,896	211,255	108,419
332,085	3,590	211,074	108,101
333,100	3,728	210,950	108,125
334,114	4,170	210,699	108,297
335,129	4,013	210,596	108,124
336,143	3,817	210,467	107,911
337,158	4,018	210,336	107,975
338,173	3,889	210,180	107,795
339,187	3,726	210,118	107,640
340,202	3,568	209,888	107,402
341,216	3,612	209,785	107,370
342,231	3,990	209,743	107,603
343,246	3,837	209,578	107,402
344,260	3,643	209,456	107,195
345,275	3,626	209,504	107,197
346,289	3,869	209,126	107,164
347,304	4,037	209,061	107,238
348,319	4,081	208,891	107,172
349,333	3,773	208,695	106,848
350,348	4,135	208,623	107,053
351,362	4,388	208,548	107,181
352,377	4,099	208,519	106,956
353,392	4,023	208,255	106,758
354,406	4,012	208,238	106,732
355,421	194,675	1345,955	1437,188
356,435	155,352	1484,678	1437,311
