DTS Sentinel unit serial number:	SN410029Multiplexer serial number:	ORYXHardware model number:	OX2-SRSoftware version number:	ORYX F/W v4,00 Oryx Data Collector v3.7.2.0data status	okinstallation	B6 Nyhavnadifferential loss correction	single-endedforward channel	channel 2reverse channel	N/Adate	2023/12/10time	15:10:08forward acquisition time	300,00reverse acquisition time	0,00gamma	499,1914k internal	0,3122k external	0,3122temperature offset calibration	1,0000default loss term (dB/km)	0,3820temperature slope calibration	1,0000multiplexer offset coefficient	1,0000multiplexer slope coefficient	1,0000fibre end	0,00T internal ref (°C)	22,50T ext. ref 1 (°C)	5,94T ext. ref 2 (°C)	5,95length (m)	temperature (°C)	Stokes	anti-Stokes-744,400	800,000	-0,010	-0,029
-743,385	18,894	-0,122	0,072
-742,371	79,827	0,059	-0,047
-741,356	-26,188	-0,236	0,103
-740,342	241,112	0,037	0,046
-739,327	-74,683	-0,212	0,056
-738,312	-34,688	-0,068	-0,028
-737,298	-22,339	-0,307	0,138
-736,283	130,406	0,015	0,014
-735,269	72,445	-0,067	0,052
-734,254	-200,000	0,024	-0,122
-733,239	-147,328	-0,343	0,021
-732,225	-23,344	0,214	-0,095
-731,210	-90,648	0,033	0,007
-730,196	110,958	-0,048	-0,043
-729,181	362,548	-0,058	-0,087
-728,167	-200,000	0,005	-0,180
-727,152	283,294	-0,026	-0,035
-726,137	395,120	0,034	-0,052
-725,123	800,000	0,025	0,058
-724,108	-23,864	0,055	0,024
-723,094	17,500	-0,104	-0,062
-722,079	-200,000	0,003	-0,017
-721,064	527,867	0,065	0,114
-720,050	5,841	-0,046	-0,025
-719,035	-108,822	-0,110	-0,017
-718,021	-146,909	-0,015	-0,001
-717,006	26,622	-0,085	0,053
-715,991	-200,000	0,009	0,069
-714,977	-158,980	-0,080	0,003
-713,962	-200,000	-0,009	-0,047
-712,948	-39,249	-0,149	-0,058
-711,933	532,508	-0,053	-0,094
-710,918	175,800	-0,064	-0,070
-709,904	800,000	-0,056	-0,126
-708,889	10,467	-0,184	-0,104
-707,875	-200,000	0,024	-0,108
-706,860	463,909	0,080	-0,134
-705,845	800,000	-0,031	0,084
-704,831	-45,088	-0,153	-0,057
-703,816	800,000	-0,035	-0,112
-702,802	800,000	-0,015	0,031
-701,787	800,000	0,067	-0,142
-700,772	416,686	0,045	0,071
-699,758	795,736	0,067	-0,139
-698,743	192,964	-0,041	0,046
-697,729	-200,000	-0,013	0,061
-696,714	-17,295	-0,105	0,049
-695,699	212,437	-0,081	0,095
-694,685	-200,000	-0,018	-0,075
-693,670	279,455	-0,074	-0,099
-692,656	151,767	0,087	-0,088
-691,641	-156,269	-0,077	-0,004
-690,627	125,781	0,075	0,070
-689,612	-106,918	-0,079	-0,013
-688,597	86,216	-0,132	-0,108
-687,583	-35,839	0,128	-0,051
-686,568	-139,472	-0,164	-0,013
-685,554	166,896	0,092	-0,097
-684,539	-35,454	-0,169	-0,068
-683,524	69,094	0,082	0,063
-682,510	-200,000	0,005	-0,026
-681,495	501,970	0,045	-0,078
-680,481	-107,156	-0,100	0,016
-679,466	-42,659	-0,181	-0,068
-678,451	800,000	-0,037	-0,098
-677,437	81,608	-0,121	-0,097
-676,422	84,952	0,083	-0,068
-675,408	-200,000	-0,001	0,049
-674,393	-132,659	-0,087	0,008
-673,378	243,901	0,088	-0,110
-672,364	-135,341	-0,114	-0,010
-671,349	-49,416	0,044	0,016
-670,335	-99,043	-0,080	-0,015
-669,320	56,758	0,092	0,066
-668,305	121,120	-0,096	-0,089
-667,291	-18,880	0,049	0,023
-666,276	-52,951	-0,104	0,035
-665,262	384,735	-0,084	-0,128
-664,247	-82,690	0,070	0,017
-663,232	12,207	0,039	-0,022
-662,218	-200,000	0,012	0,042
-661,203	-102,790	0,059	0,010
-660,189	800,000	-0,015	0,039
-659,174	-200,000	0,010	-0,068
-658,159	201,099	0,046	0,052
-657,145	-93,669	-0,181	-0,037
-656,130	-56,681	0,059	-0,019
-655,116	298,046	0,102	-0,140
-654,101	144,161	0,113	0,112
-653,086	800,000	-0,041	0,131
-652,072	-144,026	-0,110	-0,008
-651,057	-200,000	-0,007	-0,083
-650,043	-45,034	0,088	-0,033
-649,028	20,082	0,103	0,061
-648,014	-134,808	0,065	-0,006
-646,999	128,667	-0,018	0,017
-645,984	-145,251	-0,058	-0,004
-644,970	-200,000	-0,007	0,034
-643,955	599,064	-0,099	-0,183
-642,941	295,349	-0,110	-0,150
-641,926	800,000	0,056	0,116
-640,911	68,799	-0,026	-0,020
-639,897	800,000	0,021	0,067
-638,882	-200,000	-0,040	-0,184
-637,868	800,000	-0,070	-0,204
-636,853	758,502	-0,071	-0,144
-635,838	-200,000	-0,003	-0,017
-634,824	152,228	-0,040	-0,041
-633,809	422,107	-0,025	-0,041
-632,795	-136,773	-0,062	-0,005
-631,780	28,428	0,087	0,054
-630,765	766,916	-0,072	-0,145
-629,751	54,414	0,135	-0,096
-628,736	-200,000	0,032	-0,287
-627,722	-200,000	-0,005	-0,036
-626,707	-200,000	0,014	0,129
-625,692	467,828	0,026	0,043
-624,678	-185,403	0,103	-0,001
-623,663	800,000	0,045	-0,121
-622,649	74,180	-0,093	-0,072
-621,634	458,054	-0,065	0,108
-620,619	-43,964	-0,083	0,031
-619,605	-60,103	-0,088	-0,028
-618,590	5,593	0,041	-0,023
-617,576	-200,000	-0,021	0,079
-616,561	800,000	0,033	-0,078
-615,546	180,024	-0,074	-0,080
-614,532	-200,000	0,003	-0,166
-613,517	423,968	-0,021	-0,034
-612,503	96,036	0,052	-0,044
-611,488	-130,812	-0,007	-0,001
-610,474	595,766	0,018	-0,034
-609,459	12,291	0,076	-0,043
-608,444	78,592	0,133	-0,105
-607,430	-39,008	-0,062	-0,024
-606,415	81,357	-0,098	-0,078
-605,401	268,394	-0,056	0,073
-604,386	542,858	-0,069	0,123
-603,371	-26,979	0,058	-0,025
-602,357	-200,000	0,020	0,088
-601,342	796,267	0,065	-0,133
-600,328	-200,000	0,017	-0,063
-599,313	-30,527	0,054	-0,023
-598,298	362,019	-0,085	-0,127
-597,284	-121,419	-0,048	0,006
-596,269	128,703	0,061	-0,058
-595,255	244,435	-0,063	-0,079
-594,240	-200,000	-0,028	-0,151
-593,225	800,000	-0,014	0,030
-592,211	585,499	-0,022	-0,041
-591,196	106,219	0,033	0,029
-590,182	-66,738	-0,114	-0,033
-589,167	-200,000	0,016	-0,089
-588,152	-200,000	0,012	0,182
-587,138	65,711	-0,064	-0,048
-586,123	-200,000	-0,045	-0,163
-585,109	-200,000	-0,005	0,030
-584,094	183,531	0,057	0,062
-583,079	-118,529	0,078	0,010
-582,065	-45,938	-0,019	-0,007
-581,050	111,532	-0,084	0,075
-580,036	-200,000	-0,037	0,188
-579,021	-26,908	-0,028	0,012
-578,006	81,829	-0,016	0,013
-576,992	-200,000	-0,008	-0,199
-575,977	-200,000	-0,031	-0,110
-574,963	424,141	-0,034	-0,054
-573,948	532,511	-0,061	0,107
-572,934	406,573	-0,039	-0,061
-571,919	376,486	0,146	-0,222
-570,904	-3,980	0,106	0,054
-569,890	-130,457	-0,044	0,004
-568,875	-200,000	-0,011	0,053
-567,861	-94,825	0,094	0,019
-566,846	800,000	0,007	0,022
-565,831	101,864	-0,108	-0,093
-564,817	-200,000	-0,001	0,158
-563,802	-118,667	0,086	-0,011
-562,788	199,098	-0,119	-0,135
-561,773	217,481	0,038	-0,045
-560,758	503,288	0,064	-0,110
-559,744	201,197	0,014	0,016
-558,729	-40,552	0,034	-0,013
-557,715	5,526	-0,119	-0,065
-556,700	-33,714	-0,061	-0,025
-555,685	-200,000	0,019	-0,082
-554,671	-200,000	0,003	-0,113
-553,656	-97,960	0,098	0,019
-552,642	39,792	0,084	-0,056
-551,627	-45,175	0,046	0,017
-550,612	800,000	0,045	0,127
-549,598	545,980	0,065	0,115
-548,583	-200,000	0,004	0,059
-547,569	-106,025	-0,097	0,016
-546,554	-69,098	0,115	-0,032
-545,539	-154,859	0,015	-0,001
-544,525	-200,000	0,009	0,177
-543,510	-200,000	-0,023	-0,234
-542,496	153,715	0,060	-0,061
-541,481	27,169	0,044	0,027
-540,466	-54,927	-0,100	-0,033
-539,452	-116,948	0,164	-0,022
-538,437	109,867	-0,033	0,030
-537,423	-200,000	-0,004	0,203
-536,408	714,125	0,014	0,027
-535,393	-1,223	-0,092	0,048
-534,379	252,177	-0,070	-0,089
-533,364	-85,700	0,018	-0,004
-532,350	800,000	0,019	-0,056
-531,335	-37,135	0,084	-0,033
-530,321	38,543	-0,036	-0,024
-529,306	-200,000	-0,002	0,086
-528,291	-200,000	-0,004	-0,053
-527,277	-9,305	-0,050	-0,025
-526,262	110,327	0,036	0,032
-525,248	173,510	0,059	0,063
-524,233	-25,172	0,062	-0,027
-523,218	274,571	0,103	-0,135
-522,204	-82,523	0,117	-0,028
-521,189	-200,000	-0,001	0,039
-520,175	232,405	-0,055	-0,067
-519,160	234,318	-0,052	-0,063
-518,145	46,840	0,093	-0,064
-517,131	-44,975	0,104	0,038
-516,116	48,139	0,092	0,064
-515,102	37,393	-0,131	0,086
-514,087	-0,307	-0,125	-0,066
-513,072	-200,000	-0,002	-0,087
-512,058	156,781	0,100	-0,102
-511,043	649,126	0,060	0,115
-510,029	37,826	-0,057	0,037
-509,014	503,306	-0,038	-0,065
-507,999	-74,726	0,035	-0,009
-506,985	-85,500	-0,036	-0,008
-505,970	122,441	-0,115	-0,106
-504,956	677,346	-0,043	-0,083
-503,941	-105,049	-0,121	-0,020
-502,926	348,824	-0,090	-0,132
-501,912	-200,000	-0,026	0,094
-500,897	800,000	0,009	0,023
-499,883	121,102	0,052	-0,048
-498,868	-120,104	-0,096	0,012
-497,853	-136,072	0,058	0,005
-496,839	-111,698	-0,082	-0,012
-495,824	21,598	0,131	-0,079
-494,810	-14,993	0,042	-0,020
-493,795	7,468	0,069	0,038
-492,781	-200,000	-0,035	-0,128
-491,766	107,777	-0,006	0,005
-490,751	-109,396	0,030	-0,005
-489,737	17,204	-0,070	-0,041
-488,722	-11,571	0,120	0,058
-487,708	-105,967	0,084	0,014
-486,693	56,804	0,077	0,056
-485,678	278,250	0,021	0,028
-484,664	-127,878	0,054	0,006
-483,649	800,000	-0,037	0,090
-482,635	800,000	-0,034	-0,072
-481,620	524,351	0,036	-0,062
-480,605	800,000	0,036	0,077
-479,591	-33,363	-0,131	0,053
-478,576	647,744	0,058	0,110
-477,562	800,000	-0,040	-0,121
-476,547	-200,000	0,004	-0,032
-475,532	330,064	-0,059	-0,084
-474,518	-4,765	0,096	-0,049
-473,503	237,481	-0,116	0,143
-472,489	-200,000	-0,018	0,084
-471,474	-200,000	0,004	0,055
-470,459	800,000	0,022	-0,063
-469,445	-59,659	-0,077	-0,024
-468,430	284,573	0,041	0,054
-467,416	51,183	0,065	-0,046
-466,401	-188,016	0,042	-0,000
-465,386	-16,510	-0,145	0,067
-464,372	-41,467	-0,031	0,012
-463,357	137,180	-0,128	0,124
-462,343	-127,338	-0,036	-0,004
-461,328	153,768	-0,106	0,107
-460,313	374,274	-0,068	0,103
-459,299	-200,000	-0,033	0,132
-458,284	35,572	0,162	0,105
-457,270	800,000	-0,052	0,115
-456,255	800,000	-0,025	-0,082
-455,241	323,582	0,083	0,116
-454,226	800,000	-0,036	-0,087
-453,211	-56,130	0,048	-0,016
-452,197	153,646	0,080	0,081
-451,182	800,000	0,077	0,233
-450,168	25,776	-0,168	-0,103
-449,153	130,673	0,038	-0,036
-448,138	197,361	-0,086	-0,097
-447,124	75,949	0,076	-0,059
-446,109	254,265	-0,066	0,083
-445,095	-200,000	0,007	0,141
-444,080	800,000	0,038	-0,123
-443,065	-107,427	0,064	-0,010
-442,051	-200,000	0,005	0,023
-441,036	-91,067	-0,043	-0,009
-440,022	-20,448	0,036	-0,016
-439,007	800,000	0,025	-0,072
-437,992	16,096	-0,058	0,034
-436,978	43,075	-0,087	-0,058
-435,963	-85,473	-0,060	0,014
-434,949	102,890	0,065	-0,056
-433,934	520,460	-0,028	-0,049
-432,919	-200,000	0,010	-0,168
-431,905	321,838	0,065	-0,091
-430,890	-31,881	0,080	-0,033
-429,876	328,585	-0,050	-0,071
-428,861	131,676	0,075	0,071
-427,846	37,836	0,070	-0,046
-426,832	-52,089	-0,057	0,020
-425,817	-200,000	0,015	-0,090
-424,803	-200,000	-0,000	0,002
-423,788	-6,599	0,058	-0,029
-422,773	800,000	-0,012	-0,036
-421,759	622,696	-0,039	-0,072
-420,744	-200,000	-0,014	-0,046
-419,730	-138,930	-0,138	0,011
-418,715	-129,231	-0,258	-0,026
-417,701	-200,000	-0,007	-0,024
-416,686	153,266	0,073	0,074
-415,671	-78,028	0,063	-0,016
-414,657	-200,000	0,106	0,000
-413,642	379,713	0,043	0,065
-412,628	533,368	-0,003	-0,005
-411,613	217,519	-0,043	-0,050
-410,598	95,140	0,056	0,047
-409,584	89,421	-0,069	0,057
-408,569	-174,318	-0,116	-0,002
-407,555	-63,813	0,119	-0,036
-406,540	-64,157	0,072	0,021
-405,525	-200,000	0,006	-0,052
-404,511	71,553	-0,010	-0,007
-403,496	82,658	-0,129	-0,103
-402,482	800,000	-0,023	0,068
-401,467	800,000	0,032	0,089
-400,452	-200,000	0,006	-0,039
-399,438	-55,935	0,110	-0,036
-398,423	-200,000	-0,001	0,063
-397,409	-127,029	-0,064	-0,007
-396,394	-200,000	-0,011	-0,072
-395,379	-82,573	0,107	0,025
-394,365	104,328	0,071	-0,062
-393,350	-200,000	0,001	0,014
-392,336	-200,000	-0,000	-0,013
-391,321	-66,435	-0,073	-0,021
-390,306	-54,219	0,043	-0,014
-389,292	-15,757	0,004	0,002
-388,277	800,000	0,049	0,106
-387,263	-200,000	0,029	0,094
-386,248	24,995	0,131	-0,080
-385,233	24,408	0,102	-0,062
-384,219	-200,000	-0,030	0,113
-383,204	28,614	0,044	-0,027
-382,190	459,812	-0,034	-0,056
-381,175	722,440	-0,029	-0,058
-380,160	141,997	0,046	0,045
-379,146	87,105	0,138	0,112
-378,131	-200,000	0,024	0,088
-377,117	-57,948	0,149	0,048
-376,102	253,409	-0,059	0,074
-375,088	800,000	-0,029	0,077
-374,073	294,818	-0,054	-0,072
-373,058	-82,779	-0,023	-0,005
-372,044	316,840	0,010	-0,014
-371,029	-200,000	0,014	-0,065
-370,015	-5,460	-0,160	0,080
-369,000	-200,000	-0,002	0,075
-367,985	800,000	0,024	-0,058
-366,971	-45,436	-0,025	0,009
-365,956	-200,000	0,014	0,112
-364,942	-38,548	-0,186	0,072
-363,927	-200,000	-0,001	0,059
-362,912	800,000	0,050	0,115
-361,898	14,270	-0,074	0,042
-360,883	-200,000	-0,004	-0,046
-359,869	-200,000	-0,001	0,078
-358,854	137,629	0,068	-0,065
-357,839	67,293	0,113	0,084
-356,825	434,509	0,093	0,148
-355,810	364,612	-0,020	0,030
-354,796	-200,000	-0,018	-0,062
-353,781	-70,931	-0,165	0,045
-352,766	-20,104	-0,042	-0,019
-351,752	-138,706	-0,068	0,005
-350,737	800,000	0,064	0,146
-349,723	800,000	0,021	0,044
-348,708	-10,449	-0,089	-0,043
-347,693	387,484	0,069	-0,104
-346,679	-200,000	0,051	-0,213
-345,664	-200,000	-0,014	-0,139
-344,650	-200,000	-0,059	0,202
-343,635	-148,148	0,126	0,008
-342,620	-200,000	-0,013	0,084
-341,606	-200,000	-0,040	0,136
-340,591	-200,000	-0,015	0,092
-339,577	123,605	-0,067	-0,062
-338,562	-200,000	0,015	0,051
-337,548	-67,382	0,095	-0,027
-336,533	-200,000	0,005	0,020
-335,518	124,797	0,079	0,073
-334,504	800,000	-0,022	0,051
-333,489	324,397	-0,023	-0,032
-332,475	-76,140	-0,050	0,013
-331,460	800,000	-0,022	-0,045
-330,445	243,850	-0,096	-0,118
-329,431	466,935	-0,058	-0,096
-328,416	15,455	-0,113	0,065
-327,402	259,743	0,057	0,072
-326,387	-106,385	0,026	0,004
-325,372	800,000	0,008	-0,021
-324,358	23,727	-0,021	-0,013
-323,343	57,068	-0,052	0,037
-322,329	-200,000	0,018	0,064
-321,314	-102,811	-0,114	0,020
-320,299	-200,000	0,015	0,111
-319,285	-200,000	-0,010	0,077
-318,270	-200,000	0,014	0,107
-317,256	380,031	0,047	-0,071
-316,241	-200,000	0,020	-0,148
-315,226	-28,615	0,133	0,056
-314,212	276,828	-0,108	0,141
-313,197	250,019	0,077	0,096
-312,183	-35,602	-0,077	0,030
-311,168	-108,053	-0,057	0,009
-310,153	-200,000	-0,007	-0,050
-309,139	-200,000	0,006	0,108
-308,124	-98,305	-0,027	0,005
-307,110	-200,000	-0,029	0,103
-306,095	-162,880	0,131	0,005
-305,080	-65,129	0,120	0,035
-304,066	96,952	0,024	0,020
-303,051	386,036	-0,048	-0,072
-302,037	-200,000	-0,004	0,052
-301,022	-200,000	-0,010	0,096
-300,008	-200,000	0,004	0,074
-298,993	10,374	0,068	-0,038
-297,978	-29,218	0,094	-0,039
-296,964	198,924	0,036	0,041
-295,949	-200,000	0,005	-0,142
-294,935	-200,000	0,003	-0,059
-293,920	-67,879	0,072	-0,020
-292,905	-200,000	0,034	0,154
-291,891	-200,000	-0,023	-0,122
-290,876	-200,000	-0,001	0,023
-289,862	-200,000	-0,007	0,186
-288,847	70,122	-0,094	-0,071
-287,832	270,721	0,049	-0,063
-286,818	-71,646	0,104	0,028
-285,803	337,521	-0,077	0,111
-284,789	366,751	-0,035	0,052
-283,774	149,787	-0,017	0,017
-282,759	371,922	-0,066	0,098
-281,745	-200,000	0,007	0,026
-280,730	800,000	-0,045	-0,130
-279,716	-10,784	0,111	-0,053
-278,701	-200,000	-0,016	0,091
-277,686	800,000	0,051	0,151
-276,672	800,000	0,026	0,065
-275,657	-200,000	0,002	0,102
-274,643	780,232	-0,025	-0,050
-273,628	682,558	0,049	0,094
-272,613	-200,000	-0,002	-0,039
-271,599	-63,674	0,100	0,030
-270,584	-86,888	0,059	-0,013
-269,570	-51,902	0,165	0,056
-268,555	356,957	0,053	0,078
-267,540	-131,173	0,121	-0,012
-266,526	-52,800	-0,045	0,015
-265,511	800,000	-0,088	0,185
-264,497	-55,372	0,100	0,033
-263,482	587,939	0,069	0,125
-262,467	-124,987	0,061	0,007
-261,453	-200,000	0,004	0,139
-260,438	-94,267	0,033	0,006
-259,424	800,000	-0,041	-0,113
-258,409	-200,000	0,027	-0,109
-257,395	328,116	0,062	0,087
-256,380	90,921	-0,051	-0,041
-255,365	45,147	0,107	0,072
-254,351	77,821	-0,071	-0,055
-253,336	-86,752	-0,075	0,017
-252,322	800,000	0,037	-0,112
-251,307	40,956	-0,165	-0,109
-250,292	-31,348	-0,045	0,018
-249,278	439,752	-0,072	0,115
-248,263	34,832	0,161	0,103
-247,249	-96,515	-0,189	0,036
-246,234	-181,213	0,074	0,001
-245,219	184,316	0,078	-0,085
-244,205	199,789	-0,058	-0,065
-243,190	5,170	-0,179	-0,096
-242,176	-200,000	0,019	0,096
-241,161	-72,257	0,058	-0,016
-240,146	127,717	0,038	-0,035
-239,132	-200,000	0,001	0,039
-238,117	800,000	-0,042	-0,090
-237,103	-53,021	-0,156	0,052
-236,088	762,147	-0,032	-0,064
-235,073	-112,990	0,191	0,027
-234,059	404,649	0,044	0,068
-233,044	800,000	0,063	0,193
-232,030	483,029	-0,027	0,044
-231,015	-200,000	-0,004	-0,194
-230,000	-51,298	-0,110	0,037
-228,986	-23,372	0,110	0,048
-227,971	800,000	0,015	-0,038
-226,957	-200,000	0,113	0,000
-225,942	-80,858	0,075	0,018
-224,927	254,652	-0,106	-0,132
-223,913	-4,313	-0,069	-0,035
-222,898	-46,249	0,113	-0,040
-221,884	10,173	-0,092	0,051
-220,869	-131,068	-0,068	0,007
-219,855	-176,876	-0,073	-0,001
-218,840	-2,633	-0,101	-0,051
-217,825	800,000	-0,042	0,088
-216,811	533,348	-0,060	0,104
-215,796	-119,840	-0,201	0,025
-214,782	-74,455	-0,215	0,056
-213,767	-200,000	-0,017	0,107
-212,752	496,871	0,073	0,123
-211,738	-200,000	-0,033	0,124
-210,723	-200,000	-0,005	0,118
-209,709	-77,833	0,073	-0,018
-208,694	-1,788	-0,127	-0,065
-207,679	-149,203	0,086	0,005
-206,665	-200,000	-0,021	-0,101
-205,650	800,000	0,041	-0,131
-204,636	357,341	-0,026	-0,038
-203,621	7,949	0,095	0,052
-202,606	800,000	-0,043	-0,107
-201,592	28,486	-0,077	0,047
-200,577	-200,000	-0,000	-0,167
-199,563	-45,918	-0,151	-0,054
-198,548	-81,341	0,084	0,020
-197,533	800,000	-0,031	0,089
-196,519	307,883	0,010	0,014
-195,504	-123,835	0,080	-0,009
-194,490	-111,019	0,064	0,009
-193,475	367,503	-0,108	-0,159
-192,460	10,338	-0,081	-0,045
-191,446	-134,412	0,172	-0,015
-190,431	-25,656	-0,081	0,035
-189,417	-108,606	-0,152	0,024
-188,402	304,330	-0,032	-0,043
-187,387	-11,582	0,072	-0,034
-186,373	800,000	0,040	0,093
-185,358	800,000	0,046	-0,110
-184,344	17,319	0,027	0,015
-183,329	27,786	0,095	-0,058
-182,315	-200,000	0,014	0,055
-181,300	-61,798	0,061	-0,018
-180,285	8,637	-0,074	-0,041
-179,271	50,886	-0,085	-0,059
-178,256	-161,630	0,111	-0,004
-177,242	-78,049	0,118	-0,029
-176,227	240,067	0,065	0,079
-175,212	-200,000	0,007	-0,060
-174,198	40,731	-0,073	-0,048
-173,183	700,438	-0,037	0,071
-172,169	171,457	0,129	0,135
-171,154	565,879	-0,023	-0,041
-170,139	-200,000	0,012	-0,042
-169,125	408,359	-0,005	0,008
-168,110	-45,918	0,058	0,021
-167,096	-200,000	0,012	-0,145
-166,081	-181,079	-0,117	0,002
-165,066	-200,000	-0,023	-0,074
-164,052	12,224	-0,121	0,068
-163,037	-59,166	0,079	-0,025
-162,023	-158,523	0,134	0,006
-161,008	800,000	-0,018	0,037
-159,993	800,000	-0,012	0,029
-158,979	101,769	-0,103	-0,088
-157,964	102,395	-0,042	0,035
-156,950	120,543	-0,109	-0,099
-155,935	433,593	0,037	0,059
-154,920	323,168	0,091	0,127
-153,906	-200,000	-0,048	0,190
-152,891	412,734	0,082	0,128
-151,877	83,302	0,034	-0,027
-150,862	23,180	-0,039	-0,023
-149,847	-21,968	-0,094	-0,042
-148,833	800,000	-0,033	0,105
-147,818	144,025	0,105	0,102
-146,804	-200,000	0,003	0,054
-145,789	-174,148	-0,092	-0,002
-144,775	800,000	0,063	0,142
-143,760	-165,033	-0,070	-0,002
-142,745	-200,000	0,012	-0,050
-141,731	83,566	0,092	0,073
-140,716	800,000	0,020	0,047
-139,702	800,000	0,011	0,034
-138,687	800,000	0,010	-0,020
-137,672	72,905	0,110	0,084
-136,658	32,853	-0,041	0,026
-135,643	14,518	-0,022	-0,013
-134,629	700,608	0,026	0,050
-133,614	-85,134	0,056	0,013
-132,599	800,000	-0,005	-0,011
-131,585	68,910	-0,122	-0,091
-130,570	-142,923	0,115	0,008
-129,556	-71,782	-0,106	-0,028
-128,541	-200,000	-0,002	0,022
-127,526	-80,606	-0,124	0,030
-126,512	-30,105	0,130	-0,054
-125,497	-69,976	-0,145	0,040
-124,483	-200,000	0,021	0,167
-123,468	44,945	-0,126	-0,084
-122,453	-200,000	0,012	0,131
-121,439	-200,000	-0,007	0,070
-120,424	101,060	0,115	-0,098
-119,410	318,643	-0,100	0,138
-118,395	800,000	0,065	0,138
-117,380	-153,441	0,084	0,004
-116,366	-149,357	-0,106	0,006
-115,351	115,781	0,035	0,032
-114,337	-200,000	0,024	-0,100
-113,322	-48,101	0,050	-0,017
-112,307	-66,594	-0,148	0,042
-111,293	-143,433	0,203	0,014
-110,278	187,720	0,045	0,049
-109,264	-200,000	-0,004	-0,018
-108,249	202,492	-0,047	0,053
-107,234	-44,200	0,108	-0,039
-106,220	800,000	-0,059	-0,120
-105,205	532,130	-0,049	0,084
-104,191	-127,770	0,066	0,007
-103,176	-200,000	-0,000	0,015
-102,162	383,265	-0,026	0,039
-101,147	800,000	0,030	0,067
-100,132	-200,000	0,011	-0,043
-99,118	-200,000	0,003	0,091
-98,103	800,000	-0,033	-0,069
-97,089	185,143	0,063	0,068
-96,074	85,943	0,078	0,063
-95,059	-200,000	-0,005	0,053
-94,045	-200,000	-0,002	-0,123
-93,030	-79,880	-0,025	0,006
-92,016	-40,020	-0,134	0,050
-91,001	100,380	0,023	0,019
-89,986	-1,530	0,026	0,013
-88,972	800,000	0,020	0,046
-87,957	124,676	-0,035	0,032
-86,943	800,000	0,012	-0,037
-85,928	-200,000	-0,011	-0,038
-84,913	-40,887	-0,083	0,031
-83,899	260,751	-0,061	-0,077
-82,884	-200,000	0,005	0,075
-81,870	-200,000	0,006	-0,031
-80,855	-2,983	0,055	-0,028
-79,840	-49,876	0,073	-0,025
-78,826	-53,361	-0,116	-0,039
-77,811	-181,465	-0,053	0,001
-76,797	362,715	-0,067	-0,098
-75,782	800,000	0,028	0,060
-74,767	-200,000	-0,027	0,114
-73,753	262,279	0,063	-0,079
-72,738	800,000	0,020	-0,053
-71,724	-79,497	-0,053	-0,013
-70,709	27,519	-0,061	-0,037
-69,694	-200,000	0,001	-0,006
-68,680	-200,000	0,010	0,035
-67,665	800,000	0,059	0,124
-66,651	86,077	-0,034	0,027
-65,636	-200,000	0,042	0,234
-64,622	-200,000	0,006	0,061
-63,607	76,969	-0,098	0,075
-62,592	652,520	0,050	0,094
-61,578	336,441	-0,075	-0,106
-60,563	-200,000	-0,022	0,112
-59,549	-78,794	0,070	-0,017
-58,534	-159,262	-1,275	-0,051
-57,519	615,551	-0,829	-1,515
-56,505	-200,000	-0,912	-4,536
-55,490	92,564	0,579	-0,474
-54,476	800,000	4,963	11,938
-53,461	-200,000	13,438	253,462
-52,446	-200,000	688,994	2264,992
-51,432	594,703	1622,115	2923,998
-50,417	120,180	1635,479	1472,820
-49,403	73,570	1289,684	979,206
-48,388	38,230	1024,678	660,686
-47,373	24,429	982,285	587,946
-46,359	23,692	971,745	579,197
-45,344	22,667	967,554	573,326
-44,330	22,645	966,201	572,431
-43,315	22,525	964,719	571,140
-42,300	22,503	963,501	570,322
-41,286	22,524	962,893	570,009
-40,271	22,501	961,916	569,335
-39,257	22,424	960,954	568,493
-38,242	22,547	959,780	568,174
-37,227	22,530	958,855	567,546
-36,213	22,478	958,137	566,933
-35,198	22,388	957,412	566,188
-34,184	22,573	956,684	566,335
-33,169	22,494	955,663	565,451
-32,154	22,521	954,869	565,047
-31,140	22,563	953,979	564,634
-30,125	22,547	953,257	564,132
-29,111	22,577	952,305	563,642
-28,096	22,510	951,655	563,022
-27,082	22,490	951,178	562,652
-26,067	22,506	950,224	562,117
-25,052	22,564	949,400	561,794
-24,038	22,559	948,906	561,461
-23,023	22,484	948,238	560,804
-22,009	22,612	947,571	560,798
-20,994	22,597	946,922	560,344
-19,979	22,558	946,528	559,961
-18,965	22,523	945,752	559,370
-17,950	22,635	945,031	559,278
-16,936	22,518	944,329	558,467
-15,921	22,514	943,763	558,098
-14,906	22,436	943,088	557,427
-13,892	22,458	942,427	557,087
-12,877	22,419	941,730	556,527
-11,863	22,402	941,077	556,065
-10,848	22,414	940,577	555,787
-9,833	22,544	940,089	555,888
-8,819	22,503	939,525	555,403
-7,804	22,395	938,848	554,639
-6,790	22,435	938,273	554,405
-5,775	22,452	937,707	554,099
-4,760	22,423	937,080	553,615
-3,746	22,404	936,383	553,121
-2,731	22,261	935,791	552,300
-1,717	22,219	935,107	551,740
-0,702	22,240	934,464	551,407
0,313	22,042	933,678	551,151
1,327	25,054	931,888	559,519
2,342	34,533	796,735	503,644
3,356	32,592	451,855	282,682
4,371	1,386	293,764	152,637
5,386	-3,154	274,462	138,301
6,400	-4,420	268,553	134,138
7,415	-5,033	266,228	132,401
8,429	-4,639	264,923	132,100
9,444	-4,563	264,076	131,736
10,459	-4,515	263,420	131,440
11,473	-4,751	262,924	130,968
12,488	-4,788	262,303	130,613
13,502	-4,674	261,846	130,476
14,517	-4,854	261,543	130,151
15,531	-4,650	261,003	130,055
16,546	-4,487	260,741	130,060
17,561	-4,669	260,435	129,732
18,575	-4,620	260,202	129,648
19,590	-4,841	259,806	129,240
20,604	-4,621	259,426	129,237
21,619	-4,662	259,114	129,034
22,634	-4,682	258,781	128,838
23,648	-4,777	258,485	128,595
24,663	-4,847	258,288	128,423
25,677	-4,631	257,914	128,418
26,692	-4,706	257,764	128,265
27,707	-4,744	257,499	128,088
28,721	-4,600	257,082	127,997
29,736	-4,770	257,043	127,815
30,750	-4,876	256,671	127,526
31,765	-4,812	256,467	127,470
32,780	-4,971	256,502	127,335
33,794	-4,647	256,003	127,361
34,809	-4,771	255,822	127,151
35,823	-4,706	255,561	127,067
36,838	-4,891	255,227	126,727
37,853	-4,657	255,043	126,830
38,867	-5,016	254,896	126,430
39,882	-4,684	254,646	126,586
40,896	-4,704	254,430	126,450
41,911	-4,792	254,190	126,242
42,926	-4,817	253,856	126,043
43,940	-4,832	253,659	125,921
44,955	-5,005	253,596	125,727
45,969	-5,000	253,261	125,554
46,984	-5,306	252,998	125,147
47,999	-5,312	252,577	124,922
49,013	-5,427	252,413	124,729
50,028	-5,485	252,194	124,560
51,042	-5,552	251,966	124,378
52,057	-5,566	251,599	124,174
53,071	-5,735	251,576	124,005
54,086	-5,493	251,547	124,190
55,101	-5,360	251,240	124,142
56,115	-5,291	251,253	124,197
57,130	-4,792	250,963	124,473
58,144	-4,651	250,861	124,533
59,159	-4,694	250,708	124,409
60,174	-4,456	250,419	124,459
61,188	-4,577	250,182	124,226
62,203	-4,816	250,149	123,993
63,217	-4,819	250,063	123,937
64,232	-4,876	249,610	123,652
65,247	-4,524	249,232	123,756
66,261	-4,837	249,187	123,454
67,276	-4,761	249,022	123,427
68,290	-4,975	248,725	123,085
69,305	-5,450	248,496	122,555
70,320	-5,156	248,305	122,701
71,334	-4,809	248,122	122,896
72,349	-4,780	248,058	122,878
73,363	-4,568	247,930	122,984
74,378	-4,516	247,595	122,851
75,393	-4,877	247,365	122,419
76,407	-4,824	247,208	122,375
77,422	-4,627	247,064	122,460
78,436	-4,715	246,811	122,250
79,451	-4,596	246,576	122,222
80,466	-4,933	246,385	121,832
81,480	-4,943	246,152	121,698
82,495	-5,189	246,013	121,411
83,509	-4,980	245,832	121,487
84,524	-4,886	245,486	121,384
85,539	-5,036	245,399	121,204
86,553	-5,118	245,262	121,056
87,568	-5,020	245,101	121,049
88,582	-4,935	244,871	120,996
89,597	-4,932	244,585	120,846
90,611	-5,028	244,515	120,720
91,626	-4,807	244,402	120,839
92,641	-4,870	244,196	120,673
93,655	-4,936	243,992	120,507
94,670	-4,968	243,721	120,336
95,684	-4,840	243,472	120,308
96,699	-4,929	243,434	120,205
97,714	-5,056	243,163	119,954
98,728	-5,111	243,141	119,887
99,743	-5,295	242,681	119,497
100,757	-5,171	242,606	119,552
101,772	-5,246	242,408	119,382
102,787	-5,187	242,280	119,357
103,801	-5,055	242,263	119,447
104,816	-5,051	241,924	119,272
105,830	-4,834	241,845	119,403
106,845	-4,705	241,696	119,426
107,860	-4,821	241,527	119,235
108,874	-4,856	241,330	119,098
109,889	-5,097	241,137	118,794
110,903	-4,972	240,823	118,731
111,918	-5,100	240,690	118,550
112,933	-4,945	240,606	118,626
113,947	-4,951	240,397	118,508
114,962	-4,842	240,292	118,534
115,976	-4,780	240,004	118,433
116,991	-4,869	239,846	118,271
118,006	-4,863	239,639	118,163
119,020	-4,979	239,558	118,018
120,035	-4,941	239,615	118,067
121,049	-4,793	239,257	118,001
122,064	-4,851	239,093	117,862
123,079	-4,688	238,841	117,861
124,093	-5,140	238,728	117,425
125,108	-5,170	238,556	117,306
126,122	-5,245	238,120	117,020
127,137	-5,440	238,115	116,848
128,151	-5,287	237,848	116,831
129,166	-5,146	237,813	116,918
130,181	-5,262	237,527	116,672
131,195	-5,474	237,406	116,431
132,210	-5,159	237,230	116,590
133,224	-5,098	237,026	116,528
134,239	-4,939	236,897	116,583
135,254	-5,035	236,926	116,510
136,268	-4,963	236,493	116,345
137,283	-5,214	236,316	116,044
138,297	-5,401	236,133	115,793
139,312	-5,336	235,818	115,681
140,327	-5,030	235,766	115,891
141,341	-4,546	235,922	116,348
142,356	-4,600	235,732	116,200
143,370	-4,667	235,491	116,017
144,385	-4,494	235,390	116,095
145,400	-4,564	235,059	115,865
146,414	-4,334	234,932	115,977
147,429	-4,718	234,897	115,643
148,443	-4,700	234,695	115,547
149,458	-4,552	234,458	115,538
150,473	-4,454	234,210	115,483
151,487	-4,505	234,074	115,366
152,502	-4,523	233,802	115,207
153,516	-4,250	233,737	115,382
154,531	-4,729	233,688	114,966
155,546	-4,765	233,543	114,856
156,560	-4,741	233,210	114,702
157,575	-4,934	233,048	114,458
158,589	-4,817	232,890	114,463
159,604	-4,555	232,823	114,628
160,619	-4,482	232,635	114,583
161,633	-4,391	232,626	114,640
162,648	-4,325	232,319	114,531
163,662	-4,407	232,245	114,419
164,677	-4,736	231,967	114,012
165,692	-4,629	231,848	114,028
166,706	-4,354	231,687	114,155
167,721	-4,237	231,550	114,170
168,735	-4,356	231,310	113,948
169,750	-4,656	231,266	113,679
170,764	-4,510	231,126	113,715
171,779	-4,594	231,016	113,585
172,794	-4,498	230,789	113,539
173,808	-4,550	230,539	113,365
174,823	-5,109	230,181	112,741
175,837	-5,230	229,960	112,528
176,852	-4,728	230,020	112,941
177,867	-4,771	229,966	112,871
178,881	-4,519	229,950	113,050
179,896	-4,595	229,689	112,851
180,910	-4,587	229,697	112,852
181,925	-4,480	229,445	112,801
182,940	-4,389	229,372	112,827
183,954	-4,541	229,263	112,645
184,969	-4,375	229,127	112,696
185,983	-4,450	228,852	112,493
186,998	-4,333	228,561	112,430
188,013	-4,286	228,418	112,387
189,027	-4,313	228,341	112,318
190,042	-4,347	228,124	112,175
191,056	-4,368	228,055	112,114
192,071	-4,508	227,979	111,959
193,086	-4,731	227,789	111,683
194,100	-4,467	227,491	111,731
195,115	-4,824	227,258	111,332
196,129	-5,515	226,957	110,641
197,144	-2,423	228,019	113,542
198,159	1,867	229,047	117,372
199,173	4,113	229,551	119,361
200,188	4,304	229,360	119,399
201,202	4,337	229,324	119,396
202,217	4,313	229,149	119,275
203,232	4,695	229,113	119,541
204,246	4,643	229,025	119,444
205,261	4,612	228,700	119,240
206,275	4,732	228,757	119,352
207,290	4,980	228,615	119,458
208,304	5,006	228,368	119,339
209,319	4,873	228,216	119,146
210,334	4,753	228,163	119,016
211,348	4,566	227,866	118,707
212,363	4,207	227,639	118,302
213,377	4,029	227,359	118,010
214,392	3,798	227,259	117,770
215,407	4,030	227,079	117,844
216,421	4,057	226,940	117,783
217,436	3,913	226,717	117,546
218,450	3,823	226,582	117,397
219,465	3,749	226,338	117,203
220,480	3,830	226,205	117,186
221,494	3,893	226,053	117,144
222,509	4,040	226,037	117,238
223,523	3,910	225,804	117,008
224,538	3,877	225,607	116,870
225,553	3,802	225,622	116,810
226,567	4,142	225,515	117,003
227,582	4,305	225,406	117,059
228,596	4,170	225,339	116,912
229,611	4,167	225,061	116,754
230,626	3,887	224,760	116,377
231,640	3,747	224,768	116,264
232,655	4,105	224,640	116,458
233,669	4,568	224,746	116,853
234,684	4,544	224,529	116,711
235,699	4,435	224,212	116,455
236,713	4,019	224,011	116,026
237,728	3,924	223,885	115,879
238,742	3,905	223,556	115,684
239,757	3,907	223,417	115,603
240,772	3,831	223,271	115,460
241,786	3,900	223,284	115,509
242,801	4,131	223,181	115,618
243,815	4,283	223,161	115,711
244,830	4,292	222,951	115,599
245,844	4,100	222,645	115,287
246,859	4,331	222,531	115,390
247,874	4,358	222,359	115,311
248,888	4,397	222,339	115,319
249,903	4,031	222,167	114,947
250,917	3,901	222,020	114,763
251,932	3,890	221,905	114,685
252,947	3,726	221,759	114,478
253,961	3,707	221,585	114,363
254,976	3,961	221,305	114,397
255,990	4,322	221,320	114,664
257,005	4,173	221,241	114,502
258,020	4,084	221,018	114,310
259,034	4,297	220,915	114,404
260,049	4,293	220,795	114,329
261,063	4,259	220,527	114,155
262,078	4,213	220,392	114,040
263,093	4,200	220,494	114,074
264,107	4,183	220,181	113,889
265,122	4,202	219,947	113,772
266,136	4,612	219,973	114,077
267,151	4,624	219,753	113,963
268,166	4,377	219,466	113,621
269,180	3,817	219,315	113,121
270,195	3,826	219,149	113,032
271,209	3,834	219,068	112,986
272,224	3,962	219,004	113,037
273,239	4,071	218,791	112,997
274,253	3,917	218,770	112,863
275,268	3,765	218,454	112,578
276,282	3,421	218,366	112,271
277,297	3,569	218,242	112,306
278,312	3,742	218,093	112,346
279,326	3,727	218,019	112,286
280,341	4,034	217,957	112,469
281,355	4,118	217,831	112,455
282,370	3,919	217,667	112,215
283,384	3,818	217,438	112,014
284,399	3,851	217,253	111,933
285,414	3,830	217,129	111,843
286,428	3,789	216,975	111,724
287,443	4,118	216,991	111,962
288,457	4,191	216,694	111,852
289,472	4,027	216,533	111,639
290,487	3,599	216,375	111,238
291,501	3,377	216,217	110,985
292,516	3,647	216,083	111,102
293,530	3,816	216,032	111,188
294,545	3,626	215,952	111,000
295,560	3,732	215,768	110,972
296,574	3,785	215,634	110,932
297,589	3,782	215,481	110,841
298,603	3,862	215,516	110,907
299,618	4,199	215,238	110,996
300,633	3,975	215,018	110,712
301,647	4,307	215,020	110,942
302,662	4,176	214,829	110,740
303,676	4,142	214,790	110,685
304,691	4,284	214,481	110,618
305,706	4,189	214,426	110,511
306,720	4,395	214,365	110,618
307,735	3,950	214,096	110,150
308,749	3,994	213,897	110,069
309,764	4,212	213,860	110,197
310,779	4,149	213,892	110,159
311,793	4,240	213,746	110,139
312,808	4,155	213,393	109,886
313,822	4,034	213,309	109,747
314,837	4,096	213,046	109,646
315,852	3,640	213,016	109,296
316,866	3,860	212,793	109,328
317,881	3,982	212,824	109,421
318,895	4,188	212,637	109,462
319,910	4,061	212,452	109,266
320,925	3,811	212,188	108,944
321,939	3,626	211,880	108,645
322,954	3,688	211,982	108,732
323,968	4,154	211,996	109,059
324,983	4,132	211,823	108,945
325,997	4,010	211,795	108,834
327,012	4,130	211,514	108,765
328,027	4,108	211,427	108,695
329,041	4,186	211,517	108,787
330,056	4,353	211,218	108,741
331,070	3,854	210,984	108,259
332,085	3,916	210,758	108,177
333,100	4,009	210,572	108,137
334,114	4,008	210,612	108,147
335,129	4,135	210,444	108,141
336,143	3,819	210,247	107,808
337,158	3,769	210,211	107,745
338,173	3,865	209,972	107,680
339,187	3,893	209,785	107,594
340,202	3,638	209,565	107,294
341,216	3,281	209,676	107,092
342,231	3,545	209,579	107,217
343,246	3,527	209,384	107,095
344,260	4,040	209,133	107,315
345,275	3,783	209,157	107,138
346,289	4,002	209,017	107,210
347,304	4,171	208,765	107,189
348,319	3,846	208,778	106,960
349,333	3,895	208,529	106,856
350,348	4,319	208,328	107,038
351,362	4,148	208,404	106,949
352,377	3,998	208,210	106,736
353,392	4,079	207,935	106,641
354,406	4,073	207,992	106,657
355,421	193,511	1345,941	1433,471
356,435	154,369	1484,691	1433,594
