DTS Sentinel unit serial number:	SN410029Multiplexer serial number:	ORYXHardware model number:	OX2-SRSoftware version number:	ORYX F/W v4,00 Oryx Data Collector v3.7.2.0data status	okinstallation	B6 Nyhavnadifferential loss correction	single-endedforward channel	channel 2reverse channel	N/Adate	2023/12/09time	05:00:08forward acquisition time	300,00reverse acquisition time	0,00gamma	499,1914k internal	0,3144k external	0,3144temperature offset calibration	1,0000default loss term (dB/km)	0,3820temperature slope calibration	1,0000multiplexer offset coefficient	1,0000multiplexer slope coefficient	1,0000fibre end	0,00T internal ref (°C)	17,53T ext. ref 1 (°C)	2,07T ext. ref 2 (°C)	2,08length (m)	temperature (°C)	Stokes	anti-Stokes-744,400	353,661	-0,003	0,005
-743,385	130,358	-0,185	0,175
-742,371	447,442	0,092	0,150
-741,356	81,713	-0,207	0,166
-740,342	-200,000	0,004	0,097
-739,327	27,862	-0,300	0,187
-738,312	136,334	0,023	-0,022
-737,298	-55,048	-0,189	0,063
-736,283	-200,000	-0,013	0,044
-735,269	-78,108	-0,299	0,075
-734,254	-67,820	0,047	-0,013
-733,239	-36,907	-0,474	-0,187
-732,225	-18,492	0,147	0,068
-731,210	-86,134	-0,037	-0,008
-730,196	54,688	-0,029	0,021
-729,181	-62,072	-0,127	-0,039
-728,167	-120,635	-0,067	0,008
-727,152	-151,899	0,053	0,003
-726,137	54,235	-0,123	-0,087
-725,123	-200,000	-0,005	-0,079
-724,108	-157,734	-0,109	0,005
-723,094	-156,199	-0,101	-0,005
-722,079	62,539	-0,126	-0,093
-721,064	-67,702	0,053	-0,015
-720,050	-200,000	0,019	-0,104
-719,035	415,908	-0,024	-0,038
-718,021	9,890	-0,054	-0,030
-717,006	-87,438	-0,114	-0,025
-715,991	493,226	-0,091	-0,155
-714,977	-200,000	-0,014	-0,054
-713,962	-112,223	-0,222	-0,033
-712,948	94,937	-0,079	0,067
-711,933	320,378	-0,099	0,139
-710,918	-200,000	-0,034	0,124
-709,904	8,807	0,067	-0,037
-708,889	260,714	-0,087	-0,111
-707,875	51,748	-0,157	-0,110
-706,860	163,057	0,060	0,062
-705,845	-140,474	0,070	-0,005
-704,831	673,146	0,036	-0,069
-703,816	126,441	0,042	0,039
-702,802	-10,755	-0,025	-0,012
-701,787	-81,743	-0,102	-0,025
-700,772	-200,000	0,014	0,092
-699,758	145,523	0,023	0,023
-698,743	127,989	-0,059	0,055
-697,729	43,037	0,027	0,018
-696,714	-200,000	0,029	-0,235
-695,699	-200,000	-0,031	-0,177
-694,685	187,193	-0,060	0,066
-693,670	362,879	-0,062	-0,092
-692,656	360,314	-0,083	0,123
-691,641	2,147	-0,029	0,015
-690,627	-62,787	0,109	-0,033
-689,612	-82,985	0,156	0,037
-688,597	-171,379	0,086	0,002
-687,583	308,394	0,086	0,119
-686,568	304,480	-0,023	-0,032
-685,554	-12,444	-0,154	0,074
-684,539	-200,000	0,018	-0,100
-683,524	-94,529	0,035	-0,007
-682,510	800,000	0,030	0,095
-681,495	-40,922	-0,189	-0,072
-680,481	-111,525	-0,097	-0,014
-679,466	-139,834	-0,100	0,008
-678,451	67,790	-0,039	-0,030
-677,437	-200,000	0,013	-0,085
-676,422	35,787	0,130	-0,085
-675,408	72,019	0,023	-0,018
-674,393	-200,000	-0,010	-0,152
-673,378	-200,000	-0,007	-0,178
-672,364	64,509	0,012	0,009
-671,349	800,000	0,031	-0,071
-670,335	14,315	-0,016	-0,009
-669,320	701,020	0,036	0,070
-668,305	387,273	-0,076	0,116
-667,291	-200,000	-0,009	-0,064
-666,276	800,000	-0,050	-0,122
-665,262	516,978	-0,073	-0,127
-664,247	142,406	-0,093	-0,091
-663,232	800,000	0,020	-0,047
-662,218	-200,000	0,038	-0,177
-661,203	43,327	0,050	0,033
-660,189	42,559	-0,126	-0,085
-659,174	9,116	0,076	0,042
-658,159	58,729	-0,051	-0,037
-657,145	-85,627	-0,139	-0,032
-656,130	-160,721	0,048	0,002
-655,116	61,837	0,083	-0,061
-654,101	-200,000	-0,012	0,114
-653,086	-200,000	-0,011	0,102
-652,072	288,129	0,060	0,080
-651,057	375,282	0,017	-0,026
-650,043	-186,939	-0,078	0,001
-649,028	-41,396	0,012	-0,005
-648,014	-200,000	0,015	0,059
-646,999	-200,000	-0,001	0,076
-645,984	-200,000	0,022	-0,154
-644,970	174,436	-0,104	-0,111
-643,955	-93,062	-0,076	0,016
-642,941	-120,680	-0,062	0,008
-641,926	0,517	-0,135	0,071
-640,911	-47,969	-0,016	-0,006
-639,897	-11,237	-0,136	-0,066
-638,882	82,086	-0,172	-0,137
-637,868	59,729	0,073	-0,053
-636,853	772,550	-0,066	0,133
-635,838	-17,031	-0,030	-0,014
-634,824	122,488	-0,040	0,036
-633,809	-200,000	-0,016	0,108
-632,795	-6,286	0,066	0,033
-631,780	264,109	0,069	0,089
-630,765	38,067	-0,147	0,096
-629,751	3,651	0,009	0,005
-628,736	458,238	0,010	-0,017
-627,722	-60,456	-0,108	-0,034
-626,707	231,300	0,079	0,095
-625,692	800,000	-0,043	0,098
-624,678	-200,000	0,006	0,055
-623,663	800,000	0,010	-0,032
-622,649	226,361	0,051	-0,061
-621,634	-157,966	-0,043	0,002
-620,619	-137,347	-0,119	0,010
-619,605	484,376	0,058	-0,097
-618,590	-200,000	-0,009	0,177
-617,576	74,316	0,108	0,083
-616,561	-200,000	-0,011	-0,063
-615,546	228,528	-0,050	0,060
-614,532	-200,000	-0,019	-0,103
-613,517	-58,279	-0,118	-0,038
-612,503	47,660	0,060	-0,041
-611,488	122,763	0,125	-0,115
-610,474	528,843	-0,068	-0,118
-609,459	-101,143	-0,141	0,025
-608,444	-111,549	0,072	-0,011
-607,430	-31,982	-0,232	0,095
-606,415	800,000	-0,059	-0,137
-605,401	156,804	0,045	-0,046
-604,386	800,000	-0,046	-0,099
-603,371	-85,128	-0,107	0,025
-602,357	374,455	0,022	-0,033
-601,342	683,836	0,047	-0,090
-600,328	-54,357	-0,223	-0,074
-599,313	-200,000	-0,001	-0,230
-598,298	284,607	0,054	-0,072
-597,284	-2,856	0,034	0,018
-596,269	-200,000	-0,015	0,054
-595,255	378,979	0,031	0,047
-594,240	-200,000	0,022	-0,079
-593,225	192,807	0,092	-0,103
-592,211	-16,888	-0,088	0,041
-591,196	-200,000	0,021	-0,102
-590,182	-133,066	-0,019	-0,002
-589,167	66,099	0,063	-0,047
-588,152	-60,227	-0,040	-0,013
-587,138	-161,890	-0,059	0,002
-586,123	372,144	0,069	-0,103
-585,109	355,844	0,034	0,050
-584,094	264,712	-0,098	0,126
-583,079	-200,000	0,039	0,173
-582,065	-200,000	0,012	0,103
-581,050	55,647	0,108	0,077
-580,036	613,741	-0,081	0,149
-579,021	-200,000	0,001	0,058
-578,006	-200,000	-0,002	-0,071
-576,992	257,613	0,030	-0,039
-575,977	384,543	-0,059	0,090
-574,963	-200,000	0,012	0,108
-573,948	136,396	-0,064	-0,062
-572,934	410,511	-0,040	-0,063
-571,919	251,869	-0,056	0,070
-570,904	-200,000	-0,030	0,120
-569,890	172,056	0,108	0,114
-568,875	800,000	-0,041	-0,108
-567,861	27,680	0,155	0,096
-566,846	-90,043	-0,010	0,002
-565,831	800,000	0,018	0,050
-564,817	634,942	0,053	0,100
-563,802	-53,585	-0,198	-0,066
-562,788	172,348	0,055	0,058
-561,773	-132,645	-0,006	-0,001
-560,758	-101,637	0,096	-0,017
-559,744	-200,000	-0,037	0,131
-558,729	121,160	-0,040	0,037
-557,715	-200,000	-0,035	-0,115
-556,700	577,542	0,080	-0,144
-555,685	800,000	0,009	-0,021
-554,671	147,813	0,051	0,050
-553,656	-145,669	0,113	0,007
-552,642	-161,669	-0,062	0,002
-551,627	130,545	0,030	0,028
-550,612	345,686	-0,053	-0,076
-549,598	291,368	-0,052	-0,070
-548,583	-108,995	0,059	0,009
-547,569	140,942	0,057	0,056
-546,554	-61,953	0,016	0,005
-545,539	26,279	-0,100	0,061
-544,525	-138,981	0,044	0,003
-543,510	160,631	0,082	0,085
-542,496	-200,000	-0,009	-0,085
-541,481	213,627	-0,027	-0,032
-540,466	-125,402	-0,055	0,006
-539,452	-80,443	-0,048	-0,012
-538,437	5,443	0,119	-0,065
-537,423	637,579	0,034	-0,063
-536,408	-74,128	0,049	-0,013
-535,393	800,000	0,036	-0,077
-534,379	-200,000	0,016	-0,170
-533,364	800,000	-0,023	0,052
-532,350	-170,307	-0,116	0,003
-531,335	-136,517	0,089	-0,007
-530,321	-62,295	0,062	-0,019
-529,306	-68,035	0,101	-0,029
-528,291	-71,860	-0,069	0,019
-527,277	422,329	-0,034	-0,053
-526,262	138,838	0,093	0,089
-525,248	157,373	0,072	0,073
-524,233	-200,000	-0,006	-0,044
-523,218	334,085	0,076	0,108
-522,204	-24,820	0,087	-0,038
-521,189	-119,608	-0,106	0,013
-520,175	10,014	-0,124	-0,069
-519,160	229,944	0,021	0,025
-518,145	-17,253	-0,170	-0,078
-517,131	-5,658	0,111	0,055
-516,116	-39,232	0,068	0,026
-515,102	-47,849	-0,048	-0,017
-514,087	-200,000	0,003	-0,044
-513,072	-75,307	-0,052	-0,014
-512,058	-200,000	0,003	-0,126
-511,043	80,364	-0,070	-0,055
-510,029	-137,540	0,091	0,007
-509,014	351,313	-0,018	-0,026
-507,999	287,867	-0,096	0,127
-506,985	800,000	-0,029	-0,068
-505,970	362,526	0,012	0,018
-504,956	-145,903	-0,112	-0,007
-503,941	46,388	-0,049	-0,034
-502,926	501,699	-0,057	0,097
-501,912	-45,361	-0,044	-0,016
-500,897	-77,935	0,078	0,020
-499,883	-196,204	-0,062	-0,000
-498,868	72,088	-0,070	0,053
-497,853	-121,718	-0,029	-0,003
-496,839	34,209	0,050	0,032
-495,824	-200,000	0,018	0,139
-494,810	-40,537	0,073	-0,028
-493,795	62,908	0,027	-0,020
-492,781	800,000	-0,022	0,067
-491,766	-146,546	0,136	-0,009
-490,751	-84,460	0,060	-0,014
-489,737	27,855	-0,087	-0,053
-488,722	38,153	0,145	0,094
-487,708	123,939	-0,082	-0,075
-486,693	193,318	-0,076	-0,084
-485,678	-143,014	-0,077	-0,005
-484,664	-110,559	-0,074	-0,011
-483,649	-114,072	-0,152	0,021
-482,635	194,882	0,093	-0,103
-481,620	119,419	0,089	-0,081
-480,605	39,552	-0,058	0,038
-479,591	-200,000	-0,028	-0,108
-478,576	-110,986	-0,029	0,004
-477,562	800,000	-0,079	0,187
-476,547	92,157	0,009	0,008
-475,532	-36,556	0,009	-0,003
-474,518	54,318	0,083	-0,058
-473,503	-200,000	0,022	0,160
-472,489	-18,227	0,119	0,054
-471,474	436,268	-0,027	0,044
-470,459	25,301	0,075	0,046
-469,445	-200,000	-0,008	-0,202
-468,430	-41,257	-0,031	-0,012
-467,416	562,317	0,048	0,086
-466,401	144,958	-0,068	0,067
-465,386	-200,000	0,007	0,070
-464,372	-22,483	0,045	0,020
-463,357	234,493	-0,084	0,102
-462,343	431,148	0,015	-0,023
-461,328	277,939	0,045	-0,059
-460,313	167,613	-0,071	0,074
-459,299	127,442	0,063	0,059
-458,284	71,692	0,078	-0,059
-457,270	-101,103	0,100	0,018
-456,255	-37,934	0,030	-0,011
-455,241	800,000	-0,049	0,111
-454,226	557,460	-0,063	0,111
-453,211	800,000	0,012	-0,036
-452,197	26,985	0,069	0,043
-451,182	-90,156	0,024	0,005
-450,168	-7,648	-0,098	-0,049
-449,153	586,798	-0,071	-0,129
-448,138	-200,000	-0,027	-0,108
-447,124	-200,000	0,011	-0,051
-446,109	319,837	0,068	-0,095
-445,095	106,948	0,110	0,095
-444,080	-149,596	0,039	-0,002
-443,065	-200,000	-0,015	0,077
-442,051	800,000	-0,055	0,115
-441,036	-200,000	0,002	0,019
-440,022	304,585	-0,043	-0,059
-439,007	195,572	-0,013	-0,015
-437,992	800,000	0,015	0,036
-436,978	-200,000	-0,004	-0,013
-435,963	766,254	0,038	0,076
-434,949	-200,000	-0,013	-0,055
-433,934	128,590	-0,089	-0,083
-432,919	-93,703	-0,165	0,033
-431,905	-28,060	-0,040	-0,017
-430,890	-124,376	0,077	0,009
-429,876	-200,000	-0,002	-0,019
-428,861	-33,822	0,097	-0,039
-427,846	142,391	0,101	0,099
-426,832	-200,000	0,005	0,026
-425,817	-119,910	-0,048	-0,006
-424,803	-51,104	0,106	-0,036
-423,788	702,307	0,051	0,099
-422,773	34,157	0,061	0,039
-421,759	339,202	-0,091	0,130
-420,744	-200,000	-0,076	-0,266
-419,730	34,038	-0,124	-0,079
-418,715	800,000	-0,012	-0,027
-417,701	-200,000	-0,037	-0,193
-416,686	159,426	-0,133	-0,136
-415,671	-191,640	0,143	-0,001
-414,657	-55,102	0,107	0,035
-413,642	-72,674	0,157	0,042
-412,628	-127,705	0,054	-0,006
-411,613	-11,497	-0,061	-0,029
-410,598	-95,265	0,138	-0,027
-409,584	-200,000	0,012	-0,116
-408,569	337,473	-0,027	-0,038
-407,555	57,915	0,127	-0,091
-406,540	97,843	-0,030	-0,025
-405,525	-200,000	0,024	0,141
-404,511	-2,347	-0,116	-0,059
-403,496	-165,033	-0,087	0,003
-402,482	-200,000	0,006	-0,036
-401,467	162,273	0,128	-0,131
-400,452	5,131	0,035	-0,019
-399,438	19,668	0,097	-0,057
-398,423	76,980	0,035	-0,027
-397,409	62,008	-0,149	-0,109
-396,394	-47,820	-0,067	-0,024
-395,379	-19,944	-0,147	0,066
-394,365	774,480	0,078	0,155
-393,350	-127,186	0,151	-0,016
-392,336	130,983	0,042	-0,040
-391,321	391,381	-0,041	0,063
-390,306	142,060	-0,076	-0,074
-389,292	102,280	-0,068	0,058
-388,277	575,389	-0,035	-0,062
-387,263	-150,663	-0,017	0,001
-386,248	800,000	0,007	0,020
-385,233	139,911	0,075	0,072
-384,219	800,000	0,079	0,217
-383,204	31,860	-0,084	0,053
-382,190	14,347	0,051	-0,029
-381,175	-80,376	-0,114	-0,027
-380,160	-62,614	0,133	-0,040
-379,146	86,572	-0,020	-0,016
-378,131	-132,837	0,084	-0,008
-377,117	58,070	0,090	-0,064
-376,102	-200,000	-0,030	0,109
-375,088	52,685	-0,170	-0,119
-374,073	800,000	0,021	0,045
-373,058	800,000	0,026	0,080
-372,044	-28,872	0,122	0,051
-371,029	8,765	0,039	-0,021
-370,015	-50,218	0,037	0,013
-369,000	-72,224	-0,089	0,024
-367,985	800,000	0,016	-0,042
-366,971	116,844	0,076	-0,068
-365,956	-151,672	0,168	0,009
-364,942	-200,000	-0,005	0,146
-363,927	-200,000	0,039	-0,127
-362,912	52,403	-0,022	-0,015
-361,898	-166,524	0,051	0,002
-360,883	-200,000	0,001	-0,051
-359,869	210,711	0,076	-0,088
-358,854	-200,000	-0,002	0,020
-357,839	800,000	0,045	0,094
-356,825	1,118	0,027	-0,014
-355,810	800,000	0,026	-0,060
-354,796	-200,000	0,014	-0,081
-353,781	-33,471	-0,071	-0,028
-352,766	-200,000	-0,004	-0,147
-351,752	-200,000	0,016	-0,070
-350,737	800,000	0,028	-0,079
-349,723	19,469	-0,102	0,060
-348,708	71,699	-0,072	-0,054
-347,693	-111,892	0,065	-0,009
-346,679	800,000	0,031	-0,064
-345,664	800,000	-0,067	0,159
-344,650	-32,456	0,148	0,060
-343,635	800,000	0,014	-0,039
-342,620	170,630	0,105	-0,110
-341,606	-64,787	-0,110	-0,032
-340,591	104,045	0,056	-0,048
-339,577	230,545	-0,087	-0,104
-338,562	-200,000	-0,004	-0,024
-337,548	239,666	-0,053	0,064
-336,533	130,189	0,038	-0,035
-335,518	401,636	-0,032	0,049
-334,504	-200,000	-0,005	0,188
-333,489	83,364	0,035	0,028
-332,475	800,000	0,028	0,075
-331,460	-123,002	-0,121	-0,014
-330,445	99,343	0,077	-0,065
-329,431	70,841	-0,009	0,007
-328,416	-32,250	0,080	-0,032
-327,402	264,532	-0,021	-0,027
-326,387	-127,781	0,094	-0,010
-325,372	92,580	-0,099	-0,081
-324,358	-200,000	0,014	-0,078
-323,343	476,473	0,026	0,044
-322,329	-3,650	0,085	-0,043
-321,314	248,199	0,049	-0,061
-320,299	-159,840	-0,073	0,003
-319,285	175,854	-0,051	0,054
-318,270	-200,000	-0,008	-0,076
-317,256	261,635	0,071	-0,090
-316,241	800,000	-0,025	-0,064
-315,226	-128,132	0,142	-0,015
-314,212	-134,508	-0,129	0,011
-313,197	-80,099	0,082	-0,020
-312,183	-165,120	0,187	0,006
-311,168	-55,600	0,018	0,006
-310,153	392,368	0,142	-0,216
-309,139	-200,000	0,004	-0,045
-308,124	-200,000	0,003	-0,066
-307,110	9,821	-0,036	0,020
-306,095	800,000	-0,020	0,055
-305,080	-200,000	-0,019	0,097
-304,066	186,146	0,028	0,031
-303,051	-200,000	0,034	-0,126
-302,037	-200,000	-0,003	-0,064
-301,022	-200,000	0,001	-0,053
-300,008	29,008	0,127	0,078
-298,993	800,000	0,087	-0,199
-297,978	-110,369	0,108	-0,016
-296,964	-15,406	-0,085	-0,039
-295,949	-24,740	0,086	-0,037
-294,935	-200,000	0,004	0,104
-293,920	-124,158	0,128	-0,014
-292,905	33,459	0,089	0,056
-291,891	800,000	0,018	0,058
-290,876	719,202	-0,074	0,143
-289,862	-200,000	-0,009	-0,155
-288,847	-13,007	-0,044	0,021
-287,832	1,293	-0,106	0,055
-286,818	-200,000	-0,003	0,117
-285,803	-81,388	0,135	-0,032
-284,789	457,075	0,037	0,061
-283,774	-200,000	-0,009	0,117
-282,759	-200,000	0,006	0,055
-281,745	-200,000	0,008	0,052
-280,730	130,656	-0,096	-0,089
-279,716	-200,000	-0,021	0,098
-278,701	-162,172	-0,085	0,003
-277,686	-141,475	0,186	0,013
-276,672	800,000	0,081	0,169
-275,657	-155,110	-0,026	-0,001
-274,643	-128,297	-0,127	-0,013
-273,628	254,564	0,095	-0,118
-272,613	-153,324	0,056	-0,003
-271,599	-200,000	-0,006	-0,073
-270,584	800,000	0,054	0,110
-269,570	-50,062	0,033	0,011
-268,555	-200,000	0,012	-0,081
-267,540	184,716	-0,074	-0,080
-266,526	-200,000	0,000	-0,098
-265,511	800,000	-0,067	-0,137
-264,497	-200,000	0,021	0,137
-263,482	-134,014	0,119	0,011
-262,467	-16,346	-0,039	-0,018
-261,453	42,436	-0,034	0,022
-260,438	-200,000	-0,002	-0,133
-259,424	100,559	-0,059	0,050
-258,409	-64,746	0,052	-0,015
-257,395	70,274	-0,118	0,089
-256,380	-58,620	-0,085	-0,027
-255,365	800,000	0,023	0,064
-254,351	-200,000	0,000	-0,082
-253,336	-54,394	-0,105	0,034
-252,322	800,000	-0,020	-0,045
-251,307	800,000	-0,051	-0,106
-250,292	-200,000	-0,011	0,057
-249,278	-12,035	0,034	0,016
-248,263	800,000	0,059	0,187
-247,249	-147,032	0,045	-0,003
-246,234	-74,990	-0,091	-0,024
-245,219	20,333	-0,063	0,037
-244,205	-200,000	0,025	-0,145
-243,190	800,000	-0,017	0,043
-242,176	748,809	-0,037	0,073
-241,161	-122,387	-0,020	0,002
-240,146	800,000	-0,020	0,048
-239,132	583,306	-0,031	-0,056
-238,117	123,700	0,047	-0,042
-237,103	-18,763	-0,050	-0,022
-236,088	382,656	-0,048	-0,072
-235,073	-200,000	0,028	0,114
-234,059	-200,000	0,006	-0,038
-233,044	3,811	-0,003	-0,001
-232,030	-200,000	-0,018	0,059
-231,015	-84,889	-0,090	0,020
-230,000	-106,016	0,083	-0,013
-228,986	211,629	-0,012	0,014
-227,971	-188,740	0,264	0,002
-226,957	83,485	-0,035	0,028
-225,942	800,000	0,050	0,128
-224,927	-148,902	-0,091	0,005
-223,913	-103,103	-0,027	0,005
-222,898	-109,100	0,129	0,020
-221,884	448,953	-0,067	-0,108
-220,869	359,803	-0,108	0,157
-219,855	-200,000	-0,012	0,140
-218,840	-52,347	0,141	-0,047
-217,825	-20,055	0,041	-0,018
-216,811	459,186	0,042	0,067
-215,796	751,524	0,055	-0,108
-214,782	-200,000	0,011	0,064
-213,767	493,515	-0,017	0,029
-212,752	800,000	-0,034	0,081
-211,738	-200,000	-0,026	0,153
-210,723	475,652	-0,033	-0,053
-209,709	157,270	-0,030	-0,030
-208,694	-200,000	0,007	-0,053
-207,679	800,000	-0,030	0,070
-206,665	5,915	0,092	-0,049
-205,650	-39,816	0,136	0,051
-204,636	5,691	0,043	-0,023
-203,621	-82,998	-0,078	-0,018
-202,606	-200,000	-0,020	0,105
-201,592	99,426	0,044	0,037
-200,577	-29,194	-0,117	0,049
-199,563	-198,152	0,049	-0,000
-198,548	417,059	0,087	0,134
-197,533	125,909	0,045	0,041
-196,519	800,000	0,028	-0,073
-195,504	552,402	-0,039	-0,069
-194,490	-124,058	-0,077	0,009
-193,475	133,193	-0,046	-0,043
-192,460	183,340	0,060	0,064
-191,446	-200,000	0,000	0,191
-190,431	-200,000	0,004	0,122
-189,417	-3,362	-0,124	0,062
-188,402	-45,180	-0,135	0,048
-187,387	-200,000	-0,021	0,085
-186,373	-60,722	-0,146	-0,044
-185,358	-89,545	-0,077	0,016
-184,344	-90,708	0,085	0,018
-183,329	800,000	0,014	0,034
-182,315	-11,667	-0,057	-0,027
-181,300	-200,000	-0,037	0,131
-180,285	633,787	-0,078	0,144
-179,271	-200,000	0,038	-0,126
-178,256	-200,000	-0,026	-0,100
-177,242	-200,000	-0,005	0,078
-176,227	-50,575	0,120	-0,041
-175,212	-200,000	0,029	-0,102
-174,198	800,000	-0,038	-0,097
-173,183	-65,038	-0,146	0,042
-172,169	-200,000	-0,005	-0,034
-171,154	-200,000	-0,002	-0,036
-170,139	156,415	-0,024	-0,024
-169,125	-143,479	0,124	-0,008
-168,110	-124,780	-0,089	-0,010
-167,096	800,000	0,049	-0,130
-166,081	-5,249	0,148	0,073
-165,066	-126,637	-0,118	0,013
-164,052	52,069	0,006	-0,004
-163,037	-200,000	-0,023	0,199
-162,023	495,458	0,025	0,042
-161,008	83,119	-0,082	-0,064
-159,993	-10,834	-0,029	-0,014
-158,979	146,559	-0,062	0,060
-157,964	-51,242	0,074	-0,025
-156,950	73,060	-0,083	-0,063
-155,935	-90,792	-0,163	-0,034
-154,920	274,671	-0,013	-0,017
-153,906	86,877	0,059	0,047
-152,891	800,000	0,049	0,102
-151,877	17,112	-0,077	0,044
-150,862	178,150	-0,027	-0,028
-149,847	800,000	-0,029	-0,086
-148,833	-200,000	-0,013	-0,087
-147,818	-200,000	0,011	0,063
-146,804	351,593	-0,093	-0,134
-145,789	176,877	-0,024	-0,026
-144,775	524,173	-0,035	-0,060
-143,760	65,027	-0,143	0,104
-142,745	-200,000	0,005	0,026
-141,731	800,000	0,020	-0,057
-140,716	800,000	0,039	0,112
-139,702	800,000	-0,042	-0,098
-138,687	-200,000	-0,012	-0,071
-137,672	59,539	0,169	-0,120
-136,658	117,319	-0,046	-0,041
-135,643	-200,000	0,006	-0,042
-134,629	292,648	-0,069	-0,091
-133,614	-10,734	0,087	-0,041
-132,599	-187,279	0,104	0,001
-131,585	-200,000	-0,015	0,054
-130,570	800,000	0,038	-0,086
-129,556	36,069	0,073	-0,047
-128,541	590,501	0,023	0,041
-127,526	-60,085	-0,064	-0,019
-126,512	-200,000	-0,007	0,173
-125,497	800,000	-0,015	0,033
-124,483	511,887	0,016	0,028
-123,468	380,780	-0,049	0,073
-122,453	800,000	-0,047	-0,109
-121,439	-200,000	0,012	-0,100
-120,424	800,000	0,019	-0,052
-119,410	-65,724	0,043	-0,012
-118,395	800,000	0,013	0,035
-117,380	37,375	-0,095	-0,061
-116,366	-67,254	0,136	-0,038
-115,351	-200,000	0,002	0,049
-114,337	-163,235	0,079	-0,003
-113,322	-92,469	0,083	-0,017
-112,307	12,560	0,090	-0,050
-111,293	220,330	-0,032	0,037
-110,278	-96,427	0,080	-0,015
-109,264	-91,786	0,113	0,023
-108,249	186,061	-0,132	0,142
-107,234	-200,000	-0,027	-0,149
-106,220	800,000	-0,016	-0,038
-105,205	-60,485	0,111	-0,034
-104,191	-8,305	0,029	-0,014
-103,176	-200,000	0,020	0,072
-102,162	-200,000	-0,015	0,049
-101,147	-61,497	-0,050	0,015
-100,132	-200,000	0,003	-0,025
-99,118	-41,943	-0,087	-0,032
-98,103	-170,380	-0,022	0,001
-97,089	800,000	0,064	0,136
-96,074	-200,000	0,016	0,112
-95,059	-51,801	-0,071	-0,024
-94,045	-21,199	-0,072	0,032
-93,030	-78,458	0,082	0,020
-92,016	-185,490	-0,112	0,001
-91,001	31,561	-0,045	-0,028
-89,986	-116,314	0,028	-0,004
-88,972	255,979	-0,042	0,053
-87,957	800,000	-0,019	-0,048
-86,943	-200,000	-0,003	0,027
-85,928	-200,000	0,014	-0,147
-84,913	123,683	0,087	0,079
-83,899	-58,910	0,089	0,028
-82,884	37,003	0,050	0,032
-81,870	-106,287	0,137	0,022
-80,855	-95,446	-0,038	0,007
-79,840	800,000	0,035	0,097
-78,826	67,949	-0,090	-0,066
-77,811	242,734	-0,027	0,033
-76,797	-200,000	0,014	-0,098
-75,782	-200,000	-0,008	0,077
-74,767	800,000	0,036	0,073
-73,753	142,425	0,057	0,054
-72,738	-200,000	-0,084	-0,000
-71,724	-200,000	0,000	0,027
-70,709	-123,712	0,031	0,004
-69,694	-200,000	0,013	-0,044
-68,680	101,502	0,104	0,087
-67,665	800,000	0,047	0,120
-66,651	-4,617	0,046	0,023
-65,636	-106,525	0,087	0,014
-64,622	-106,896	0,039	-0,006
-63,607	195,981	0,064	-0,071
-62,592	718,863	0,012	0,024
-61,578	74,754	0,077	0,059
-60,563	28,959	0,137	0,084
-59,549	278,463	0,042	-0,054
-58,534	-6,131	-1,897	-0,931
-57,519	800,000	-0,337	-1,037
-56,505	-200,000	-1,191	-4,797
-55,490	-54,535	0,710	0,230
-54,476	800,000	5,360	12,229
-53,461	-200,000	16,590	276,090
-52,446	800,000	711,296	2218,926
-51,432	547,306	1624,992	2813,678
-50,417	119,860	1621,360	1448,419
-49,403	82,103	1282,427	1000,925
-48,388	35,966	1029,424	651,423
-47,373	20,959	992,168	578,163
-46,359	19,734	980,633	567,377
-45,344	17,835	976,404	558,659
-44,330	17,955	975,136	558,303
-43,315	17,716	973,220	556,400
-42,300	17,586	972,335	555,446
-41,286	17,616	971,195	554,871
-40,271	17,590	970,316	554,261
-39,257	17,543	969,654	553,707
-38,242	17,607	968,675	553,337
-37,227	17,584	967,963	552,834
-36,213	17,555	966,969	552,150
-35,198	17,529	966,127	551,560
-34,184	17,601	965,327	551,316
-33,169	17,472	964,571	550,443
-32,154	17,611	963,593	550,317
-31,140	17,578	962,621	549,631
-30,125	17,606	961,816	549,242
-29,111	17,626	961,116	548,885
-28,096	17,549	960,617	548,327
-27,082	17,603	959,818	548,025
-26,067	17,565	958,990	547,407
-25,052	17,560	958,404	547,036
-24,038	17,533	957,610	546,472
-23,023	17,545	956,896	546,083
-22,009	17,562	956,141	545,686
-20,994	17,584	955,543	545,391
-19,979	17,622	954,771	545,054
-18,965	17,563	954,229	544,533
-17,950	17,532	953,775	544,152
-16,936	17,533	953,071	543,730
-15,921	17,456	952,380	543,067
-14,906	17,455	951,733	542,673
-13,892	17,510	951,014	542,420
-12,877	17,449	950,159	541,715
-11,863	17,415	949,743	541,348
-10,848	17,414	949,275	541,055
-9,833	17,453	948,689	540,825
-8,819	17,520	948,114	540,689
-7,804	17,483	947,376	540,129
-6,790	17,429	946,920	539,676
-5,775	17,464	946,373	539,454
-4,760	17,501	945,561	539,087
-3,746	17,436	945,041	538,564
-2,731	17,266	944,278	537,565
-1,717	17,285	943,538	537,184
-0,702	17,282	943,085	536,896
0,313	17,104	942,276	536,679
1,327	20,339	940,692	545,984
2,342	29,600	796,997	487,244
3,356	27,050	449,031	270,672
4,371	-2,537	295,665	148,583
5,386	-6,422	276,843	135,424
6,400	-7,745	271,211	131,426
7,415	-7,956	268,831	130,066
8,429	-8,005	267,540	129,385
9,444	-8,222	266,625	128,732
10,459	-8,180	265,940	128,428
11,473	-8,389	265,340	127,937
12,488	-8,549	264,693	127,468
13,502	-8,625	264,090	127,097
14,517	-8,658	263,636	126,838
15,531	-8,758	263,302	126,575
16,546	-8,829	262,971	126,340
17,561	-8,890	262,583	126,087
18,575	-8,731	262,345	126,106
19,590	-9,125	261,956	125,554
20,604	-8,854	261,570	125,600
21,619	-9,029	261,131	125,222
22,634	-8,894	260,946	125,242
23,648	-8,926	260,514	124,996
24,663	-8,962	260,326	124,862
25,677	-8,915	260,158	124,812
26,692	-8,928	259,814	124,624
27,707	-8,942	259,416	124,410
28,721	-9,230	259,190	124,034
29,736	-9,202	259,016	123,965
30,750	-9,060	258,890	124,019
31,765	-9,130	258,449	123,736
32,780	-9,051	258,217	123,683
33,794	-9,058	258,159	123,638
34,809	-9,022	257,670	123,425
35,823	-9,019	257,569	123,368
36,838	-9,263	257,330	123,028
37,853	-9,232	257,153	122,959
38,867	-9,191	256,848	122,838
39,882	-9,302	256,688	122,653
40,896	-9,045	256,348	122,706
41,911	-9,240	256,039	122,376
42,926	-9,325	256,029	122,285
43,940	-9,309	255,727	122,144
44,955	-9,249	255,442	122,050
45,969	-9,333	255,270	121,883
46,984	-9,495	254,958	121,582
47,999	-9,867	254,660	121,105
49,013	-10,180	254,443	120,718
50,028	-10,040	254,096	120,665
51,042	-10,164	253,997	120,499
52,057	-10,033	253,618	120,422
53,071	-10,048	253,473	120,329
54,086	-9,991	253,296	120,284
55,101	-9,808	253,114	120,345
56,115	-9,520	253,198	120,624
57,130	-9,172	253,128	120,881
58,144	-8,641	252,754	121,151
59,159	-8,603	252,610	121,104
60,174	-8,687	252,460	120,949
61,188	-8,831	252,169	120,675
62,203	-8,983	252,081	120,491
63,217	-8,936	251,697	120,337
64,232	-9,022	251,718	120,262
65,247	-8,661	251,464	120,440
66,261	-8,945	251,282	120,098
67,276	-9,131	250,883	119,738
68,290	-9,359	250,687	119,438
69,305	-9,527	250,362	119,129
70,320	-9,584	250,240	119,011
71,334	-9,271	250,076	119,190
72,349	-8,863	250,037	119,510
73,363	-9,077	249,892	119,247
74,378	-8,943	249,617	119,219
75,393	-8,901	249,315	119,100
76,407	-9,104	249,175	118,850
77,422	-8,969	248,921	118,833
78,436	-9,054	248,899	118,740
79,451	-8,922	248,545	118,672
80,466	-9,219	248,290	118,288
81,480	-9,381	247,944	117,976
82,495	-9,369	247,691	117,855
83,509	-9,399	247,783	117,862
84,524	-9,463	247,439	117,634
85,539	-9,495	247,092	117,432
86,553	-9,472	246,937	117,368
87,568	-9,363	246,741	117,356
88,582	-9,642	246,734	117,107
89,597	-9,190	246,433	117,334
90,611	-9,198	246,306	117,256
91,626	-9,170	246,148	117,194
92,641	-9,252	246,184	117,132
93,655	-9,165	245,807	117,015
94,670	-9,216	245,554	116,841
95,684	-9,200	245,422	116,781
96,699	-9,173	245,186	116,681
97,714	-9,201	244,878	116,501
98,728	-9,482	244,800	116,219
99,743	-9,662	244,612	115,969
100,757	-9,498	244,282	115,939
101,772	-9,510	244,206	115,882
102,787	-9,530	244,086	115,799
103,801	-9,179	243,808	115,948
104,816	-9,320	243,774	115,804
105,830	-9,125	243,678	115,910
106,845	-9,037	243,538	115,906
107,860	-9,149	243,304	115,692
108,874	-9,143	242,952	115,520
109,889	-9,118	242,858	115,485
110,903	-9,152	242,413	115,235
111,918	-9,268	242,453	115,148
112,933	-9,192	242,233	115,096
113,947	-9,127	242,174	115,111
114,962	-9,255	242,017	114,921
115,976	-9,087	241,878	114,983
116,991	-9,354	241,615	114,627
118,006	-9,152	241,401	114,682
119,020	-9,187	241,303	114,597
120,035	-8,849	241,072	114,754
121,049	-8,933	240,984	114,633
122,064	-9,056	240,927	114,495
123,079	-8,924	240,533	114,405
124,093	-9,226	240,341	114,057
125,108	-9,368	240,196	113,862
126,122	-9,675	239,867	113,445
127,137	-9,928	239,714	113,157
128,151	-9,723	239,638	113,277
129,166	-9,339	239,221	113,383
130,181	-9,483	239,079	113,188
131,195	-9,683	238,989	112,973
132,210	-9,253	238,842	113,242
133,224	-9,322	238,882	113,195
134,239	-9,067	238,659	113,287
135,254	-8,996	238,530	113,273
136,268	-9,236	238,234	112,928
137,283	-9,531	237,820	112,483
138,297	-9,928	237,827	112,156
139,312	-9,512	237,504	112,329
140,327	-9,131	237,537	112,642
141,341	-8,617	237,500	113,029
142,356	-8,731	237,353	112,856
143,370	-8,911	237,314	112,683
144,385	-8,525	237,145	112,903
145,400	-8,553	236,715	112,667
146,414	-8,569	236,743	112,657
147,429	-8,688	236,397	112,387
148,443	-8,734	236,389	112,336
149,458	-8,690	236,223	112,283
150,473	-8,591	235,960	112,227
151,487	-8,677	235,630	111,991
152,502	-8,803	235,692	111,909
153,516	-8,491	235,419	112,019
154,531	-8,596	235,392	111,913
155,546	-8,826	235,178	111,617
156,560	-8,745	234,925	111,551
157,575	-8,864	234,697	111,339
158,589	-8,932	234,629	111,243
159,604	-8,677	234,527	111,387
160,619	-8,465	234,392	111,481
161,633	-8,632	234,253	111,272
162,648	-8,331	233,997	111,380
163,662	-8,724	233,896	111,011
164,677	-8,859	233,711	110,806
165,692	-8,556	233,640	111,002
166,706	-8,395	233,350	110,982
167,721	-8,571	233,309	110,813
168,735	-8,436	233,255	110,884
169,750	-8,582	233,004	110,640
170,764	-8,606	232,998	110,609
171,779	-8,493	232,781	110,584
172,794	-8,472	232,541	110,478
173,808	-8,811	232,241	110,058
174,823	-9,228	231,839	109,531
175,837	-9,462	231,685	109,265
176,852	-8,830	231,817	109,813
177,867	-8,425	231,625	110,030
178,881	-8,423	231,558	109,990
179,896	-8,409	231,468	109,948
180,910	-8,292	231,224	109,914
181,925	-8,477	231,109	109,705
182,940	-8,565	230,890	109,522
183,954	-8,349	230,791	109,634
184,969	-8,502	230,633	109,430
185,983	-8,403	230,586	109,475
186,998	-8,303	230,439	109,473
188,013	-8,379	230,280	109,329
189,027	-8,314	229,963	109,219
190,042	-8,425	229,924	109,105
191,056	-8,419	229,579	108,936
192,071	-8,285	229,553	109,018
193,086	-8,355	229,440	108,900
194,100	-7,996	229,427	109,162
195,115	-7,782	229,222	109,221
196,129	-7,501	229,232	109,434
197,144	-3,492	230,632	113,211
198,159	0,579	231,870	116,986
199,173	3,351	232,473	119,444
200,188	3,756	232,430	119,726
201,202	3,581	232,364	119,545
202,217	3,591	232,242	119,480
203,232	4,141	231,951	119,747
204,246	4,127	231,908	119,703
205,261	3,933	231,787	119,479
206,275	4,289	231,699	119,700
207,290	4,379	231,520	119,666
208,304	4,140	231,377	119,397
209,319	4,034	231,149	119,186
210,334	4,154	230,919	119,150
211,348	3,828	230,684	118,766
212,363	3,641	230,498	118,515
213,377	3,238	230,299	118,091
214,392	3,200	230,161	117,981
215,407	3,323	230,047	118,007
216,421	3,394	229,842	117,946
217,436	3,448	229,648	117,877
218,450	3,367	229,356	117,655
219,465	3,037	229,265	117,344
220,480	3,145	229,208	117,387
221,494	3,167	229,059	117,317
222,509	3,514	228,986	117,535
223,523	3,197	228,881	117,228
224,538	3,161	228,609	117,051
225,553	3,458	228,552	117,238
226,567	3,407	228,491	117,157
227,582	3,429	228,370	117,102
228,596	3,894	228,107	117,312
229,611	3,555	227,934	116,954
230,626	3,035	227,860	116,509
231,640	3,166	227,613	116,472
232,655	3,488	227,551	116,675
233,669	4,099	227,476	117,091
234,684	4,220	227,385	117,125
235,699	3,897	227,175	116,761
236,713	3,370	226,928	116,224
237,728	3,287	226,785	116,078
238,742	3,267	226,554	115,934
239,757	3,385	226,407	115,938
240,772	3,344	226,199	115,790
241,786	3,440	226,240	115,873
242,801	3,570	226,039	115,858
243,815	3,608	226,090	115,903
244,830	3,711	225,843	115,843
245,844	3,444	225,606	115,511
246,859	3,499	225,465	115,470
247,874	3,804	225,192	115,549
248,888	3,574	225,224	115,381
249,903	3,505	225,007	115,208
250,917	3,517	224,821	115,111
251,932	3,348	224,582	114,853
252,947	3,469	224,346	114,812
253,961	3,365	224,195	114,646
254,976	3,393	224,105	114,611
255,990	3,599	224,104	114,755
257,005	3,655	224,021	114,744
258,020	3,599	223,917	114,639
259,034	3,811	223,765	114,709
260,049	3,521	223,750	114,475
261,063	3,428	223,549	114,292
262,078	3,919	223,301	114,521
263,093	3,900	223,197	114,443
264,107	3,931	223,014	114,362
265,122	3,812	222,890	114,200
266,136	3,785	222,857	114,153
267,151	4,000	222,587	114,164
268,166	3,557	222,237	113,646
269,180	3,159	222,176	113,310
270,195	3,241	222,087	113,315
271,209	3,320	221,828	113,231
272,224	3,246	221,982	113,245
273,239	3,385	221,758	113,223
274,253	3,321	221,373	112,970
275,268	3,162	221,275	112,792
276,282	3,050	221,053	112,586
277,297	3,121	221,034	112,619
278,312	3,043	220,916	112,491
279,326	3,246	220,874	112,609
280,341	3,467	220,645	112,645
281,355	3,565	220,521	112,643
282,370	3,380	220,348	112,409
283,384	3,165	220,159	112,145
284,399	2,998	219,959	111,911
285,414	3,104	219,835	111,916
286,428	3,293	219,738	111,994
287,443	3,524	219,774	112,171
288,457	3,869	219,463	112,255
289,472	3,445	219,182	111,792
290,487	2,972	219,049	111,370
291,501	2,930	218,952	111,280
292,516	3,173	218,864	111,402
293,530	3,292	218,803	111,447
294,545	2,943	218,546	111,053
295,560	3,374	218,539	111,353
296,574	3,407	218,482	111,338
297,589	3,396	218,314	111,235
298,603	3,459	218,173	111,198
299,618	3,490	217,895	111,069
300,633	3,292	217,865	110,900
301,647	3,680	217,780	111,129
302,662	3,751	217,692	111,125
303,676	3,608	217,526	110,927
304,691	3,785	217,342	110,951
305,706	3,568	217,305	110,766
306,720	3,537	217,072	110,614
307,735	3,344	216,922	110,389
308,749	3,360	216,638	110,246
309,764	3,565	216,581	110,355
310,779	3,640	216,671	110,444
311,793	3,614	216,289	110,222
312,808	3,580	216,226	110,155
313,822	3,303	216,071	109,868
314,837	3,479	215,863	109,878
315,852	2,927	215,795	109,438
316,866	3,326	215,566	109,598
317,881	3,348	215,454	109,547
318,895	3,175	215,330	109,351
319,910	3,516	215,233	109,535
320,925	3,240	215,187	109,305
321,939	3,179	214,888	109,099
322,954	3,136	214,878	109,054
323,968	3,506	214,677	109,207
324,983	3,761	214,639	109,359
325,997	3,837	214,371	109,266
327,012	3,444	214,354	108,969
328,027	3,429	214,272	108,907
329,041	3,676	214,088	108,978
330,056	3,908	214,003	109,090
331,070	3,450	213,692	108,598
332,085	3,073	213,487	108,217
333,100	3,220	213,454	108,295
334,114	3,557	213,361	108,476
335,129	3,521	213,189	108,353
336,143	3,369	213,016	108,148
337,158	3,642	212,762	108,202
338,173	3,413	212,668	107,983
339,187	3,169	212,624	107,780
340,202	3,207	212,331	107,648
341,216	3,154	212,175	107,522
342,231	2,925	212,243	107,386
343,246	3,227	212,102	107,517
344,260	3,123	211,970	107,368
345,275	3,232	211,778	107,337
346,289	3,602	211,639	107,517
347,304	3,686	211,583	107,538
348,319	3,627	211,296	107,341
349,333	3,365	211,316	107,158
350,348	3,361	211,168	107,071
351,362	3,542	211,174	107,191
352,377	3,577	210,966	107,100
353,392	3,479	210,812	106,944
354,406	3,556	210,686	106,924
355,421	195,651	1340,353	1424,499
356,435	156,269	1478,008	1424,524
