DTS Sentinel unit serial number:	SN410029Multiplexer serial number:	ORYXHardware model number:	OX2-SRSoftware version number:	ORYX F/W v4,00 Oryx Data Collector v3.7.2.0data status	okinstallation	B6 Nyhavnadifferential loss correction	single-endedforward channel	channel 2reverse channel	N/Adate	2023/12/10time	13:20:08forward acquisition time	300,00reverse acquisition time	0,00gamma	499,1914k internal	0,3122k external	0,3122temperature offset calibration	1,0000default loss term (dB/km)	0,3820temperature slope calibration	1,0000multiplexer offset coefficient	1,0000multiplexer slope coefficient	1,0000fibre end	0,00T internal ref (°C)	22,79T ext. ref 1 (°C)	6,38T ext. ref 2 (°C)	6,39length (m)	temperature (°C)	Stokes	anti-Stokes-744,400	153,585	0,083	-0,084
-743,385	-23,225	-0,122	0,054
-742,371	-1,334	0,035	-0,018
-741,356	215,993	-0,232	0,275
-740,342	-41,955	-0,073	0,028
-739,327	-13,861	-0,303	0,145
-738,312	106,228	0,071	-0,063
-737,298	-135,275	-0,288	-0,025
-736,283	-200,000	-0,008	-0,059
-735,269	28,303	-0,172	0,108
-734,254	-116,951	0,100	-0,014
-733,239	-23,993	-0,486	-0,216
-732,225	-105,696	0,228	-0,038
-731,210	-200,000	-0,014	-0,051
-730,196	96,329	0,021	-0,018
-729,181	-41,616	-0,155	-0,059
-728,167	-200,000	-0,045	-0,175
-727,152	-45,022	-0,051	0,019
-726,137	-130,473	-0,050	0,005
-725,123	-64,005	-0,172	-0,052
-724,108	-200,000	0,010	0,040
-723,094	292,935	-0,026	-0,035
-722,079	-27,377	-0,031	0,013
-721,064	-200,000	0,021	0,103
-720,050	-20,190	0,065	0,030
-719,035	-65,535	-0,142	-0,042
-718,021	343,237	0,045	-0,066
-717,006	-200,000	-0,026	-0,170
-715,991	-82,179	-0,135	-0,033
-714,977	-77,627	0,095	-0,024
-713,962	38,231	0,016	-0,011
-712,948	-25,334	0,116	0,051
-711,933	19,531	0,073	0,043
-710,918	800,000	-0,028	0,084
-709,904	-48,116	0,067	-0,024
-708,889	79,354	-0,093	-0,074
-707,875	381,521	-0,049	-0,075
-706,860	20,816	0,073	0,044
-705,845	-99,066	0,053	-0,010
-704,831	-21,170	0,089	0,040
-703,816	-46,785	-0,040	-0,014
-702,802	800,000	-0,033	-0,075
-701,787	800,000	0,024	-0,074
-700,772	-128,456	-0,033	0,003
-699,758	14,304	-0,084	0,049
-698,743	-87,214	0,158	0,035
-697,729	800,000	-0,035	-0,072
-696,714	101,020	0,060	-0,052
-695,699	-200,000	-0,032	0,129
-694,685	129,391	-0,084	-0,080
-693,670	800,000	0,056	-0,181
-692,656	800,000	0,052	0,145
-691,641	261,650	-0,104	0,134
-690,627	-21,082	0,094	0,042
-689,612	174,981	-0,075	0,081
-688,597	-200,000	0,031	0,134
-687,583	-200,000	0,001	0,084
-686,568	-31,296	-0,085	0,036
-685,554	-200,000	0,010	-0,119
-684,539	-200,000	-0,003	-0,041
-683,524	-119,602	0,025	0,003
-682,510	-111,869	0,018	-0,003
-681,495	24,333	-0,080	-0,049
-680,481	223,579	0,027	-0,032
-679,466	-200,000	-0,005	0,060
-678,451	-200,000	-0,026	0,118
-677,437	-200,000	0,019	0,087
-676,422	112,751	0,086	0,077
-675,408	-200,000	-0,021	0,092
-674,393	-76,093	-0,046	0,012
-673,378	93,542	-0,022	0,018
-672,364	-163,394	-0,044	0,002
-671,349	-99,094	-0,073	0,014
-670,335	416,907	0,023	-0,037
-669,320	-200,000	0,012	0,114
-668,305	-200,000	-0,010	-0,035
-667,291	74,713	0,090	-0,070
-666,276	377,813	-0,087	-0,133
-665,262	-7,575	-0,098	-0,049
-664,247	798,690	-0,061	-0,125
-663,232	360,270	0,005	-0,008
-662,218	163,714	0,123	-0,128
-661,203	-59,694	0,055	-0,018
-660,189	-42,706	-0,138	0,052
-659,174	230,824	-0,063	-0,077
-658,159	-200,000	-0,037	-0,176
-657,145	84,613	0,148	-0,121
-656,130	-170,984	-0,165	-0,004
-655,116	100,230	0,055	-0,047
-654,101	800,000	-0,023	-0,058
-653,086	25,615	-0,023	-0,014
-652,072	-89,030	-0,175	0,038
-651,057	-200,000	0,013	0,052
-650,043	-114,490	-0,056	-0,008
-649,028	-200,000	-0,025	-0,087
-648,014	377,267	0,059	0,090
-646,999	-79,546	0,077	0,019
-645,984	-200,000	0,003	0,059
-644,970	-143,385	-0,033	-0,002
-643,955	-200,000	0,005	-0,068
-642,941	-61,088	-0,053	0,017
-641,926	-90,824	-0,109	-0,023
-640,911	-200,000	0,012	0,117
-639,897	-92,148	0,155	-0,032
-638,882	-200,000	0,000	0,118
-637,868	149,982	0,072	-0,073
-636,853	730,948	0,047	-0,094
-635,838	24,266	0,035	-0,021
-634,824	-4,519	-0,019	0,010
-633,809	-200,000	0,121	0,000
-632,795	-88,936	-0,126	0,027
-631,780	-26,629	-0,124	0,054
-630,765	160,887	-0,018	0,018
-629,751	125,087	-0,054	0,050
-628,736	17,313	0,011	0,006
-627,722	800,000	-0,017	-0,047
-626,707	-173,682	-0,144	0,003
-625,692	-129,414	-0,145	-0,015
-624,678	-200,000	-0,014	0,152
-623,663	16,013	-0,015	-0,009
-622,649	627,318	-0,071	-0,133
-621,634	368,384	-0,086	-0,129
-620,619	-54,023	-0,087	0,029
-619,605	635,724	0,045	-0,084
-618,590	-75,634	-0,051	-0,013
-617,576	342,778	0,047	0,068
-616,561	276,283	-0,039	0,052
-615,546	150,470	-0,157	-0,158
-614,532	-142,567	-0,118	-0,008
-613,517	-200,000	0,023	-0,086
-612,503	-200,000	-0,014	-0,117
-611,488	-105,277	0,045	-0,008
-610,474	-114,530	-0,156	-0,022
-609,459	-135,901	0,164	-0,014
-608,444	19,960	0,097	-0,058
-607,430	-200,000	-0,008	-0,067
-606,415	-108,499	0,083	-0,013
-605,401	514,160	-0,060	-0,104
-604,386	-200,000	-0,001	-0,016
-603,371	-119,002	-0,087	0,011
-602,357	59,719	-0,159	-0,116
-601,342	227,691	0,012	-0,014
-600,328	736,187	-0,120	-0,239
-599,313	-200,000	-0,010	-0,038
-598,298	7,993	0,057	-0,032
-597,284	182,884	0,035	-0,039
-596,269	-47,537	-0,042	0,015
-595,255	-50,878	0,092	0,032
-594,240	-200,000	0,022	-0,101
-593,225	750,982	0,025	0,050
-592,211	5,653	-0,019	0,010
-591,196	787,475	-0,056	-0,114
-590,182	-200,000	-0,004	0,091
-589,167	-73,608	0,152	0,041
-588,152	-69,937	0,007	-0,002
-587,138	775,008	-0,073	-0,148
-586,123	-200,000	0,007	0,052
-585,109	-200,000	-0,011	-0,039
-584,094	-92,530	0,040	0,008
-583,079	-45,987	-0,042	0,015
-582,065	-19,637	0,091	0,041
-581,050	65,075	0,109	0,082
-580,036	-115,651	-0,094	0,013
-579,021	-70,965	-0,028	0,008
-578,006	103,278	-0,041	-0,035
-576,992	-66,636	0,156	-0,046
-575,977	276,729	0,021	0,027
-574,963	612,238	0,021	0,039
-573,948	-200,000	-0,002	-0,058
-572,934	-66,644	0,041	0,012
-571,919	-200,000	-0,031	-0,154
-570,904	-44,740	-0,144	-0,053
-569,890	729,860	0,014	-0,028
-568,875	129,560	-0,031	-0,029
-567,861	480,814	0,069	0,116
-566,846	-200,000	-0,003	0,081
-565,831	3,298	0,187	0,101
-564,817	-84,848	0,035	-0,008
-563,802	348,455	-0,056	0,082
-562,788	42,273	-0,080	0,054
-561,773	-200,000	-0,029	0,200
-560,758	20,380	-0,096	-0,058
-559,744	38,821	0,038	-0,025
-558,729	800,000	-0,070	-0,146
-557,715	122,848	0,090	-0,083
-556,700	-72,729	-0,119	-0,032
-555,685	-154,326	-0,067	-0,003
-554,671	800,000	0,055	0,176
-553,656	-74,062	0,082	-0,022
-552,642	15,451	-0,096	-0,056
-551,627	391,736	-0,067	-0,104
-550,612	-24,084	-0,092	-0,041
-549,598	-17,419	0,040	0,019
-548,583	-110,365	-0,043	0,007
-547,569	-200,000	-0,013	-0,109
-546,554	-200,000	0,008	0,155
-545,539	-140,621	0,055	-0,004
-544,525	-200,000	0,001	0,024
-543,510	800,000	-0,013	0,030
-542,496	-118,079	-0,143	-0,019
-541,481	-46,289	-0,075	-0,027
-540,466	-106,034	-0,146	0,024
-539,452	-200,000	0,025	0,113
-538,437	111,607	-0,050	0,045
-537,423	463,708	0,064	-0,106
-536,408	800,000	0,021	0,056
-535,393	164,505	0,121	-0,126
-534,379	738,987	-0,059	-0,118
-533,364	-200,000	0,031	-0,116
-532,350	220,115	-0,093	-0,110
-531,335	-121,133	0,144	-0,018
-530,321	305,393	0,080	-0,110
-529,306	-160,308	-0,096	0,004
-528,291	-200,000	-0,016	-0,187
-527,277	-8,589	-0,033	-0,016
-526,262	-113,808	0,143	-0,020
-525,248	152,880	0,065	-0,066
-524,233	238,566	0,060	0,073
-523,218	559,227	-0,022	0,039
-522,204	-200,000	-0,006	0,140
-521,189	-132,988	-0,131	-0,012
-520,175	-86,983	0,096	0,021
-519,160	87,006	-0,088	0,072
-518,145	428,720	-0,048	0,077
-517,131	800,000	0,012	0,032
-516,116	-200,000	0,002	0,133
-515,102	16,921	-0,120	-0,070
-514,087	298,060	-0,049	-0,067
-513,072	-68,215	-0,046	0,013
-512,058	445,776	-0,093	-0,151
-511,043	-200,000	-0,000	-0,062
-510,029	252,331	0,076	0,096
-509,014	-200,000	0,028	0,124
-507,999	-200,000	-0,006	-0,060
-506,985	-200,000	0,016	-0,106
-505,970	-200,000	-0,019	-0,077
-504,956	800,000	0,075	0,212
-503,941	800,000	0,034	0,085
-502,926	60,396	-0,100	0,073
-501,912	-0,177	0,103	0,054
-500,897	-49,974	0,101	0,035
-499,883	-200,000	-0,035	-0,205
-498,868	-200,000	0,004	-0,136
-497,853	486,478	-0,027	0,045
-496,839	-66,533	0,048	-0,014
-495,824	-51,265	0,146	-0,050
-494,810	-200,000	0,030	0,194
-493,795	-144,873	-0,050	-0,003
-492,781	-131,434	0,032	0,003
-491,766	181,204	-0,076	0,083
-490,751	37,694	0,093	-0,061
-489,737	-200,000	-0,008	0,106
-488,722	-95,051	0,067	0,013
-487,708	28,937	0,036	-0,023
-486,693	-200,000	0,011	-0,044
-485,678	-98,336	0,172	0,032
-484,664	-200,000	-0,028	0,117
-483,649	-87,786	0,080	0,018
-482,635	-200,000	-0,012	0,166
-481,620	200,541	-0,025	-0,029
-480,605	-52,874	-0,117	0,039
-479,591	20,655	0,055	-0,033
-478,576	196,306	0,039	-0,044
-477,562	34,482	-0,020	0,013
-476,547	-80,796	0,046	-0,011
-475,532	-49,719	-0,023	0,008
-474,518	475,419	-0,043	-0,071
-473,503	51,991	0,077	0,054
-472,489	-200,000	-0,001	0,078
-471,474	-1,893	0,061	0,031
-470,459	-200,000	-0,003	0,021
-469,445	185,928	-0,159	-0,174
-468,430	285,664	-0,096	-0,128
-467,416	-200,000	0,032	0,229
-466,401	-60,887	-0,142	-0,044
-465,386	229,986	-0,042	0,051
-464,372	-62,105	-0,053	0,016
-463,357	13,221	0,028	0,016
-462,343	51,074	-0,134	-0,093
-461,328	-4,682	-0,127	-0,064
-460,313	205,598	0,102	0,117
-459,299	155,848	0,033	0,034
-458,284	800,000	0,054	0,115
-457,270	800,000	-0,017	-0,048
-456,255	800,000	-0,024	0,076
-455,241	800,000	0,018	-0,037
-454,226	502,709	0,050	-0,085
-453,211	-200,000	0,021	0,081
-452,197	-200,000	-0,008	0,051
-451,182	-61,757	0,167	0,051
-450,168	219,023	-0,064	0,076
-449,153	215,873	0,011	-0,013
-448,138	-200,000	0,001	-0,089
-447,124	-24,060	-0,048	0,021
-446,109	-200,000	-0,013	0,072
-445,095	-39,329	-0,094	-0,036
-444,080	-200,000	0,026	0,101
-443,065	323,464	-0,069	0,097
-442,051	5,933	-0,061	-0,033
-441,036	45,818	-0,058	0,040
-440,022	-77,999	-0,056	-0,014
-439,007	-127,455	0,037	0,004
-437,992	-58,396	-0,060	-0,019
-436,978	-200,000	-0,026	-0,178
-435,963	-20,645	0,093	0,042
-434,949	201,399	0,057	0,065
-433,934	274,241	-0,039	-0,051
-432,919	245,826	0,081	0,100
-431,905	-123,467	0,110	-0,013
-430,890	-20,179	0,119	-0,054
-429,876	-200,000	-0,001	0,060
-428,861	-200,000	0,027	-0,099
-427,846	149,559	-0,026	-0,026
-426,832	-94,604	-0,102	0,020
-425,817	-189,869	0,069	-0,001
-424,803	-120,227	0,023	-0,003
-423,788	-200,000	0,007	0,081
-422,773	372,623	0,039	0,059
-421,759	-200,000	0,010	0,039
-420,744	-64,797	-0,125	0,037
-419,730	202,167	0,076	-0,087
-418,715	800,000	0,030	-0,077
-417,701	-152,890	-0,103	0,005
-416,686	-53,611	0,185	-0,062
-415,671	-10,113	0,059	-0,029
-414,657	15,411	0,135	0,078
-413,642	572,352	-0,011	-0,021
-412,628	20,447	-0,070	0,042
-411,613	275,533	-0,085	-0,111
-410,598	-64,791	-0,019	-0,006
-409,584	800,000	-0,066	-0,149
-408,569	666,398	-0,064	0,122
-407,555	-191,986	0,190	-0,001
-406,540	736,146	0,044	0,087
-405,525	414,445	-0,100	0,158
-404,511	-101,480	-0,085	-0,015
-403,496	-200,000	-0,010	0,041
-402,482	-47,082	-0,061	0,022
-401,467	800,000	-0,053	0,154
-400,452	-135,517	0,114	-0,010
-399,438	-200,000	0,029	-0,137
-398,423	800,000	-0,053	0,164
-397,409	412,592	-0,050	0,078
-396,394	354,885	-0,019	-0,027
-395,379	-184,452	0,072	0,001
-394,365	-200,000	-0,017	0,066
-393,350	-160,168	0,185	-0,007
-392,336	800,000	0,058	0,149
-391,321	247,596	-0,050	-0,062
-390,306	461,694	0,048	-0,079
-389,292	-100,998	-0,120	0,021
-388,277	101,120	0,066	-0,057
-387,263	-68,191	0,015	-0,004
-386,248	103,151	-0,052	-0,045
-385,233	87,418	0,039	0,032
-384,219	11,773	0,101	-0,057
-383,204	-200,000	0,006	-0,040
-382,190	-200,000	0,010	-0,079
-381,175	-109,213	-0,097	0,015
-380,160	800,000	-0,016	-0,041
-379,146	-28,904	0,039	-0,017
-378,131	-137,220	0,119	0,010
-377,117	800,000	-0,031	0,068
-376,102	62,030	-0,106	-0,078
-375,088	800,000	0,071	-0,163
-374,073	-90,652	0,055	-0,012
-373,058	800,000	0,015	-0,046
-372,044	164,061	-0,045	0,047
-371,029	800,000	-0,024	-0,060
-370,015	265,778	-0,101	0,130
-369,000	-200,000	-0,002	-0,097
-367,985	-132,692	0,029	0,003
-366,971	-45,027	0,121	-0,044
-365,956	-94,909	0,031	-0,006
-364,942	539,615	0,067	0,118
-363,927	-108,764	0,021	-0,003
-362,912	-67,640	0,085	-0,024
-361,898	-19,277	0,131	-0,060
-360,883	-200,000	-0,008	-0,123
-359,869	-200,000	-0,041	-0,186
-358,854	227,456	-0,087	-0,104
-357,839	328,204	0,086	-0,121
-356,825	268,651	0,046	0,060
-355,810	-200,000	-0,005	0,164
-354,796	-131,927	-0,084	0,008
-353,781	-111,768	-0,072	-0,011
-352,766	-103,523	-0,205	0,035
-351,752	-23,920	0,120	-0,052
-350,737	-200,000	0,013	0,082
-349,723	-200,000	0,012	0,041
-348,708	-141,347	0,124	-0,009
-347,693	-200,000	0,029	-0,119
-346,679	186,936	-0,044	0,049
-345,664	800,000	0,008	0,018
-344,650	-200,000	-0,018	-0,089
-343,635	-100,943	0,073	-0,013
-342,620	1,069	0,202	-0,106
-341,606	-114,189	0,118	-0,017
-340,591	18,316	-0,110	0,064
-339,577	-52,922	-0,042	0,014
-338,562	-200,000	-0,015	-0,059
-337,548	39,667	-0,053	-0,035
-336,533	-200,000	-0,023	0,109
-335,518	-200,000	0,032	0,156
-334,504	122,016	0,106	-0,097
-333,489	-42,980	0,154	0,057
-332,475	417,575	0,089	0,140
-331,460	116,734	0,026	-0,023
-330,445	116,074	0,024	-0,021
-329,431	-107,194	-0,110	0,018
-328,416	-200,000	-0,013	0,044
-327,402	-200,000	-0,009	0,127
-326,387	800,000	0,006	-0,015
-325,372	-46,000	-0,115	0,041
-324,358	-200,000	-0,016	-0,128
-323,343	-78,679	-0,200	-0,050
-322,329	-60,266	-0,177	-0,055
-321,314	-77,434	0,194	0,049
-320,299	-200,000	-0,026	0,131
-319,285	-44,815	-0,095	0,034
-318,270	-17,937	-0,064	-0,029
-317,256	800,000	-0,022	-0,054
-316,241	159,730	-0,042	-0,043
-315,226	-200,000	-0,038	0,180
-314,212	-200,000	-0,016	0,113
-313,197	-200,000	0,007	-0,103
-312,183	-75,000	-0,058	0,015
-311,168	-112,261	-0,208	-0,030
-310,153	205,153	-0,034	-0,038
-309,139	-200,000	-0,008	-0,034
-308,124	-46,627	0,089	0,032
-307,110	-200,000	-0,010	0,080
-306,095	433,519	0,040	0,064
-305,080	210,909	0,089	0,103
-304,066	-200,000	-0,077	-0,257
-303,051	141,074	0,071	-0,069
-302,037	186,322	-0,067	-0,073
-301,022	161,686	-0,073	0,075
-300,008	-73,440	0,035	-0,009
-298,993	-102,741	0,154	-0,027
-297,978	800,000	-0,016	0,043
-296,964	-8,343	-0,098	-0,048
-295,949	149,233	0,044	-0,044
-294,935	-200,000	0,006	-0,026
-293,920	403,053	-0,082	-0,126
-292,905	10,941	0,049	-0,028
-291,891	127,597	0,097	-0,090
-290,876	-85,522	-0,028	0,006
-289,862	-5,752	-0,043	0,021
-288,847	133,428	-0,109	-0,103
-287,832	0,690	-0,092	0,048
-286,818	187,601	-0,062	0,067
-285,803	128,550	0,132	0,123
-284,789	-36,904	0,127	-0,050
-283,774	289,733	0,055	0,073
-282,759	-9,178	-0,049	0,024
-281,745	209,646	-0,039	-0,045
-280,730	-45,862	-0,098	-0,035
-279,716	800,000	-0,015	0,048
-278,701	-89,914	0,131	-0,028
-277,686	-121,680	-0,041	0,005
-276,672	800,000	0,077	0,177
-275,657	-200,000	-0,007	0,175
-274,643	288,250	0,040	-0,054
-273,628	-200,000	-0,002	0,073
-272,613	295,730	-0,036	0,048
-271,599	-54,284	-0,120	0,040
-270,584	-87,268	0,079	0,017
-269,570	51,385	0,110	-0,076
-268,555	-105,177	-0,202	-0,033
-267,540	-200,000	-0,008	-0,099
-266,526	3,601	-0,080	-0,043
-265,511	302,091	-0,060	-0,082
-264,497	-200,000	-0,030	0,098
-263,482	94,469	0,158	0,131
-262,467	148,290	0,044	0,044
-261,453	184,600	0,102	-0,111
-260,438	-37,340	-0,026	-0,010
-259,424	-77,970	0,162	0,041
-258,409	800,000	-0,052	-0,138
-257,395	191,506	-0,073	-0,080
-256,380	-200,000	-0,011	-0,048
-255,365	367,732	0,060	-0,089
-254,351	57,260	-0,043	-0,031
-253,336	-200,000	0,009	-0,141
-252,322	278,764	-0,122	-0,159
-251,307	131,949	-0,095	-0,090
-250,292	10,299	0,092	0,051
-249,278	492,971	0,092	0,154
-248,263	800,000	0,017	0,044
-247,249	313,267	0,063	-0,087
-246,234	28,749	0,062	-0,038
-245,219	46,139	0,053	-0,036
-244,205	24,846	-0,107	0,065
-243,190	-200,000	-0,023	0,138
-242,176	477,810	0,089	0,148
-241,161	-200,000	0,023	-0,104
-240,146	386,385	-0,048	0,073
-239,132	279,921	-0,127	0,166
-238,117	-200,000	0,006	-0,060
-237,103	666,728	-0,047	-0,090
-236,088	186,843	0,043	0,047
-235,073	-84,039	0,032	0,007
-234,059	-200,000	-0,001	0,022
-233,044	-200,000	0,003	0,123
-232,030	163,620	-0,082	0,084
-231,015	-2,297	-0,108	-0,055
-230,000	-200,000	-0,031	-0,120
-228,986	-45,179	-0,054	0,020
-227,971	-200,000	-0,009	0,070
-226,957	-200,000	0,015	0,062
-225,942	-164,962	0,064	-0,002
-224,927	-200,000	-0,025	0,109
-223,913	254,551	-0,086	-0,108
-222,898	800,000	-0,045	0,099
-221,884	-14,902	-0,047	0,022
-220,869	-200,000	-0,003	-0,047
-219,855	755,661	0,065	-0,128
-218,840	800,000	0,034	0,069
-217,825	559,297	0,058	0,103
-216,811	-200,000	0,014	0,065
-215,796	-102,976	-0,064	-0,011
-214,782	-200,000	-0,006	0,088
-213,767	800,000	0,016	0,048
-212,752	800,000	0,037	0,099
-211,738	74,773	0,064	-0,049
-210,723	-200,000	0,005	0,060
-209,709	-83,609	-0,066	-0,015
-208,694	-20,344	0,047	-0,021
-207,679	-39,074	-0,103	0,039
-206,665	800,000	-0,042	0,134
-205,650	-34,128	-0,033	0,013
-204,636	70,186	0,088	0,066
-203,621	216,868	0,079	0,091
-202,606	15,424	0,058	0,033
-201,592	-200,000	0,033	-0,171
-200,577	-200,000	0,048	-0,201
-199,563	-122,125	0,082	-0,010
-198,548	800,000	0,019	-0,045
-197,533	88,375	0,043	0,034
-196,519	-50,490	0,064	0,022
-195,504	-200,000	0,015	0,145
-194,490	-126,267	-0,080	-0,009
-193,475	-200,000	-0,014	0,073
-192,460	455,853	0,062	-0,100
-191,446	800,000	0,061	0,131
-190,431	-200,000	0,009	-0,049
-189,417	-150,866	0,117	-0,006
-188,402	-200,000	-0,087	0,000
-187,387	-115,131	-0,042	-0,006
-186,373	154,636	-0,047	0,047
-185,358	800,000	-0,052	-0,139
-184,344	-89,672	0,019	-0,004
-183,329	158,271	0,062	0,063
-182,315	-200,000	-0,025	0,122
-181,300	126,244	0,152	0,140
-180,285	-200,000	-0,032	-0,278
-179,271	-151,650	-0,082	-0,004
-178,256	800,000	0,037	-0,084
-177,242	-0,166	0,063	0,033
-176,227	168,816	0,039	-0,041
-175,212	31,902	0,116	-0,073
-174,198	800,000	-0,030	0,068
-173,183	-200,000	-0,112	-0,000
-172,169	75,872	0,094	0,072
-171,154	687,618	-0,038	-0,073
-170,139	-200,000	0,026	0,131
-169,125	181,260	-0,037	0,040
-168,110	-134,821	0,125	0,011
-167,096	-73,028	0,131	-0,035
-166,081	-1,836	-0,062	-0,031
-165,066	135,151	-0,108	-0,102
-164,052	-53,572	0,089	0,030
-163,037	-200,000	0,024	-0,142
-162,023	149,396	0,122	-0,120
-161,008	29,203	-0,078	0,048
-159,993	24,525	0,113	0,068
-158,979	-59,913	-0,134	0,041
-157,964	-42,136	-0,033	0,012
-156,950	6,892	-0,035	-0,019
-155,935	40,625	0,123	0,081
-154,920	-133,102	0,147	0,013
-153,906	-50,548	-0,073	0,025
-152,891	556,376	-0,069	0,121
-151,877	214,732	0,041	-0,047
-150,862	103,821	-0,087	0,074
-149,847	56,851	0,017	0,012
-148,833	-93,422	-0,051	0,010
-147,818	163,260	0,050	0,051
-146,804	386,270	0,034	-0,051
-145,789	800,000	0,041	-0,110
-144,775	200,589	0,092	0,103
-143,760	-41,274	-0,066	0,025
-142,745	-137,326	-0,066	0,005
-141,731	345,527	-0,080	0,114
-140,716	-200,000	0,001	-0,079
-139,702	264,731	0,036	-0,045
-138,687	44,961	-0,105	0,070
-137,672	-26,085	-0,177	-0,076
-136,658	-88,596	-0,086	-0,018
-135,643	567,556	0,049	-0,087
-134,629	430,851	-0,043	0,067
-133,614	-200,000	0,013	0,093
-132,599	-200,000	-0,007	0,102
-131,585	-88,373	0,070	-0,015
-130,570	-200,000	0,009	-0,078
-129,556	800,000	-0,089	0,216
-128,541	-200,000	-0,018	-0,167
-127,526	800,000	-0,020	-0,062
-126,512	326,422	0,020	-0,029
-125,497	183,173	0,031	-0,033
-124,483	215,353	0,065	0,075
-123,468	-200,000	-0,003	-0,015
-122,453	-200,000	0,001	0,051
-121,439	-200,000	0,019	-0,140
-120,424	273,413	-0,114	-0,147
-119,410	-117,599	0,120	0,016
-118,395	-10,546	0,073	-0,035
-117,380	117,959	0,017	-0,015
-116,366	-36,920	-0,069	-0,027
-115,351	-200,000	0,004	-0,152
-114,337	225,925	0,073	-0,087
-113,322	800,000	-0,060	0,151
-112,307	-139,722	-0,189	0,014
-111,293	-3,023	0,164	0,083
-110,278	515,597	0,045	0,077
-109,264	181,600	-0,117	0,125
-108,249	88,798	0,081	0,065
-107,234	499,394	-0,001	0,001
-106,220	-200,000	-0,002	0,105
-105,205	-50,219	-0,004	-0,001
-104,191	85,735	0,106	0,084
-103,176	-200,000	0,019	0,078
-102,162	-200,000	-0,003	0,124
-101,147	-200,000	-0,008	0,063
-100,132	-200,000	-0,015	0,096
-99,118	-105,826	-0,071	-0,012
-98,103	800,000	-0,011	0,036
-97,089	-63,087	0,054	-0,016
-96,074	700,816	0,027	0,053
-95,059	-136,178	0,122	0,010
-94,045	-200,000	0,017	-0,149
-93,030	-200,000	-0,006	-0,038
-92,016	-117,146	-0,066	-0,009
-91,001	304,312	-0,068	0,092
-89,986	356,536	0,058	0,085
-88,972	-16,014	0,013	0,006
-87,957	-200,000	0,023	-0,121
-86,943	18,699	-0,045	0,026
-85,928	-82,632	-0,066	-0,015
-84,913	-200,000	-0,008	0,108
-83,899	118,905	-0,069	0,062
-82,884	800,000	0,052	-0,134
-81,870	-37,212	-0,116	-0,045
-80,855	-200,000	-0,002	-0,010
-79,840	417,968	-0,080	0,125
-78,826	-124,110	-0,143	0,016
-77,811	-200,000	0,010	-0,047
-76,797	-200,000	0,010	-0,098
-75,782	145,750	-0,034	-0,033
-74,767	-200,000	-0,002	0,017
-73,753	-200,000	-0,005	0,070
-72,738	427,257	-0,072	0,112
-71,724	27,676	0,076	-0,046
-70,709	404,156	-0,112	-0,172
-69,694	-200,000	0,027	0,090
-68,680	498,258	0,086	0,144
-67,665	169,408	-0,045	0,047
-66,651	697,532	0,031	0,060
-65,636	-98,289	0,111	-0,020
-64,622	-200,000	0,030	0,124
-63,607	292,233	-0,074	-0,098
-62,592	-7,364	0,049	-0,024
-61,578	434,633	-0,033	0,053
-60,563	42,340	0,056	0,037
-59,549	800,000	-0,072	0,158
-58,534	-135,052	-1,242	-0,107
-57,519	756,578	-0,836	-1,650
-56,505	-200,000	-0,765	-4,325
-55,490	145,462	0,458	-0,446
-54,476	800,000	5,070	11,799
-53,461	-200,000	13,216	252,454
-52,446	-200,000	687,907	2273,942
-51,432	599,762	1623,024	2935,356
-50,417	121,300	1637,311	1479,767
-49,403	73,423	1291,654	980,086
-48,388	38,570	1026,000	662,686
-47,373	24,729	983,316	589,550
-46,359	23,833	973,213	580,527
-45,344	23,033	968,828	575,270
-44,330	22,990	967,424	574,273
-43,315	22,806	965,979	572,794
-42,300	22,887	964,818	572,345
-41,286	22,848	964,068	571,750
-40,271	22,838	963,055	571,095
-39,257	22,780	962,178	570,362
-38,242	22,811	961,079	569,790
-37,227	22,821	960,278	569,325
-36,213	22,810	959,441	568,771
-35,198	22,759	958,709	568,150
-34,184	22,822	958,033	567,930
-33,169	22,752	957,199	567,185
-32,154	22,800	956,375	566,832
-31,140	22,828	955,366	566,302
-30,125	22,839	954,758	565,952
-29,111	22,849	953,741	565,361
-28,096	22,879	952,956	564,969
-27,082	22,885	952,336	564,597
-26,067	22,845	951,411	563,897
-25,052	22,847	950,902	563,581
-24,038	22,855	950,178	563,155
-23,023	22,840	949,522	562,696
-22,009	22,894	948,739	562,382
-20,994	22,863	948,279	561,988
-19,979	22,865	947,615	561,579
-18,965	22,811	947,184	561,128
-17,950	22,840	946,544	560,818
-16,936	22,788	945,763	560,170
-15,921	22,826	944,957	559,791
-14,906	22,688	944,432	559,017
-13,892	22,746	943,775	558,789
-12,877	22,723	943,120	558,308
-11,863	22,695	942,588	557,881
-10,848	22,722	941,937	557,561
-9,833	22,798	941,435	557,482
-8,819	22,802	940,855	557,129
-7,804	22,655	940,189	556,246
-6,790	22,676	939,669	555,983
-5,775	22,730	939,005	555,741
-4,760	22,732	938,335	555,328
-3,746	22,779	937,845	555,163
-2,731	22,651	936,943	554,202
-1,717	22,508	936,378	553,396
-0,702	22,543	935,605	553,026
0,313	22,296	935,116	552,793
1,327	25,556	933,023	561,770
2,342	35,379	797,779	506,545
3,356	33,735	451,952	284,463
4,371	2,187	293,171	153,134
5,386	-2,451	274,033	138,747
6,400	-3,943	268,090	134,346
7,415	-4,494	265,603	132,583
8,429	-4,064	264,294	132,310
9,444	-4,142	263,408	131,783
10,459	-4,159	262,861	131,482
11,473	-4,238	262,386	131,161
12,488	-4,308	261,673	130,730
13,502	-4,480	261,252	130,353
14,517	-4,495	260,832	130,119
15,531	-4,168	260,399	130,185
16,546	-4,167	260,022	129,986
17,561	-4,245	259,858	129,822
18,575	-4,220	259,441	129,625
19,590	-4,319	259,124	129,366
20,604	-4,011	258,843	129,489
21,619	-4,378	258,530	128,994
22,634	-4,470	258,272	128,772
23,648	-4,284	257,833	128,707
24,663	-4,155	257,534	128,661
25,677	-4,472	257,477	128,339
26,692	-4,222	257,151	128,387
27,707	-4,346	256,832	128,106
28,721	-4,151	256,485	128,095
29,736	-4,298	256,197	127,810
30,750	-4,365	256,083	127,682
31,765	-4,457	255,929	127,513
32,780	-4,428	255,521	127,323
33,794	-4,369	255,488	127,348
34,809	-4,319	255,244	127,259
35,823	-4,440	255,023	127,031
36,838	-4,320	254,537	126,882
37,853	-4,371	254,412	126,764
38,867	-4,353	254,255	126,690
39,882	-4,390	253,947	126,494
40,896	-4,473	253,861	126,366
41,911	-4,458	253,523	126,200
42,926	-4,371	253,269	126,139
43,940	-4,465	253,137	125,980
44,955	-4,568	252,914	125,768
45,969	-4,650	252,709	125,583
46,984	-4,782	252,368	125,288
47,999	-4,968	252,072	124,968
49,013	-5,019	251,885	124,820
50,028	-5,004	251,662	124,712
51,042	-5,181	251,379	124,407
52,057	-4,958	251,070	124,436
53,071	-5,127	250,909	124,200
54,086	-5,083	250,783	124,163
55,101	-4,892	250,717	124,285
56,115	-4,723	250,476	124,300
57,130	-4,260	250,266	124,582
58,144	-4,088	250,121	124,647
59,159	-4,084	250,040	124,599
60,174	-4,319	249,837	124,285
61,188	-4,058	249,508	124,334
62,203	-4,146	249,547	124,267
63,217	-4,343	249,306	123,968
64,232	-4,115	248,891	123,945
65,247	-4,100	248,831	123,917
66,261	-4,304	248,673	123,653
67,276	-4,576	248,284	123,217
68,290	-4,499	248,058	123,159
69,305	-4,757	247,823	122,812
70,320	-4,498	247,564	122,893
71,334	-4,532	247,557	122,850
72,349	-4,048	247,356	123,149
73,363	-4,028	247,202	123,079
74,378	-4,079	246,972	122,910
75,393	-4,109	246,889	122,832
76,407	-4,218	246,586	122,579
77,422	-4,274	246,331	122,394
78,436	-4,229	246,291	122,401
79,451	-4,172	245,989	122,287
80,466	-4,327	245,684	121,994
81,480	-4,537	245,444	121,687
82,495	-4,618	245,271	121,523
83,509	-4,459	245,195	121,608
84,524	-4,462	244,918	121,457
85,539	-4,651	244,710	121,184
86,553	-4,743	244,609	121,047
87,568	-4,419	244,256	121,132
88,582	-4,327	244,159	121,151
89,597	-4,551	244,011	120,880
90,611	-4,308	244,018	121,075
91,626	-4,353	243,782	120,909
92,641	-4,295	243,539	120,826
93,655	-4,492	243,417	120,591
94,670	-4,410	243,187	120,535
95,684	-4,488	242,912	120,323
96,699	-4,432	242,772	120,290
97,714	-4,620	242,626	120,050
98,728	-4,475	242,246	119,972
99,743	-4,755	242,145	119,679
100,757	-4,599	241,881	119,667
101,772	-4,526	241,728	119,641
102,787	-4,603	241,764	119,584
103,801	-4,581	241,515	119,468
104,816	-4,347	241,365	119,577
105,830	-4,344	241,352	119,562
106,845	-4,419	241,101	119,366
107,860	-4,437	240,914	119,247
108,874	-4,569	240,715	119,030
109,889	-4,547	240,503	118,933
110,903	-4,481	240,286	118,869
111,918	-4,543	240,006	118,669
112,933	-4,536	239,900	118,611
113,947	-4,382	239,727	118,642
114,962	-4,327	239,659	118,642
115,976	-4,409	239,438	118,455
116,991	-4,355	239,306	118,424
118,006	-4,376	238,971	118,230
119,020	-4,344	238,895	118,208
120,035	-4,365	238,855	118,160
121,049	-4,281	238,686	118,135
122,064	-4,259	238,466	118,034
123,079	-4,307	238,348	117,925
124,093	-4,502	238,163	117,665
125,108	-4,616	237,793	117,378
126,122	-4,758	237,656	117,185
127,137	-4,896	237,478	116,976
128,151	-4,674	237,270	117,042
129,166	-4,789	237,182	116,895
130,181	-4,550	236,864	116,921
131,195	-4,633	236,732	116,779
132,210	-4,656	236,820	116,793
133,224	-4,304	236,444	116,881
134,239	-4,478	236,415	116,716
135,254	-4,472	236,168	116,588
136,268	-4,476	235,915	116,450
137,283	-4,806	235,821	116,127
138,297	-4,811	235,449	115,930
139,312	-4,832	235,386	115,872
140,327	-4,527	235,331	116,079
141,341	-4,134	235,208	116,324
142,356	-4,110	235,175	116,316
143,370	-4,159	234,906	116,134
144,385	-4,168	234,803	116,066
145,400	-3,869	234,472	116,130
146,414	-4,005	234,456	116,003
147,429	-4,021	234,205	115,856
148,443	-4,221	234,029	115,599
149,458	-3,942	233,937	115,766
150,473	-4,078	233,810	115,585
151,487	-4,153	233,602	115,412
152,502	-4,163	233,455	115,321
153,516	-4,052	233,282	115,313
154,531	-4,154	233,108	115,136
155,546	-3,968	232,854	115,148
156,560	-4,192	232,751	114,908
157,575	-4,392	232,535	114,633
158,589	-4,457	232,332	114,471
159,604	-4,134	232,216	114,659
160,619	-3,971	232,056	114,699
161,633	-3,911	231,910	114,664
162,648	-3,920	231,793	114,589
163,662	-4,238	231,657	114,261
164,677	-4,259	231,376	114,096
165,692	-4,072	231,332	114,211
166,706	-3,820	231,246	114,357
167,721	-3,961	231,083	114,155
168,735	-3,735	230,819	114,191
169,750	-4,026	230,760	113,924
170,764	-4,156	230,595	113,731
171,779	-4,018	230,438	113,751
172,794	-3,992	230,381	113,733
173,808	-4,129	230,241	113,547
174,823	-4,528	229,743	112,979
175,837	-4,692	229,623	112,782
176,852	-4,321	229,581	113,041
177,867	-3,972	229,430	113,228
178,881	-4,176	229,479	113,084
179,896	-4,176	229,267	112,969
180,910	-4,005	229,094	113,007
181,925	-4,087	229,009	112,891
182,940	-3,968	228,682	112,813
183,954	-3,808	228,715	112,943
184,969	-3,879	228,499	112,771
185,983	-3,671	228,302	112,825
186,998	-3,783	228,140	112,648
188,013	-3,858	228,038	112,530
189,027	-3,753	227,694	112,431
190,042	-4,100	227,758	112,184
191,056	-3,820	227,583	112,304
192,071	-3,871	227,327	112,129
193,086	-3,916	227,159	112,001
194,100	-3,807	227,080	112,037
195,115	-4,105	226,544	111,533
196,129	-5,103	226,318	110,644
197,144	-2,133	227,343	113,427
198,159	2,041	228,542	117,246
199,173	3,852	229,028	118,886
200,188	4,236	228,711	119,008
201,202	4,069	228,729	118,877
202,217	4,298	228,440	118,892
203,232	4,668	228,428	119,161
204,246	4,764	228,269	119,141
205,261	4,585	228,235	118,975
206,275	5,038	228,118	119,252
207,290	5,088	227,993	119,214
208,304	5,027	227,706	119,007
209,319	4,774	227,660	118,778
210,334	4,866	227,416	118,711
211,348	4,717	227,157	118,451
212,363	4,259	226,938	117,975
213,377	4,068	226,760	117,727
214,392	3,835	226,580	117,445
215,407	4,190	226,443	117,634
216,421	4,202	226,314	117,566
217,436	4,147	226,107	117,406
218,450	3,791	225,978	117,057
219,465	3,868	225,760	116,992
220,480	3,720	225,755	116,867
221,494	3,793	225,504	116,782
222,509	3,967	225,393	116,847
223,523	4,124	225,294	116,903
224,538	3,902	225,076	116,612
225,553	4,072	225,001	116,692
226,567	4,271	224,872	116,765
227,582	4,464	224,852	116,891
228,596	4,425	224,584	116,711
229,611	4,101	224,438	116,379
230,626	3,739	224,229	115,988
231,640	4,069	224,044	116,131
232,655	4,014	224,055	116,084
233,669	4,528	224,073	116,471
234,684	4,728	223,874	116,508
235,699	4,485	223,668	116,208
236,713	4,276	223,410	115,906
237,728	3,955	223,305	115,600
238,742	4,175	222,911	115,551
239,757	3,957	222,810	115,325
240,772	4,152	222,610	115,357
241,786	3,756	222,676	115,084
242,801	4,141	222,678	115,363
243,815	4,280	222,507	115,368
244,830	4,234	222,446	115,292
245,844	4,178	222,007	115,013
246,859	4,342	221,901	115,070
247,874	4,177	221,943	114,958
248,888	4,502	221,618	115,021
249,903	4,159	221,574	114,733
250,917	4,104	221,369	114,576
251,932	3,928	221,307	114,402
252,947	3,985	221,066	114,310
253,961	3,910	220,915	114,166
254,976	4,200	220,757	114,290
255,990	4,308	220,766	114,364
257,005	4,506	220,453	114,338
258,020	4,152	220,569	114,126
259,034	4,482	220,456	114,301
260,049	4,356	220,264	114,098
261,063	4,220	220,003	113,853
262,078	4,414	219,887	113,926
263,093	4,255	219,638	113,670
264,107	4,302	219,671	113,711
265,122	4,563	219,456	113,782
266,136	4,483	219,450	113,710
267,151	4,610	219,112	113,618
268,166	4,231	218,945	113,243
269,180	3,832	218,655	112,790
270,195	3,809	218,681	112,777
271,209	3,906	218,486	112,736
272,224	3,859	218,379	112,637
273,239	4,269	218,291	112,882
274,253	3,973	218,027	112,519
275,268	3,995	217,784	112,400
276,282	3,590	217,763	112,082
277,297	3,797	217,532	112,105
278,312	3,785	217,415	112,026
279,326	4,328	217,343	112,374
280,341	4,005	217,316	112,115
281,355	4,040	217,202	112,072
282,370	4,124	217,010	112,024
283,384	3,749	216,779	111,622
284,399	3,770	216,613	111,542
285,414	3,739	216,352	111,375
286,428	4,039	216,467	111,642
287,443	4,371	216,345	111,810
288,457	4,244	216,166	111,615
289,472	4,165	215,940	111,432
290,487	3,647	215,771	110,960
291,501	3,688	215,465	110,822
292,516	3,744	215,455	110,848
293,530	3,874	215,353	110,879
294,545	3,772	215,339	110,788
295,560	3,975	214,889	110,694
296,574	4,125	214,943	110,819
297,589	3,914	214,929	110,650
298,603	4,122	214,723	110,684
299,618	4,038	214,666	110,584
300,633	3,951	214,484	110,418
301,647	4,486	214,381	110,739
302,662	4,278	214,232	110,503
303,676	4,406	214,073	110,503
304,691	4,060	213,966	110,190
305,706	4,490	213,802	110,404
306,720	4,188	213,838	110,196
307,735	4,178	213,651	110,083
308,749	3,958	213,380	109,777
309,764	4,298	213,217	109,925
310,779	4,340	213,099	109,884
311,793	4,089	213,032	109,661
312,808	4,101	212,848	109,565
313,822	4,156	212,649	109,492
314,837	3,846	212,694	109,285
315,852	3,785	212,486	109,125
316,866	4,165	212,256	109,267
317,881	4,371	212,202	109,376
318,895	4,139	212,090	109,144
319,910	4,153	211,811	109,000
320,925	3,668	211,673	108,577
321,939	3,459	211,541	108,352
322,954	3,867	211,399	108,557
323,968	3,981	211,309	108,582
324,983	4,125	211,205	108,620
325,997	4,270	211,113	108,665
327,012	4,274	210,949	108,574
328,027	4,303	210,802	108,509
329,041	4,273	210,805	108,480
330,056	4,439	210,834	108,602
331,070	4,179	210,458	108,216
332,085	3,936	210,164	107,885
333,100	3,904	210,127	107,833
334,114	4,095	210,045	107,915
335,129	4,116	209,780	107,785
336,143	3,785	209,820	107,563
337,158	4,032	209,600	107,614
338,173	4,151	209,328	107,548
339,187	3,924	209,324	107,378
340,202	3,676	209,128	107,095
341,216	3,651	208,916	106,960
342,231	3,746	208,873	106,994
343,246	3,861	208,696	106,974
344,260	3,834	208,624	106,908
345,275	3,815	208,526	106,836
346,289	4,195	208,426	107,039
347,304	4,253	208,371	107,041
348,319	4,098	208,153	106,812
349,333	4,071	207,963	106,686
350,348	4,190	207,836	106,694
351,362	4,284	207,864	106,764
352,377	4,384	207,665	106,722
353,392	4,086	207,469	106,405
354,406	4,058	207,450	106,367
355,421	193,899	1344,031	1432,684
356,435	154,685	1482,621	1432,807
