DTS Sentinel unit serial number:	SN410029Multiplexer serial number:	ORYXHardware model number:	OX2-SRSoftware version number:	ORYX F/W v4,00 Oryx Data Collector v3.7.2.0data status	okinstallation	B6 Nyhavnadifferential loss correction	single-endedforward channel	channel 2reverse channel	N/Adate	2023/12/09time	22:45:08forward acquisition time	300,00reverse acquisition time	0,00gamma	499,1914k internal	0,3127k external	0,3127temperature offset calibration	1,0000default loss term (dB/km)	0,3820temperature slope calibration	1,0000multiplexer offset coefficient	1,0000multiplexer slope coefficient	1,0000fibre end	0,00T internal ref (°C)	21,68T ext. ref 1 (°C)	5,42T ext. ref 2 (°C)	5,42length (m)	temperature (°C)	Stokes	anti-Stokes-744,400	-11,427	0,106	-0,052
-743,385	-15,140	-0,322	0,153
-742,371	-162,439	0,162	-0,006
-741,356	800,000	-0,075	0,240
-740,342	-200,000	-0,026	-0,110
-739,327	189,644	-0,226	0,253
-738,312	-200,000	0,040	0,132
-737,298	-100,933	-0,381	0,069
-736,283	-34,208	0,071	-0,029
-735,269	54,432	-0,169	0,121
-734,254	289,233	0,133	0,180
-733,239	-200,000	-0,515	0,001
-732,225	3,809	0,093	0,050
-731,210	98,631	0,044	0,038
-730,196	-200,000	0,017	0,149
-729,181	800,000	0,058	0,164
-728,167	-96,837	-0,130	-0,025
-727,152	-200,000	0,010	0,103
-726,137	800,000	0,026	0,059
-725,123	37,026	-0,073	0,048
-724,108	285,706	-0,050	-0,067
-723,094	-200,000	-0,016	-0,112
-722,079	-37,923	-0,141	-0,055
-721,064	-166,581	-0,108	-0,003
-720,050	1,816	-0,024	0,013
-719,035	-194,272	0,030	0,000
-718,021	-82,761	0,161	-0,038
-717,006	-200,000	-0,024	-0,219
-715,991	-200,000	0,003	-0,179
-714,977	800,000	-0,045	-0,103
-713,962	-200,000	0,005	-0,020
-712,948	-128,326	-0,159	0,017
-711,933	170,683	0,046	-0,049
-710,918	192,123	-0,074	-0,083
-709,904	213,836	-0,051	-0,060
-708,889	210,988	-0,089	-0,104
-707,875	96,601	0,066	-0,056
-706,860	116,259	0,026	0,023
-705,845	45,427	-0,028	-0,019
-704,831	90,327	0,046	0,038
-703,816	-200,000	-0,013	0,063
-702,802	-200,000	0,022	-0,108
-701,787	99,080	-0,061	-0,052
-700,772	11,178	-0,048	0,027
-699,758	-200,000	0,020	-0,107
-698,743	624,269	0,044	0,082
-697,729	66,610	-0,089	-0,067
-696,714	800,000	0,035	0,078
-695,699	-200,000	0,032	0,124
-694,685	51,844	0,039	-0,027
-693,670	647,260	0,035	-0,067
-692,656	-200,000	-0,038	-0,141
-691,641	26,692	0,080	0,050
-690,627	142,044	-0,058	0,057
-689,612	-95,313	-0,130	0,026
-688,597	800,000	-0,051	-0,140
-687,583	800,000	-0,086	-0,203
-686,568	554,719	0,033	0,059
-685,554	-122,060	-0,127	-0,015
-684,539	92,645	0,067	0,056
-683,524	-140,375	0,060	-0,005
-682,510	-200,000	0,007	-0,101
-681,495	-200,000	-0,017	-0,071
-680,481	-32,267	-0,043	-0,018
-679,466	61,645	-0,171	-0,126
-678,451	-103,122	0,034	0,006
-677,437	-200,000	0,011	0,074
-676,422	-48,366	-0,074	-0,026
-675,408	100,026	-0,089	-0,076
-674,393	573,728	-0,019	-0,035
-673,378	-8,237	0,096	-0,048
-672,364	-110,032	-0,149	-0,023
-671,349	572,214	-0,068	-0,123
-670,335	-100,955	-0,101	-0,018
-669,320	183,695	0,030	0,033
-668,305	361,294	0,092	0,137
-667,291	105,426	0,089	0,078
-666,276	-135,774	0,104	0,009
-665,262	800,000	0,025	-0,081
-664,247	285,924	-0,103	-0,138
-663,232	34,381	0,127	-0,082
-662,218	-98,579	-0,124	-0,023
-661,203	-200,000	0,021	-0,071
-660,189	-121,677	-0,150	-0,018
-659,174	-34,158	-0,097	-0,039
-658,159	-200,000	0,050	-0,171
-657,145	37,681	0,040	-0,026
-656,130	-200,000	0,010	0,053
-655,116	362,407	0,092	0,138
-654,101	800,000	-0,029	-0,091
-653,086	284,034	-0,097	-0,129
-652,072	142,297	-0,064	-0,063
-651,057	-102,019	0,063	0,011
-650,043	84,409	-0,090	-0,073
-649,028	-200,000	0,037	-0,134
-648,014	800,000	0,024	-0,066
-646,999	-153,487	0,076	0,004
-645,984	-200,000	-0,009	-0,105
-644,970	-200,000	0,034	-0,212
-643,955	-200,000	0,026	-0,205
-642,941	-200,000	-0,007	-0,102
-641,926	-103,306	-0,124	0,022
-640,911	-200,000	0,010	-0,098
-639,897	-3,705	-0,060	0,031
-638,882	-123,923	0,019	0,002
-637,868	-91,341	-0,085	0,018
-636,853	120,857	-0,167	-0,154
-635,838	-200,000	-0,035	-0,130
-634,824	-121,354	-0,082	0,010
-633,809	-103,528	0,061	0,011
-632,795	800,000	-0,019	-0,057
-631,780	125,123	0,066	0,062
-630,765	325,721	0,032	0,045
-629,751	-200,000	0,007	-0,043
-628,736	-200,000	-0,059	0,197
-627,722	-3,479	-0,041	-0,021
-626,707	-200,000	-0,019	0,125
-625,692	-68,892	-0,054	-0,015
-624,678	-200,000	0,006	0,025
-623,663	25,965	0,045	0,028
-622,649	133,279	0,092	-0,088
-621,634	-104,274	-0,185	0,031
-620,619	-39,761	0,082	0,032
-619,605	-200,000	0,001	-0,048
-618,590	-200,000	0,016	0,064
-617,576	-147,656	0,054	0,003
-616,561	-200,000	0,014	0,049
-615,546	171,226	-0,105	-0,112
-614,532	51,113	-0,154	-0,108
-613,517	-80,436	0,030	-0,007
-612,503	-200,000	0,006	0,074
-611,488	126,741	-0,084	0,078
-610,474	387,169	0,064	0,098
-609,459	-200,000	-0,008	0,042
-608,444	-200,000	-0,009	-0,145
-607,430	800,000	-0,060	-0,141
-606,415	468,995	-0,011	0,019
-605,401	-134,428	-0,057	0,005
-604,386	5,602	0,093	0,051
-603,371	-200,000	-0,015	0,051
-602,357	-200,000	0,008	-0,138
-601,342	676,793	-0,067	0,130
-600,328	100,394	-0,028	0,024
-599,313	66,492	-0,045	-0,034
-598,298	-200,000	0,010	0,067
-597,284	800,000	-0,044	0,136
-596,269	356,155	0,075	0,112
-595,255	-17,559	-0,028	0,013
-594,240	-200,000	-0,006	-0,149
-593,225	-200,000	-0,005	0,024
-592,211	-118,291	-0,059	0,008
-591,196	360,789	0,035	-0,053
-590,182	372,837	-0,078	0,118
-589,167	48,667	-0,046	0,032
-588,152	-135,742	0,055	-0,005
-587,138	255,988	0,078	0,099
-586,123	217,752	-0,144	-0,170
-585,109	-200,000	-0,005	0,070
-584,094	-200,000	-0,047	-0,193
-583,079	523,381	0,049	-0,085
-582,065	800,000	0,031	0,079
-581,050	-200,000	-0,015	0,089
-580,036	-117,139	0,099	0,013
-579,021	225,739	-0,049	0,059
-578,006	-114,517	-0,051	0,007
-576,992	324,685	0,055	-0,078
-575,977	-67,857	-0,006	-0,002
-574,963	-78,006	0,034	-0,009
-573,948	285,067	0,065	0,086
-572,934	-44,990	-0,078	-0,028
-571,919	-97,507	0,071	0,014
-570,904	-59,152	-0,057	0,018
-569,890	652,453	-0,034	-0,065
-568,875	-200,000	0,006	-0,086
-567,861	-200,000	0,010	0,055
-566,846	-175,767	-0,075	-0,001
-565,831	-125,458	-0,052	0,006
-564,817	108,058	0,099	-0,087
-563,802	-200,000	-0,024	-0,096
-562,788	559,531	0,051	-0,091
-561,773	-200,000	0,018	0,078
-560,758	15,715	0,103	0,059
-559,744	104,094	0,118	0,103
-558,729	-20,506	-0,034	0,015
-557,715	-58,249	-0,063	0,020
-556,700	203,852	-0,096	-0,110
-555,685	800,000	-0,015	-0,039
-554,671	800,000	-0,045	0,092
-553,656	-71,340	0,146	0,040
-552,642	800,000	-0,022	0,046
-551,627	800,000	-0,021	0,045
-550,612	800,000	0,011	-0,031
-549,598	-200,000	-0,042	-0,155
-548,583	-85,628	-0,048	-0,011
-547,569	-200,000	-0,006	0,029
-546,554	42,835	0,109	0,073
-545,539	7,643	0,022	-0,012
-544,525	-98,758	-0,103	0,019
-543,510	-199,279	-0,066	-0,000
-542,496	-138,456	0,060	-0,005
-541,481	-200,000	0,023	-0,080
-540,466	16,415	0,153	-0,089
-539,452	638,518	-0,077	-0,146
-538,437	101,694	0,040	-0,034
-537,423	9,063	-0,106	-0,059
-536,408	800,000	-0,022	-0,049
-535,393	-200,000	0,006	0,033
-534,379	-200,000	-0,024	-0,089
-533,364	-200,000	0,026	0,124
-532,350	-178,939	0,130	0,002
-531,335	230,874	0,033	0,040
-530,321	94,792	-0,070	0,058
-529,306	-200,000	-0,005	-0,126
-528,291	-141,823	-0,194	0,014
-527,277	800,000	0,028	0,076
-526,262	234,462	0,071	-0,087
-525,248	-200,000	-0,006	-0,073
-524,233	800,000	0,007	0,018
-523,218	-200,000	0,012	0,054
-522,204	411,362	-0,008	0,013
-521,189	25,644	0,096	0,059
-520,175	401,858	-0,036	0,055
-519,160	59,926	0,090	-0,065
-518,145	51,154	0,122	-0,085
-517,131	256,643	-0,070	0,088
-516,116	800,000	0,030	0,089
-515,102	57,195	-0,068	0,049
-514,087	-20,584	-0,125	0,057
-513,072	37,135	-0,078	-0,051
-512,058	800,000	-0,025	-0,057
-511,043	72,238	0,133	0,102
-510,029	135,640	0,047	0,045
-509,014	399,446	0,142	0,220
-507,999	-28,369	0,146	0,062
-506,985	426,430	-0,072	0,114
-505,970	800,000	0,031	-0,092
-504,956	-29,617	-0,062	-0,026
-503,941	67,083	0,066	-0,050
-502,926	-200,000	-0,030	-0,120
-501,912	-185,209	0,100	-0,001
-500,897	133,888	0,050	-0,048
-499,883	800,000	0,041	-0,085
-498,868	800,000	0,062	-0,146
-497,853	39,534	-0,160	-0,106
-496,839	800,000	0,043	-0,110
-495,824	-67,894	0,104	-0,030
-494,810	-85,544	0,051	-0,012
-493,795	18,027	-0,107	0,063
-492,781	4,813	-0,110	-0,059
-491,766	182,700	-0,065	0,071
-490,751	-100,613	-0,157	-0,028
-489,737	221,013	0,076	0,090
-488,722	-117,153	0,036	-0,005
-487,708	-142,874	0,070	0,005
-486,693	800,000	0,021	0,062
-485,678	190,070	-0,087	0,096
-484,664	404,305	-0,055	0,086
-483,649	-157,894	-0,090	0,004
-482,635	23,743	-0,038	0,023
-481,620	800,000	0,036	0,076
-480,605	-22,372	0,125	0,056
-479,591	-200,000	-0,014	-0,085
-478,576	-113,152	-0,170	0,024
-477,562	516,407	0,070	0,121
-476,547	-8,856	-0,103	-0,051
-475,532	-35,686	-0,056	-0,022
-474,518	-2,638	-0,177	0,091
-473,503	242,065	0,081	0,099
-472,489	274,195	0,048	0,062
-471,474	-200,000	-0,009	0,091
-470,459	135,766	0,053	-0,051
-469,445	555,471	-0,076	-0,136
-468,430	162,387	0,095	0,098
-467,416	530,567	0,053	-0,093
-466,401	-200,000	-0,009	0,042
-465,386	-83,974	-0,061	-0,014
-464,372	-35,024	0,095	-0,038
-463,357	62,730	0,073	0,054
-462,343	193,084	-0,080	-0,089
-461,328	-92,527	0,078	-0,016
-460,313	-200,000	0,014	-0,048
-459,299	-200,000	-0,002	0,043
-458,284	-45,966	0,088	0,032
-457,270	16,420	0,118	0,068
-456,255	26,724	0,009	0,005
-455,241	17,494	-0,081	-0,047
-454,226	212,652	0,030	0,035
-453,211	-173,730	-0,218	-0,005
-452,197	172,381	0,132	0,140
-451,182	-114,763	0,115	0,016
-450,168	-200,000	-0,001	-0,109
-449,153	350,719	-0,045	0,066
-448,138	-200,000	-0,019	0,105
-447,124	669,537	0,064	-0,122
-446,109	-200,000	-0,014	0,074
-445,095	177,596	0,142	0,153
-444,080	256,212	-0,078	0,099
-443,065	-108,973	0,013	-0,002
-442,051	-200,000	0,006	-0,091
-441,036	-126,306	-0,099	-0,011
-440,022	459,383	0,044	0,072
-439,007	800,000	-0,003	0,010
-437,992	800,000	-0,001	-0,004
-436,978	-200,000	-0,006	-0,045
-435,963	169,378	-0,118	0,124
-434,949	199,331	-0,079	0,089
-433,934	-200,000	-0,004	-0,159
-432,919	-143,826	0,059	0,004
-431,905	507,726	-0,027	-0,047
-430,890	-169,821	0,065	0,002
-429,876	800,000	0,026	0,055
-428,861	800,000	0,037	0,080
-427,846	-200,000	0,018	-0,119
-426,832	303,937	-0,043	0,058
-425,817	800,000	-0,047	0,133
-424,803	-200,000	0,003	0,018
-423,788	-47,028	-0,186	0,066
-422,773	-54,959	0,046	0,015
-421,759	800,000	-0,017	0,042
-420,744	-200,000	0,000	0,081
-419,730	611,387	-0,047	-0,087
-418,715	-200,000	0,016	-0,261
-417,701	28,852	0,085	0,053
-416,686	228,315	0,030	-0,036
-415,671	302,658	0,090	0,123
-414,657	243,704	-0,036	-0,044
-413,642	-111,364	0,016	0,002
-412,628	173,479	-0,045	0,048
-411,613	80,390	-0,074	-0,058
-410,598	-166,887	0,079	0,002
-409,584	-200,000	0,043	0,192
-408,569	198,796	0,023	0,026
-407,555	170,687	0,131	-0,138
-406,540	-150,319	0,105	-0,006
-405,525	-200,000	-0,008	0,072
-404,511	-65,653	0,052	-0,015
-403,496	800,000	-0,029	-0,065
-402,482	392,560	0,048	0,074
-401,467	-200,000	-0,000	0,023
-400,452	537,347	-0,071	0,124
-399,438	216,282	-0,024	0,028
-398,423	-200,000	-0,007	0,071
-397,409	-200,000	0,000	-0,102
-396,394	800,000	0,021	0,059
-395,379	-200,000	0,016	0,105
-394,365	162,078	0,093	-0,095
-393,350	36,118	0,116	-0,075
-392,336	-200,000	-0,011	0,061
-391,321	188,055	0,053	0,058
-390,306	-97,700	0,048	-0,009
-389,292	-200,000	0,029	-0,142
-388,277	-200,000	0,021	-0,137
-387,263	-70,048	0,102	-0,028
-386,248	800,000	0,040	0,088
-385,233	-86,243	0,050	-0,011
-384,219	-200,000	-0,008	-0,119
-383,204	340,135	-0,025	-0,036
-382,190	800,000	0,041	-0,125
-381,175	-66,798	-0,017	0,005
-380,160	-131,432	-0,086	-0,008
-379,146	17,595	-0,015	0,009
-378,131	-200,000	0,019	0,106
-377,117	-66,952	-0,146	-0,042
-376,102	-17,401	0,041	-0,019
-375,088	-66,308	0,036	-0,010
-374,073	-80,013	-0,085	0,021
-373,058	-11,407	0,087	-0,042
-372,044	730,848	-0,026	-0,051
-371,029	-200,000	-0,007	0,090
-370,015	506,429	0,107	0,183
-369,000	800,000	-0,010	-0,020
-367,985	-200,000	0,026	0,131
-366,971	-59,671	0,033	0,010
-365,956	197,238	0,055	-0,062
-364,942	-200,000	0,013	0,080
-363,927	144,383	-0,095	-0,093
-362,912	318,973	0,064	-0,090
-361,898	38,419	0,054	-0,035
-360,883	-200,000	-0,038	-0,158
-359,869	288,895	0,012	0,016
-358,854	4,293	-0,068	-0,036
-357,839	194,827	0,088	0,098
-356,825	329,520	0,042	-0,059
-355,810	-26,605	-0,069	-0,029
-354,796	1,198	0,081	0,043
-353,781	164,922	-0,118	-0,122
-352,766	295,831	-0,090	-0,121
-351,752	247,528	0,062	0,077
-350,737	574,167	-0,049	-0,089
-349,723	-200,000	-0,024	-0,128
-348,708	-42,539	0,113	-0,042
-347,693	171,598	-0,014	-0,015
-346,679	-41,800	-0,091	-0,034
-345,664	-180,608	-0,144	0,002
-344,650	-140,585	0,135	0,010
-343,635	-17,296	0,071	-0,033
-342,620	800,000	0,018	0,039
-341,606	29,006	0,072	-0,045
-340,591	171,805	-0,067	-0,071
-339,577	-200,000	-0,005	-0,154
-338,562	800,000	-0,038	0,098
-337,548	-14,717	0,140	0,065
-336,533	-200,000	0,023	-0,178
-335,518	-200,000	0,024	-0,127
-334,504	-18,030	-0,086	-0,039
-333,489	-200,000	-0,004	-0,029
-332,475	-78,494	0,174	-0,043
-331,460	-37,960	-0,062	-0,024
-330,445	150,572	-0,056	0,056
-329,431	-120,254	0,120	0,015
-328,416	85,176	-0,041	0,033
-327,402	-47,819	0,150	-0,053
-326,387	-119,383	0,052	0,007
-325,372	-200,000	0,003	0,030
-324,358	94,052	0,072	-0,060
-323,343	157,237	-0,034	0,035
-322,329	800,000	0,033	-0,075
-321,314	343,732	0,022	0,031
-320,299	800,000	0,009	0,028
-319,285	24,778	-0,026	-0,016
-318,270	800,000	-0,014	0,029
-317,256	395,925	-0,066	0,102
-316,241	392,620	-0,032	-0,048
-315,226	242,977	0,100	-0,123
-314,212	-200,000	0,006	-0,021
-313,197	-107,317	-0,173	-0,028
-312,183	800,000	-0,006	-0,013
-311,168	479,578	-0,071	-0,118
-310,153	230,104	-0,072	-0,086
-309,139	178,208	0,021	-0,023
-308,124	151,636	-0,061	0,060
-307,110	-72,472	0,213	0,057
-306,095	290,666	-0,110	-0,147
-305,080	-200,000	0,022	-0,176
-304,066	-106,884	0,029	0,005
-303,051	185,436	-0,045	0,049
-302,037	-79,133	0,132	-0,033
-301,022	800,000	-0,011	0,033
-300,008	-147,737	0,044	-0,003
-298,993	-200,000	-0,005	0,122
-297,978	13,017	0,027	-0,015
-296,964	62,219	-0,022	0,016
-295,949	-200,000	0,012	-0,116
-294,935	731,330	-0,055	0,108
-293,920	-200,000	0,003	0,093
-292,905	66,155	-0,069	0,051
-291,891	58,778	-0,061	-0,044
-290,876	72,646	0,033	-0,025
-289,862	227,398	0,080	0,095
-288,847	91,813	-0,080	-0,066
-287,832	-150,597	-0,142	-0,008
-286,818	800,000	0,014	0,041
-285,803	-172,204	-0,081	-0,002
-284,789	-200,000	-0,025	0,113
-283,774	618,662	0,015	-0,028
-282,759	-104,711	-0,072	-0,012
-281,745	-35,038	-0,108	0,043
-280,730	194,997	-0,059	-0,066
-279,716	359,213	-0,073	-0,107
-278,701	329,655	0,003	-0,004
-277,686	-200,000	-0,010	0,190
-276,672	3,293	0,032	-0,017
-275,657	-36,560	0,067	0,026
-274,643	-49,517	0,089	0,031
-273,628	-76,465	0,001	-0,000
-272,613	38,813	-0,093	-0,060
-271,599	131,144	0,023	-0,021
-270,584	-200,000	-0,018	0,136
-269,570	800,000	0,059	0,163
-268,555	-200,000	-0,012	0,073
-267,540	-106,216	-0,132	0,021
-266,526	67,809	0,057	0,043
-265,511	-200,000	-0,006	0,020
-264,497	-153,242	0,134	-0,007
-263,482	-59,084	-0,174	-0,054
-262,467	800,000	-0,036	0,115
-261,453	-200,000	-0,013	0,068
-260,438	800,000	0,045	0,131
-259,424	-121,079	0,077	-0,009
-258,409	8,969	0,223	-0,122
-257,395	-145,432	0,079	-0,005
-256,380	215,709	-0,072	-0,084
-255,365	-144,083	0,152	0,010
-254,351	127,510	-0,055	0,051
-253,336	-200,000	0,002	0,069
-252,322	-200,000	-0,150	0,000
-251,307	148,053	0,112	-0,110
-250,292	-200,000	0,007	-0,077
-249,278	157,132	0,016	0,016
-248,263	-200,000	-0,015	-0,090
-247,249	498,207	-0,074	0,125
-246,234	-200,000	0,008	-0,026
-245,219	190,920	-0,120	-0,132
-244,205	253,549	-0,028	0,035
-243,190	322,281	-0,010	0,014
-242,176	781,870	0,010	-0,021
-241,161	-172,788	0,157	-0,003
-240,146	-200,000	-0,016	0,080
-239,132	411,463	-0,082	0,127
-238,117	-19,797	0,112	-0,050
-237,103	177,780	-0,087	-0,092
-236,088	-200,000	0,004	0,079
-235,073	-55,333	0,129	-0,042
-234,059	50,530	0,085	-0,059
-233,044	524,830	0,016	-0,028
-232,030	152,762	-0,085	0,085
-231,015	257,664	-0,037	-0,046
-230,000	-200,000	0,012	-0,063
-228,986	35,957	0,066	-0,042
-227,971	-200,000	0,013	-0,059
-226,957	-36,038	0,053	-0,021
-225,942	-200,000	-0,002	0,016
-224,927	-18,407	-0,201	-0,091
-223,913	301,114	-0,046	0,063
-222,898	-200,000	-0,014	-0,090
-221,884	681,053	-0,036	-0,068
-220,869	-200,000	0,018	0,059
-219,855	-11,426	-0,080	-0,038
-218,840	800,000	0,014	0,046
-217,825	800,000	0,014	0,035
-216,811	-200,000	-0,004	-0,076
-215,796	-200,000	-0,015	-0,108
-214,782	225,855	0,077	0,091
-213,767	-149,833	0,168	0,009
-212,752	-200,000	0,052	0,181
-211,738	175,404	-0,052	-0,056
-210,723	800,000	-0,025	-0,067
-209,709	377,065	-0,039	0,058
-208,694	-71,479	-0,116	-0,031
-207,679	-113,355	-0,047	0,007
-206,665	-200,000	0,033	-0,170
-205,650	55,599	0,095	0,067
-204,636	24,026	-0,018	-0,011
-203,621	488,914	0,041	0,069
-202,606	-85,844	-0,105	0,024
-201,592	800,000	0,032	0,096
-200,577	-71,981	0,110	-0,030
-199,563	-200,000	-0,004	0,062
-198,548	-200,000	0,015	0,176
-197,533	-200,000	0,005	0,173
-196,519	-45,947	0,090	0,032
-195,504	8,713	-0,119	0,065
-194,490	-200,000	0,009	0,097
-193,475	225,068	-0,031	0,037
-192,460	7,619	0,028	-0,015
-191,446	242,918	0,015	0,019
-190,431	248,151	0,127	0,157
-189,417	18,522	0,068	0,040
-188,402	592,017	0,068	0,123
-187,387	800,000	0,051	-0,130
-186,373	-200,000	-0,010	-0,037
-185,358	186,700	-0,060	-0,066
-184,344	-200,000	-0,026	0,100
-183,329	-64,579	-0,066	0,019
-182,315	-200,000	0,035	0,137
-181,300	90,145	-0,064	-0,052
-180,285	46,538	-0,104	-0,070
-179,271	282,557	-0,043	-0,057
-178,256	589,190	-0,045	-0,081
-177,242	-180,142	0,118	-0,002
-176,227	121,529	-0,080	-0,073
-175,212	800,000	-0,033	0,078
-174,198	301,991	-0,103	0,139
-173,183	198,493	0,086	-0,095
-172,169	76,241	-0,128	-0,098
-171,154	-200,000	0,013	0,110
-170,139	68,155	0,078	0,058
-169,125	487,207	0,015	-0,024
-168,110	-200,000	0,019	0,128
-167,096	56,286	0,051	0,036
-166,081	367,518	-0,062	0,091
-165,066	-124,013	-0,069	-0,008
-164,052	299,678	0,122	0,165
-163,037	208,798	-0,068	-0,077
-162,023	-200,000	0,018	0,074
-161,008	-5,641	-0,123	-0,061
-159,993	547,129	-0,093	-0,163
-158,979	457,488	0,028	-0,046
-157,964	-67,660	-0,104	0,030
-156,950	611,537	0,045	0,082
-155,935	569,201	-0,059	-0,105
-154,920	-44,909	-0,121	0,044
-153,906	25,105	0,149	0,090
-152,891	800,000	-0,045	-0,138
-151,877	34,175	-0,065	0,041
-150,862	-200,000	-0,029	0,098
-149,847	18,708	0,104	0,060
-148,833	-200,000	-0,004	-0,055
-147,818	-142,868	0,100	-0,007
-146,804	800,000	0,032	-0,080
-145,789	430,823	-0,054	-0,085
-144,775	659,117	0,084	0,159
-143,760	229,978	-0,018	0,021
-142,745	84,418	-0,075	0,060
-141,731	-107,736	0,043	0,007
-140,716	121,457	-0,057	0,052
-139,702	-66,591	-0,077	-0,022
-138,687	-200,000	0,002	0,055
-137,672	91,963	0,095	0,077
-136,658	-97,792	0,041	-0,008
-135,643	-173,605	0,034	0,001
-134,629	-200,000	0,002	0,031
-133,614	-63,306	0,050	-0,015
-132,599	734,925	0,013	-0,025
-131,585	148,178	-0,024	0,024
-130,570	289,706	0,132	0,174
-129,556	-69,038	-0,147	0,041
-128,541	-80,471	0,061	-0,015
-127,526	-200,000	-0,007	0,032
-126,512	261,659	0,072	-0,091
-125,497	-200,000	0,008	0,035
-124,483	-129,085	-0,063	0,006
-123,468	800,000	-0,019	0,056
-122,453	800,000	-0,061	-0,167
-121,439	76,979	-0,118	-0,091
-120,424	201,589	0,061	0,068
-119,410	-200,000	0,014	0,082
-118,395	317,171	0,033	0,046
-117,380	-200,000	0,011	0,125
-116,366	197,624	0,072	0,080
-115,351	129,196	0,053	0,049
-114,337	248,599	-0,071	0,088
-113,322	-136,134	-0,124	-0,010
-112,307	-4,523	-0,019	0,009
-111,293	679,912	-0,052	0,098
-110,278	149,363	0,077	-0,075
-109,264	800,000	0,039	0,100
-108,249	340,803	-0,100	-0,143
-107,234	-200,000	0,019	-0,183
-106,220	-200,000	-0,000	0,097
-105,205	0,294	0,054	-0,028
-104,191	67,116	-0,071	0,053
-103,176	115,287	-0,035	-0,031
-102,162	-200,000	0,013	-0,062
-101,147	800,000	0,020	0,058
-100,132	-11,100	-0,116	-0,056
-99,118	800,000	-0,030	-0,061
-98,103	-8,171	-0,048	-0,023
-97,089	517,477	0,032	0,054
-96,074	-200,000	-0,021	0,106
-95,059	-51,552	0,029	0,010
-94,045	52,581	0,084	0,058
-93,030	349,386	-0,011	0,015
-92,016	512,563	0,066	-0,113
-91,001	209,667	0,095	-0,109
-89,986	22,980	0,157	0,093
-88,972	-200,000	-0,045	0,164
-87,957	737,956	0,039	0,076
-86,943	-200,000	-0,009	-0,097
-85,928	800,000	-0,104	-0,209
-84,913	98,468	-0,082	-0,069
-83,899	800,000	0,032	-0,076
-82,884	-80,346	0,028	-0,007
-81,870	-120,734	-0,171	-0,021
-80,855	585,459	0,006	0,012
-79,840	62,824	-0,107	0,077
-78,826	34,096	-0,049	-0,031
-77,811	11,830	0,087	-0,049
-76,797	-25,380	0,120	0,051
-75,782	-42,160	0,076	-0,028
-74,767	-136,580	0,088	-0,007
-73,753	-200,000	-0,005	0,066
-72,738	-200,000	-0,023	0,118
-71,724	242,325	-0,053	-0,065
-70,709	-200,000	0,017	-0,093
-69,694	92,314	-0,085	0,069
-68,680	-177,597	0,048	0,001
-67,665	-200,000	0,002	0,128
-66,651	-200,000	0,018	0,110
-65,636	-12,039	-0,103	0,049
-64,622	64,605	-0,035	0,026
-63,607	-200,000	-0,019	-0,158
-62,592	-103,909	0,132	-0,022
-61,578	-58,279	0,123	0,039
-60,563	-200,000	-0,008	0,030
-59,549	-200,000	-0,015	0,092
-58,534	-75,123	-1,436	-0,369
-57,519	564,559	-0,788	-1,389
-56,505	-200,000	-1,019	-4,540
-55,490	-55,641	0,595	-0,192
-54,476	800,000	5,026	11,763
-53,461	-200,000	14,173	254,227
-52,446	-200,000	696,017	2234,452
-51,432	568,813	1625,012	2873,667
-50,417	117,029	1631,955	1452,537
-49,403	72,822	1285,643	971,684
-48,388	37,379	1022,907	655,696
-47,373	23,716	981,181	584,072
-46,359	22,972	970,608	575,320
-45,344	21,922	966,288	569,311
-44,330	21,900	965,055	568,488
-43,315	21,772	963,539	567,157
-42,300	21,757	962,552	566,505
-41,286	21,738	961,587	565,855
-40,271	21,716	960,575	565,163
-39,257	21,697	959,622	564,517
-38,242	21,663	958,806	563,907
-37,227	21,686	957,821	563,378
-36,213	21,674	956,964	562,813
-35,198	21,652	955,892	562,091
-34,184	21,685	955,519	561,955
-33,169	21,677	954,368	561,231
-32,154	21,756	953,656	561,043
-31,140	21,790	952,655	560,540
-30,125	21,704	952,069	559,897
-29,111	21,704	951,230	559,382
-28,096	21,735	950,567	559,071
-27,082	21,738	949,822	558,620
-26,067	21,708	949,195	558,132
-25,052	21,755	948,241	557,698
-24,038	21,740	947,495	557,191
-23,023	21,730	947,036	556,866
-22,009	21,767	946,194	556,467
-20,994	21,754	945,619	556,067
-19,979	21,743	945,006	555,650
-18,965	21,660	944,518	555,073
-17,950	21,756	943,875	554,981
-16,936	21,751	943,026	554,443
-15,921	21,741	942,310	553,970
-14,906	21,647	941,618	553,242
-13,892	21,598	941,225	552,832
-12,877	21,572	940,575	552,347
-11,863	21,520	940,005	551,826
-10,848	21,611	939,421	551,749
-9,833	21,701	938,995	551,763
-8,819	21,661	938,477	551,309
-7,804	21,579	937,719	550,581
-6,790	21,594	937,196	550,301
-5,775	21,673	936,276	549,988
-4,760	21,618	935,819	549,525
-3,746	21,625	935,188	549,154
-2,731	21,518	934,532	548,408
-1,717	21,403	934,027	547,728
-0,702	21,394	933,135	547,157
0,313	21,234	932,398	547,047
1,327	24,251	930,437	555,319
2,342	33,386	793,739	497,987
3,356	30,902	450,639	278,967
4,371	0,858	294,601	152,314
5,386	-3,653	275,653	138,224
6,400	-5,041	270,171	134,170
7,415	-5,176	267,664	132,789
8,429	-5,053	266,295	132,211
9,444	-5,049	265,595	131,856
10,459	-4,957	265,010	131,637
11,473	-5,127	264,534	131,234
12,488	-5,102	263,889	130,925
13,502	-5,075	263,115	130,554
14,517	-5,205	262,992	130,364
15,531	-5,022	262,549	130,298
16,546	-4,902	262,089	130,166
17,561	-5,140	261,705	129,749
18,575	-5,016	261,510	129,753
19,590	-5,100	261,157	129,490
20,604	-4,953	260,922	129,495
21,619	-5,140	260,518	129,115
22,634	-5,043	260,166	129,016
23,648	-5,034	259,898	128,879
24,663	-5,247	259,537	128,499
25,677	-5,099	259,384	128,544
26,692	-5,080	259,026	128,372
27,707	-5,177	258,836	128,179
28,721	-5,250	258,562	127,967
29,736	-5,280	258,435	127,866
30,750	-5,162	258,036	127,763
31,765	-5,148	257,891	127,692
32,780	-5,103	257,536	127,544
33,794	-5,104	257,310	127,420
34,809	-5,175	257,259	127,321
35,823	-5,295	256,971	127,061
36,838	-5,270	256,704	126,939
37,853	-5,237	256,417	126,816
38,867	-5,345	256,117	126,561
39,882	-5,125	256,053	126,712
40,896	-5,317	255,811	126,411
41,911	-5,203	255,642	126,417
42,926	-5,275	255,242	126,145
43,940	-5,358	255,040	125,960
44,955	-5,368	254,762	125,803
45,969	-5,405	254,519	125,640
46,984	-5,576	254,364	125,403
47,999	-5,785	254,228	125,142
49,013	-5,734	253,886	125,007
50,028	-5,783	253,534	124,779
51,042	-5,864	253,450	124,657
52,057	-5,856	253,060	124,460
53,071	-5,970	252,898	124,271
54,086	-5,913	252,783	124,252
55,101	-5,801	252,533	124,216
56,115	-5,433	252,585	124,549
57,130	-5,124	252,394	124,712
58,144	-5,118	252,210	124,616
59,159	-4,912	252,044	124,700
60,174	-5,049	251,755	124,428
61,188	-5,093	251,618	124,311
62,203	-5,002	251,286	124,215
63,217	-5,130	251,200	124,051
64,232	-5,052	250,907	123,962
65,247	-4,997	250,698	123,895
66,261	-5,108	250,573	123,727
67,276	-5,433	250,329	123,316
68,290	-5,298	249,955	123,237
69,305	-5,510	249,877	123,006
70,320	-5,614	249,608	122,773
71,334	-5,180	249,459	123,060
72,349	-4,978	249,278	123,132
73,363	-4,952	249,183	123,097
74,378	-4,968	248,912	122,939
75,393	-5,044	248,695	122,756
76,407	-5,100	248,483	122,592
77,422	-5,231	248,303	122,381
78,436	-5,057	247,970	122,354
79,451	-4,891	247,844	122,422
80,466	-5,082	247,520	122,089
81,480	-5,272	247,355	121,836
82,495	-5,431	247,324	121,675
83,509	-5,586	247,185	121,464
84,524	-5,207	246,790	121,580
85,539	-5,455	246,786	121,357
86,553	-5,575	246,507	121,108
87,568	-5,483	246,337	121,091
88,582	-5,476	246,180	121,009
89,597	-5,426	245,914	120,909
90,611	-5,216	245,858	121,048
91,626	-5,090	245,543	120,988
92,641	-5,207	245,496	120,856
93,655	-5,141	245,194	120,752
94,670	-5,198	244,999	120,597
95,684	-5,343	244,779	120,357
96,699	-5,328	244,702	120,320
97,714	-5,223	244,521	120,309
98,728	-5,427	244,125	119,933
99,743	-5,537	243,998	119,768
100,757	-5,262	243,717	119,848
101,772	-5,423	243,599	119,645
102,787	-5,316	243,479	119,665
103,801	-5,382	243,397	119,559
104,816	-5,280	243,286	119,579
105,830	-5,309	243,075	119,440
106,845	-5,190	242,951	119,467
107,860	-5,213	242,741	119,335
108,874	-5,259	242,492	119,163
109,889	-5,207	242,328	119,115
110,903	-5,272	242,032	118,906
111,918	-5,101	241,866	118,955
112,933	-5,229	241,803	118,807
113,947	-5,048	241,533	118,813
114,962	-5,127	241,476	118,710
115,976	-5,367	241,314	118,421
116,991	-5,079	240,940	118,465
118,006	-5,443	241,036	118,202
119,020	-5,247	240,702	118,188
120,035	-5,274	240,741	118,174
121,049	-5,299	240,547	118,048
122,064	-5,155	240,435	118,101
123,079	-5,341	240,176	117,811
124,093	-5,337	239,939	117,688
125,108	-5,449	239,656	117,446
126,122	-5,601	239,478	117,224
127,137	-5,657	239,381	117,121
128,151	-5,671	239,094	116,958
129,166	-5,376	238,972	117,129
130,181	-5,470	238,869	116,992
131,195	-5,488	238,559	116,814
132,210	-5,204	238,376	116,946
133,224	-5,246	238,328	116,877
134,239	-5,061	238,172	116,941
135,254	-5,095	237,979	116,808
136,268	-5,438	237,744	116,403
137,283	-5,290	237,433	116,361
138,297	-5,689	237,313	115,969
139,312	-5,628	237,161	115,934
140,327	-5,232	237,066	116,197
141,341	-4,963	237,011	116,377
142,356	-4,916	236,888	116,344
143,370	-5,048	236,654	116,112
144,385	-4,846	236,543	116,210
145,400	-4,812	236,333	116,124
146,414	-5,040	236,178	115,855
147,429	-4,957	236,004	115,825
148,443	-4,888	235,808	115,774
149,458	-5,006	235,783	115,657
150,473	-4,847	235,553	115,662
151,487	-4,907	235,274	115,466
152,502	-4,977	235,099	115,313
153,516	-4,831	234,970	115,357
154,531	-4,843	234,718	115,213
155,546	-5,017	234,544	114,979
156,560	-5,078	234,552	114,924
157,575	-4,974	234,154	114,801
158,589	-5,073	234,140	114,705
159,604	-4,937	234,002	114,736
160,619	-4,963	233,836	114,623
161,633	-4,682	233,675	114,758
162,648	-4,768	233,408	114,548
163,662	-4,912	233,445	114,441
164,677	-5,270	233,322	114,087
165,692	-4,692	233,088	114,421
166,706	-4,713	232,947	114,324
167,721	-4,919	232,807	114,083
168,735	-4,861	232,650	114,041
169,750	-4,657	232,550	114,144
170,764	-4,851	232,411	113,912
171,779	-4,769	232,102	113,815
172,794	-4,705	232,063	113,836
173,808	-4,953	231,787	113,496
174,823	-5,246	231,629	113,177
175,837	-5,324	231,327	112,958
176,852	-5,076	231,180	113,071
177,867	-4,901	231,226	113,221
178,881	-4,840	231,118	113,206
179,896	-5,097	231,062	112,967
180,910	-4,789	230,821	113,080
181,925	-4,795	230,609	112,962
182,940	-4,760	230,395	112,874
183,954	-4,448	230,173	112,999
184,969	-4,717	230,239	112,811
185,983	-4,596	230,044	112,800
186,998	-4,661	229,801	112,620
188,013	-4,631	229,599	112,534
189,027	-4,720	229,554	112,433
190,042	-4,692	229,368	112,354
191,056	-4,770	229,147	112,175
192,071	-4,746	229,115	112,168
193,086	-4,877	228,925	111,963
194,100	-4,797	228,683	111,897
195,115	-4,878	228,341	111,657
196,129	-5,391	228,272	111,215
197,144	-2,887	229,129	113,568
198,159	1,290	230,375	117,431
199,173	3,867	230,778	119,633
200,188	3,986	230,782	119,717
201,202	3,840	230,683	119,541
202,217	4,126	230,502	119,659
203,232	4,496	230,355	119,859
204,246	4,380	230,332	119,746
205,261	4,417	230,198	119,695
206,275	4,708	230,021	119,818
207,290	4,592	229,913	119,661
208,304	4,617	229,732	119,575
209,319	4,456	229,602	119,372
210,334	4,608	229,381	119,364
211,348	4,398	229,180	119,087
212,363	3,813	229,045	118,555
213,377	3,713	228,704	118,292
214,392	3,808	228,434	118,214
215,407	3,953	228,384	118,289
216,421	3,922	228,130	118,123
217,436	3,799	228,097	118,002
218,450	3,667	227,800	117,736
219,465	3,661	227,598	117,616
220,480	3,710	227,499	117,592
221,494	3,450	227,554	117,411
222,509	3,511	227,522	117,431
223,523	4,037	227,042	117,574
224,538	3,574	226,986	117,181
225,553	3,749	226,940	117,281
226,567	3,856	226,748	117,253
227,582	3,956	226,742	117,316
228,596	4,199	226,522	117,376
229,611	4,025	226,352	117,145
230,626	3,521	226,175	116,660
231,640	3,655	226,024	116,674
232,655	4,036	225,913	116,895
233,669	4,443	225,832	117,151
234,684	4,365	225,840	117,086
235,699	4,150	225,606	116,792
236,713	3,981	225,336	116,513
237,728	4,015	225,135	116,424
238,742	3,586	224,853	115,944
239,757	3,751	224,776	116,018
240,772	3,769	224,568	115,914
241,786	3,694	224,418	115,771
242,801	3,992	224,415	115,984
243,815	4,205	224,451	116,152
244,830	4,268	224,122	116,019
245,844	3,846	224,026	115,641
246,859	3,658	223,776	115,361
247,874	3,969	223,739	115,565
248,888	4,219	223,629	115,685
249,903	3,781	223,451	115,255
250,917	4,066	223,146	115,300
251,932	3,913	222,969	115,084
252,947	3,684	222,901	114,868
253,961	3,683	222,720	114,763
254,976	3,551	222,580	114,582
255,990	3,834	222,530	114,758
257,005	3,980	222,432	114,805
258,020	4,031	222,270	114,750
259,034	4,332	222,161	114,908
260,049	4,078	221,990	114,620
261,063	3,872	221,785	114,351
262,078	4,153	221,803	114,559
263,093	4,004	221,608	114,338
264,107	4,328	221,372	114,445
265,122	4,033	221,246	114,152
266,136	4,182	221,283	114,271
267,151	4,221	221,040	114,165
268,166	4,053	220,806	113,909
269,180	3,508	220,679	113,430
270,195	3,707	220,439	113,444
271,209	3,801	220,311	113,437
272,224	3,772	220,379	113,441
273,239	4,031	220,156	113,506
274,253	3,691	219,972	113,151
275,268	3,708	219,616	112,971
276,282	3,633	219,554	112,873
277,297	3,375	219,470	112,630
278,312	3,625	219,381	112,758
279,326	3,934	219,102	112,831
280,341	3,730	219,069	112,655
281,355	3,856	219,000	112,701
282,370	3,784	218,689	112,479
283,384	3,495	218,491	112,155
284,399	3,372	218,344	111,980
285,414	3,765	218,212	112,190
286,428	3,858	218,164	112,222
287,443	3,956	218,241	112,324
288,457	3,958	217,975	112,179
289,472	3,839	217,802	111,993
290,487	3,449	217,573	111,581
291,501	3,323	217,485	111,434
292,516	3,600	217,304	111,533
293,530	3,490	217,208	111,394
294,545	3,421	216,951	111,202
295,560	3,609	216,864	111,284
296,574	3,577	216,773	111,204
297,589	3,807	216,755	111,352
298,603	3,886	216,817	111,431
299,618	3,847	216,471	111,215
300,633	3,780	216,403	111,121
301,647	4,100	216,321	111,301
302,662	3,977	216,127	111,102
303,676	3,989	216,004	111,038
304,691	3,992	215,894	110,974
305,706	3,977	215,727	110,867
306,720	4,324	215,493	110,987
307,735	3,832	215,354	110,551
308,749	3,867	215,178	110,476
309,764	3,879	215,051	110,410
310,779	3,876	215,097	110,421
311,793	4,024	214,796	110,363
312,808	4,075	214,632	110,306
313,822	3,914	214,561	110,144
314,837	3,586	214,290	109,760
315,852	3,876	214,179	109,901
316,866	3,814	214,031	109,771
317,881	4,041	214,132	109,975
318,895	4,094	213,815	109,840
319,910	4,133	213,524	109,709
320,925	3,711	213,362	109,315
321,939	3,450	213,178	109,025
322,954	3,229	213,190	108,865
323,968	4,076	213,194	109,459
324,983	4,029	213,007	109,320
325,997	4,136	212,854	109,309
327,012	3,991	212,691	109,112
328,027	3,893	212,593	108,983
329,041	4,210	212,611	109,207
330,056	4,194	212,380	109,067
331,070	3,862	212,236	108,748
332,085	3,681	211,938	108,458
333,100	3,579	211,803	108,308
334,114	3,908	211,771	108,514
335,129	3,801	211,621	108,351
336,143	3,531	211,505	108,092
337,158	3,662	211,313	108,077
338,173	3,738	211,244	108,086
339,187	3,529	211,054	107,832
340,202	3,681	210,743	107,770
341,216	3,607	210,750	107,712
342,231	3,450	210,644	107,538
343,246	3,617	210,480	107,561
344,260	3,750	210,387	107,598
345,275	3,772	210,292	107,555
346,289	3,527	210,181	107,317
347,304	3,959	210,016	107,526
348,319	3,907	209,908	107,424
349,333	3,768	209,798	107,261
350,348	3,856	209,602	107,213
351,362	3,735	209,529	107,081
352,377	4,006	209,380	107,184
353,392	3,732	209,196	106,890
354,406	3,849	209,105	106,916
355,421	194,513	1345,604	1434,306
356,435	155,247	1484,153	1434,412
