DTS Sentinel unit serial number:	SN410029Multiplexer serial number:	ORYXHardware model number:	OX2-SRSoftware version number:	ORYX F/W v4,00 Oryx Data Collector v3.7.2.0data status	okinstallation	B6 Nyhavnadifferential loss correction	single-endedforward channel	channel 2reverse channel	N/Adate	2023/12/11time	05:45:08forward acquisition time	300,00reverse acquisition time	0,00gamma	499,1914k internal	0,3127k external	0,3127temperature offset calibration	1,0000default loss term (dB/km)	0,3820temperature slope calibration	1,0000multiplexer offset coefficient	1,0000multiplexer slope coefficient	1,0000fibre end	0,00T internal ref (°C)	19,87T ext. ref 1 (°C)	3,04T ext. ref 2 (°C)	3,07length (m)	temperature (°C)	Stokes	anti-Stokes-744,400	800,000	0,029	-0,081
-743,385	-60,925	-0,349	0,109
-742,371	122,539	0,131	0,122
-741,356	507,472	-0,173	0,301
-740,342	-116,115	-0,118	-0,016
-739,327	-94,993	-0,257	0,051
-738,312	-158,306	0,136	-0,006
-737,298	-55,705	-0,295	0,097
-736,283	102,174	0,041	-0,036
-735,269	-120,862	-0,261	0,032
-734,254	66,308	0,241	-0,182
-733,239	-93,728	-0,452	-0,092
-732,225	-156,056	0,120	0,006
-731,210	800,000	-0,048	-0,137
-730,196	-200,000	0,012	0,175
-729,181	-178,530	-0,133	0,002
-728,167	-200,000	0,005	-0,021
-727,152	-34,622	0,087	0,035
-726,137	127,864	-0,053	-0,050
-725,123	217,153	-0,092	-0,109
-724,108	61,058	-0,065	-0,048
-723,094	-14,519	-0,091	-0,043
-722,079	728,511	-0,041	-0,081
-721,064	469,179	-0,081	-0,135
-720,050	16,257	-0,076	-0,045
-719,035	778,967	0,035	0,071
-718,021	800,000	-0,026	-0,067
-717,006	49,253	-0,097	-0,068
-715,991	-200,000	-0,014	-0,063
-714,977	36,899	-0,095	0,062
-713,962	-200,000	-0,043	0,163
-712,948	732,255	-0,086	-0,171
-711,933	-15,769	0,066	0,031
-710,918	-50,721	-0,028	0,010
-709,904	53,635	-0,069	0,049
-708,889	510,266	-0,052	-0,090
-707,875	-85,632	-0,046	-0,010
-706,860	-71,474	-0,092	-0,025
-705,845	-200,000	0,134	-0,000
-704,831	800,000	-0,073	0,160
-703,816	745,940	0,054	0,108
-702,802	-189,576	-0,035	0,000
-701,787	370,438	0,111	-0,168
-700,772	-200,000	-0,020	-0,170
-699,758	172,910	0,068	0,073
-698,743	-134,211	0,072	-0,007
-697,729	800,000	-0,038	-0,114
-696,714	307,172	-0,096	-0,133
-695,699	-128,084	0,031	0,003
-694,685	800,000	-0,040	-0,090
-693,670	-3,805	-0,119	-0,061
-692,656	800,000	-0,085	0,196
-691,641	-200,000	-0,005	0,071
-690,627	-122,760	0,144	0,017
-689,612	32,679	-0,057	-0,037
-688,597	-200,000	0,005	0,045
-687,583	-19,871	-0,227	-0,104
-686,568	800,000	0,036	-0,080
-685,554	-59,794	-0,053	0,017
-684,539	-149,398	-0,096	0,006
-683,524	46,954	0,026	-0,018
-682,510	11,012	0,085	0,048
-681,495	433,993	-0,044	0,071
-680,481	-200,000	0,026	0,113
-679,466	-200,000	-0,001	0,057
-678,451	-93,222	0,123	-0,025
-677,437	-65,576	0,100	0,030
-676,422	-137,182	-0,057	-0,005
-675,408	152,562	0,032	0,032
-674,393	29,849	-0,071	-0,045
-673,378	-200,000	0,030	-0,118
-672,364	180,516	0,017	-0,018
-671,349	800,000	-0,033	0,090
-670,335	2,361	-0,099	0,053
-669,320	307,765	-0,041	-0,057
-668,305	800,000	0,039	-0,100
-667,291	-73,991	0,094	0,025
-666,276	-200,000	-0,004	0,031
-665,262	-200,000	-0,002	0,059
-664,247	-165,544	-0,224	0,007
-663,232	386,804	-0,055	0,085
-662,218	-200,000	0,069	0,000
-661,203	-144,178	-0,136	-0,009
-660,189	-8,203	0,103	0,051
-659,174	54,522	-0,043	0,031
-658,159	-200,000	-0,037	-0,160
-657,145	-58,841	-0,089	0,028
-656,130	-200,000	-0,008	-0,052
-655,116	103,308	-0,065	-0,057
-654,101	-52,723	-0,054	0,019
-653,086	-20,275	0,057	0,026
-652,072	55,228	0,018	0,013
-651,057	-200,000	-0,015	0,061
-650,043	247,086	-0,088	0,110
-649,028	-200,000	-0,037	-0,202
-648,014	800,000	0,040	0,085
-646,999	-98,445	-0,017	-0,003
-645,984	-200,000	-0,018	0,101
-644,970	408,754	0,021	0,033
-643,955	-51,812	-0,081	0,028
-642,941	-200,000	0,039	-0,179
-641,926	-103,533	0,025	-0,004
-640,911	-200,000	0,027	0,201
-639,897	800,000	-0,026	0,080
-638,882	800,000	0,074	0,179
-637,868	-31,118	-0,068	-0,028
-636,853	-24,080	-0,141	-0,062
-635,838	-114,344	-0,054	-0,008
-634,824	-200,000	-0,023	-0,093
-633,809	-14,004	-0,075	0,036
-632,795	800,000	0,009	-0,025
-631,780	-119,850	-0,074	0,009
-630,765	403,581	0,023	0,036
-629,751	-200,000	-0,034	0,188
-628,736	142,270	-0,030	-0,030
-627,722	-54,158	-0,094	-0,031
-626,707	48,692	0,081	-0,057
-625,692	576,283	0,059	0,107
-624,678	-63,832	0,132	0,040
-623,663	13,444	-0,143	0,082
-622,649	82,841	0,015	-0,012
-621,634	446,159	0,056	-0,091
-620,619	-200,000	0,003	0,073
-619,605	-200,000	-0,036	0,139
-618,590	-200,000	0,013	-0,047
-617,576	356,487	0,079	0,117
-616,561	306,004	-0,042	0,059
-615,546	-79,415	-0,033	-0,008
-614,532	800,000	-0,028	0,089
-613,517	-93,196	-0,036	0,007
-612,503	612,828	0,010	0,019
-611,488	68,699	0,055	0,041
-610,474	23,066	0,038	-0,023
-609,459	-200,000	-0,013	0,046
-608,444	-200,000	-0,000	-0,088
-607,430	-36,756	-0,057	-0,022
-606,415	60,015	0,092	-0,067
-605,401	188,717	0,030	-0,033
-604,386	308,240	-0,033	0,046
-603,371	-30,355	-0,091	0,038
-602,357	213,804	0,066	-0,077
-601,342	-200,000	-0,012	-0,103
-600,328	13,013	-0,164	-0,094
-599,313	-126,056	-0,101	0,011
-598,298	98,110	0,072	-0,061
-597,284	143,193	0,068	-0,067
-596,269	181,583	0,023	0,025
-595,255	236,833	0,105	0,129
-594,240	-96,806	-0,142	0,027
-593,225	-111,040	0,094	-0,014
-592,211	-107,471	-0,130	0,021
-591,196	-132,670	0,040	-0,004
-590,182	9,907	-0,121	0,068
-589,167	96,169	0,023	0,019
-588,152	-87,720	-0,009	-0,002
-587,138	0,059	-0,077	0,041
-586,123	558,100	0,032	-0,058
-585,109	307,479	-0,069	0,095
-584,094	-80,510	0,056	-0,014
-583,079	336,723	0,074	-0,106
-582,065	800,000	-0,083	0,208
-581,050	800,000	0,063	0,164
-580,036	-200,000	-0,012	0,073
-579,021	-142,527	-0,143	0,010
-578,006	99,601	-0,051	-0,044
-576,992	-200,000	-0,008	0,035
-575,977	489,293	-0,021	0,036
-574,963	174,952	0,080	0,086
-573,948	800,000	-0,022	0,071
-572,934	-137,338	-0,134	0,011
-571,919	-48,314	-0,026	-0,009
-570,904	800,000	-0,021	-0,060
-569,890	399,614	-0,032	-0,050
-568,875	685,409	-0,052	-0,101
-567,861	-200,000	0,015	-0,049
-566,846	127,782	-0,035	-0,033
-565,831	800,000	-0,031	0,076
-564,817	800,000	-0,030	-0,080
-563,802	-200,000	0,006	-0,045
-562,788	147,784	0,002	-0,002
-561,773	-200,000	-0,021	0,072
-560,758	-138,130	0,156	0,013
-559,744	520,441	-0,053	0,092
-558,729	800,000	0,009	-0,025
-557,715	800,000	-0,041	0,124
-556,700	800,000	0,046	-0,124
-555,685	-62,065	-0,052	0,016
-554,671	609,699	-0,067	0,124
-553,656	3,589	-0,031	0,017
-552,642	-27,731	0,144	-0,061
-551,627	123,354	-0,060	0,056
-550,612	29,822	-0,064	-0,040
-549,598	-134,339	0,084	0,007
-548,583	800,000	-0,042	0,091
-547,569	-24,463	-0,096	-0,042
-546,554	83,548	-0,053	0,042
-545,539	-111,462	0,094	-0,014
-544,525	87,726	-0,055	0,045
-543,510	217,495	-0,083	-0,098
-542,496	-200,000	-0,034	-0,129
-541,481	232,408	-0,129	-0,157
-540,466	-200,000	0,014	0,097
-539,452	-5,482	-0,055	0,028
-538,437	-200,000	0,024	-0,165
-537,423	-94,935	-0,068	0,013
-536,408	-1,455	0,087	0,045
-535,393	-44,333	0,028	0,010
-534,379	-200,000	-0,009	-0,152
-533,364	-200,000	-0,019	-0,063
-532,350	14,698	0,117	0,067
-531,335	-200,000	0,082	0,000
-530,321	-14,081	0,066	0,031
-529,306	572,734	0,014	-0,025
-528,291	107,154	-0,049	-0,043
-527,277	-113,712	-0,095	-0,014
-526,262	694,745	0,057	-0,111
-525,248	-200,000	-0,001	0,018
-524,233	800,000	0,066	0,193
-523,218	241,846	-0,068	0,084
-522,204	800,000	0,033	-0,097
-521,189	76,308	-0,114	0,089
-520,175	180,603	0,060	-0,065
-519,160	-127,243	0,116	-0,012
-518,145	-200,000	-0,009	-0,030
-517,131	370,805	-0,051	-0,077
-516,116	142,105	0,045	0,044
-515,102	-155,632	-0,106	-0,005
-514,087	438,304	0,057	-0,093
-513,072	74,321	0,029	-0,023
-512,058	-200,000	-0,006	-0,041
-511,043	-27,553	-0,029	-0,012
-510,029	800,000	0,045	0,099
-509,014	-84,516	0,086	-0,020
-507,999	-74,568	0,062	0,016
-506,985	800,000	-0,028	-0,081
-505,970	154,679	-0,081	-0,082
-504,956	-30,567	-0,170	-0,071
-503,941	800,000	0,046	0,097
-502,926	-200,000	0,020	0,149
-501,912	-87,939	-0,046	-0,010
-500,897	-8,683	-0,037	-0,018
-499,883	-42,863	0,018	0,007
-498,868	-200,000	0,004	-0,107
-497,853	-200,000	0,047	-0,155
-496,839	0,562	0,090	-0,047
-495,824	651,293	-0,025	-0,048
-494,810	-200,000	0,049	0,166
-493,795	256,606	-0,064	0,081
-492,781	-200,000	0,047	0,183
-491,766	3,835	0,015	-0,008
-490,751	-200,000	0,076	-0,295
-489,737	88,345	0,154	-0,126
-488,722	-8,196	-0,027	-0,013
-487,708	462,933	0,043	0,071
-486,693	490,520	0,028	-0,047
-485,678	-200,000	0,023	-0,149
-484,664	-116,778	-0,152	0,020
-483,649	800,000	-0,057	0,117
-482,635	-200,000	0,008	0,126
-481,620	-200,000	0,013	0,064
-480,605	-200,000	0,056	-0,193
-479,591	157,980	-0,034	0,035
-478,576	153,373	-0,023	0,024
-477,562	3,805	0,080	0,043
-476,547	-54,692	-0,120	0,040
-475,532	-200,000	0,009	0,061
-474,518	-32,323	0,154	0,063
-473,503	-200,000	-0,015	0,069
-472,489	-200,000	-0,008	0,091
-471,474	63,073	-0,056	0,041
-470,459	449,701	-0,060	0,098
-469,445	-200,000	-0,036	-0,131
-468,430	149,918	-0,090	-0,090
-467,416	-200,000	-0,002	-0,017
-466,401	800,000	0,043	-0,097
-465,386	-200,000	0,029	-0,140
-464,372	219,615	-0,022	-0,026
-463,357	519,090	0,086	0,149
-462,343	800,000	-0,050	-0,125
-461,328	-200,000	0,034	-0,126
-460,313	27,275	-0,055	-0,034
-459,299	-62,449	0,085	-0,026
-458,284	459,596	0,057	0,094
-457,270	-200,000	0,003	0,137
-456,255	-200,000	-0,015	0,065
-455,241	184,549	-0,059	0,064
-454,226	485,438	-0,039	-0,066
-453,211	-136,287	-0,069	-0,006
-452,197	329,632	-0,007	0,011
-451,182	390,367	-0,025	0,038
-450,168	-37,750	-0,086	0,033
-449,153	29,500	-0,122	-0,076
-448,138	-200,000	0,023	-0,110
-447,124	30,196	-0,033	0,020
-446,109	451,250	-0,046	-0,074
-445,095	-200,000	0,009	0,072
-444,080	-110,663	0,155	0,023
-443,065	110,121	0,074	0,065
-442,051	-200,000	0,009	0,233
-441,036	21,985	-0,107	-0,064
-440,022	148,023	-0,069	-0,069
-439,007	-73,173	0,091	-0,024
-437,992	-114,635	-0,070	-0,010
-436,978	800,000	-0,002	-0,005
-435,963	-176,947	0,097	0,002
-434,949	800,000	0,027	-0,086
-433,934	800,000	-0,034	-0,076
-432,919	-59,964	-0,055	-0,017
-431,905	-37,527	0,092	-0,036
-430,890	-97,756	0,035	0,007
-429,876	-200,000	0,008	0,052
-428,861	12,902	-0,013	0,007
-427,846	800,000	-0,038	0,092
-426,832	800,000	-0,026	-0,068
-425,817	621,640	-0,090	-0,167
-424,803	-200,000	0,003	-0,050
-423,788	-104,644	-0,113	0,019
-422,773	354,787	0,060	0,088
-421,759	412,293	-0,108	0,169
-420,744	265,502	0,094	-0,120
-419,730	-92,861	0,097	0,020
-418,715	79,624	-0,073	0,058
-417,701	-36,952	-0,069	0,027
-416,686	514,721	-0,006	0,010
-415,671	334,915	0,125	0,179
-414,657	-66,954	0,091	0,026
-413,642	14,122	-0,099	0,057
-412,628	-200,000	0,006	-0,041
-411,613	-200,000	-0,022	0,106
-410,598	-143,391	0,066	-0,005
-409,584	31,467	0,108	-0,068
-408,569	800,000	0,062	0,151
-407,555	-86,907	0,080	-0,018
-406,540	439,600	-0,051	0,083
-405,525	800,000	0,017	-0,039
-404,511	46,512	-0,134	0,091
-403,496	94,549	0,130	0,108
-402,482	800,000	0,054	0,118
-401,467	233,285	-0,049	0,060
-400,452	-130,923	0,058	0,006
-399,438	118,816	-0,043	0,039
-398,423	137,102	0,058	-0,056
-397,409	207,174	0,058	0,066
-396,394	-97,943	-0,042	0,008
-395,379	124,805	0,029	-0,027
-394,365	325,833	0,060	-0,085
-393,350	35,092	0,130	0,084
-392,336	-200,000	-0,007	0,106
-391,321	473,044	0,059	0,098
-390,306	800,000	0,043	-0,092
-389,292	131,188	-0,111	-0,105
-388,277	-19,580	-0,057	-0,026
-387,263	145,540	0,099	0,097
-386,248	495,448	0,059	0,100
-385,233	173,260	0,042	-0,044
-384,219	-173,939	0,080	0,002
-383,204	358,923	-0,061	-0,089
-382,190	97,267	0,142	-0,120
-381,175	-200,000	0,008	0,108
-380,160	-200,000	0,012	-0,056
-379,146	119,671	-0,045	0,041
-378,131	-200,000	-0,015	0,096
-377,117	800,000	-0,025	0,080
-376,102	-148,445	-0,138	0,008
-375,088	366,151	-0,045	0,067
-374,073	-106,981	0,045	0,007
-373,058	-200,000	-0,002	-0,019
-372,044	34,883	-0,055	-0,035
-371,029	280,933	0,021	-0,027
-370,015	165,836	0,019	-0,020
-369,000	157,743	-0,016	-0,016
-367,985	66,921	-0,205	-0,153
-366,971	381,256	-0,020	0,030
-365,956	-200,000	-0,012	0,130
-364,942	-200,000	0,014	-0,120
-363,927	-200,000	-0,037	-0,139
-362,912	-74,583	0,116	-0,030
-361,898	800,000	0,026	0,068
-360,883	685,284	0,010	0,020
-359,869	20,188	0,067	0,040
-358,854	216,815	0,129	-0,151
-357,839	-200,000	-0,007	-0,040
-356,825	13,124	-0,067	-0,038
-355,810	800,000	0,032	0,093
-354,796	-200,000	-0,004	-0,047
-353,781	-125,523	-0,048	0,005
-352,766	-200,000	0,045	-0,178
-351,752	21,419	0,066	0,039
-350,737	-200,000	0,000	0,072
-349,723	-111,453	0,084	-0,012
-348,708	-97,055	-0,029	-0,006
-347,693	-200,000	0,012	-0,160
-346,679	-8,201	-0,025	0,012
-345,664	800,000	-0,047	0,098
-344,650	800,000	0,026	-0,061
-343,635	800,000	0,067	-0,137
-342,620	488,550	-0,025	0,043
-341,606	59,367	0,054	0,039
-340,591	42,835	0,101	0,068
-339,577	-63,009	-0,118	0,035
-338,562	-41,068	0,064	-0,024
-337,548	-200,000	-0,009	0,080
-336,533	87,888	0,134	-0,109
-335,518	-200,000	0,005	0,066
-334,504	117,667	0,061	-0,055
-333,489	-39,842	-0,097	0,037
-332,475	800,000	-0,036	0,075
-331,460	254,571	-0,107	-0,135
-330,445	34,148	-0,090	-0,057
-329,431	18,268	0,055	-0,032
-328,416	-100,612	0,087	-0,016
-327,402	-200,000	-0,012	0,095
-326,387	-76,827	-0,005	-0,001
-325,372	-89,154	-0,203	-0,044
-324,358	-200,000	0,021	-0,107
-323,343	40,635	0,083	-0,055
-322,329	119,893	0,084	0,076
-321,314	800,000	0,039	-0,119
-320,299	-128,095	0,014	-0,001
-319,285	-200,000	0,004	0,087
-318,270	-200,000	-0,006	-0,021
-317,256	136,934	0,030	-0,029
-316,241	342,771	0,033	-0,047
-315,226	-200,000	-0,006	-0,235
-314,212	-200,000	-0,003	-0,116
-313,197	-29,060	0,027	-0,011
-312,183	-200,000	-0,027	0,106
-311,168	467,299	-0,026	0,043
-310,153	-200,000	0,019	-0,095
-309,139	-106,746	-0,007	0,001
-308,124	246,396	-0,032	0,040
-307,110	-200,000	-0,001	-0,137
-306,095	-61,898	-0,025	0,008
-305,080	568,402	0,025	0,044
-304,066	-102,431	-0,107	-0,019
-303,051	800,000	0,028	0,065
-302,037	-5,384	0,043	-0,021
-301,022	21,862	0,093	-0,055
-300,008	120,291	0,046	-0,042
-298,993	-48,941	0,047	0,016
-297,978	422,052	0,045	-0,071
-296,964	274,696	0,028	0,037
-295,949	26,616	-0,041	-0,025
-294,935	274,719	0,079	-0,102
-293,920	-200,000	0,009	-0,036
-292,905	315,451	0,069	0,096
-291,891	743,550	0,076	0,151
-290,876	1,862	-0,058	-0,031
-289,862	-96,396	-0,017	-0,003
-288,847	698,174	-0,030	-0,058
-287,832	356,569	0,065	-0,095
-286,818	-200,000	-0,017	0,093
-285,803	351,538	-0,041	0,059
-284,789	-124,834	0,124	0,014
-283,774	-200,000	0,011	-0,080
-282,759	-177,230	0,020	-0,000
-281,745	517,810	-0,043	0,074
-280,730	-164,778	-0,148	-0,005
-279,716	-166,705	0,268	-0,008
-278,701	576,615	-0,079	0,142
-277,686	-200,000	0,004	0,035
-276,672	-38,231	-0,124	-0,048
-275,657	353,787	0,010	-0,014
-274,643	-23,392	-0,079	0,034
-273,628	800,000	0,059	0,135
-272,613	98,893	-0,053	-0,045
-271,599	-200,000	-0,014	-0,094
-270,584	253,184	0,073	0,091
-269,570	-200,000	-0,016	-0,082
-268,555	-8,081	-0,054	-0,026
-267,540	800,000	-0,056	-0,139
-266,526	311,795	0,124	-0,170
-265,511	431,084	0,034	-0,054
-264,497	43,989	0,086	0,058
-263,482	-200,000	0,011	0,102
-262,467	139,986	-0,059	0,057
-261,453	-66,398	0,121	-0,035
-260,438	582,595	0,036	-0,066
-259,424	4,315	-0,098	0,052
-258,409	800,000	0,014	0,030
-257,395	270,703	-0,086	0,111
-256,380	111,123	0,019	-0,017
-255,365	134,032	-0,116	-0,110
-254,351	354,291	-0,066	-0,096
-253,336	-132,201	-0,067	-0,006
-252,322	8,226	-0,006	-0,003
-251,307	-75,788	0,066	0,017
-250,292	-124,771	0,178	0,020
-249,278	-147,405	0,045	0,003
-248,263	-40,482	-0,152	0,057
-247,249	105,127	0,022	-0,019
-246,234	-200,000	-0,008	-0,116
-245,219	-56,437	0,026	0,008
-244,205	800,000	-0,057	-0,146
-243,190	-127,211	0,045	0,005
-242,176	89,703	0,154	0,125
-241,161	31,172	0,121	0,076
-240,146	-200,000	-0,005	0,066
-239,132	-62,323	0,093	-0,028
-238,117	101,280	-0,039	0,034
-237,103	149,044	-0,103	-0,102
-236,088	-55,455	-0,122	-0,040
-235,073	28,330	0,112	0,069
-234,059	-200,000	0,001	0,036
-233,044	342,162	-0,093	-0,134
-232,030	-200,000	-0,008	-0,075
-231,015	230,701	-0,103	0,123
-230,000	-103,878	-0,067	-0,011
-228,986	82,061	-0,049	-0,039
-227,971	-23,104	-0,148	-0,065
-226,957	-200,000	-0,019	0,082
-225,942	66,894	-0,063	0,047
-224,927	-200,000	-0,010	-0,039
-223,913	-62,890	0,129	-0,039
-222,898	63,769	0,044	-0,032
-221,884	800,000	0,057	-0,125
-220,869	-200,000	-0,002	0,043
-219,855	172,778	-0,094	0,099
-218,840	469,374	0,015	0,025
-217,825	656,832	0,058	-0,110
-216,811	-200,000	0,011	-0,084
-215,796	800,000	0,051	-0,108
-214,782	-200,000	-0,089	-0,000
-213,767	127,319	0,032	-0,030
-212,752	-71,922	0,196	-0,053
-211,738	-200,000	0,014	-0,072
-210,723	11,104	0,005	0,003
-209,709	-85,050	-0,097	0,022
-208,694	-121,311	-0,159	-0,019
-207,679	15,792	0,042	0,024
-206,665	-110,600	0,065	0,010
-205,650	800,000	-0,016	0,047
-204,636	93,271	0,065	-0,053
-203,621	-200,000	0,006	0,056
-202,606	181,313	0,047	-0,051
-201,592	132,214	-0,059	0,055
-200,577	-19,631	-0,050	-0,022
-199,563	-143,455	0,132	0,009
-198,548	53,990	0,044	0,031
-197,533	257,328	0,016	-0,020
-196,519	166,706	0,044	-0,045
-195,504	-48,827	0,020	0,007
-194,490	313,517	-0,046	0,063
-193,475	-142,932	-0,055	-0,004
-192,460	-200,000	0,022	0,098
-191,446	90,671	0,135	-0,110
-190,431	471,956	0,039	0,065
-189,417	188,879	-0,008	0,009
-188,402	-200,000	-0,009	-0,047
-187,387	592,185	-0,055	-0,100
-186,373	800,000	-0,031	-0,074
-185,358	501,713	0,021	-0,036
-184,344	51,533	-0,053	0,037
-183,329	-200,000	-0,022	0,129
-182,315	-75,619	0,102	-0,026
-181,300	96,032	-0,126	-0,105
-180,285	-136,175	0,140	-0,012
-179,271	-200,000	0,005	0,095
-178,256	-200,000	-0,012	0,109
-177,242	-200,000	0,000	0,035
-176,227	158,025	-0,058	-0,059
-175,212	165,521	0,115	0,119
-174,198	-200,000	-0,016	0,061
-173,183	800,000	-0,047	-0,144
-172,169	-3,532	-0,026	0,013
-171,154	138,649	-0,017	0,016
-170,139	-39,844	0,014	0,005
-169,125	800,000	0,017	0,051
-168,110	56,478	0,102	0,072
-167,096	-153,523	-0,162	-0,008
-166,081	-200,000	-0,006	-0,154
-165,066	-200,000	-0,002	-0,115
-164,052	274,792	0,013	0,016
-163,037	56,043	-0,076	-0,053
-162,023	66,663	-0,038	-0,028
-161,008	800,000	0,020	0,043
-159,993	722,953	0,051	0,100
-158,979	-200,000	-0,024	-0,105
-157,964	800,000	-0,035	-0,082
-156,950	78,553	0,072	-0,056
-155,935	215,398	-0,099	0,114
-154,920	-200,000	0,024	0,151
-153,906	-200,000	0,011	0,165
-152,891	-200,000	0,025	0,087
-151,877	-81,917	0,015	0,004
-150,862	-200,000	-0,029	-0,103
-149,847	30,309	-0,040	-0,025
-148,833	209,741	-0,112	0,128
-147,818	-200,000	0,000	-0,025
-146,804	-200,000	0,011	0,108
-145,789	-200,000	-0,024	0,162
-144,775	374,042	-0,045	0,067
-143,760	-172,772	-0,006	0,000
-142,745	344,741	0,087	0,125
-141,731	-124,466	0,083	-0,009
-140,716	200,556	-0,039	0,044
-139,702	60,606	0,078	0,056
-138,687	700,578	-0,016	0,031
-137,672	-52,574	0,080	-0,027
-136,658	200,292	0,087	-0,098
-135,643	38,530	-0,079	-0,051
-134,629	-200,000	-0,005	-0,081
-133,614	79,787	0,053	-0,041
-132,599	-200,000	0,005	-0,057
-131,585	-18,289	-0,096	-0,043
-130,570	22,015	-0,073	-0,043
-129,556	272,846	-0,022	0,029
-128,541	165,610	0,028	0,029
-127,526	124,186	-0,024	-0,022
-126,512	84,502	0,060	0,048
-125,497	286,793	0,059	0,077
-124,483	24,546	0,143	0,086
-123,468	361,257	0,090	0,131
-122,453	33,570	-0,048	0,030
-121,439	800,000	-0,076	-0,183
-120,424	-78,782	-0,138	-0,034
-119,410	673,500	-0,023	0,044
-118,395	86,096	0,037	-0,029
-117,380	64,708	-0,028	-0,020
-116,366	-135,120	-0,070	-0,006
-115,351	284,922	-0,025	0,032
-114,337	-200,000	-0,034	0,123
-113,322	277,826	0,084	0,109
-112,307	-40,824	0,048	0,018
-111,293	119,028	-0,168	0,151
-110,278	-200,000	-0,016	0,065
-109,264	173,795	0,075	0,079
-108,249	-55,561	-0,150	0,049
-107,234	-28,762	-0,045	-0,019
-106,220	800,000	0,025	-0,052
-105,205	800,000	-0,019	0,061
-104,191	430,794	0,072	0,113
-103,176	315,548	-0,023	0,032
-102,162	204,368	0,020	-0,023
-101,147	-200,000	0,023	0,108
-100,132	-200,000	-0,013	-0,079
-99,118	800,000	0,030	-0,083
-98,103	40,803	0,043	0,028
-97,089	263,978	-0,050	0,064
-96,074	-65,325	0,141	-0,041
-95,059	-74,973	0,136	0,035
-94,045	-163,270	-0,024	0,001
-93,030	-40,883	-0,074	-0,028
-92,016	-61,306	-0,090	-0,027
-91,001	17,931	-0,111	-0,064
-89,986	41,958	0,111	-0,073
-88,972	-200,000	0,035	0,233
-87,957	-200,000	0,005	0,043
-86,943	-45,457	0,158	-0,057
-85,928	157,335	-0,036	-0,036
-84,913	337,194	-0,068	-0,096
-83,899	14,953	-0,062	-0,035
-82,884	-165,243	0,032	0,001
-81,870	29,845	0,095	0,058
-80,855	800,000	0,031	0,078
-79,840	-117,597	-0,167	0,022
-78,826	-128,597	0,054	0,005
-77,811	-12,010	-0,186	-0,088
-76,797	-167,355	-0,124	-0,004
-75,782	-200,000	0,036	0,118
-74,767	800,000	0,038	-0,104
-73,753	244,613	-0,044	0,054
-72,738	47,318	-0,034	0,023
-71,724	-200,000	0,006	0,023
-70,709	-46,246	-0,094	-0,033
-69,694	-200,000	0,008	-0,025
-68,680	110,759	0,065	-0,057
-67,665	-4,862	-0,092	0,046
-66,651	-39,783	0,083	0,031
-65,636	496,807	-0,026	-0,044
-64,622	383,335	-0,049	-0,073
-63,607	160,448	-0,132	0,133
-62,592	222,225	0,073	0,085
-61,578	-39,707	0,019	-0,007
-60,563	-200,000	0,001	0,058
-59,549	-35,101	-0,043	0,017
-58,534	-50,677	-1,480	-0,502
-57,519	800,000	-0,621	-1,280
-56,505	-200,000	-1,005	-4,599
-55,490	-128,101	0,520	-0,053
-54,476	800,000	5,077	11,911
-53,461	-200,000	15,122	264,547
-52,446	800,000	695,494	2224,501
-51,432	570,836	1617,404	2864,617
-50,417	121,144	1628,126	1468,782
-49,403	82,436	1284,693	1009,713
-48,388	37,977	1024,372	658,744
-47,373	22,566	984,683	582,404
-46,359	21,535	973,962	572,646
-45,344	20,107	969,622	565,390
-44,330	20,166	968,231	564,751
-43,315	20,002	966,739	563,322
-42,300	19,937	965,681	562,470
-41,286	19,941	964,612	561,839
-40,271	19,863	963,899	561,146
-39,257	19,853	963,029	560,585
-38,242	20,011	962,031	560,495
-37,227	19,899	961,267	559,663
-36,213	19,899	960,311	559,085
-35,198	19,924	959,302	558,556
-34,184	19,943	958,676	558,231
-33,169	19,897	957,688	557,487
-32,154	19,983	956,784	557,214
-31,140	19,921	955,951	556,509
-30,125	19,918	955,240	556,061
-29,111	19,923	954,374	555,550
-28,096	19,911	953,768	555,139
-27,082	19,904	953,152	554,735
-26,067	19,938	952,133	554,229
-25,052	19,885	951,519	553,680
-24,038	19,861	950,949	553,249
-23,023	19,881	950,164	552,835
-22,009	19,948	949,370	552,564
-20,994	19,928	948,825	552,162
-19,979	19,961	948,075	551,809
-18,965	19,880	947,715	551,318
-17,950	19,959	946,997	551,132
-16,936	19,766	946,535	550,223
-15,921	19,816	945,707	549,881
-14,906	19,764	945,071	549,324
-13,892	19,801	944,410	549,035
-12,877	19,786	943,789	548,605
-11,863	19,768	943,264	548,221
-10,848	19,815	942,600	547,963
-9,833	19,867	942,268	547,914
-8,819	19,791	941,652	547,290
-7,804	19,746	940,970	546,729
-6,790	19,768	940,377	546,434
-5,775	19,784	939,957	546,217
-4,760	19,818	938,915	545,700
-3,746	19,836	938,500	545,494
-2,731	19,665	937,844	544,549
-1,717	19,647	937,016	543,988
-0,702	19,602	936,382	543,456
0,313	19,401	935,893	543,358
1,327	22,434	933,961	551,765
2,342	31,633	794,738	494,023
3,356	28,994	449,949	275,699
4,371	-1,283	294,751	150,237
5,386	-5,604	275,894	136,505
6,400	-7,122	270,169	132,245
7,415	-7,380	267,792	130,831
8,429	-7,160	266,669	130,473
9,444	-7,136	265,798	130,058
10,459	-6,999	265,199	129,878
11,473	-7,158	264,633	129,445
12,488	-7,159	264,106	129,174
13,502	-7,308	263,646	128,803
14,517	-7,040	263,161	128,797
15,531	-7,035	262,792	128,610
16,546	-6,877	262,578	128,636
17,561	-6,888	262,074	128,368
18,575	-6,814	261,824	128,301
19,590	-6,975	261,400	127,937
20,604	-6,855	261,205	127,938
21,619	-6,851	260,902	127,782
22,634	-6,839	260,476	127,573
23,648	-7,166	260,336	127,199
24,663	-6,965	260,094	127,249
25,677	-7,098	259,650	126,902
26,692	-6,950	259,498	126,948
27,707	-6,960	259,245	126,805
28,721	-6,998	258,953	126,617
29,736	-6,919	258,711	126,558
30,750	-6,926	258,384	126,380
31,765	-6,866	258,126	126,296
32,780	-7,240	258,098	125,938
33,794	-7,055	257,779	125,936
34,809	-6,903	257,420	125,884
35,823	-6,993	257,237	125,704
36,838	-6,939	257,039	125,643
37,853	-7,110	256,601	125,268
38,867	-7,169	256,607	125,207
39,882	-6,921	256,241	125,236
40,896	-6,995	256,274	125,175
41,911	-6,968	255,877	124,994
42,926	-6,877	255,585	124,920
43,940	-7,170	255,370	124,547
44,955	-7,046	255,162	124,544
45,969	-7,140	254,959	124,350
46,984	-7,418	254,774	124,005
47,999	-7,313	254,384	123,896
49,013	-7,605	254,156	123,519
50,028	-7,663	253,905	123,336
51,042	-7,696	253,666	123,179
52,057	-7,982	253,512	122,844
53,071	-7,783	253,243	122,876
54,086	-7,844	253,342	122,860
55,101	-7,557	253,024	122,945
56,115	-7,436	252,915	122,986
57,130	-6,923	252,675	123,304
58,144	-6,873	252,573	123,287
59,159	-6,891	252,295	123,124
60,174	-6,804	251,971	123,030
61,188	-6,966	251,843	122,817
62,203	-6,941	251,655	122,736
63,217	-7,079	251,600	122,579
64,232	-6,907	251,317	122,579
65,247	-7,041	251,203	122,396
66,261	-7,058	250,850	122,198
67,276	-7,004	250,508	122,068
68,290	-7,199	250,237	121,757
69,305	-7,410	250,024	121,462
70,320	-7,444	249,959	121,390
71,334	-7,002	249,810	121,686
72,349	-6,965	249,604	121,607
73,363	-7,071	249,447	121,429
74,378	-6,896	249,211	121,452
75,393	-7,059	249,217	121,305
76,407	-7,007	248,795	121,133
77,422	-6,961	248,576	121,055
78,436	-7,024	248,393	120,901
79,451	-6,939	248,222	120,879
80,466	-7,035	247,966	120,662
81,480	-7,200	247,669	120,367
82,495	-7,339	247,642	120,225
83,509	-7,189	247,419	120,233
84,524	-7,301	247,186	120,015
85,539	-7,275	246,941	119,907
86,553	-7,411	246,897	119,760
87,568	-7,237	246,682	119,792
88,582	-7,274	246,377	119,602
89,597	-7,378	246,203	119,419
90,611	-7,101	246,023	119,555
91,626	-6,981	245,945	119,607
92,641	-7,109	245,763	119,400
93,655	-7,017	245,495	119,337
94,670	-6,935	245,374	119,336
95,684	-7,069	245,142	119,101
96,699	-7,058	244,990	119,025
97,714	-7,178	244,802	118,822
98,728	-7,423	244,655	118,536
99,743	-7,307	244,420	118,508
100,757	-7,315	244,167	118,368
101,772	-7,489	244,031	118,146
102,787	-7,116	243,671	118,273
103,801	-7,245	243,603	118,122
104,816	-7,241	243,600	118,113
105,830	-6,954	243,399	118,244
106,845	-7,121	243,225	118,010
107,860	-7,111	243,004	117,900
108,874	-7,200	242,787	117,710
109,889	-7,066	242,539	117,691
110,903	-7,277	242,449	117,462
111,918	-7,371	242,233	117,269
112,933	-7,013	241,981	117,433
113,947	-7,389	241,999	117,120
114,962	-6,993	241,707	117,296
115,976	-6,998	241,549	117,204
116,991	-7,045	241,376	117,071
118,006	-7,037	241,159	116,961
119,020	-7,092	240,995	116,827
120,035	-7,094	241,035	116,834
121,049	-6,940	240,805	116,838
122,064	-7,009	240,648	116,696
123,079	-7,167	240,394	116,432
124,093	-7,101	240,120	116,343
125,108	-7,217	239,843	116,104
126,122	-7,415	239,664	115,844
127,137	-7,588	239,635	115,678
128,151	-7,256	239,454	115,853
129,166	-7,347	239,251	115,670
130,181	-7,293	239,111	115,635
131,195	-7,255	238,864	115,537
132,210	-7,107	238,720	115,577
133,224	-7,179	238,611	115,456
134,239	-7,116	238,344	115,367
135,254	-7,168	238,158	115,225
136,268	-7,337	238,028	115,014
137,283	-7,546	237,906	114,775
138,297	-7,493	237,617	114,668
139,312	-7,638	237,432	114,452
140,327	-7,367	237,412	114,651
141,341	-6,978	237,316	114,910
142,356	-6,893	237,253	114,938
143,370	-6,860	237,146	114,902
144,385	-6,691	236,714	114,819
145,400	-6,776	236,636	114,703
146,414	-6,834	236,420	114,541
147,429	-6,785	236,324	114,524
148,443	-6,574	236,180	114,614
149,458	-7,092	236,038	114,118
150,473	-6,919	235,784	114,124
151,487	-6,948	235,524	113,964
152,502	-7,001	235,464	113,883
153,516	-6,823	235,377	113,973
154,531	-6,888	235,147	113,800
155,546	-6,846	234,927	113,716
156,560	-6,860	234,839	113,653
157,575	-7,020	234,491	113,346
158,589	-6,971	234,295	113,281
159,604	-6,872	234,212	113,309
160,619	-6,706	234,096	113,375
161,633	-6,655	233,917	113,320
162,648	-6,794	233,798	113,141
163,662	-6,673	233,651	113,156
164,677	-6,622	233,382	113,056
165,692	-6,756	233,343	112,920
166,706	-6,769	233,191	112,827
167,721	-6,698	233,059	112,809
168,735	-6,825	232,992	112,666
169,750	-6,810	232,707	112,530
170,764	-7,091	232,648	112,269
171,779	-6,700	232,509	112,501
172,794	-6,717	232,317	112,384
173,808	-6,753	231,961	112,174
174,823	-7,068	231,783	111,829
175,837	-7,196	231,627	111,644
176,852	-7,014	231,547	111,738
177,867	-6,963	231,482	111,737
178,881	-6,868	231,342	111,734
179,896	-6,821	231,209	111,697
180,910	-6,668	230,923	111,669
181,925	-6,597	230,808	111,659
182,940	-6,870	230,873	111,467
183,954	-6,793	230,589	111,379
184,969	-6,698	230,406	111,356
185,983	-6,600	230,382	111,411
186,998	-6,601	230,160	111,293
188,013	-6,665	229,953	111,133
189,027	-6,438	229,684	111,170
190,042	-6,608	229,555	110,965
191,056	-6,571	229,449	110,933
192,071	-6,699	229,257	110,730
193,086	-6,612	229,070	110,698
194,100	-6,741	229,022	110,565
195,115	-7,344	228,663	109,914
196,129	-7,504	228,389	109,648
197,144	-3,730	229,481	113,100
198,159	0,666	231,040	117,297
199,173	3,980	231,885	120,309
200,188	4,537	231,942	120,764
201,202	4,426	231,721	120,551
202,217	4,451	231,590	120,492
203,232	4,788	231,404	120,647
204,246	4,994	231,275	120,729
205,261	5,000	231,127	120,647
206,275	5,197	231,085	120,767
207,290	5,120	230,792	120,543
208,304	4,923	230,813	120,390
209,319	4,932	230,531	120,239
210,334	5,091	230,260	120,210
211,348	4,745	230,127	119,862
212,363	4,316	229,831	119,365
213,377	4,032	229,671	119,052
214,392	4,446	229,395	119,219
215,407	4,386	229,324	119,124
216,421	4,204	229,280	118,950
217,436	4,173	228,985	118,763
218,450	3,967	228,808	118,502
219,465	3,945	228,560	118,346
220,480	3,998	228,525	118,358
221,494	3,987	228,435	118,292
222,509	4,218	228,240	118,358
223,523	4,071	228,150	118,189
224,538	3,968	227,906	117,972
225,553	4,070	227,959	118,067
226,567	4,148	227,820	118,045
227,582	4,540	227,656	118,249
228,596	4,514	227,483	118,128
229,611	4,197	227,326	117,794
230,626	4,128	226,940	117,531
231,640	3,979	226,992	117,434
232,655	4,421	226,956	117,743
233,669	4,394	226,967	117,717
234,684	4,715	226,771	117,850
235,699	4,482	226,441	117,490
236,713	4,184	226,295	117,177
237,728	4,273	226,047	117,106
238,742	4,210	225,943	116,993
239,757	4,208	225,735	116,874
240,772	4,115	225,618	116,733
241,786	4,050	225,433	116,578
242,801	4,388	225,521	116,868
243,815	4,411	225,390	116,808
244,830	4,427	225,204	116,713
245,844	4,511	224,953	116,636
246,859	4,453	224,913	116,561
247,874	4,472	224,710	116,460
248,888	4,500	224,496	116,360
249,903	4,313	224,391	116,154
250,917	4,277	224,215	116,025
251,932	4,070	224,135	115,817
252,947	4,142	223,855	115,717
253,961	4,062	223,745	115,589
254,976	4,122	223,634	115,567
255,990	4,374	223,431	115,640
257,005	4,253	223,380	115,513
258,020	4,434	223,223	115,557
259,034	4,612	223,174	115,654
260,049	4,315	223,099	115,384
261,063	4,240	222,815	115,170
262,078	4,481	222,669	115,264
263,093	4,629	222,546	115,301
264,107	4,605	222,496	115,247
265,122	4,374	222,276	114,950
266,136	4,618	222,195	115,080
267,151	4,613	222,039	114,985
268,166	4,243	221,647	114,497
269,180	4,037	221,523	114,270
270,195	4,168	221,353	114,269
271,209	4,149	221,235	114,184
272,224	4,070	221,153	114,073
273,239	4,158	221,166	114,135
274,253	4,154	220,826	113,946
275,268	4,186	220,617	113,852
276,282	3,877	220,568	113,588
277,297	3,657	220,403	113,331
278,312	4,019	220,223	113,495
279,326	4,135	220,136	113,525
280,341	4,093	220,026	113,427
281,355	4,323	219,830	113,486
282,370	4,101	219,750	113,271
283,384	4,121	219,507	113,150
284,399	4,007	219,401	113,002
285,414	3,786	219,300	112,778
286,428	4,244	219,107	113,004
287,443	4,257	219,086	112,993
288,457	4,343	218,890	112,945
289,472	4,073	218,817	112,699
290,487	3,941	218,474	112,416
291,501	3,867	218,255	112,239
292,516	3,580	218,375	112,081
293,530	3,977	218,126	112,233
294,545	4,284	217,899	112,330
295,560	4,050	217,854	112,127
296,574	4,263	217,641	112,162
297,589	4,244	217,636	112,135
298,603	4,293	217,520	112,101
299,618	4,252	217,435	112,018
300,633	4,149	217,309	111,868
301,647	4,483	217,146	112,016
302,662	4,533	216,986	111,961
303,676	4,248	216,936	111,718
304,691	4,259	216,754	111,621
305,706	4,231	216,723	111,576
306,720	4,627	216,331	111,650
307,735	4,266	216,070	111,245
308,749	3,974	216,213	111,097
309,764	4,218	216,150	111,232
310,779	4,562	215,848	111,315
311,793	4,564	215,772	111,267
312,808	4,376	215,640	111,053
313,822	4,301	215,532	110,934
314,837	4,007	215,381	110,635
315,852	3,957	215,076	110,432
316,866	3,884	215,036	110,349
317,881	4,146	215,063	110,542
318,895	4,440	214,705	110,559
319,910	4,235	214,415	110,253
320,925	4,091	214,359	110,111
321,939	3,771	214,250	109,816
322,954	3,893	214,044	109,788
323,968	4,167	214,107	110,006
324,983	4,354	213,962	110,056
325,997	4,509	213,830	110,089
327,012	4,346	213,497	109,791
328,027	4,241	213,495	109,705
329,041	4,488	213,481	109,864
330,056	4,704	213,402	109,967
331,070	4,373	213,076	109,554
332,085	4,032	212,805	109,164
333,100	4,160	212,718	109,200
334,114	4,272	212,682	109,251
335,129	4,090	212,549	109,044
336,143	4,133	212,269	108,921
337,158	4,069	212,268	108,866
338,173	4,367	212,050	108,955
339,187	3,983	211,908	108,601
340,202	3,719	211,819	108,359
341,216	3,751	211,764	108,344
342,231	3,889	211,674	108,386
343,246	4,038	211,460	108,372
344,260	3,687	211,482	108,126
345,275	3,877	211,261	108,137
346,289	4,005	211,210	108,191
347,304	4,130	210,931	108,126
348,319	3,926	210,870	107,942
349,333	4,078	210,718	107,962
350,348	4,247	210,568	107,994
351,362	4,505	210,481	108,120
352,377	4,540	210,284	108,033
353,392	4,209	210,049	107,672
354,406	4,340	209,944	107,700
355,421	194,357	1343,040	1431,229
356,435	155,153	1481,144	1431,306
