DTS Sentinel unit serial number:	SN410029Multiplexer serial number:	ORYXHardware model number:	OX2-SRSoftware version number:	ORYX F/W v4,00 Oryx Data Collector v3.7.2.0data status	okinstallation	B6 Nyhavnadifferential loss correction	single-endedforward channel	channel 2reverse channel	N/Adate	2023/12/07time	18:50:08forward acquisition time	300,00reverse acquisition time	0,00gamma	499,1914k internal	0,3164k external	0,3164temperature offset calibration	1,0000default loss term (dB/km)	0,3820temperature slope calibration	1,0000multiplexer offset coefficient	1,0000multiplexer slope coefficient	1,0000fibre end	0,00T internal ref (°C)	14,16T ext. ref 1 (°C)	-2,86T ext. ref 2 (°C)	-2,87length (m)	temperature (°C)	Stokes	anti-Stokes-744,400	4,927	0,084	-0,045
-743,385	-102,626	-0,354	0,062
-742,371	155,689	0,150	0,152
-741,356	37,286	-0,261	0,170
-740,342	-200,000	0,031	0,101
-739,327	-77,972	-0,208	0,052
-738,312	179,070	0,062	0,066
-737,298	-96,828	-0,235	-0,045
-736,283	-89,996	0,187	0,040
-735,269	-122,478	-0,309	-0,037
-734,254	-151,140	0,209	0,011
-733,239	-51,690	-0,564	-0,192
-732,225	18,216	0,195	0,114
-731,210	800,000	-0,059	0,123
-730,196	-5,057	-0,190	-0,096
-729,181	-200,000	-0,003	0,111
-728,167	-126,684	0,076	-0,008
-727,152	58,913	0,110	0,080
-726,137	-39,639	-0,111	-0,043
-725,123	129,848	0,086	0,081
-724,108	64,231	-0,143	-0,105
-723,094	-131,408	-0,094	-0,009
-722,079	40,936	0,121	-0,080
-721,064	26,107	-0,128	0,079
-720,050	434,619	0,079	0,127
-719,035	800,000	-0,041	0,131
-718,021	800,000	-0,026	-0,068
-717,006	-21,878	-0,104	0,046
-715,991	70,521	0,026	-0,019
-714,977	800,000	0,013	-0,034
-713,962	-200,000	0,008	0,069
-712,948	-28,409	0,117	-0,049
-711,933	-200,000	0,005	0,127
-710,918	125,126	-0,098	0,090
-709,904	-155,203	-0,110	0,005
-708,889	249,114	0,019	-0,024
-707,875	47,296	-0,138	-0,094
-706,860	610,433	-0,027	-0,050
-705,845	388,941	-0,110	0,168
-704,831	-200,000	0,000	0,048
-703,816	-98,777	-0,119	-0,022
-702,802	-200,000	-0,021	-0,167
-701,787	2,601	-0,067	-0,035
-700,772	800,000	0,027	0,062
-699,758	86,493	0,045	0,037
-698,743	-74,670	-0,100	0,026
-697,729	52,262	-0,023	-0,016
-696,714	-200,000	-0,008	0,106
-695,699	-136,835	0,019	-0,002
-694,685	-110,301	-0,146	0,022
-693,670	-137,728	-0,106	-0,009
-692,656	-200,000	-0,004	0,090
-691,641	-200,000	-0,019	0,097
-690,627	-59,828	0,134	0,042
-689,612	-200,000	0,000	-0,083
-688,597	800,000	-0,057	0,174
-687,583	800,000	0,050	-0,140
-686,568	800,000	0,009	0,025
-685,554	-77,516	0,069	-0,017
-684,539	-47,838	0,086	-0,030
-683,524	110,750	-0,109	0,096
-682,510	-8,544	0,104	-0,051
-681,495	93,756	-0,098	-0,082
-680,481	-12,886	-0,100	-0,047
-679,466	650,854	-0,042	-0,079
-678,451	-200,000	0,024	0,097
-677,437	442,216	0,033	0,054
-676,422	-143,793	0,084	-0,006
-675,408	131,311	-0,040	-0,038
-674,393	-24,441	0,050	-0,022
-673,378	-108,005	0,034	-0,005
-672,364	475,750	0,016	0,027
-671,349	-163,500	-0,149	-0,005
-670,335	-114,399	-0,104	0,014
-669,320	-110,289	0,071	-0,011
-668,305	800,000	0,055	0,125
-667,291	-116,745	-0,129	-0,017
-666,276	800,000	-0,060	-0,153
-665,262	66,487	-0,108	-0,080
-664,247	-200,000	-0,016	-0,072
-663,232	-30,308	-0,139	-0,057
-662,218	-200,000	-0,018	0,081
-661,203	-200,000	-0,039	0,128
-660,189	800,000	-0,027	0,070
-659,174	414,505	-0,018	-0,028
-658,159	-68,910	0,053	-0,015
-657,145	-200,000	0,017	0,101
-656,130	145,517	0,055	-0,054
-655,116	265,693	0,031	-0,040
-654,101	446,993	0,089	0,144
-653,086	800,000	-0,021	-0,045
-652,072	-143,007	-0,130	-0,009
-651,057	402,322	0,054	0,083
-650,043	-50,600	0,154	0,053
-649,028	-135,480	0,129	-0,011
-648,014	-200,000	-0,013	-0,084
-646,999	-76,376	-0,058	0,015
-645,984	88,399	0,070	0,057
-644,970	21,534	-0,072	-0,043
-643,955	580,358	-0,036	-0,066
-642,941	379,829	-0,047	-0,071
-641,926	-94,392	0,066	0,013
-640,911	172,423	-0,066	0,070
-639,897	-85,122	0,058	0,013
-638,882	-200,000	0,030	-0,169
-637,868	800,000	0,030	0,081
-636,853	-179,162	-0,149	0,002
-635,838	-200,000	-0,028	-0,110
-634,824	93,980	-0,068	-0,056
-633,809	800,000	-0,010	0,024
-632,795	-200,000	0,009	0,130
-631,780	-21,008	0,140	0,063
-630,765	800,000	0,033	-0,078
-629,751	100,856	-0,048	-0,041
-628,736	215,465	0,050	0,058
-627,722	58,589	0,124	0,089
-626,707	80,298	-0,037	0,029
-625,692	-200,000	0,025	0,085
-624,678	-200,000	-0,026	0,135
-623,663	-200,000	0,016	0,061
-622,649	275,774	0,055	-0,072
-621,634	-200,000	-0,005	-0,106
-620,619	-200,000	0,000	-0,115
-619,605	-12,270	0,110	-0,053
-618,590	-37,514	-0,027	0,010
-617,576	1,116	0,059	0,031
-616,561	-85,905	-0,219	0,049
-615,546	36,251	0,094	0,060
-614,532	173,902	0,059	0,063
-613,517	-200,000	0,028	-0,094
-612,503	481,718	0,018	0,030
-611,488	-26,252	-0,062	0,026
-610,474	515,380	-0,038	-0,066
-609,459	-200,000	0,041	0,183
-608,444	800,000	-0,020	0,062
-607,430	207,991	0,066	-0,076
-606,415	725,094	-0,054	0,106
-605,401	28,489	0,087	0,054
-604,386	129,091	-0,074	0,069
-603,371	800,000	-0,048	-0,127
-602,357	41,128	-0,168	-0,111
-601,342	-24,989	0,067	-0,029
-600,328	800,000	-0,022	-0,064
-599,313	-118,999	-0,050	-0,006
-598,298	185,314	-0,056	-0,060
-597,284	-56,971	-0,125	-0,040
-596,269	-119,211	0,151	0,019
-595,255	-177,384	-0,068	-0,001
-594,240	-37,716	-0,058	-0,022
-593,225	462,695	-0,062	-0,102
-592,211	168,577	-0,137	-0,143
-591,196	-200,000	-0,008	-0,188
-590,182	-8,899	0,042	0,020
-589,167	-22,451	0,134	0,059
-588,152	-200,000	0,150	-0,000
-587,138	-98,041	-0,082	-0,015
-586,123	707,180	-0,029	-0,057
-585,109	-120,390	0,034	-0,004
-584,094	109,578	0,064	-0,056
-583,079	630,995	-0,007	0,013
-582,065	-97,843	0,073	0,014
-581,050	2,297	-0,097	-0,051
-580,036	1,054	0,076	-0,040
-579,021	-163,260	-0,148	-0,005
-578,006	76,162	0,045	0,035
-576,992	11,077	-0,078	0,043
-575,977	800,000	0,037	-0,112
-574,963	72,384	-0,044	0,033
-573,948	171,848	0,063	0,066
-572,934	-93,007	-0,025	0,005
-571,919	148,241	-0,101	-0,100
-570,904	-200,000	0,007	-0,077
-569,890	-8,813	-0,009	-0,005
-568,875	800,000	0,009	-0,024
-567,861	-200,000	-0,011	-0,130
-566,846	273,722	0,026	-0,034
-565,831	-200,000	0,001	-0,077
-564,817	800,000	-0,016	0,041
-563,802	-200,000	0,033	-0,160
-562,788	-200,000	0,015	0,075
-561,773	18,576	0,035	0,021
-560,758	37,409	-0,156	-0,101
-559,744	800,000	0,028	-0,087
-558,729	304,327	-0,070	0,095
-557,715	800,000	0,012	0,030
-556,700	-44,960	0,079	-0,029
-555,685	329,917	-0,081	-0,114
-554,671	97,939	-0,060	-0,050
-553,656	-155,856	-0,137	-0,006
-552,642	-200,000	-0,001	0,202
-551,627	114,495	-0,086	0,077
-550,612	-27,773	-0,151	0,063
-549,598	-157,463	-0,023	0,001
-548,583	-107,131	0,125	-0,020
-547,569	-55,685	0,121	0,039
-546,554	-51,411	-0,066	-0,022
-545,539	624,806	-0,035	-0,065
-544,525	-34,510	0,067	0,027
-543,510	255,893	-0,011	-0,014
-542,496	71,902	-0,108	-0,082
-541,481	315,623	0,011	-0,016
-540,466	-95,483	0,071	-0,014
-539,452	49,163	0,063	-0,043
-538,437	800,000	0,039	0,083
-537,423	-200,000	-0,002	0,016
-536,408	-35,007	0,046	0,018
-535,393	-200,000	0,009	-0,094
-534,379	-64,533	0,083	-0,024
-533,364	-200,000	-0,010	-0,130
-532,350	-112,897	-0,045	-0,006
-531,335	-200,000	0,018	0,098
-530,321	-117,221	0,114	-0,015
-529,306	-200,000	0,000	0,029
-528,291	235,086	-0,014	-0,017
-527,277	-127,158	-0,162	-0,017
-526,262	760,166	0,039	-0,077
-525,248	-93,744	0,105	-0,021
-524,233	485,466	-0,038	0,064
-523,218	-102,006	-0,071	-0,012
-522,204	-65,826	-0,073	0,021
-521,189	-7,035	-0,126	0,062
-520,175	-200,000	-0,026	-0,087
-519,160	60,308	0,043	0,031
-518,145	-0,160	0,125	-0,065
-517,131	-200,000	-0,003	0,051
-516,116	-118,375	0,101	0,013
-515,102	-99,244	-0,156	-0,028
-514,087	-181,219	-0,022	0,000
-513,072	-115,011	0,075	-0,010
-512,058	-109,898	-0,143	0,022
-511,043	-135,869	-0,047	-0,004
-510,029	135,950	-0,048	-0,046
-509,014	250,274	-0,054	-0,067
-507,999	800,000	0,045	0,093
-506,985	-200,000	0,023	0,115
-505,970	499,176	-0,023	0,039
-504,956	75,883	0,016	-0,012
-503,941	304,070	0,045	-0,061
-502,926	-200,000	-0,015	0,181
-501,912	225,814	0,104	-0,123
-500,897	-200,000	0,028	0,119
-499,883	800,000	-0,035	0,084
-498,868	67,416	-0,090	0,067
-497,853	135,343	0,043	-0,041
-496,839	-74,306	0,121	-0,032
-495,824	235,426	0,028	0,034
-494,810	31,704	0,069	-0,043
-493,795	143,952	-0,130	0,126
-492,781	230,292	-0,041	-0,049
-491,766	-145,138	-0,141	0,009
-490,751	-200,000	-0,024	-0,126
-489,737	-200,000	0,001	0,032
-488,722	-200,000	0,006	0,025
-487,708	-200,000	0,018	0,073
-486,693	-200,000	-0,021	0,205
-485,678	-200,000	-0,019	-0,068
-484,664	29,138	-0,072	-0,044
-483,649	-25,491	0,026	0,011
-482,635	-200,000	-0,004	-0,093
-481,620	419,952	0,091	-0,142
-480,605	-200,000	0,017	0,113
-479,591	-200,000	-0,003	0,134
-478,576	-121,596	-0,064	0,008
-477,562	-14,842	-0,045	-0,021
-476,547	187,504	0,108	-0,117
-475,532	-104,088	0,057	-0,010
-474,518	174,633	-0,048	-0,050
-473,503	-200,000	-0,012	-0,121
-472,489	-124,956	0,060	0,007
-471,474	-104,644	-0,101	0,017
-470,459	-46,184	-0,086	-0,031
-469,445	363,138	-0,058	-0,085
-468,430	165,691	0,039	-0,040
-467,416	800,000	-0,018	0,046
-466,401	169,814	-0,029	-0,030
-465,386	-186,922	-0,054	0,001
-464,372	125,639	-0,057	0,053
-463,357	27,523	0,075	-0,046
-462,343	-200,000	-0,047	-0,153
-461,328	154,414	-0,083	-0,083
-460,313	218,615	-0,016	-0,019
-459,299	-200,000	0,036	0,134
-458,284	88,164	0,122	0,098
-457,270	-135,942	0,070	0,006
-456,255	-200,000	-0,001	0,013
-455,241	-200,000	-0,027	0,099
-454,226	800,000	0,010	-0,030
-453,211	-65,374	0,101	0,029
-452,197	-200,000	-0,026	0,087
-451,182	200,851	-0,058	-0,065
-450,168	-63,698	0,096	0,029
-449,153	260,564	0,062	-0,078
-448,138	42,555	-0,043	-0,028
-447,124	449,826	0,059	-0,095
-446,109	-200,000	0,002	0,123
-445,095	-1,254	0,054	0,027
-444,080	-200,000	0,016	0,051
-443,065	507,927	0,037	0,062
-442,051	-200,000	-0,010	-0,049
-441,036	-200,000	-0,016	-0,129
-440,022	800,000	0,058	-0,130
-439,007	-126,185	-0,020	0,002
-437,992	106,973	0,010	-0,008
-436,978	-70,365	-0,066	-0,018
-435,963	-144,315	0,062	-0,004
-434,949	224,413	-0,035	0,041
-433,934	-200,000	0,004	-0,059
-432,919	-200,000	0,007	0,033
-431,905	201,693	-0,076	0,086
-430,890	255,174	0,077	0,096
-429,876	69,529	0,062	0,046
-428,861	44,604	0,103	0,069
-427,846	42,786	-0,096	-0,063
-426,832	683,485	0,068	-0,130
-425,817	-200,000	-0,031	-0,140
-424,803	-86,496	-0,089	0,020
-423,788	-45,555	-0,089	0,032
-422,773	-43,759	0,200	0,073
-421,759	-200,000	-0,010	0,118
-420,744	800,000	0,021	0,066
-419,730	58,267	-0,006	-0,004
-418,715	714,982	-0,103	-0,200
-417,701	160,264	-0,046	0,047
-416,686	101,159	0,011	0,009
-415,671	-31,129	0,064	0,026
-414,657	800,000	-0,023	0,052
-413,642	-121,210	0,130	0,016
-412,628	-200,000	-0,019	0,152
-411,613	799,468	0,008	-0,015
-410,598	-59,294	-0,086	-0,027
-409,584	195,605	-0,033	0,036
-408,569	-200,000	-0,060	0,201
-407,555	-77,184	0,102	0,026
-406,540	129,349	0,064	0,059
-405,525	99,457	-0,096	-0,081
-404,511	-18,907	-0,108	-0,049
-403,496	-200,000	-0,011	-0,134
-402,482	271,812	-0,066	0,085
-401,467	800,000	0,087	0,186
-400,452	-200,000	0,017	0,102
-399,438	-129,965	0,092	0,009
-398,423	-200,000	0,015	0,054
-397,409	-92,676	-0,091	0,018
-396,394	-161,481	-0,041	0,002
-395,379	-88,671	-0,096	0,021
-394,365	417,570	-0,051	0,080
-393,350	328,307	0,018	0,025
-392,336	-85,315	0,075	0,017
-391,321	800,000	0,040	0,089
-390,306	-200,000	0,009	0,037
-389,292	209,215	0,028	0,032
-388,277	490,620	0,042	-0,070
-387,263	19,381	-0,105	-0,061
-386,248	-114,299	-0,088	0,012
-385,233	-200,000	0,015	0,062
-384,219	223,390	-0,092	-0,108
-383,204	109,696	-0,105	-0,092
-382,190	-80,064	-0,101	-0,024
-381,175	50,295	0,067	0,046
-380,160	208,720	0,018	-0,020
-379,146	193,891	-0,046	0,051
-378,131	247,122	0,079	0,098
-377,117	13,571	0,075	0,042
-376,102	22,651	0,083	-0,049
-375,088	-15,882	-0,062	0,029
-374,073	638,425	0,049	-0,091
-373,058	458,646	-0,047	0,076
-372,044	-113,593	0,032	0,004
-371,029	-12,492	-0,044	0,021
-370,015	312,364	-0,100	0,136
-369,000	-105,070	0,197	-0,032
-367,985	-200,000	-0,030	-0,148
-366,971	-129,212	0,114	0,011
-365,956	800,000	0,024	0,049
-364,942	137,524	0,090	0,085
-363,927	47,736	0,053	0,036
-362,912	370,543	-0,087	-0,129
-361,898	800,000	-0,028	0,063
-360,883	152,707	-0,049	0,049
-359,869	-54,322	0,077	-0,025
-358,854	9,602	-0,164	-0,090
-357,839	-133,176	0,166	0,015
-356,825	800,000	-0,031	0,064
-355,810	800,000	-0,050	-0,115
-354,796	800,000	0,056	-0,144
-353,781	-200,000	-0,023	-0,125
-352,766	-98,861	-0,117	0,021
-351,752	39,918	0,004	0,003
-350,737	-94,989	0,116	-0,022
-349,723	275,258	0,026	0,033
-348,708	-200,000	0,028	0,116
-347,693	800,000	0,011	-0,030
-346,679	-34,574	-0,091	-0,036
-345,664	-26,925	0,063	-0,026
-344,650	-149,983	-0,070	0,004
-343,635	453,610	-0,071	0,114
-342,620	-200,000	0,018	0,067
-341,606	459,730	-0,064	0,103
-340,591	-23,308	-0,153	0,066
-339,577	7,591	0,050	-0,027
-338,562	20,111	0,102	-0,059
-337,548	-97,684	-0,078	-0,014
-336,533	258,940	0,055	0,068
-335,518	-200,000	-0,013	0,054
-334,504	-154,899	0,044	0,002
-333,489	-200,000	0,026	-0,150
-332,475	-23,324	-0,053	-0,023
-331,460	104,677	-0,059	-0,050
-330,445	-2,907	-0,131	-0,066
-329,431	307,897	0,079	0,107
-328,416	800,000	0,043	0,094
-327,402	-200,000	0,012	-0,067
-326,387	800,000	0,017	0,048
-325,372	800,000	-0,019	0,054
-324,358	-130,958	-0,096	-0,009
-323,343	-77,428	0,070	-0,018
-322,329	195,000	0,001	0,001
-321,314	9,105	0,096	-0,052
-320,299	-200,000	-0,035	0,123
-319,285	-107,185	-0,067	0,011
-318,270	143,507	-0,103	-0,099
-317,256	-107,046	-0,121	0,019
-316,241	479,983	-0,118	-0,195
-315,226	131,193	-0,102	-0,094
-314,212	-6,444	0,109	0,054
-313,197	800,000	-0,038	0,112
-312,183	800,000	-0,018	0,039
-311,168	17,805	0,076	-0,044
-310,153	-200,000	0,017	0,070
-309,139	-200,000	-0,025	0,099
-308,124	-42,349	0,116	-0,043
-307,110	154,280	-0,051	-0,051
-306,095	463,243	0,088	0,143
-305,080	-200,000	-0,025	0,086
-304,066	-192,727	0,101	-0,001
-303,051	-200,000	-0,001	0,119
-302,037	-5,032	0,058	-0,029
-301,022	800,000	-0,031	-0,063
-300,008	-200,000	-0,006	-0,072
-298,993	-200,000	0,029	0,115
-297,978	-28,217	0,053	0,022
-296,964	145,740	-0,100	-0,097
-295,949	87,452	-0,104	-0,083
-294,935	114,881	-0,123	-0,108
-293,920	-200,000	-0,000	0,014
-292,905	-54,884	0,103	0,033
-291,891	50,129	0,034	0,023
-290,876	35,536	0,023	-0,015
-289,862	333,444	-0,037	0,052
-288,847	92,926	0,173	-0,141
-287,832	375,513	-0,038	-0,056
-286,818	194,185	-0,038	-0,041
-285,803	-73,025	0,112	-0,030
-284,789	-103,820	0,145	0,024
-283,774	17,545	0,058	0,033
-282,759	-200,000	-0,009	0,152
-281,745	183,119	0,038	-0,040
-280,730	68,849	-0,134	0,099
-279,716	32,151	-0,063	0,039
-278,701	-37,816	0,047	-0,018
-277,686	161,703	0,105	0,106
-276,672	-200,000	0,016	0,052
-275,657	33,496	0,107	0,067
-274,643	-200,000	0,025	-0,106
-273,628	34,504	0,049	-0,031
-272,613	97,794	-0,022	-0,018
-271,599	484,656	0,041	-0,067
-270,584	117,740	0,112	-0,100
-269,570	570,702	-0,042	-0,075
-268,555	110,055	-0,026	-0,023
-267,540	403,362	0,013	-0,020
-266,526	269,531	-0,096	-0,122
-265,511	800,000	-0,044	-0,090
-264,497	154,362	0,026	0,026
-263,482	800,000	0,075	0,150
-262,467	305,301	-0,030	0,040
-261,453	-121,603	0,125	0,015
-260,438	800,000	0,024	0,049
-259,424	-152,250	-0,210	-0,011
-258,409	800,000	0,079	-0,190
-257,395	286,426	0,042	-0,054
-256,380	-200,000	-0,010	0,079
-255,365	94,805	0,017	-0,014
-254,351	-15,887	-0,041	-0,019
-253,336	-23,958	-0,086	-0,037
-252,322	64,031	-0,084	-0,061
-251,307	-22,883	-0,115	-0,050
-250,292	-11,797	-0,112	0,053
-249,278	-200,000	0,127	-0,000
-248,263	35,453	-0,013	-0,008
-247,249	98,442	0,022	-0,018
-246,234	-200,000	0,005	0,082
-245,219	-132,449	0,155	-0,014
-244,205	255,633	-0,030	0,037
-243,190	-14,131	-0,082	-0,038
-242,176	-200,000	0,024	0,213
-241,161	-200,000	-0,039	0,126
-240,146	-200,000	-0,016	0,073
-239,132	439,371	-0,063	0,099
-238,117	137,839	-0,032	0,031
-237,103	293,894	-0,040	-0,053
-236,088	800,000	-0,074	0,186
-235,073	-49,401	0,074	0,025
-234,059	-139,079	0,024	0,002
-233,044	83,031	-0,036	0,028
-232,030	-196,063	-0,064	0,000
-231,015	800,000	0,033	0,077
-230,000	-200,000	-0,006	-0,096
-228,986	110,159	0,035	0,031
-227,971	21,173	0,070	-0,041
-226,957	-200,000	0,109	0,000
-225,942	476,652	-0,045	-0,073
-224,927	170,395	-0,036	-0,037
-223,913	800,000	0,031	0,072
-222,898	150,923	0,046	-0,045
-221,884	512,393	-0,056	-0,094
-220,869	-105,822	0,062	-0,010
-219,855	-200,000	-0,049	0,194
-218,840	800,000	0,021	0,052
-217,825	800,000	-0,045	-0,107
-216,811	250,102	-0,075	0,093
-215,796	40,866	0,071	-0,046
-214,782	262,846	0,046	-0,058
-213,767	-103,065	0,183	-0,031
-212,752	-132,853	-0,088	-0,008
-211,738	-140,762	-0,021	-0,002
-210,723	800,000	0,031	0,080
-209,709	473,103	0,047	0,077
-208,694	800,000	-0,061	0,127
-207,679	237,671	-0,031	0,037
-206,665	-9,706	-0,055	-0,026
-205,650	34,872	-0,079	-0,050
-204,636	-90,626	0,104	0,021
-203,621	-54,656	-0,072	-0,023
-202,606	215,756	0,070	-0,080
-201,592	-45,736	-0,097	-0,034
-200,577	156,468	0,046	-0,046
-199,563	107,589	0,076	-0,065
-198,548	-200,000	0,024	-0,115
-197,533	-200,000	-0,031	0,193
-196,519	207,184	0,077	-0,087
-195,504	399,634	0,074	-0,112
-194,490	-200,000	-0,003	-0,029
-193,475	-36,628	0,059	-0,023
-192,460	67,695	0,027	-0,020
-191,446	-45,863	0,060	0,021
-190,431	-200,000	-0,005	0,068
-189,417	8,269	0,072	0,039
-188,402	800,000	-0,044	-0,095
-187,387	-35,259	0,254	-0,099
-186,373	70,441	0,025	0,019
-185,358	-70,926	-0,056	-0,015
-184,344	-168,432	0,072	0,002
-183,329	-48,617	0,088	-0,030
-182,315	-200,000	-0,009	-0,031
-181,300	76,633	0,044	-0,034
-180,285	-200,000	0,006	0,021
-179,271	55,730	-0,139	-0,097
-178,256	-137,389	0,098	0,008
-177,242	-65,721	-0,049	-0,014
-176,227	-200,000	0,036	0,153
-175,212	46,118	0,111	0,074
-174,198	800,000	-0,051	0,104
-173,183	378,886	0,079	0,117
-172,169	5,810	-0,074	-0,039
-171,154	6,145	-0,102	-0,054
-170,139	800,000	0,054	0,131
-169,125	-200,000	0,005	-0,030
-168,110	-200,000	-0,015	0,121
-167,096	-200,000	-0,001	-0,075
-166,081	-126,950	-0,147	0,015
-165,066	31,255	0,102	-0,063
-164,052	96,198	0,090	-0,074
-163,037	131,383	-0,096	-0,089
-162,023	181,262	0,050	-0,052
-161,008	-148,699	-0,165	0,009
-159,993	72,233	0,052	0,039
-158,979	-155,546	-0,047	0,002
-157,964	140,634	0,137	-0,130
-156,950	336,831	-0,054	0,075
-155,935	-80,082	0,025	-0,006
-154,920	157,697	0,024	-0,024
-153,906	-200,000	0,037	0,147
-152,891	-200,000	-0,018	-0,073
-151,877	-200,000	0,001	0,014
-150,862	800,000	-0,022	-0,059
-149,847	-108,277	-0,065	0,010
-148,833	11,606	0,018	-0,010
-147,818	-68,929	0,100	-0,027
-146,804	-189,819	-0,015	-0,000
-145,789	800,000	-0,037	-0,104
-144,775	409,108	0,015	0,023
-143,760	49,251	-0,093	-0,063
-142,745	-200,000	0,017	-0,078
-141,731	88,339	-0,056	-0,045
-140,716	-95,121	0,076	-0,015
-139,702	-200,000	0,006	-0,052
-138,687	800,000	0,042	0,126
-137,672	-81,399	-0,018	-0,004
-136,658	-56,527	-0,162	-0,051
-135,643	325,446	0,031	0,042
-134,629	-118,262	-0,097	0,012
-133,614	340,394	-0,062	0,087
-132,599	-200,000	0,002	-0,021
-131,585	-200,000	-0,000	0,102
-130,570	39,943	-0,146	0,094
-129,556	88,164	-0,067	-0,053
-128,541	800,000	-0,021	-0,049
-127,526	-200,000	0,007	0,057
-126,512	35,847	0,082	0,051
-125,497	-58,841	0,038	0,012
-124,483	184,986	0,052	-0,056
-123,468	800,000	-0,024	-0,051
-122,453	-29,702	0,142	0,058
-121,439	68,292	0,043	-0,032
-120,424	-200,000	-0,005	-0,052
-119,410	800,000	0,012	0,036
-118,395	-12,803	0,111	-0,052
-117,380	182,439	0,027	-0,029
-116,366	-62,375	-0,077	0,023
-115,351	-0,352	0,138	-0,070
-114,337	735,763	-0,067	0,129
-113,322	-200,000	0,005	-0,027
-112,307	-34,877	0,107	-0,042
-111,293	248,119	-0,087	-0,106
-110,278	-28,856	-0,113	0,046
-109,264	-128,528	0,026	0,003
-108,249	800,000	0,058	-0,176
-107,234	294,694	-0,041	-0,054
-106,220	800,000	-0,012	0,037
-105,205	142,460	0,056	-0,053
-104,191	531,225	0,076	0,130
-103,176	667,635	0,091	0,170
-102,162	704,450	-0,055	-0,105
-101,147	759,997	-0,040	0,079
-100,132	140,164	-0,049	-0,046
-99,118	-29,091	0,044	0,018
-98,103	457,591	0,029	0,047
-97,089	-51,717	-0,083	-0,028
-96,074	243,668	0,047	0,056
-95,059	-35,908	0,039	0,015
-94,045	800,000	0,025	0,054
-93,030	-35,784	-0,075	-0,029
-92,016	33,283	-0,095	0,059
-91,001	382,322	0,026	-0,038
-89,986	-101,680	-0,023	0,004
-88,972	-75,212	0,050	0,013
-87,957	-34,881	0,042	-0,017
-86,943	110,785	-0,080	-0,069
-85,928	-129,467	0,040	-0,004
-84,913	336,543	0,084	-0,118
-83,899	29,020	-0,119	0,072
-82,884	-200,000	0,009	0,040
-81,870	-200,000	-0,021	0,148
-80,855	523,956	-0,039	0,066
-79,840	-200,000	0,011	-0,117
-78,826	176,433	-0,075	-0,079
-77,811	-200,000	-0,003	-0,032
-76,797	800,000	0,039	0,085
-75,782	397,407	-0,109	0,164
-74,767	449,770	0,036	0,057
-73,753	-71,640	0,095	0,025
-72,738	800,000	0,047	0,132
-71,724	-14,744	-0,015	0,007
-70,709	-24,428	-0,067	-0,028
-69,694	-110,350	0,143	0,021
-68,680	195,371	0,082	-0,090
-67,665	-122,703	0,099	-0,011
-66,651	-125,145	0,166	0,018
-65,636	-179,382	0,085	-0,001
-64,622	800,000	0,049	-0,127
-63,607	-6,062	-0,141	-0,069
-62,592	800,000	0,010	-0,029
-61,578	-200,000	0,016	-0,092
-60,563	4,230	-0,030	-0,016
-59,549	343,216	-0,038	0,054
-58,534	40,696	-1,985	-1,280
-57,519	-200,000	-0,116	-0,779
-56,505	-200,000	-1,455	-5,199
-55,490	100,622	0,859	0,715
-54,476	800,000	5,469	12,263
-53,461	-200,000	18,291	297,398
-52,446	800,000	731,739	2239,405
-51,432	529,057	1645,021	2792,193
-50,417	107,158	1633,184	1389,914
-49,403	71,122	1284,334	952,674
-48,388	30,078	1025,084	624,842
-47,373	19,764	987,213	567,844
-46,359	17,730	974,687	553,976
-45,344	14,507	970,835	541,258
-44,330	14,788	969,249	541,269
-43,315	14,275	967,313	538,495
-42,300	14,172	966,399	537,633
-41,286	14,179	965,503	537,135
-40,271	14,212	964,374	536,591
-39,257	14,150	963,689	535,987
-38,242	14,226	962,646	535,632
-37,227	14,249	961,815	535,224
-36,213	14,195	960,978	534,564
-35,198	14,153	960,324	534,043
-34,184	14,181	959,490	533,647
-33,169	14,128	958,421	532,861
-32,154	14,227	957,521	532,656
-31,140	14,235	956,707	532,209
-30,125	14,190	955,919	531,605
-29,111	14,227	955,102	531,248
-28,096	14,176	954,680	530,830
-27,082	14,190	953,944	530,443
-26,067	14,169	953,071	529,870
-25,052	14,202	952,399	529,581
-24,038	14,157	951,710	529,034
-23,023	14,160	950,932	528,588
-22,009	14,227	950,351	528,460
-20,994	14,239	949,664	528,093
-19,979	14,240	949,029	527,723
-18,965	14,198	948,434	527,238
-17,950	14,221	947,828	526,952
-16,936	14,171	947,261	526,457
-15,921	14,121	946,664	525,947
-14,906	14,126	945,745	525,432
-13,892	14,118	945,013	524,979
-12,877	14,101	944,372	524,547
-11,863	14,079	943,889	524,189
-10,848	14,059	943,540	523,910
-9,833	14,151	943,012	523,888
-8,819	14,176	942,263	523,529
-7,804	14,127	941,631	523,002
-6,790	14,067	941,036	522,461
-5,775	14,037	940,595	522,101
-4,760	14,052	939,731	521,649
-3,746	14,073	939,279	521,442
-2,731	13,923	938,739	520,649
-1,717	13,847	937,887	519,918
-0,702	13,869	937,371	519,681
0,313	13,715	936,637	519,573
1,327	17,182	934,320	529,123
2,342	26,167	786,902	469,199
3,356	22,343	442,579	258,236
4,371	-7,148	295,561	142,986
5,386	-10,951	277,194	130,487
6,400	-12,303	271,653	126,612
7,415	-12,565	269,349	125,285
8,429	-12,458	267,921	124,709
9,444	-12,507	267,111	124,276
10,459	-12,394	266,286	123,984
11,473	-12,716	265,839	123,472
12,488	-12,801	265,000	122,994
13,502	-12,868	264,445	122,665
14,517	-12,852	264,139	122,526
15,531	-12,761	263,828	122,454
16,546	-12,490	263,408	122,492
17,561	-12,634	263,048	122,184
18,575	-12,568	262,817	122,125
19,590	-12,718	262,333	121,755
20,604	-12,478	262,120	121,860
21,619	-12,641	261,740	121,527
22,634	-12,640	261,374	121,347
23,648	-12,726	261,012	121,091
24,663	-12,658	260,743	121,016
25,677	-12,675	260,554	120,902
26,692	-12,650	260,358	120,823
27,707	-12,594	259,967	120,680
28,721	-12,567	259,604	120,525
29,736	-12,742	259,374	120,252
30,750	-12,766	259,222	120,150
31,765	-12,782	259,132	120,084
32,780	-12,692	258,624	119,917
33,794	-12,836	258,552	119,746
34,809	-12,609	258,256	119,799
35,823	-12,599	258,013	119,683
36,838	-12,686	257,690	119,446
37,853	-12,699	257,532	119,351
38,867	-12,926	257,242	119,007
39,882	-12,690	256,845	119,020
40,896	-12,762	256,824	118,936
41,911	-12,779	256,604	118,809
42,926	-12,804	256,403	118,683
43,940	-12,797	256,079	118,529
44,955	-12,844	255,834	118,364
45,969	-12,837	255,601	118,252
46,984	-12,991	255,424	118,026
47,999	-13,017	255,125	117,854
49,013	-13,263	254,785	117,473
50,028	-13,575	254,551	117,084
51,042	-13,383	254,288	117,119
52,057	-13,552	254,055	116,855
53,071	-13,524	253,877	116,787
54,086	-13,468	253,861	116,817
55,101	-13,167	253,496	116,899
56,115	-12,925	253,420	117,062
57,130	-12,823	253,255	117,064
58,144	-12,568	252,989	117,150
59,159	-12,492	252,905	117,166
60,174	-12,511	252,637	117,015
61,188	-12,499	252,368	116,890
62,203	-12,636	252,362	116,759
63,217	-12,742	252,054	116,515
64,232	-12,787	251,918	116,404
65,247	-12,542	251,594	116,453
66,261	-12,797	251,446	116,156
67,276	-12,718	251,075	116,042
68,290	-12,938	250,835	115,733
69,305	-13,018	250,673	115,579
70,320	-13,173	250,452	115,336
71,334	-12,726	250,280	115,626
72,349	-12,777	250,114	115,496
73,363	-12,715	249,959	115,467
74,378	-12,685	249,719	115,371
75,393	-12,743	249,463	115,193
76,407	-12,727	249,183	115,067
77,422	-12,786	249,194	115,012
78,436	-12,701	249,020	114,994
79,451	-12,731	248,594	114,761
80,466	-12,879	248,355	114,515
81,480	-13,078	248,330	114,326
82,495	-12,865	248,070	114,376
83,509	-12,836	247,833	114,281
84,524	-12,876	247,680	114,167
85,539	-12,868	247,377	114,023
86,553	-13,102	247,353	113,805
87,568	-12,881	247,087	113,859
88,582	-12,900	246,854	113,725
89,597	-12,958	246,588	113,544
90,611	-12,830	246,574	113,634
91,626	-12,843	246,335	113,504
92,641	-12,751	246,080	113,452
93,655	-12,991	245,970	113,191
94,670	-12,810	245,862	113,283
95,684	-12,842	245,642	113,144
96,699	-12,937	245,409	112,947
97,714	-12,969	245,215	112,822
98,728	-13,055	244,893	112,592
99,743	-12,976	244,763	112,588
100,757	-13,148	244,620	112,369
101,772	-12,917	244,363	112,432
102,787	-12,984	244,249	112,315
103,801	-12,865	243,989	112,284
104,816	-12,825	243,804	112,221
105,830	-12,759	243,762	112,247
106,845	-12,711	243,506	112,158
107,860	-12,691	243,395	112,114
108,874	-12,877	243,045	111,789
109,889	-12,762	242,849	111,784
110,903	-12,819	242,565	111,596
111,918	-12,816	242,517	111,566
112,933	-12,812	242,293	111,457
113,947	-12,778	242,250	111,455
114,962	-12,826	242,078	111,327
115,976	-12,535	241,758	111,408
116,991	-12,604	241,617	111,277
118,006	-12,776	241,392	111,022
119,020	-12,881	241,373	110,918
120,035	-12,778	241,224	110,923
121,049	-12,754	241,059	110,857
122,064	-12,566	240,833	110,897
123,079	-12,852	240,740	110,611
124,093	-12,913	240,456	110,421
125,108	-13,055	240,182	110,170
126,122	-12,901	239,837	110,127
127,137	-13,052	239,703	109,934
128,151	-12,942	239,611	109,970
129,166	-12,966	239,617	109,944
130,181	-13,111	239,371	109,704
131,195	-12,988	238,955	109,603
132,210	-12,937	238,869	109,595
133,224	-12,604	238,758	109,803
134,239	-12,916	238,702	109,515
135,254	-12,665	238,524	109,627
136,268	-12,913	238,230	109,282
137,283	-13,179	237,954	108,931
138,297	-13,162	237,762	108,848
139,312	-13,183	237,705	108,795
140,327	-12,860	237,454	108,930
141,341	-12,624	237,549	109,153
142,356	-12,561	237,329	109,093
143,370	-12,519	237,045	108,986
144,385	-12,530	237,105	108,995
145,400	-12,580	236,798	108,805
146,414	-12,456	236,506	108,760
147,429	-12,667	236,348	108,509
148,443	-12,668	236,139	108,402
149,458	-12,766	236,231	108,357
150,473	-12,714	235,765	108,175
151,487	-12,633	235,712	108,205
152,502	-12,559	235,587	108,197
153,516	-12,370	235,360	108,233
154,531	-12,756	235,243	107,863
155,546	-12,658	234,929	107,787
156,560	-12,746	234,814	107,655
157,575	-12,728	234,728	107,620
158,589	-12,708	234,511	107,527
159,604	-12,544	234,465	107,626
160,619	-12,506	234,150	107,502
161,633	-12,396	234,013	107,516
162,648	-12,534	233,965	107,376
163,662	-12,475	233,519	107,208
164,677	-12,561	233,449	107,098
165,692	-12,642	233,463	107,032
166,706	-12,475	233,326	107,090
167,721	-12,375	233,045	107,031
168,735	-12,394	232,933	106,955
169,750	-12,540	232,776	106,759
170,764	-12,583	232,702	106,682
171,779	-12,665	232,558	106,542
172,794	-12,517	232,419	106,585
173,808	-12,744	232,170	106,284
174,823	-12,996	231,835	105,924
175,837	-12,838	231,631	105,945
176,852	-12,744	231,560	105,975
177,867	-12,655	231,551	106,031
178,881	-12,765	231,408	105,871
179,896	-12,578	231,175	105,900
180,910	-12,597	230,970	105,782
181,925	-12,428	230,689	105,776
182,940	-12,331	230,726	105,858
183,954	-12,509	230,619	105,661
184,969	-12,378	230,513	105,705
185,983	-12,291	230,370	105,698
186,998	-12,091	230,177	105,755
188,013	-12,498	230,185	105,433
189,027	-12,344	229,870	105,399
190,042	-12,301	229,608	105,303
191,056	-12,325	229,477	105,214
192,071	-12,355	229,440	105,165
193,086	-12,513	229,288	104,965
194,100	-12,405	229,117	104,960
195,115	-13,054	228,580	104,206
196,129	-13,427	228,569	103,904
197,144	-7,823	230,398	109,065
198,159	-2,235	232,068	114,192
199,173	1,568	232,897	117,551
200,188	1,817	233,143	117,858
201,202	2,104	232,676	117,834
202,217	1,996	232,536	117,669
203,232	2,150	232,535	117,778
204,246	2,165	232,348	117,684
205,261	2,208	232,299	117,682
206,275	2,587	232,212	117,922
207,290	2,545	231,970	117,756
208,304	2,455	231,798	117,588
209,319	2,297	231,652	117,381
210,334	2,225	231,521	117,249
211,348	2,251	231,230	117,111
212,363	1,787	231,017	116,636
213,377	1,621	230,870	116,423
214,392	1,994	230,636	116,581
215,407	1,851	230,564	116,425
216,421	1,823	230,416	116,318
217,436	2,009	230,183	116,333
218,450	1,642	229,879	115,888
219,465	1,567	229,886	115,823
220,480	1,546	229,768	115,738
221,494	1,499	229,560	115,587
222,509	1,733	229,562	115,756
223,523	1,899	229,427	115,805
224,538	1,712	229,358	115,616
225,553	1,710	229,078	115,464
226,567	1,751	228,983	115,436
227,582	1,920	228,850	115,488
228,596	2,328	228,681	115,704
229,611	1,848	228,447	115,210
230,626	1,554	228,287	114,895
231,640	1,640	228,155	114,883
232,655	2,038	227,973	115,084
233,669	2,210	228,035	115,236
234,684	2,104	228,002	115,128
235,699	2,188	227,611	114,984
236,713	1,853	227,550	114,689
237,728	1,921	227,362	114,635
238,742	1,534	227,091	114,196
239,757	1,736	226,961	114,274
240,772	1,779	226,743	114,186
241,786	1,673	226,592	114,019
242,801	1,778	226,583	114,084
243,815	2,555	226,428	114,581
244,830	2,337	226,323	114,354
245,844	1,938	226,063	113,912
246,859	1,765	225,927	113,703
247,874	2,024	225,806	113,827
248,888	2,021	225,742	113,782
249,903	2,034	225,584	113,702
250,917	2,131	225,323	113,633
251,932	1,961	225,218	113,443
252,947	1,628	224,948	113,048
253,961	1,669	224,882	113,035
254,976	1,750	224,722	113,005
255,990	1,942	224,829	113,192
257,005	2,018	224,570	113,108
258,020	1,963	224,546	113,045
259,034	1,811	224,308	112,802
260,049	2,076	224,223	112,947
261,063	2,161	223,918	112,846
262,078	2,046	223,832	112,707
263,093	2,127	223,851	112,767
264,107	2,250	223,508	112,675
265,122	2,213	223,523	112,646
266,136	2,489	223,429	112,792
267,151	2,261	223,147	112,471
268,166	1,991	222,760	112,066
269,180	1,558	222,687	111,700
270,195	1,795	222,550	111,796
271,209	1,844	222,426	111,761
272,224	1,747	222,328	111,630
273,239	1,729	222,310	111,597
274,253	1,711	222,020	111,429
275,268	1,617	221,840	111,259
276,282	1,375	221,773	111,038
277,297	1,614	221,573	111,103
278,312	1,657	221,429	111,052
279,326	1,796	221,379	111,120
280,341	1,815	221,167	111,017
281,355	1,951	221,102	111,075
282,370	1,966	220,995	111,022
283,384	1,505	220,787	110,571
284,399	1,375	220,597	110,370
285,414	1,438	220,536	110,376
286,428	1,976	220,378	110,679
287,443	2,247	220,316	110,836
288,457	2,149	220,137	110,665
289,472	1,866	219,806	110,283
290,487	1,569	219,623	109,965
291,501	1,407	219,507	109,779
292,516	1,668	219,250	109,831
293,530	1,520	219,206	109,691
294,545	1,817	219,070	109,829
295,560	1,741	219,009	109,733
296,574	1,933	218,898	109,807
297,589	1,691	218,784	109,565
298,603	1,954	218,608	109,657
299,618	1,789	218,549	109,499
300,633	1,918	218,391	109,502
301,647	2,313	218,334	109,750
302,662	2,131	218,169	109,526
303,676	2,118	217,941	109,392
304,691	2,208	217,718	109,335
305,706	2,157	217,708	109,284
306,720	2,147	217,558	109,191
307,735	2,018	217,262	108,940
308,749	1,693	217,290	108,712
309,764	1,786	217,218	108,733
310,779	2,112	217,017	108,856
311,793	1,834	216,800	108,538
312,808	2,084	216,706	108,661
313,822	2,021	216,556	108,531
314,837	1,663	216,503	108,238
315,852	1,470	216,313	107,996
316,866	1,813	216,207	108,178
317,881	2,032	216,121	108,282
318,895	2,130	215,863	108,213
319,910	2,058	215,628	108,034
320,925	1,581	215,506	107,624
321,939	1,152	215,355	107,233
322,954	1,563	215,292	107,485
323,968	1,824	215,304	107,667
324,983	2,097	215,045	107,721
325,997	2,209	215,068	107,803
327,012	2,173	214,723	107,595
328,027	1,966	214,652	107,403
329,041	2,230	214,639	107,574
330,056	2,381	214,416	107,559
331,070	2,013	214,299	107,231
332,085	1,809	214,061	106,958
333,100	2,037	214,002	107,080
334,114	2,129	213,793	107,031
335,129	1,984	213,649	106,847
336,143	1,943	213,361	106,665
337,158	1,984	213,426	106,716
338,173	2,093	213,203	106,672
339,187	1,726	213,154	106,380
340,202	1,718	212,770	106,173
341,216	1,436	212,680	105,921
342,231	1,577	212,595	105,969
343,246	1,536	212,623	105,944
344,260	1,925	212,600	106,196
345,275	1,983	212,418	106,136
346,289	2,599	212,301	106,499
347,304	2,085	212,192	106,076
348,319	1,994	211,983	105,898
349,333	1,817	211,794	105,671
350,348	1,962	211,763	105,747
351,362	2,142	211,644	105,804
352,377	2,203	211,564	105,797
353,392	2,086	211,306	105,576
354,406	1,943	211,157	105,393
355,421	196,982	1315,677	1394,001
356,435	157,517	1450,216	1393,959
