DTS Sentinel unit serial number:	SN410029Multiplexer serial number:	ORYXHardware model number:	OX2-SRSoftware version number:	ORYX F/W v4,00 Oryx Data Collector v3.7.2.0data status	okinstallation	B6 Nyhavnadifferential loss correction	single-endedforward channel	channel 2reverse channel	N/Adate	2023/12/11time	00:20:08forward acquisition time	300,00reverse acquisition time	0,00gamma	499,1914k internal	0,3122k external	0,3122temperature offset calibration	1,0000default loss term (dB/km)	0,3820temperature slope calibration	1,0000multiplexer offset coefficient	1,0000multiplexer slope coefficient	1,0000fibre end	0,00T internal ref (°C)	22,36T ext. ref 1 (°C)	5,87T ext. ref 2 (°C)	5,89length (m)	temperature (°C)	Stokes	anti-Stokes-744,400	-52,568	0,085	-0,029
-743,385	121,439	-0,185	0,171
-742,371	-14,824	0,113	-0,054
-741,356	-126,405	-0,149	0,016
-740,342	-74,302	0,048	-0,013
-739,327	-65,116	-0,223	0,066
-738,312	645,557	-0,039	-0,074
-737,298	800,000	-0,051	0,118
-736,283	37,738	-0,061	-0,040
-735,269	131,197	-0,118	-0,113
-734,254	336,986	-0,064	0,093
-733,239	-26,808	-0,395	-0,172
-732,225	800,000	-0,053	-0,145
-731,210	-200,000	0,013	0,048
-730,196	121,241	-0,057	0,053
-729,181	-52,235	-0,121	0,042
-728,167	-143,948	0,069	-0,005
-727,152	197,143	0,039	0,045
-726,137	251,917	0,065	0,083
-725,123	800,000	-0,051	0,148
-724,108	285,275	-0,125	-0,168
-723,094	-200,000	0,003	-0,041
-722,079	-74,306	-0,028	-0,007
-721,064	-59,995	-0,059	-0,019
-720,050	236,827	-0,049	-0,060
-719,035	424,929	-0,026	0,042
-718,021	-49,945	0,089	-0,031
-717,006	80,001	-0,101	-0,081
-715,991	-200,000	-0,041	-0,137
-714,977	-200,000	-0,111	-0,000
-713,962	-200,000	0,007	-0,112
-712,948	715,363	0,021	-0,042
-711,933	58,813	-0,159	-0,116
-710,918	800,000	-0,031	0,085
-709,904	-61,228	-0,161	-0,050
-708,889	-200,000	-0,018	-0,168
-707,875	-200,000	0,008	-0,107
-706,860	-200,000	0,018	-0,090
-705,845	109,825	0,040	-0,036
-704,831	-72,881	0,158	0,043
-703,816	-200,000	-0,018	0,082
-702,802	-200,000	0,033	-0,124
-701,787	162,463	-0,067	-0,070
-700,772	185,948	-0,036	0,040
-699,758	-8,727	0,059	-0,029
-698,743	-200,000	0,017	-0,080
-697,729	-15,856	0,058	0,028
-696,714	40,050	0,064	0,043
-695,699	-91,266	0,053	-0,011
-694,685	-0,061	-0,095	0,050
-693,670	-35,919	-0,086	-0,034
-692,656	-76,566	-0,063	-0,016
-691,641	-132,440	0,068	0,006
-690,627	630,452	0,025	-0,047
-689,612	-200,000	0,003	-0,090
-688,597	5,748	0,056	-0,031
-687,583	-79,342	-0,158	0,040
-686,568	-117,539	-0,079	-0,011
-685,554	88,067	-0,004	-0,003
-684,539	-117,248	0,168	-0,022
-683,524	103,595	-0,063	-0,055
-682,510	800,000	0,021	0,049
-681,495	-116,306	0,130	0,018
-680,481	-142,583	-0,089	-0,006
-679,466	800,000	-0,016	0,047
-678,451	800,000	-0,006	0,016
-677,437	-98,984	-0,122	-0,023
-676,422	800,000	0,011	0,031
-675,408	-200,000	-0,001	-0,012
-674,393	772,087	-0,053	0,108
-673,378	-143,563	-0,047	-0,003
-672,364	800,000	-0,052	-0,168
-671,349	-200,000	0,021	-0,112
-670,335	-200,000	-0,001	-0,142
-669,320	654,760	-0,090	0,173
-668,305	26,480	0,040	0,025
-667,291	30,410	0,122	-0,077
-666,276	-76,472	-0,253	-0,066
-665,262	191,683	-0,061	0,069
-664,247	800,000	0,026	-0,054
-663,232	2,439	0,087	-0,046
-662,218	-136,080	0,104	0,009
-661,203	57,383	0,113	-0,082
-660,189	-200,000	0,003	-0,040
-659,174	-142,973	-0,069	0,005
-658,159	-200,000	-0,003	-0,105
-657,145	800,000	-0,059	-0,177
-656,130	176,305	-0,099	-0,107
-655,116	2,273	0,109	0,058
-654,101	-200,000	-0,024	-0,088
-653,086	800,000	0,016	0,050
-652,072	-43,327	-0,085	-0,032
-651,057	786,472	-0,043	-0,088
-650,043	239,426	-0,106	-0,131
-649,028	135,700	-0,021	-0,020
-648,014	149,080	-0,010	-0,010
-646,999	-200,000	0,012	0,086
-645,984	-200,000	0,006	-0,096
-644,970	339,289	-0,067	-0,097
-643,955	800,000	0,080	-0,172
-642,941	-15,015	-0,079	-0,038
-641,926	-69,056	-0,031	-0,009
-640,911	-137,446	-0,075	-0,006
-639,897	-46,500	0,132	0,048
-638,882	-165,447	0,023	0,001
-637,868	137,566	0,041	0,040
-636,853	-200,000	0,007	0,101
-635,838	21,114	0,004	-0,002
-634,824	148,843	0,049	-0,049
-633,809	385,070	0,037	-0,056
-632,795	519,437	-0,005	-0,010
-631,780	-34,771	-0,055	0,022
-630,765	161,965	0,064	-0,066
-629,751	800,000	0,044	-0,121
-628,736	-200,000	-0,013	-0,204
-627,722	229,907	0,071	0,086
-626,707	61,403	0,141	-0,104
-625,692	-114,602	0,095	-0,013
-624,678	78,374	0,023	0,018
-623,663	-200,000	-0,011	0,165
-622,649	-200,000	-0,001	0,063
-621,634	-37,170	0,040	0,016
-620,619	-45,689	-0,120	0,044
-619,605	362,204	0,039	-0,059
-618,590	-51,968	0,059	-0,020
-617,576	-41,700	0,076	0,029
-616,561	46,334	0,106	0,073
-615,546	-75,719	-0,118	-0,031
-614,532	-200,000	-0,024	-0,127
-613,517	-200,000	-0,015	-0,082
-612,503	195,235	0,010	-0,011
-611,488	-200,000	0,011	0,070
-610,474	389,955	0,077	0,119
-609,459	197,907	-0,107	0,122
-608,444	800,000	-0,024	-0,056
-607,430	258,728	-0,046	0,058
-606,415	-92,213	0,051	0,011
-605,401	-200,000	-0,018	-0,071
-604,386	14,618	0,087	0,050
-603,371	-200,000	0,000	-0,070
-602,357	-132,462	0,041	-0,004
-601,342	250,459	-0,024	0,030
-600,328	-200,000	-0,013	0,089
-599,313	-200,000	-0,039	-0,163
-598,298	-57,228	0,029	-0,009
-597,284	-13,379	-0,083	-0,040
-596,269	545,344	0,031	0,055
-595,255	698,390	0,025	0,049
-594,240	292,495	-0,058	-0,079
-593,225	-99,590	-0,046	-0,008
-592,211	165,868	-0,078	-0,081
-591,196	-200,000	-0,022	-0,131
-590,182	800,000	0,079	0,212
-589,167	418,074	0,046	-0,073
-588,152	-26,499	0,054	-0,023
-587,138	-62,031	0,080	0,025
-586,123	-200,000	-0,010	0,051
-585,109	-79,913	-0,039	0,010
-584,094	24,676	-0,158	-0,097
-583,079	-200,000	-0,002	0,067
-582,065	-67,626	0,028	-0,008
-581,050	694,673	-0,083	0,162
-580,036	-200,000	-0,010	-0,060
-579,021	85,664	-0,207	-0,168
-578,006	118,845	-0,073	-0,067
-576,992	-200,000	-0,044	-0,171
-575,977	-87,623	0,071	0,016
-574,963	180,075	0,015	0,017
-573,948	29,504	0,023	-0,015
-572,934	59,746	0,042	0,031
-571,919	641,631	-0,059	0,112
-570,904	-71,180	-0,148	0,041
-569,890	-200,000	0,009	0,120
-568,875	83,328	-0,061	0,049
-567,861	186,094	0,041	0,046
-566,846	-92,647	0,034	0,007
-565,831	439,548	0,020	-0,032
-564,817	800,000	-0,021	-0,049
-563,802	39,370	0,066	0,043
-562,788	81,164	-0,085	0,068
-561,773	800,000	0,049	-0,140
-560,758	292,750	0,028	0,038
-559,744	-83,849	0,084	0,020
-558,729	214,205	0,049	-0,058
-557,715	217,278	-0,062	-0,074
-556,700	37,698	0,146	0,096
-555,685	98,872	-0,099	-0,084
-554,671	-183,091	0,065	0,001
-553,656	-71,341	-0,088	0,024
-552,642	-88,571	0,031	-0,007
-551,627	-200,000	0,029	0,097
-550,612	-200,000	0,007	-0,059
-549,598	121,213	0,027	0,025
-548,583	-200,000	0,002	0,066
-547,569	-200,000	0,009	-0,072
-546,554	-22,759	-0,044	-0,020
-545,539	-1,216	0,186	-0,097
-544,525	77,679	-0,068	0,054
-543,510	-77,720	-0,102	0,026
-542,496	-159,404	-0,066	0,003
-541,481	370,196	0,041	-0,062
-540,466	-27,178	-0,053	0,023
-539,452	349,301	0,105	0,154
-538,437	232,070	-0,089	0,108
-537,423	-200,000	-0,029	0,182
-536,408	129,033	0,045	0,043
-535,393	505,523	0,059	0,101
-534,379	104,727	-0,175	-0,153
-533,364	-141,573	0,080	0,006
-532,350	495,214	-0,022	-0,038
-531,335	62,046	0,104	-0,077
-530,321	-7,843	0,080	0,040
-529,306	460,145	-0,100	-0,166
-528,291	390,999	0,037	-0,057
-527,277	-8,888	-0,058	-0,029
-526,262	800,000	0,008	0,019
-525,248	800,000	0,033	-0,076
-524,233	367,774	-0,073	-0,110
-523,218	-200,000	0,026	0,122
-522,204	-200,000	0,013	-0,055
-521,189	51,621	-0,094	0,066
-520,175	-200,000	-0,005	-0,166
-519,160	-1,505	-0,035	0,018
-518,145	645,973	-0,074	-0,140
-517,131	-110,636	-0,114	0,017
-516,116	-141,979	0,091	-0,007
-515,102	-15,883	-0,096	0,045
-514,087	-55,134	0,040	-0,013
-513,072	-200,000	-0,026	-0,097
-512,058	-49,352	0,050	-0,017
-511,043	711,699	-0,043	-0,084
-510,029	638,216	-0,044	0,082
-509,014	-131,589	0,108	-0,010
-507,999	472,449	0,098	0,164
-506,985	288,453	0,026	-0,035
-505,970	331,741	-0,047	0,066
-504,956	160,502	-0,045	0,046
-503,941	800,000	0,036	-0,096
-502,926	-200,000	0,020	-0,166
-501,912	-77,239	0,085	-0,022
-500,897	85,244	-0,055	-0,045
-499,883	179,469	0,058	0,063
-498,868	-95,438	-0,178	-0,035
-497,853	-200,000	0,005	-0,074
-496,839	53,047	0,095	-0,067
-495,824	-153,029	0,106	-0,005
-494,810	-168,406	0,036	-0,001
-493,795	767,413	0,044	0,089
-492,781	-96,344	0,033	-0,006
-491,766	800,000	-0,045	-0,092
-490,751	800,000	-0,043	0,119
-489,737	-83,598	0,171	0,040
-488,722	-200,000	-0,007	0,184
-487,708	-71,781	0,071	0,020
-486,693	609,519	0,061	-0,112
-485,678	65,551	0,070	-0,052
-484,664	-30,509	-0,081	-0,034
-483,649	800,000	0,031	0,086
-482,635	55,090	-0,126	-0,090
-481,620	224,533	0,050	-0,060
-480,605	-163,905	-0,069	0,002
-479,591	-200,000	-0,006	0,080
-478,576	447,258	-0,064	0,104
-477,562	-88,956	-0,045	-0,010
-476,547	-129,194	-0,098	0,010
-475,532	-91,857	-0,112	-0,023
-474,518	-200,000	-0,046	0,157
-473,503	-200,000	-0,002	0,128
-472,489	-200,000	0,026	-0,110
-471,474	-31,592	-0,057	-0,024
-470,459	-108,314	-0,080	-0,013
-469,445	-103,187	-0,040	-0,007
-468,430	-200,000	-0,011	0,048
-467,416	-12,528	-0,109	-0,052
-466,401	-118,285	0,140	0,018
-465,386	187,256	0,031	0,035
-464,372	276,573	-0,060	-0,079
-463,357	-200,000	0,006	-0,067
-462,343	259,547	0,019	0,024
-461,328	-200,000	0,033	-0,112
-460,313	-123,482	-0,083	0,010
-459,299	-97,371	0,197	0,037
-458,284	-86,977	-0,112	0,025
-457,270	164,869	0,058	0,061
-456,255	-148,547	-0,047	0,003
-455,241	363,853	0,061	-0,090
-454,226	-200,000	-0,027	-0,140
-453,211	179,391	-0,072	-0,078
-452,197	-200,000	0,011	-0,171
-451,182	800,000	0,020	0,051
-450,168	52,442	-0,091	0,064
-449,153	-200,000	0,044	0,152
-448,138	-151,113	-0,032	-0,002
-447,124	443,475	0,052	-0,085
-446,109	800,000	-0,056	-0,165
-445,095	-60,485	0,052	-0,016
-444,080	800,000	0,032	0,068
-443,065	54,582	0,036	-0,026
-442,051	25,157	-0,108	-0,066
-441,036	10,119	0,103	0,057
-440,022	-200,000	-0,003	-0,107
-439,007	-166,381	0,056	0,002
-437,992	-200,000	-0,003	0,146
-436,978	501,155	-0,059	0,101
-435,963	236,546	-0,036	0,043
-434,949	691,903	0,077	0,150
-433,934	280,462	-0,036	-0,048
-432,919	-166,801	-0,099	-0,003
-431,905	161,739	0,067	-0,070
-430,890	-114,057	0,102	-0,014
-429,876	-10,668	-0,149	-0,072
-428,861	-32,497	0,040	0,016
-427,846	1,941	0,094	0,050
-426,832	-88,829	-0,156	-0,034
-425,817	800,000	0,016	-0,034
-424,803	-18,111	-0,155	-0,071
-423,788	-8,476	-0,069	-0,034
-422,773	-200,000	0,028	0,166
-421,759	766,546	0,084	0,169
-420,744	588,035	-0,067	0,123
-419,730	103,991	-0,063	-0,054
-418,715	-200,000	0,013	-0,116
-417,701	343,044	0,054	-0,078
-416,686	55,773	-0,051	-0,036
-415,671	800,000	0,027	-0,066
-414,657	-84,731	0,050	0,012
-413,642	166,811	0,097	0,101
-412,628	37,182	-0,086	0,056
-411,613	-200,000	0,002	-0,028
-410,598	464,247	-0,059	0,097
-409,584	800,000	-0,070	0,185
-408,569	261,330	0,081	0,103
-407,555	-32,603	-0,110	0,045
-406,540	81,770	0,022	-0,017
-405,525	385,228	-0,052	0,080
-404,511	-200,000	-0,017	-0,099
-403,496	800,000	-0,060	0,141
-402,482	-200,000	0,000	-0,030
-401,467	-140,248	0,106	-0,008
-400,452	213,528	-0,050	-0,058
-399,438	53,992	-0,037	-0,026
-398,423	-134,355	-0,061	0,005
-397,409	-157,107	0,102	0,004
-396,394	-51,621	-0,014	0,005
-395,379	-31,338	0,127	0,052
-394,365	-164,828	-0,091	-0,003
-393,350	-200,000	-0,004	0,087
-392,336	168,965	-0,069	0,072
-391,321	-200,000	0,001	0,029
-390,306	800,000	-0,019	-0,062
-389,292	-200,000	-0,002	0,064
-388,277	800,000	-0,057	-0,117
-387,263	244,318	0,061	-0,075
-386,248	-200,000	0,026	0,099
-385,233	-57,687	-0,034	-0,011
-384,219	143,708	0,032	-0,031
-383,204	-107,207	-0,110	0,018
-382,190	-130,640	-0,154	0,015
-381,175	299,652	-0,064	-0,087
-380,160	-67,268	-0,158	0,045
-379,146	497,487	0,077	0,130
-378,131	-120,527	0,150	-0,019
-377,117	-134,824	-0,097	0,008
-376,102	-200,000	0,001	-0,068
-375,088	377,097	0,010	0,015
-374,073	120,179	0,117	0,107
-373,058	-200,000	0,011	0,119
-372,044	251,940	0,051	-0,064
-371,029	800,000	-0,019	-0,050
-370,015	239,712	0,114	0,140
-369,000	287,360	0,071	0,095
-367,985	-90,379	0,113	0,024
-366,971	-200,000	0,012	-0,115
-365,956	-137,056	0,017	-0,001
-364,942	-17,443	-0,082	0,038
-363,927	-161,377	0,092	0,003
-362,912	-73,421	-0,085	0,023
-361,898	-157,739	0,117	-0,005
-360,883	72,835	0,079	-0,060
-359,869	-200,000	0,034	-0,219
-358,854	31,767	0,078	0,049
-357,839	-82,064	-0,097	-0,023
-356,825	800,000	0,003	-0,009
-355,810	-108,783	0,073	-0,011
-354,796	-31,208	0,042	0,017
-353,781	-200,000	-0,008	-0,047
-352,766	105,822	-0,057	-0,049
-351,752	-200,000	-0,020	0,074
-350,737	30,831	0,048	-0,030
-349,723	303,708	0,013	-0,018
-348,708	-59,036	-0,127	0,040
-347,693	-4,482	-0,082	0,041
-346,679	-200,000	0,015	0,078
-345,664	403,113	-0,028	-0,043
-344,650	-200,000	0,019	-0,064
-343,635	336,348	0,034	-0,049
-342,620	-2,832	0,062	0,031
-341,606	17,093	0,038	0,022
-340,591	142,992	-0,056	-0,055
-339,577	-174,964	0,073	0,001
-338,562	-134,353	0,059	0,005
-337,548	1,514	-0,090	-0,047
-336,533	-67,815	0,024	-0,007
-335,518	-65,779	0,066	-0,019
-334,504	138,190	0,032	-0,031
-333,489	182,844	-0,155	-0,168
-332,475	-200,000	-0,020	-0,092
-331,460	-197,556	0,065	0,000
-330,445	-200,000	0,009	-0,065
-329,431	-200,000	-0,003	-0,047
-328,416	-47,312	0,072	0,025
-327,402	800,000	-0,052	0,140
-326,387	-181,459	-0,026	-0,000
-325,372	-200,000	-0,005	-0,102
-324,358	316,172	-0,067	-0,093
-323,343	207,886	-0,021	0,024
-322,329	-200,000	0,019	0,144
-321,314	-200,000	-0,025	0,142
-320,299	442,966	0,080	0,129
-319,285	760,589	0,050	-0,099
-318,270	-200,000	0,026	-0,095
-317,256	-114,019	-0,164	-0,023
-316,241	-29,813	-0,106	-0,044
-315,226	-10,916	0,125	-0,060
-314,212	148,834	-0,039	0,039
-313,197	800,000	-0,070	0,187
-312,183	359,963	-0,025	-0,036
-311,168	201,135	-0,045	-0,051
-310,153	87,345	0,036	0,029
-309,139	-200,000	-0,013	-0,060
-308,124	548,531	-0,036	-0,063
-307,110	-200,000	-0,009	0,050
-306,095	290,570	-0,077	0,103
-305,080	-200,000	-0,010	0,091
-304,066	-7,739	-0,064	-0,032
-303,051	-14,121	-0,108	-0,051
-302,037	418,273	0,072	-0,114
-301,022	800,000	0,031	0,094
-300,008	-200,000	0,016	-0,083
-298,993	-200,000	-0,033	0,146
-297,978	-200,000	0,002	0,024
-296,964	-76,918	-0,173	-0,044
-295,949	800,000	0,032	0,092
-294,935	-168,082	-0,130	0,004
-293,920	-200,000	-0,014	0,067
-292,905	-200,000	0,029	0,126
-291,891	-200,000	-0,010	0,104
-290,876	161,837	-0,052	0,054
-289,862	-200,000	0,007	0,025
-288,847	-128,336	-0,057	-0,006
-287,832	7,642	0,119	0,065
-286,818	115,443	-0,036	-0,033
-285,803	-200,000	-0,002	0,019
-284,789	-200,000	-0,009	-0,145
-283,774	87,284	0,111	-0,089
-282,759	-200,000	-0,002	-0,093
-281,745	-13,163	-0,029	-0,014
-280,730	-49,715	-0,054	0,019
-279,716	-200,000	0,001	-0,077
-278,701	800,000	-0,011	0,028
-277,686	-141,976	0,118	0,008
-276,672	11,768	-0,098	-0,055
-275,657	-200,000	-0,003	0,056
-274,643	157,541	-0,021	0,022
-273,628	800,000	-0,032	-0,084
-272,613	118,619	0,089	0,081
-271,599	-200,000	-0,001	0,084
-270,584	-200,000	0,025	0,106
-269,570	385,618	-0,033	-0,049
-268,555	145,246	-0,060	0,059
-267,540	520,935	0,092	-0,158
-266,526	-3,054	-0,155	-0,079
-265,511	-200,000	0,024	-0,083
-264,497	-106,422	0,094	0,015
-263,482	-31,549	-0,044	0,018
-262,467	-84,238	0,106	-0,024
-261,453	-200,000	-0,000	-0,056
-260,438	800,000	0,057	-0,132
-259,424	237,193	-0,104	-0,126
-258,409	-4,812	-0,070	0,035
-257,395	-101,380	0,077	-0,014
-256,380	-60,488	0,069	0,021
-255,365	39,917	0,009	-0,006
-254,351	176,750	-0,053	0,056
-253,336	537,945	0,030	0,052
-252,322	338,799	0,026	0,037
-251,307	-29,002	0,011	0,005
-250,292	88,552	-0,074	-0,061
-249,278	-163,221	0,074	0,003
-248,263	10,681	-0,050	0,028
-247,249	171,086	0,035	0,037
-246,234	-49,473	-0,066	-0,023
-245,219	800,000	-0,011	0,029
-244,205	-89,755	-0,040	-0,009
-243,190	-34,141	-0,061	-0,024
-242,176	-82,970	-0,064	0,015
-241,161	25,945	0,078	0,048
-240,146	-119,465	0,036	0,004
-239,132	-200,000	-0,026	0,086
-238,117	-200,000	-0,037	-0,122
-237,103	800,000	-0,031	-0,087
-236,088	-200,000	-0,008	-0,062
-235,073	-200,000	0,007	-0,066
-234,059	-200,000	0,014	0,103
-233,044	-200,000	-0,018	0,154
-232,030	-153,270	0,133	0,007
-231,015	63,553	0,029	-0,021
-230,000	766,964	-0,076	-0,151
-228,986	70,869	0,118	0,089
-227,971	-200,000	-0,010	-0,083
-226,957	-200,000	0,033	0,122
-225,942	85,676	0,195	0,157
-224,927	800,000	-0,052	0,147
-223,913	-11,320	-0,082	0,039
-222,898	800,000	-0,022	-0,070
-221,884	-56,598	0,053	-0,017
-220,869	365,225	0,009	0,013
-219,855	-200,000	-0,011	0,062
-218,840	59,740	0,097	-0,070
-217,825	373,053	0,063	0,094
-216,811	-154,225	-0,064	0,003
-215,796	-200,000	0,026	-0,159
-214,782	258,182	-0,075	-0,094
-213,767	-121,502	-0,040	-0,005
-212,752	-172,187	0,125	0,003
-211,738	147,737	-0,044	0,043
-210,723	-200,000	-0,012	-0,050
-209,709	51,202	0,002	0,002
-208,694	-200,000	-0,007	-0,054
-207,679	-69,143	0,155	0,043
-206,665	800,000	0,014	0,042
-205,650	429,749	0,057	-0,090
-204,636	-139,308	0,083	-0,006
-203,621	-47,554	-0,101	-0,036
-202,606	800,000	0,004	-0,012
-201,592	800,000	-0,031	-0,092
-200,577	437,553	-0,020	-0,031
-199,563	60,681	0,109	0,079
-198,548	-8,842	0,024	-0,012
-197,533	-2,862	0,125	0,063
-196,519	123,626	-0,072	0,066
-195,504	-77,189	-0,102	-0,026
-194,490	-200,000	-0,016	0,093
-193,475	-200,000	0,006	-0,065
-192,460	289,439	-0,041	0,054
-191,446	-200,000	0,005	-0,053
-190,431	32,549	0,127	0,080
-189,417	-36,588	0,138	-0,054
-188,402	-159,863	0,065	0,003
-187,387	-200,000	-0,025	-0,110
-186,373	158,963	-0,102	-0,103
-185,358	-123,340	0,067	-0,008
-184,344	686,710	0,045	0,085
-183,329	38,205	0,053	-0,034
-182,315	126,586	-0,054	0,050
-181,300	323,521	-0,032	0,045
-180,285	58,161	-0,072	-0,051
-179,271	-200,000	-0,023	0,092
-178,256	-134,582	0,079	-0,007
-177,242	800,000	0,043	0,087
-176,227	193,130	0,082	0,091
-175,212	-200,000	0,018	0,094
-174,198	475,101	0,067	0,111
-173,183	-126,662	0,131	-0,014
-172,169	-200,000	-0,007	-0,125
-171,154	303,369	0,090	0,122
-170,139	-33,641	-0,090	0,036
-169,125	-56,589	0,142	0,046
-168,110	37,934	-0,013	-0,008
-167,096	-43,571	-0,050	-0,018
-166,081	34,310	-0,077	-0,049
-165,066	800,000	-0,022	0,054
-164,052	-83,896	0,064	-0,015
-163,037	-26,381	-0,080	-0,034
-162,023	800,000	-0,031	-0,081
-161,008	80,435	-0,140	0,110
-159,993	-20,286	0,141	-0,063
-158,979	29,346	-0,089	-0,055
-157,964	196,755	-0,083	-0,092
-156,950	-106,788	0,132	0,021
-155,935	191,192	0,014	-0,016
-154,920	-91,812	-0,074	0,015
-153,906	800,000	0,070	0,150
-152,891	800,000	0,055	0,111
-151,877	354,308	0,087	0,127
-150,862	-53,934	-0,147	0,049
-149,847	-200,000	-0,026	-0,085
-148,833	-44,988	-0,025	-0,009
-147,818	-6,450	-0,056	0,028
-146,804	-200,000	0,017	0,125
-145,789	111,193	0,152	0,134
-144,775	-94,775	-0,130	-0,026
-143,760	-80,909	-0,006	-0,001
-142,745	195,046	-0,062	0,069
-141,731	-129,100	-0,057	0,006
-140,716	270,472	-0,050	0,064
-139,702	454,733	-0,044	0,071
-138,687	-129,559	0,138	0,014
-137,672	319,249	0,055	-0,076
-136,658	118,669	-0,067	-0,060
-135,643	800,000	0,044	0,097
-134,629	-200,000	-0,033	0,108
-133,614	800,000	-0,026	0,055
-132,599	-7,282	0,081	-0,040
-131,585	800,000	-0,069	0,150
-130,570	444,089	-0,144	0,231
-129,556	2,615	-0,091	0,048
-128,541	484,540	0,068	-0,113
-127,526	-127,027	-0,147	-0,015
-126,512	-200,000	-0,001	0,039
-125,497	-18,034	0,024	0,011
-124,483	-80,618	0,100	0,024
-123,468	1,612	-0,027	-0,014
-122,453	-128,982	-0,025	0,003
-121,439	58,780	-0,043	-0,031
-120,424	-153,231	-0,091	-0,005
-119,410	-200,000	0,012	-0,087
-118,395	800,000	0,073	0,169
-117,380	-137,895	0,170	-0,014
-116,366	83,181	0,014	0,011
-115,351	184,565	-0,125	-0,135
-114,337	785,302	-0,068	-0,136
-113,322	69,802	-0,120	-0,090
-112,307	37,893	-0,050	0,032
-111,293	-83,005	0,094	-0,022
-110,278	800,000	0,040	0,100
-109,264	-200,000	-0,019	0,148
-108,249	549,752	-0,065	0,114
-107,234	-200,000	-0,051	-0,251
-106,220	366,125	0,026	-0,038
-105,205	-200,000	-0,003	0,075
-104,191	41,792	-0,090	0,059
-103,176	800,000	0,104	0,219
-102,162	-112,323	-0,073	0,011
-101,147	492,194	-0,059	-0,098
-100,132	-200,000	0,021	-0,087
-99,118	-74,429	-0,057	-0,015
-98,103	-141,258	-0,052	-0,004
-97,089	-71,979	0,114	-0,031
-96,074	9,016	0,085	0,046
-95,059	-4,253	-0,025	0,012
-94,045	-200,000	-0,011	-0,069
-93,030	800,000	0,024	-0,063
-92,016	-200,000	-0,022	-0,098
-91,001	492,420	0,062	0,103
-89,986	235,957	0,024	0,029
-88,972	-38,792	-0,081	-0,031
-87,957	139,670	0,057	0,055
-86,943	-200,000	-0,020	0,121
-85,928	-81,446	-0,097	-0,023
-84,913	36,076	0,060	-0,038
-83,899	73,692	0,086	0,065
-82,884	800,000	0,012	-0,025
-81,870	800,000	0,025	0,052
-80,855	-80,836	0,116	-0,028
-79,840	289,620	0,085	-0,112
-78,826	-200,000	-0,001	0,083
-77,811	-38,720	-0,201	-0,077
-76,797	-191,135	0,069	0,001
-75,782	73,066	0,050	-0,038
-74,767	335,486	0,043	0,061
-73,753	445,491	-0,062	-0,099
-72,738	-200,000	-0,002	-0,125
-71,724	-200,000	-0,019	-0,171
-70,709	317,624	-0,134	-0,184
-69,694	191,678	0,071	-0,078
-68,680	-200,000	0,010	0,067
-67,665	93,694	0,033	0,027
-66,651	-61,372	-0,030	-0,009
-65,636	-78,518	0,029	0,007
-64,622	800,000	-0,010	0,030
-63,607	-130,552	-0,113	0,011
-62,592	-200,000	0,020	-0,065
-61,578	-52,564	-0,054	-0,018
-60,563	-200,000	-0,031	-0,117
-59,549	800,000	0,009	0,025
-58,534	-161,890	-1,426	-0,051
-57,519	575,576	-0,821	-1,461
-56,505	-200,000	-0,952	-4,340
-55,490	51,071	0,592	-0,407
-54,476	800,000	5,020	11,929
-53,461	-200,000	13,700	252,494
-52,446	-200,000	689,416	2257,921
-51,432	591,798	1621,924	2918,110
-50,417	119,268	1634,944	1468,053
-49,403	73,270	1289,030	977,525
-48,388	38,078	1024,039	659,781
-47,373	24,350	981,813	587,423
-46,359	23,553	971,388	578,550
-45,344	22,573	967,133	572,790
-44,330	22,516	965,540	571,639
-43,315	22,454	964,211	570,627
-42,300	22,395	963,386	569,923
-41,286	22,395	962,255	569,231
-40,271	22,386	961,312	568,621
-39,257	22,347	960,408	567,937
-38,242	22,338	959,534	567,370
-37,227	22,332	958,761	566,870
-36,213	22,404	957,558	566,371
-35,198	22,352	956,637	565,634
-34,184	22,411	956,126	565,500
-33,169	22,321	955,339	564,723
-32,154	22,447	954,353	564,522
-31,140	22,437	953,496	563,962
-30,125	22,373	952,737	563,283
-29,111	22,417	951,882	562,898
-28,096	22,459	951,108	562,553
-27,082	22,431	950,535	562,101
-26,067	22,368	949,770	561,424
-25,052	22,451	948,858	561,128
-24,038	22,373	948,551	560,674
-23,023	22,318	947,980	560,140
-22,009	22,464	946,982	559,994
-20,994	22,421	946,649	559,637
-19,979	22,405	945,888	559,116
-18,965	22,406	945,370	558,790
-17,950	22,449	944,739	558,530
-16,936	22,304	944,021	557,622
-15,921	22,339	943,314	557,293
-14,906	22,292	942,520	556,654
-13,892	22,323	941,699	556,246
-12,877	22,314	941,283	555,948
-11,863	22,249	940,670	555,358
-10,848	22,225	940,234	555,003
-9,833	22,358	939,730	555,107
-8,819	22,386	939,054	554,771
-7,804	22,375	938,284	554,260
-6,790	22,273	937,804	553,632
-5,775	22,330	937,188	553,426
-4,760	22,369	936,435	553,085
-3,746	22,242	936,006	552,408
-2,731	22,204	935,189	551,783
-1,717	22,116	934,491	551,071
-0,702	22,092	933,906	550,630
0,313	21,936	933,167	550,533
1,327	25,071	931,229	559,197
2,342	34,795	795,997	503,892
3,356	32,755	451,757	282,875
4,371	1,613	293,851	152,917
5,386	-2,725	274,611	138,787
6,400	-4,435	268,927	134,315
7,415	-5,086	266,401	132,443
8,429	-4,663	265,383	132,312
9,444	-4,693	264,450	131,809
10,459	-4,597	263,752	131,535
11,473	-4,772	263,187	131,083
12,488	-4,725	262,724	130,884
13,502	-4,860	262,192	130,485
14,517	-4,926	261,791	130,215
15,531	-4,703	261,445	130,232
16,546	-4,740	261,162	130,046
17,561	-4,663	260,702	129,874
18,575	-4,628	260,344	129,716
19,590	-4,751	260,003	129,424
20,604	-4,638	259,719	129,372
21,619	-4,710	259,539	129,207
22,634	-4,877	259,037	128,796
23,648	-4,638	258,773	128,867
24,663	-4,833	258,591	128,590
25,677	-4,968	258,289	128,309
26,692	-4,654	257,911	128,389
27,707	-4,739	257,740	128,217
28,721	-4,537	257,339	128,185
29,736	-4,822	257,389	127,946
30,750	-4,990	256,985	127,585
31,765	-4,832	256,777	127,610
32,780	-4,725	256,469	127,540
33,794	-4,875	256,267	127,295
34,809	-4,811	256,071	127,244
35,823	-4,741	255,813	127,166
36,838	-4,942	255,636	126,889
37,853	-4,882	255,332	126,780
38,867	-4,753	255,014	126,724
39,882	-4,915	255,015	126,571
40,896	-4,823	254,791	126,529
41,911	-4,837	254,347	126,285
42,926	-5,101	254,208	125,973
43,940	-4,944	253,963	125,978
44,955	-4,969	253,785	125,857
45,969	-5,000	253,464	125,660
46,984	-5,135	253,123	125,361
47,999	-5,380	252,962	125,057
49,013	-5,458	252,770	124,884
50,028	-5,481	252,427	124,683
51,042	-5,546	252,118	124,463
52,057	-5,686	251,966	124,255
53,071	-5,672	251,759	124,155
54,086	-5,565	251,658	124,186
55,101	-5,381	251,412	124,213
56,115	-5,130	251,396	124,411
57,130	-4,854	251,351	124,616
58,144	-4,524	251,083	124,757
59,159	-4,527	250,965	124,685
60,174	-4,762	250,890	124,434
61,188	-4,671	250,684	124,399
62,203	-4,648	250,177	124,156
63,217	-4,701	250,073	124,048
64,232	-4,781	250,017	123,939
65,247	-4,726	249,771	123,854
66,261	-4,795	249,444	123,622
67,276	-4,850	249,159	123,423
68,290	-5,140	249,055	123,112
69,305	-5,312	248,747	122,801
70,320	-5,171	248,525	122,801
71,334	-4,799	248,284	122,989
72,349	-4,744	248,361	123,062
73,363	-4,744	248,204	122,974
74,378	-4,621	247,892	122,913
75,393	-4,898	247,721	122,582
76,407	-4,960	247,545	122,431
77,422	-4,763	247,286	122,459
78,436	-4,917	247,268	122,309
79,451	-4,668	246,948	122,350
80,466	-4,735	246,641	122,131
81,480	-5,074	246,438	121,733
82,495	-5,098	246,307	121,637
83,509	-5,094	246,086	121,521
84,524	-5,090	245,791	121,367
85,539	-5,135	245,513	121,181
86,553	-5,113	245,555	121,210
87,568	-5,128	245,266	121,043
88,582	-5,114	245,144	120,984
89,597	-5,315	245,034	120,750
90,611	-4,774	244,715	121,037
91,626	-4,775	244,650	120,993
92,641	-4,649	244,485	121,005
93,655	-4,996	244,254	120,590
94,670	-4,765	243,997	120,646
95,684	-4,966	243,906	120,422
96,699	-4,713	243,610	120,476
97,714	-5,080	243,479	120,094
98,728	-5,111	243,317	119,978
99,743	-5,110	243,101	119,861
100,757	-5,261	242,945	119,648
101,772	-5,337	242,763	119,485
102,787	-5,235	242,584	119,471
103,801	-5,051	242,262	119,454
104,816	-4,787	242,080	119,572
105,830	-4,842	242,105	119,529
106,845	-4,825	242,086	119,523
107,860	-4,632	241,571	119,418
108,874	-4,932	241,498	119,123
109,889	-5,036	241,229	118,894
110,903	-4,854	241,074	118,957
111,918	-5,072	241,052	118,755
112,933	-4,966	240,881	118,748
113,947	-4,681	240,743	118,904
114,962	-4,745	240,508	118,725
115,976	-4,752	240,184	118,549
116,991	-4,840	240,013	118,382
118,006	-4,910	240,039	118,326
119,020	-4,734	239,900	118,392
120,035	-4,802	239,912	118,331
121,049	-4,895	239,639	118,110
122,064	-4,945	239,384	117,933
123,079	-4,764	239,166	117,963
124,093	-4,976	239,029	117,711
125,108	-5,166	238,689	117,378
126,122	-5,210	238,551	117,265
127,137	-5,317	238,362	117,074
128,151	-5,228	238,146	117,029
129,166	-5,195	238,072	117,009
130,181	-5,172	237,773	116,870
131,195	-5,219	237,690	116,781
132,210	-5,018	237,380	116,781
133,224	-4,938	237,393	116,843
134,239	-5,022	237,242	116,690
135,254	-4,728	236,810	116,704
136,268	-5,140	236,688	116,301
137,283	-5,250	236,437	116,079
138,297	-5,359	236,264	115,895
139,312	-5,308	236,155	115,873
140,327	-5,257	236,149	115,900
141,341	-4,583	236,082	116,401
142,356	-4,503	236,028	116,428
143,370	-4,539	235,668	116,210
144,385	-4,533	235,618	116,181
145,400	-4,212	235,436	116,338
146,414	-4,540	235,385	116,039
147,429	-4,658	235,129	115,808
148,443	-4,715	234,888	115,633
149,458	-4,501	234,755	115,729
150,473	-4,583	234,564	115,559
151,487	-4,794	234,453	115,325
152,502	-4,666	234,353	115,368
153,516	-4,683	234,132	115,236
154,531	-4,398	233,937	115,357
155,546	-4,643	233,759	115,064
156,560	-4,675	233,522	114,911
157,575	-4,828	233,337	114,688
158,589	-4,833	233,245	114,628
159,604	-4,568	233,256	114,834
160,619	-4,440	232,992	114,796
161,633	-4,282	232,890	114,860
162,648	-4,539	232,588	114,498
163,662	-4,593	232,598	114,450
164,677	-4,728	232,226	114,150
165,692	-4,686	232,224	114,172
166,706	-4,352	232,133	114,381
167,721	-4,379	231,818	114,194
168,735	-4,471	231,673	114,040
169,750	-4,324	231,522	114,071
170,764	-4,554	231,431	113,835
171,779	-4,670	231,380	113,708
172,794	-4,505	231,260	113,769
173,808	-4,678	230,895	113,444
174,823	-5,182	230,667	112,926
175,837	-5,474	230,535	112,622
176,852	-4,856	230,326	112,994
177,867	-4,691	230,377	113,139
178,881	-4,717	230,244	113,043
179,896	-4,448	230,084	113,165
180,910	-4,590	229,945	112,975
181,925	-4,360	229,671	113,010
182,940	-4,369	229,499	112,908
183,954	-4,745	229,558	112,634
184,969	-4,438	229,394	112,783
185,983	-4,422	229,179	112,680
186,998	-4,289	229,075	112,722
188,013	-4,566	228,945	112,432
189,027	-4,335	228,665	112,464
190,042	-4,316	228,562	112,418
191,056	-4,388	228,316	112,232
192,071	-4,158	228,117	112,302
193,086	-4,344	228,055	112,117
194,100	-4,618	227,988	111,862
195,115	-4,795	227,406	111,429
196,129	-5,410	227,192	110,840
197,144	-1,743	228,446	114,285
198,159	2,715	229,514	118,273
199,173	4,386	229,989	119,805
200,188	4,239	229,912	119,641
201,202	4,307	229,742	119,594
202,217	4,462	229,549	119,603
203,232	4,655	229,549	119,742
204,246	4,738	229,493	119,766
205,261	4,861	229,344	119,773
206,275	4,854	229,219	119,691
207,290	5,128	229,095	119,828
208,304	5,116	228,842	119,676
209,319	5,093	228,632	119,537
210,334	4,893	228,479	119,292
211,348	4,771	228,235	119,061
212,363	4,419	227,941	118,626
213,377	4,166	227,864	118,381
214,392	4,172	227,576	118,225
215,407	4,164	227,545	118,192
216,421	4,362	227,331	118,223
217,436	4,145	227,180	117,968
218,450	4,029	227,004	117,777
219,465	4,019	226,610	117,554
220,480	4,001	226,725	117,590
221,494	4,018	226,501	117,476
222,509	4,159	226,429	117,535
223,523	4,089	226,272	117,390
224,538	3,914	226,243	117,232
225,553	4,075	226,061	117,249
226,567	4,381	225,899	117,388
227,582	4,370	225,789	117,311
228,596	4,409	225,774	117,323
229,611	4,122	225,468	116,936
230,626	3,985	225,299	116,734
231,640	4,108	225,181	116,756
232,655	4,190	225,109	116,770
233,669	4,657	225,007	117,060
234,684	4,938	224,907	117,211
235,699	4,502	224,711	116,769
236,713	4,225	224,410	116,392
237,728	4,404	224,219	116,418
238,742	4,152	224,223	116,219
239,757	4,204	223,907	116,084
240,772	3,915	223,869	115,837
241,786	4,190	223,580	115,884
242,801	4,412	223,610	116,055
243,815	4,621	223,362	116,074
244,830	4,433	223,463	115,974
245,844	4,213	223,069	115,595
246,859	4,085	223,118	115,514
247,874	4,258	222,816	115,477
248,888	4,517	222,798	115,651
249,903	4,303	222,567	115,361
250,917	4,138	222,441	115,162
251,932	4,187	222,125	115,025
252,947	4,090	221,993	114,874
253,961	4,138	221,830	114,815
254,976	4,117	221,736	114,740
255,990	4,481	221,688	114,977
257,005	4,312	221,481	114,733
258,020	4,345	221,459	114,736
259,034	4,571	221,431	114,879
260,049	4,563	221,136	114,710
261,063	4,328	221,002	114,456
262,078	4,528	220,811	114,495
263,093	4,868	220,720	114,689
264,107	4,488	220,530	114,299
265,122	4,414	220,487	114,212
266,136	4,622	220,245	114,230
267,151	4,719	220,212	114,274
268,166	4,218	219,847	113,705
269,180	3,992	219,603	113,403
270,195	3,948	219,673	113,396
271,209	3,987	219,462	113,306
272,224	4,049	219,483	113,352
273,239	4,199	219,185	113,298
274,253	4,068	219,062	113,129
275,268	3,803	219,002	112,893
276,282	3,889	218,707	112,794
277,297	3,902	218,582	112,728
278,312	4,093	218,391	112,760
279,326	3,924	218,333	112,596
280,341	4,070	218,183	112,616
281,355	4,045	218,127	112,558
282,370	4,149	217,918	112,517
283,384	4,322	217,593	112,465
284,399	3,806	217,648	112,107
285,414	3,834	217,570	112,078
286,428	3,998	217,424	112,112
287,443	4,288	217,341	112,270
288,457	4,345	217,141	112,198
289,472	4,308	216,815	111,992
290,487	3,771	216,658	111,512
291,501	3,686	216,711	111,468
292,516	3,870	216,432	111,448
293,530	4,049	216,449	111,576
294,545	3,925	216,256	111,377
295,560	3,983	216,194	111,377
296,574	4,069	216,050	111,355
297,589	4,026	215,866	111,219
298,603	4,075	215,903	111,264
299,618	4,420	215,516	111,303
300,633	4,017	215,558	111,024
301,647	4,158	215,431	111,050
302,662	4,355	215,321	111,126
303,676	4,284	215,098	110,950
304,691	4,285	215,147	110,966
305,706	4,323	215,005	110,910
306,720	4,533	214,784	110,937
307,735	4,307	214,448	110,592
308,749	4,007	214,383	110,333
309,764	4,032	214,350	110,324
310,779	4,388	214,239	110,512
311,793	4,220	214,024	110,271
312,808	4,256	213,849	110,196
313,822	4,312	213,686	110,143
314,837	3,962	213,501	109,788
315,852	4,145	213,424	109,869
316,866	3,965	213,265	109,650
317,881	4,454	213,238	109,975
318,895	4,373	213,162	109,868
319,910	4,211	212,811	109,562
320,925	3,961	212,631	109,282
321,939	3,658	212,506	108,992
322,954	3,721	212,355	108,950
323,968	4,041	212,495	109,239
324,983	4,361	212,305	109,359
325,997	4,512	212,145	109,373
327,012	4,220	212,005	109,084
328,027	4,303	211,851	109,054
329,041	4,568	211,720	109,165
330,056	4,860	211,563	109,280
331,070	4,263	211,408	108,769
332,085	3,811	211,310	108,390
333,100	4,097	211,124	108,487
334,114	4,241	210,914	108,470
335,129	4,174	210,774	108,341
336,143	4,234	210,501	108,234
337,158	3,762	210,513	107,899
338,173	3,889	210,483	107,963
339,187	3,778	210,348	107,806
340,202	3,949	210,127	107,803
341,216	3,503	210,000	107,416
342,231	4,068	209,816	107,708
343,246	3,955	209,632	107,525
344,260	4,104	209,470	107,536
345,275	4,128	209,518	107,568
346,289	4,283	209,332	107,571
347,304	4,131	209,293	107,435
348,319	3,998	209,224	107,298
349,333	4,257	208,978	107,342
350,348	4,182	208,962	107,273
351,362	4,456	208,827	107,384
352,377	4,317	208,712	107,218
353,392	4,165	208,525	107,007
354,406	3,947	208,400	106,782
355,421	194,530	1345,386	1436,273
356,435	155,240	1484,025	1436,407
