DTS Sentinel unit serial number:	SN410029Multiplexer serial number:	ORYXHardware model number:	OX2-SRSoftware version number:	ORYX F/W v4,00 Oryx Data Collector v3.7.2.0data status	okinstallation	B6 Nyhavnadifferential loss correction	single-endedforward channel	channel 2reverse channel	N/Adate	2023/12/10time	13:05:08forward acquisition time	300,00reverse acquisition time	0,00gamma	499,1914k internal	0,3122k external	0,3122temperature offset calibration	1,0000default loss term (dB/km)	0,3820temperature slope calibration	1,0000multiplexer offset coefficient	1,0000multiplexer slope coefficient	1,0000fibre end	0,00T internal ref (°C)	22,81T ext. ref 1 (°C)	6,46T ext. ref 2 (°C)	6,47length (m)	temperature (°C)	Stokes	anti-Stokes-744,400	-200,000	-0,010	-0,045
-743,385	-83,156	-0,260	0,062
-742,371	280,012	0,056	0,074
-741,356	-200,000	-0,037	0,215
-740,342	800,000	0,050	0,130
-739,327	-89,757	-0,252	0,055
-738,312	-200,000	0,007	-0,111
-737,298	-88,561	-0,243	0,053
-736,283	148,018	0,066	0,067
-735,269	315,799	-0,122	0,172
-734,254	328,056	-0,016	0,023
-733,239	-160,260	-0,472	0,019
-732,225	800,000	-0,020	-0,062
-731,210	-57,356	0,045	0,015
-730,196	-152,346	-0,125	0,007
-729,181	800,000	0,040	-0,091
-728,167	-86,538	-0,112	-0,025
-727,152	-92,741	0,162	0,033
-726,137	-200,000	-0,005	0,022
-725,123	-12,016	-0,121	-0,059
-724,108	-73,824	-0,192	-0,052
-723,094	-46,117	-0,081	-0,029
-722,079	398,837	-0,100	-0,157
-721,064	-123,596	-0,061	0,007
-720,050	653,021	0,031	-0,060
-719,035	-112,709	-0,077	0,011
-718,021	-126,023	0,125	0,014
-717,006	-11,084	0,076	0,037
-715,991	-34,946	-0,096	0,039
-714,977	800,000	-0,056	-0,148
-713,962	-88,384	-0,037	-0,008
-712,948	-138,448	0,027	-0,002
-711,933	-200,000	-0,020	0,192
-710,918	170,962	0,021	0,023
-709,904	-176,438	-0,183	0,003
-708,889	41,706	-0,136	-0,092
-707,875	-200,000	0,023	-0,117
-706,860	-3,500	0,087	0,045
-705,845	175,697	-0,051	-0,055
-704,831	-200,000	0,012	0,048
-703,816	-180,734	-0,110	-0,002
-702,802	747,521	0,031	-0,063
-701,787	708,610	0,015	-0,031
-700,772	-137,980	-0,099	0,008
-699,758	8,794	-0,119	-0,067
-698,743	800,000	0,085	0,185
-697,729	-88,134	-0,081	0,018
-696,714	542,339	-0,058	0,104
-695,699	-200,000	0,009	0,163
-694,685	-200,000	-0,017	-0,130
-693,670	800,000	-0,036	-0,090
-692,656	-130,815	0,101	0,010
-691,641	-200,000	-0,029	0,127
-690,627	800,000	0,026	0,070
-689,612	495,558	-0,046	0,079
-688,597	6,628	-0,059	-0,033
-687,583	53,127	-0,072	-0,051
-686,568	-113,673	0,141	-0,020
-685,554	-149,704	-0,103	0,006
-684,539	8,363	0,196	0,109
-683,524	409,933	0,062	0,099
-682,510	333,027	0,069	0,099
-681,495	-32,036	-0,038	0,016
-680,481	70,451	-0,048	0,037
-679,466	115,964	0,098	-0,089
-678,451	-45,330	0,106	-0,039
-677,437	130,138	0,178	0,169
-676,422	-71,658	0,069	-0,019
-675,408	209,703	-0,030	0,035
-674,393	478,305	-0,030	0,050
-673,378	-44,566	-0,164	0,061
-672,364	213,011	0,042	-0,050
-671,349	800,000	-0,092	-0,196
-670,335	-166,112	-0,140	-0,004
-669,320	26,343	-0,072	0,044
-668,305	-200,000	0,010	-0,041
-667,291	696,775	-0,070	0,138
-666,276	-116,444	-0,247	-0,033
-665,262	127,173	-0,038	-0,035
-664,247	535,286	0,026	0,046
-663,232	51,882	0,065	-0,046
-662,218	51,450	-0,142	-0,100
-661,203	-200,000	-0,024	0,078
-660,189	-16,994	0,134	-0,063
-659,174	-200,000	0,008	0,047
-658,159	319,846	-0,117	-0,165
-657,145	-55,631	0,040	-0,013
-656,130	-200,000	-0,008	0,148
-655,116	302,325	-0,089	0,122
-654,101	800,000	-0,019	0,061
-653,086	27,313	-0,082	0,051
-652,072	800,000	0,019	0,060
-651,057	65,098	-0,035	-0,026
-650,043	800,000	0,041	-0,099
-649,028	-200,000	-0,023	-0,168
-648,014	585,195	0,023	-0,042
-646,999	800,000	-0,017	0,053
-645,984	-116,643	0,072	-0,010
-644,970	0,818	-0,129	-0,068
-643,955	614,451	-0,077	-0,143
-642,941	-200,000	-0,044	-0,147
-641,926	134,741	0,083	-0,080
-640,911	-200,000	0,024	-0,105
-639,897	374,101	-0,048	0,073
-638,882	-125,726	0,069	0,008
-637,868	-165,497	-0,147	-0,005
-636,853	-52,978	-0,099	-0,034
-635,838	-200,000	-0,003	0,020
-634,824	-47,784	0,033	0,012
-633,809	-200,000	-0,004	-0,048
-632,795	-200,000	0,022	0,098
-631,780	100,061	0,029	-0,025
-630,765	-200,000	0,019	-0,085
-629,751	189,316	-0,111	-0,123
-628,736	-14,828	-0,159	0,076
-627,722	-25,519	0,064	0,028
-626,707	-200,000	-0,033	0,183
-625,692	-85,857	0,033	0,008
-624,678	-45,939	-0,116	-0,042
-623,663	93,590	-0,102	-0,086
-622,649	284,284	-0,026	0,035
-621,634	170,635	0,055	-0,059
-620,619	87,438	-0,106	-0,087
-619,605	55,858	-0,035	-0,025
-618,590	-200,000	-0,002	-0,040
-617,576	-200,000	-0,022	0,077
-616,561	-200,000	-0,024	-0,147
-615,546	-200,000	-0,003	-0,055
-614,532	-14,024	-0,132	0,063
-613,517	426,551	-0,045	-0,072
-612,503	800,000	0,026	0,065
-611,488	513,357	-0,046	0,080
-610,474	-37,750	0,082	-0,032
-609,459	-200,000	0,011	0,088
-608,444	31,274	-0,072	-0,046
-607,430	17,691	-0,133	-0,078
-606,415	-200,000	-0,017	-0,156
-605,401	262,110	0,048	-0,062
-604,386	-88,263	-0,206	-0,045
-603,371	-200,000	0,003	-0,170
-602,357	-15,305	-0,092	0,043
-601,342	-200,000	-0,006	0,055
-600,328	-200,000	-0,004	0,017
-599,313	450,368	0,025	-0,041
-598,298	-200,000	0,035	-0,149
-597,284	307,534	0,032	0,044
-596,269	-200,000	-0,006	-0,140
-595,255	12,804	0,120	-0,069
-594,240	64,009	0,101	0,075
-593,225	115,366	-0,043	-0,039
-592,211	231,207	-0,090	-0,109
-591,196	313,389	-0,025	-0,034
-590,182	-200,000	-0,017	0,070
-589,167	110,883	0,050	0,045
-588,152	53,313	0,032	-0,023
-587,138	-78,025	0,064	0,016
-586,123	800,000	0,021	-0,055
-585,109	169,113	0,121	0,128
-584,094	258,774	0,159	-0,204
-583,079	31,860	0,145	-0,092
-582,065	49,999	-0,024	0,017
-581,050	104,260	-0,034	-0,030
-580,036	-155,980	-0,080	-0,004
-579,021	311,579	0,034	0,047
-578,006	-158,280	0,120	-0,005
-576,992	258,409	-0,084	0,108
-575,977	689,351	0,026	0,050
-574,963	325,977	0,005	0,007
-573,948	119,891	-0,037	0,034
-572,934	-3,232	-0,186	0,096
-571,919	-200,000	0,010	-0,116
-570,904	-200,000	-0,005	-0,086
-569,890	-5,063	0,067	-0,034
-568,875	113,500	-0,008	0,008
-567,861	-71,587	0,148	0,041
-566,846	-18,114	0,069	0,032
-565,831	-200,000	0,010	-0,134
-564,817	504,489	-0,051	-0,087
-563,802	399,737	-0,090	-0,140
-562,788	-200,000	-0,037	-0,148
-561,773	-79,974	-0,091	0,022
-560,758	310,853	-0,039	-0,054
-559,744	-200,000	-0,010	-0,084
-558,729	6,902	0,090	0,050
-557,715	-4,545	0,101	-0,051
-556,700	188,251	-0,057	-0,063
-555,685	142,381	-0,030	-0,030
-554,671	127,177	-0,052	-0,049
-553,656	800,000	0,037	0,104
-552,642	-200,000	0,004	-0,022
-551,627	55,992	0,129	0,092
-550,612	800,000	0,033	-0,093
-549,598	-95,886	-0,088	0,017
-548,583	-200,000	0,024	-0,163
-547,569	126,984	-0,101	-0,095
-546,554	-200,000	-0,001	0,067
-545,539	359,495	-0,080	0,119
-544,525	-200,000	0,014	0,140
-543,510	517,769	-0,040	0,069
-542,496	800,000	-0,034	-0,097
-541,481	147,755	-0,082	-0,082
-540,466	800,000	0,053	0,142
-539,452	-142,239	-0,036	0,003
-538,437	800,000	0,053	0,114
-537,423	-64,834	-0,069	-0,020
-536,408	-139,308	-0,121	-0,010
-535,393	-4,357	-0,022	0,011
-534,379	186,462	-0,049	0,054
-533,364	49,018	-0,108	0,075
-532,350	-83,921	0,107	-0,025
-531,335	83,500	0,150	0,121
-530,321	308,608	-0,008	-0,011
-529,306	101,753	0,172	-0,149
-528,291	800,000	-0,037	0,105
-527,277	-200,000	-0,001	0,055
-526,262	-200,000	-0,013	0,071
-525,248	414,329	0,066	-0,104
-524,233	800,000	0,011	0,035
-523,218	-37,501	0,085	0,033
-522,204	64,239	-0,062	-0,046
-521,189	-25,757	-0,090	-0,039
-520,175	679,267	-0,015	0,029
-519,160	-200,000	-0,005	-0,060
-518,145	-74,960	-0,075	0,020
-517,131	-200,000	-0,039	0,150
-516,116	-89,009	-0,120	-0,026
-515,102	-123,643	0,083	0,010
-514,087	-200,000	-0,018	0,058
-513,072	76,137	-0,107	-0,084
-512,058	-160,274	-0,072	-0,003
-511,043	5,654	0,013	-0,007
-510,029	-65,903	-0,071	0,021
-509,014	343,740	0,069	0,100
-507,999	-43,627	0,214	0,079
-506,985	-26,489	0,049	-0,021
-505,970	-53,159	-0,135	-0,045
-504,956	23,972	0,090	-0,055
-503,941	541,339	-0,074	-0,130
-502,926	-106,811	0,088	-0,014
-501,912	-200,000	-0,003	0,078
-500,897	69,300	0,014	-0,011
-499,883	-102,829	-0,119	-0,021
-498,868	-62,333	-0,054	-0,016
-497,853	-200,000	0,003	0,089
-496,839	147,428	0,068	-0,068
-495,824	73,248	0,043	-0,033
-494,810	-200,000	0,011	0,095
-493,795	-40,838	0,085	0,032
-492,781	-83,873	0,124	-0,029
-491,766	-200,000	-0,000	0,135
-490,751	-170,793	-0,100	-0,002
-489,737	-142,545	-0,044	-0,003
-488,722	-200,000	-0,011	0,071
-487,708	90,196	0,045	0,037
-486,693	-21,783	-0,086	0,039
-485,678	-4,417	-0,104	-0,053
-484,664	-200,000	-0,053	-0,204
-483,649	-200,000	-0,016	0,059
-482,635	-200,000	0,004	0,154
-481,620	-200,000	-0,020	0,082
-480,605	90,728	0,062	0,051
-479,591	800,000	-0,035	0,076
-478,576	-200,000	-0,028	-0,097
-477,562	87,287	0,094	-0,077
-476,547	294,295	-0,002	-0,003
-475,532	-34,330	0,042	0,017
-474,518	476,653	0,040	-0,066
-473,503	-109,979	0,089	0,014
-472,489	-200,000	-0,015	0,050
-471,474	-200,000	0,007	-0,056
-470,459	-39,437	-0,124	0,048
-469,445	-146,031	0,065	0,004
-468,430	254,209	-0,036	0,046
-467,416	12,663	0,094	0,053
-466,401	414,202	0,071	0,112
-465,386	-92,255	-0,096	0,020
-464,372	800,000	0,006	0,018
-463,357	-87,243	-0,090	0,020
-462,343	275,882	-0,055	-0,072
-461,328	578,213	0,029	0,052
-460,313	800,000	-0,004	0,010
-459,299	-105,789	0,179	0,029
-458,284	-200,000	-0,009	0,113
-457,270	64,555	-0,020	-0,014
-456,255	370,043	0,081	0,122
-455,241	-200,000	0,024	-0,103
-454,226	800,000	-0,039	0,116
-453,211	800,000	0,028	-0,058
-452,197	98,551	-0,030	0,026
-451,182	585,723	-0,099	0,181
-450,168	-77,200	-0,059	-0,015
-449,153	25,332	0,055	0,033
-448,138	78,955	0,036	-0,029
-447,124	333,809	0,011	-0,015
-446,109	-117,726	0,143	-0,019
-445,095	800,000	-0,025	0,069
-444,080	-200,000	0,013	0,081
-443,065	178,352	-0,086	-0,093
-442,051	-200,000	0,012	0,144
-441,036	11,983	-0,110	0,062
-440,022	30,144	-0,030	0,019
-439,007	-161,839	0,050	-0,002
-437,992	-43,887	-0,056	0,021
-436,978	167,372	-0,071	0,074
-435,963	800,000	-0,011	0,022
-434,949	-155,416	0,133	0,006
-433,934	-176,218	0,097	0,002
-432,919	-177,823	-0,101	-0,002
-431,905	-200,000	-0,018	-0,059
-430,890	202,735	0,032	-0,037
-429,876	-200,000	-0,016	0,175
-428,861	-81,917	0,071	0,017
-427,846	-101,709	-0,065	-0,011
-426,832	429,140	0,032	-0,052
-425,817	134,199	-0,057	-0,054
-424,803	-200,000	0,008	0,162
-423,788	-154,999	-0,098	-0,005
-422,773	-147,166	-0,042	0,003
-421,759	325,420	-0,050	0,071
-420,744	-200,000	0,013	-0,106
-419,730	800,000	-0,040	-0,088
-418,715	-83,477	-0,051	0,012
-417,701	-99,726	-0,120	0,022
-416,686	70,215	0,049	0,037
-415,671	170,443	0,064	0,068
-414,657	-5,251	0,093	0,047
-413,642	486,464	0,034	0,057
-412,628	-128,119	-0,037	0,004
-411,613	-200,000	0,024	0,142
-410,598	14,062	0,147	-0,084
-409,584	15,393	0,088	0,051
-408,569	-106,361	0,078	0,013
-407,555	-200,000	-0,003	0,107
-406,540	-42,106	-0,050	-0,019
-405,525	113,708	-0,221	-0,198
-404,511	800,000	0,046	-0,105
-403,496	-145,217	0,051	0,003
-402,482	-95,076	0,144	-0,028
-401,467	-63,372	-0,046	-0,014
-400,452	783,996	-0,031	0,063
-399,438	-117,930	0,177	-0,023
-398,423	-200,000	-0,028	-0,137
-397,409	-162,810	0,095	-0,003
-396,394	-50,628	-0,022	0,008
-395,379	-11,208	0,080	0,039
-394,365	408,887	0,024	0,038
-393,350	56,591	0,023	0,016
-392,336	26,700	-0,043	-0,026
-391,321	742,076	0,042	0,084
-390,306	-99,906	0,083	0,015
-389,292	300,233	-0,041	0,055
-388,277	-74,042	-0,053	0,014
-387,263	-200,000	-0,017	0,094
-386,248	294,286	0,061	0,082
-385,233	800,000	0,015	-0,033
-384,219	-8,580	-0,095	0,047
-383,204	-88,953	-0,075	0,016
-382,190	-38,091	-0,066	0,026
-381,175	259,560	0,056	-0,072
-380,160	-5,761	0,118	-0,059
-379,146	105,431	-0,166	0,144
-378,131	-200,000	0,023	0,241
-377,117	42,398	-0,185	-0,123
-376,102	-14,460	-0,063	-0,029
-375,088	-57,566	-0,090	-0,029
-374,073	68,107	0,061	0,046
-373,058	-200,000	-0,007	-0,067
-372,044	-58,892	0,186	-0,059
-371,029	-200,000	-0,016	0,060
-370,015	31,954	-0,106	-0,067
-369,000	-152,394	-0,065	-0,003
-367,985	274,110	0,012	-0,015
-366,971	649,686	0,096	-0,182
-365,956	-200,000	-0,016	-0,081
-364,942	-6,789	0,113	0,056
-363,927	-200,000	-0,020	0,088
-362,912	-200,000	-0,046	-0,225
-361,898	-66,444	0,079	-0,023
-360,883	800,000	-0,034	0,098
-359,869	50,156	-0,035	0,024
-358,854	-160,097	0,022	0,001
-357,839	316,553	0,025	-0,035
-356,825	-200,000	-0,010	0,113
-355,810	800,000	0,065	-0,178
-354,796	77,837	-0,098	-0,077
-353,781	202,685	0,049	0,056
-352,766	688,248	-0,054	-0,105
-351,752	93,447	0,025	0,020
-350,737	-200,000	-0,012	0,108
-349,723	800,000	0,060	0,124
-348,708	-200,000	-0,012	-0,127
-347,693	18,703	-0,066	-0,038
-346,679	161,784	-0,091	0,093
-345,664	-174,735	0,042	0,001
-344,650	-200,000	0,010	0,034
-343,635	-109,708	0,047	-0,007
-342,620	68,775	-0,081	0,061
-341,606	-101,063	0,084	-0,015
-340,591	478,309	0,037	-0,063
-339,577	352,766	-0,047	-0,068
-338,562	189,003	0,050	-0,056
-337,548	800,000	-0,005	-0,017
-336,533	161,476	0,030	0,031
-335,518	-200,000	-0,048	0,191
-334,504	-17,892	-0,100	0,046
-333,489	662,321	0,091	-0,174
-332,475	177,418	-0,027	-0,029
-331,460	0,342	-0,079	-0,041
-330,445	-67,606	-0,013	-0,004
-329,431	-98,702	0,189	0,035
-328,416	137,223	0,122	0,117
-327,402	-57,501	0,156	-0,050
-326,387	-135,635	0,055	-0,005
-325,372	-35,935	-0,106	0,042
-324,358	-200,000	0,002	0,056
-323,343	-21,280	0,138	0,062
-322,329	800,000	0,030	0,095
-321,314	5,913	0,078	0,042
-320,299	125,774	-0,044	-0,041
-319,285	800,000	0,037	0,110
-318,270	-57,202	-0,081	0,026
-317,256	-47,092	-0,038	0,014
-316,241	14,714	0,122	-0,070
-315,226	-200,000	-0,005	0,038
-314,212	-92,299	0,121	-0,025
-313,197	-200,000	-0,002	0,030
-312,183	16,844	-0,027	0,016
-311,168	-131,542	0,150	-0,014
-310,153	800,000	0,030	-0,069
-309,139	-200,000	0,000	-0,038
-308,124	-200,000	-0,007	0,087
-307,110	3,086	0,066	-0,035
-306,095	400,316	-0,028	-0,043
-305,080	318,348	0,053	-0,074
-304,066	-200,000	0,016	0,057
-303,051	65,660	-0,165	0,123
-302,037	22,686	0,052	-0,031
-301,022	-121,275	-0,043	0,005
-300,008	-200,000	-0,004	0,092
-298,993	-200,000	-0,028	0,090
-297,978	-154,533	-0,018	-0,001
-296,964	154,722	-0,122	-0,123
-295,949	83,023	-0,060	0,048
-294,935	353,128	-0,052	-0,076
-293,920	679,403	0,025	0,048
-292,905	-53,092	0,134	-0,045
-291,891	424,447	0,027	0,042
-290,876	800,000	-0,028	0,060
-289,862	-200,000	0,004	-0,028
-288,847	-108,721	-0,065	0,010
-287,832	800,000	-0,052	0,155
-286,818	-200,000	-0,018	-0,070
-285,803	205,399	-0,032	0,036
-284,789	1,315	0,100	0,052
-283,774	-200,000	0,001	-0,059
-282,759	604,577	0,064	0,118
-281,745	625,396	0,056	0,103
-280,730	-139,012	-0,072	0,006
-279,716	147,844	0,073	0,072
-278,701	101,976	-0,007	0,006
-277,686	-200,000	0,001	0,110
-276,672	235,399	0,155	0,187
-275,657	-55,058	-0,019	0,006
-274,643	-200,000	0,012	0,202
-273,628	-35,735	0,091	-0,036
-272,613	-17,833	0,037	-0,017
-271,599	339,895	0,072	0,103
-270,584	-200,000	0,027	0,113
-269,570	300,649	0,071	0,097
-268,555	5,146	-0,063	-0,034
-267,540	-114,383	-0,131	-0,018
-266,526	-200,000	0,016	-0,072
-265,511	-200,000	0,027	-0,168
-264,497	204,118	-0,028	-0,031
-263,482	-200,000	-0,001	0,115
-262,467	800,000	0,029	-0,072
-261,453	239,414	-0,109	-0,133
-260,438	-85,091	-0,130	0,029
-259,424	-82,883	0,117	-0,027
-258,409	319,580	0,022	-0,030
-257,395	-200,000	-0,034	-0,134
-256,380	-61,196	0,138	0,042
-255,365	-80,504	0,154	0,037
-254,351	-27,183	-0,082	0,035
-253,336	-84,942	0,084	-0,019
-252,322	186,578	-0,108	-0,118
-251,307	800,000	0,068	-0,153
-250,292	37,500	-0,015	-0,010
-249,278	-200,000	0,002	0,008
-248,263	-200,000	0,015	-0,059
-247,249	255,649	-0,082	-0,103
-246,234	-136,012	-0,184	-0,016
-245,219	37,189	-0,059	-0,038
-244,205	800,000	0,012	0,027
-243,190	154,880	0,072	-0,073
-242,176	-200,000	0,009	-0,043
-241,161	-18,788	-0,023	-0,010
-240,146	-142,771	-0,097	0,007
-239,132	265,980	-0,051	0,065
-238,117	727,419	-0,092	-0,181
-237,103	140,769	-0,102	0,099
-236,088	800,000	0,026	-0,067
-235,073	-200,000	-0,040	-0,146
-234,059	182,935	-0,067	-0,072
-233,044	-100,823	0,127	-0,023
-232,030	800,000	-0,041	-0,104
-231,015	-200,000	-0,003	-0,113
-230,000	-167,071	-0,147	0,004
-228,986	401,409	-0,063	0,098
-227,971	70,046	0,036	-0,027
-226,957	161,536	0,064	0,065
-225,942	-94,681	-0,107	-0,021
-224,927	407,913	-0,016	0,024
-223,913	34,413	-0,042	0,026
-222,898	700,683	0,047	0,091
-221,884	-158,708	0,034	0,001
-220,869	85,691	0,075	0,060
-219,855	372,110	0,035	-0,052
-218,840	-42,708	0,096	-0,036
-217,825	747,653	-0,037	0,073
-216,811	582,723	0,030	0,054
-215,796	-200,000	-0,000	-0,071
-214,782	12,348	-0,115	-0,064
-213,767	-200,000	0,024	-0,159
-212,752	181,044	0,088	0,095
-211,738	800,000	0,043	0,134
-210,723	71,671	0,052	-0,040
-209,709	-16,946	0,084	-0,039
-208,694	-200,000	-0,002	-0,195
-207,679	-200,000	0,015	-0,064
-206,665	-31,850	-0,089	0,036
-205,650	84,549	-0,051	0,041
-204,636	441,085	0,060	0,096
-203,621	-98,206	-0,022	0,004
-202,606	800,000	-0,026	-0,058
-201,592	-200,000	-0,003	-0,047
-200,577	225,823	-0,016	0,019
-199,563	-127,915	-0,121	-0,013
-198,548	-200,000	0,021	0,084
-197,533	-103,371	0,126	-0,021
-196,519	2,485	0,145	-0,076
-195,504	-200,000	0,008	-0,086
-194,490	588,544	-0,028	-0,051
-193,475	-156,746	-0,136	0,006
-192,460	-200,000	-0,014	-0,132
-191,446	-200,000	-0,019	0,082
-190,431	757,885	-0,019	-0,037
-189,417	-18,898	-0,035	0,016
-188,402	-200,000	0,022	-0,139
-187,387	759,266	-0,052	0,103
-186,373	42,483	0,053	-0,035
-185,358	-200,000	0,023	-0,101
-184,344	-63,796	0,116	0,034
-183,329	557,812	-0,038	-0,066
-182,315	-15,928	-0,093	-0,043
-181,300	-200,000	0,010	-0,075
-180,285	-123,755	0,080	0,009
-179,271	-200,000	-0,011	0,168
-178,256	715,153	0,016	0,031
-177,242	606,019	0,014	0,026
-176,227	15,627	0,049	0,028
-175,212	10,403	-0,046	-0,025
-174,198	800,000	-0,006	-0,014
-173,183	265,096	0,043	0,055
-172,169	114,251	0,052	-0,046
-171,154	-200,000	-0,031	0,105
-170,139	800,000	0,020	0,049
-169,125	800,000	0,031	0,080
-168,110	-60,116	0,056	0,017
-167,096	-108,075	0,074	0,012
-166,081	-152,715	0,072	0,004
-165,066	800,000	-0,073	-0,215
-164,052	800,000	-0,000	0,001
-163,037	-200,000	-0,004	-0,095
-162,023	131,302	0,043	0,040
-161,008	800,000	-0,016	0,049
-159,993	-200,000	0,025	0,088
-158,979	-26,836	0,058	0,025
-157,964	800,000	-0,042	0,120
-156,950	136,975	-0,010	-0,010
-155,935	800,000	0,034	-0,110
-154,920	-200,000	0,063	0,228
-153,906	-200,000	-0,004	0,174
-152,891	-200,000	0,004	-0,047
-151,877	-200,000	0,000	-0,007
-150,862	276,050	-0,076	-0,098
-149,847	-134,485	-0,055	-0,005
-148,833	800,000	-0,013	0,037
-147,818	-200,000	-0,004	0,123
-146,804	800,000	0,020	0,054
-145,789	24,579	0,137	0,082
-144,775	800,000	0,054	0,157
-143,760	800,000	0,054	0,131
-142,745	-55,740	-0,068	0,022
-141,731	396,415	-0,066	-0,101
-140,716	71,598	-0,122	0,093
-139,702	-200,000	-0,015	0,059
-138,687	-200,000	-0,045	-0,157
-137,672	800,000	-0,071	0,147
-136,658	286,798	0,067	-0,088
-135,643	-200,000	-0,001	-0,160
-134,629	737,637	-0,035	-0,068
-133,614	115,715	0,065	0,058
-132,599	-200,000	-0,014	-0,060
-131,585	-200,000	-0,024	0,101
-130,570	-189,709	-0,082	-0,001
-129,556	-200,000	-0,029	-0,100
-128,541	-200,000	-0,024	-0,102
-127,526	800,000	0,025	-0,059
-126,512	-65,198	0,183	-0,053
-125,497	-21,491	-0,082	0,036
-124,483	-175,173	-0,016	0,000
-123,468	800,000	0,018	0,043
-122,453	656,472	0,086	-0,161
-121,439	125,537	-0,058	-0,053
-120,424	-59,902	-0,072	0,022
-119,410	800,000	0,074	0,154
-118,395	800,000	0,086	0,191
-117,380	800,000	0,010	0,021
-116,366	800,000	-0,039	0,123
-115,351	42,493	0,067	-0,044
-114,337	-93,278	-0,190	-0,038
-113,322	-164,819	-0,054	-0,002
-112,307	-200,000	-0,046	-0,191
-111,293	800,000	-0,055	0,163
-110,278	-200,000	0,018	-0,074
-109,264	-180,542	-0,074	-0,001
-108,249	384,389	-0,039	-0,058
-107,234	-200,000	-0,013	-0,108
-106,220	273,548	-0,042	-0,054
-105,205	-0,912	0,114	-0,059
-104,191	-200,000	-0,016	-0,073
-103,176	-73,890	0,149	0,039
-102,162	-200,000	-0,030	0,183
-101,147	800,000	0,089	-0,203
-100,132	101,913	-0,056	-0,047
-99,118	203,422	-0,087	-0,098
-98,103	800,000	-0,054	0,118
-97,089	-200,000	0,024	0,103
-96,074	-7,589	0,078	0,038
-95,059	-24,391	-0,058	0,025
-94,045	800,000	-0,025	0,058
-93,030	186,044	-0,079	0,085
-92,016	187,915	-0,042	-0,045
-91,001	-200,000	-0,010	0,056
-89,986	-200,000	-0,000	0,027
-88,972	-162,009	0,141	0,005
-87,957	-200,000	0,025	0,110
-86,943	44,866	-0,019	-0,013
-85,928	-140,992	0,022	-0,002
-84,913	-65,519	-0,052	-0,015
-83,899	-63,484	-0,099	-0,029
-82,884	471,558	0,040	0,065
-81,870	-200,000	-0,007	-0,035
-80,855	-45,121	-0,049	-0,018
-79,840	72,446	0,063	-0,048
-78,826	-46,850	-0,145	-0,051
-77,811	49,326	0,102	0,069
-76,797	695,654	0,075	0,144
-75,782	52,284	-0,052	0,036
-74,767	0,331	-0,048	0,025
-73,753	-200,000	0,010	0,044
-72,738	-28,272	0,149	-0,062
-71,724	-200,000	-0,008	-0,037
-70,709	312,643	0,128	-0,175
-69,694	-27,709	-0,144	0,060
-68,680	-17,435	0,111	-0,051
-67,665	-91,099	-0,023	-0,005
-66,651	-93,256	-0,053	0,011
-65,636	800,000	-0,027	-0,063
-64,622	57,038	0,047	-0,033
-63,607	358,687	-0,048	-0,069
-62,592	676,809	-0,040	-0,075
-61,578	82,955	0,086	-0,068
-60,563	800,000	-0,070	-0,159
-59,549	-200,000	-0,012	0,145
-58,534	-118,218	-1,175	-0,150
-57,519	778,126	-0,776	-1,546
-56,505	-200,000	-1,021	-4,490
-55,490	47,027	0,660	-0,445
-54,476	800,000	5,133	11,935
-53,461	-200,000	13,165	252,520
-52,446	-200,000	688,058	2273,742
-51,432	599,673	1623,239	2935,935
-50,417	121,328	1637,268	1480,045
-49,403	73,362	1291,567	979,893
-48,388	38,576	1025,924	662,739
-47,373	24,736	983,319	589,647
-46,359	23,924	973,174	580,873
-45,344	23,020	968,947	575,369
-44,330	22,965	967,436	574,269
-43,315	22,879	966,064	573,151
-42,300	22,884	964,951	572,486
-41,286	22,813	964,290	571,838
-40,271	22,833	963,034	571,135
-39,257	22,824	962,170	570,570
-38,242	22,841	961,046	569,937
-37,227	22,772	960,531	569,385
-36,213	22,851	959,507	569,012
-35,198	22,767	958,663	568,219
-34,184	22,841	957,992	568,036
-33,169	22,807	957,246	567,460
-32,154	22,852	956,223	566,979
-31,140	22,876	955,440	566,569
-30,125	22,893	954,526	566,058
-29,111	22,808	953,708	565,279
-28,096	22,818	953,078	564,913
-27,082	22,780	952,420	564,378
-26,067	22,853	951,641	564,131
-25,052	22,883	950,897	563,761
-24,038	22,901	950,011	563,275
-23,023	22,862	949,754	562,972
-22,009	22,883	948,933	562,531
-20,994	22,859	948,354	562,089
-19,979	22,910	947,591	561,776
-18,965	22,809	947,160	561,177
-17,950	22,791	946,599	560,763
-16,936	22,839	945,751	560,393
-15,921	22,797	945,132	559,869
-14,906	22,731	944,347	559,171
-13,892	22,742	943,731	558,821
-12,877	22,755	942,961	558,385
-11,863	22,691	942,518	557,894
-10,848	22,658	942,209	557,586
-9,833	22,842	941,425	557,686
-8,819	22,765	940,846	557,073
-7,804	22,743	940,400	556,719
-6,790	22,695	939,741	556,153
-5,775	22,829	938,834	556,021
-4,760	22,740	938,527	555,533
-3,746	22,733	937,791	555,054
-2,731	22,578	937,162	554,171
-1,717	22,551	936,345	553,580
-0,702	22,566	935,543	553,130
0,313	22,377	934,949	553,019
1,327	25,430	933,148	561,518
2,342	35,492	797,710	506,864
3,356	33,766	451,794	284,444
4,371	2,401	292,741	153,144
5,386	-2,482	273,526	138,478
6,400	-4,012	267,931	134,218
7,415	-4,470	265,263	132,451
8,429	-4,003	264,036	132,252
9,444	-3,885	263,318	131,988
10,459	-4,039	262,527	131,440
11,473	-4,238	261,968	130,969
12,488	-4,318	261,582	130,692
13,502	-4,298	261,048	130,431
14,517	-4,312	260,467	130,117
15,531	-4,116	260,091	130,093
16,546	-4,009	259,775	130,020
17,561	-4,117	259,517	129,782
18,575	-4,155	259,201	129,579
19,590	-4,257	258,822	129,287
20,604	-4,294	258,522	129,093
21,619	-4,311	258,295	128,953
22,634	-4,181	257,880	128,849
23,648	-4,186	257,575	128,681
24,663	-4,220	257,271	128,487
25,677	-4,396	257,277	128,323
26,692	-4,154	256,751	128,263
27,707	-4,208	256,556	128,106
28,721	-4,256	256,332	127,941
29,736	-4,313	256,156	127,791
30,750	-4,245	255,880	127,702
31,765	-4,366	255,728	127,508
32,780	-4,366	255,396	127,331
33,794	-4,216	255,190	127,349
34,809	-4,159	254,948	127,267
35,823	-4,317	254,624	126,956
36,838	-4,418	254,501	126,794
37,853	-4,195	254,080	126,769
38,867	-4,287	253,885	126,580
39,882	-4,293	253,856	126,548
40,896	-4,124	253,415	126,465
41,911	-4,402	253,425	126,216
42,926	-4,280	252,940	126,069
43,940	-4,300	252,783	125,962
44,955	-4,441	252,544	125,710
45,969	-4,432	252,452	125,660
46,984	-4,778	252,208	125,227
47,999	-4,918	251,830	124,907
49,013	-4,918	251,506	124,735
50,028	-5,075	251,308	124,490
51,042	-5,442	251,233	124,124
52,057	-5,252	250,855	124,091
53,071	-5,283	250,732	123,992
54,086	-4,999	250,609	124,166
55,101	-4,983	250,381	124,055
56,115	-4,691	250,251	124,231
57,130	-4,241	250,171	124,567
58,144	-3,875	249,971	124,771
59,159	-4,280	249,782	124,317
60,174	-4,126	249,621	124,358
61,188	-4,097	249,366	124,246
62,203	-4,204	249,294	124,107
63,217	-4,302	249,097	123,913
64,232	-4,145	248,762	123,870
65,247	-4,117	248,420	123,713
66,261	-4,119	248,346	123,663
67,276	-4,294	247,891	123,276
68,290	-4,431	247,762	123,085
69,305	-4,614	247,554	122,815
70,320	-4,603	247,351	122,713
71,334	-4,616	247,370	122,700
72,349	-4,264	247,215	122,911
73,363	-4,235	246,964	122,799
74,378	-4,068	246,807	122,852
75,393	-4,278	246,549	122,535
76,407	-4,350	246,383	122,381
77,422	-4,215	246,145	122,365
78,436	-4,173	246,004	122,320
79,451	-4,231	245,862	122,190
80,466	-4,300	245,478	121,930
81,480	-4,508	245,139	121,575
82,495	-4,495	245,062	121,538
83,509	-4,495	244,900	121,446
84,524	-4,435	244,710	121,392
85,539	-4,626	244,434	121,084
86,553	-4,625	244,262	120,989
87,568	-4,525	244,228	121,045
88,582	-4,482	243,940	120,927
89,597	-4,647	243,898	120,757
90,611	-4,438	243,536	120,742
91,626	-4,142	243,553	120,987
92,641	-4,224	243,286	120,775
93,655	-4,309	243,095	120,599
94,670	-4,301	242,887	120,491
95,684	-4,224	242,625	120,415
96,699	-4,443	242,506	120,163
97,714	-4,772	242,331	119,793
98,728	-4,612	242,196	119,848
99,743	-4,757	241,873	119,557
100,757	-4,896	241,790	119,391
101,772	-4,628	241,537	119,476
102,787	-4,639	241,372	119,375
103,801	-4,489	241,095	119,352
104,816	-4,367	241,128	119,458
105,830	-4,430	240,993	119,328
106,845	-4,098	240,815	119,503
107,860	-4,242	240,527	119,231
108,874	-4,226	240,401	119,172
109,889	-4,266	240,113	118,984
110,903	-4,380	239,882	118,766
111,918	-4,497	239,703	118,571
112,933	-4,523	239,595	118,486
113,947	-4,316	239,496	118,596
114,962	-4,443	239,603	118,534
115,976	-4,117	239,000	118,491
116,991	-4,424	238,951	118,206
118,006	-4,356	238,899	118,225
119,020	-4,383	238,810	118,149
120,035	-4,226	238,556	118,141
121,049	-4,073	238,398	118,176
122,064	-4,325	238,279	117,902
123,079	-4,433	237,971	117,651
124,093	-4,528	237,908	117,532
125,108	-4,476	237,540	117,381
126,122	-4,828	237,441	117,037
127,137	-4,743	237,123	116,939
128,151	-4,700	237,027	116,915
129,166	-4,586	236,876	116,923
130,181	-4,766	236,697	116,679
131,195	-4,820	236,548	116,551
132,210	-4,508	236,359	116,700
133,224	-4,381	236,224	116,725
134,239	-4,310	236,123	116,722
135,254	-4,172	235,769	116,648
136,268	-4,371	235,626	116,407
137,283	-4,687	235,380	116,020
138,297	-4,932	235,175	115,712
139,312	-4,890	234,962	115,631
140,327	-4,469	235,058	116,006
141,341	-4,085	234,990	116,269
142,356	-4,143	234,832	116,135
143,370	-4,109	234,794	116,133
144,385	-3,918	234,476	116,117
145,400	-3,958	234,479	116,077
146,414	-3,958	234,050	115,854
147,429	-4,085	233,860	115,649
148,443	-4,137	233,933	115,633
149,458	-4,089	233,703	115,547
150,473	-4,029	233,429	115,449
151,487	-4,170	233,305	115,265
152,502	-4,072	233,057	115,210
153,516	-3,999	233,041	115,250
154,531	-3,931	232,759	115,155
155,546	-4,246	232,639	114,835
156,560	-4,161	232,392	114,770
157,575	-4,327	232,217	114,542
158,589	-4,327	232,094	114,471
159,604	-4,015	232,000	114,661
160,619	-3,837	231,788	114,687
161,633	-3,750	231,629	114,666
162,648	-3,960	231,587	114,469
163,662	-3,910	231,309	114,362
164,677	-4,190	231,176	114,065
165,692	-3,920	231,060	114,210
166,706	-3,838	231,045	114,258
167,721	-3,725	230,871	114,249
168,735	-3,739	230,649	114,118
169,750	-3,890	230,496	113,914
170,764	-4,070	230,327	113,680
171,779	-4,036	230,319	113,692
172,794	-4,075	230,133	113,560
173,808	-4,137	229,878	113,376
174,823	-4,624	229,491	112,794
175,837	-4,618	229,261	112,676
176,852	-4,326	229,354	112,940
177,867	-4,154	229,244	113,009
178,881	-4,155	229,110	112,932
179,896	-4,046	229,059	112,981
180,910	-3,751	228,766	113,056
181,925	-3,898	228,674	112,887
182,940	-3,887	228,580	112,839
183,954	-3,986	228,451	112,688
184,969	-3,972	228,310	112,619
185,983	-3,833	228,260	112,693
186,998	-3,947	227,884	112,408
188,013	-3,694	227,691	112,499
189,027	-3,864	227,575	112,301
190,042	-3,826	227,368	112,217
191,056	-3,998	227,277	112,030
192,071	-3,779	227,087	112,095
193,086	-3,869	226,904	111,926
194,100	-4,017	226,837	111,768
195,115	-4,218	226,337	111,358
196,129	-5,255	225,985	110,378
197,144	-1,911	227,162	113,522
198,159	2,485	228,461	117,561
199,173	3,827	228,755	118,739
200,188	4,058	228,471	118,760
201,202	4,171	228,483	118,842
202,217	4,526	228,257	118,988
203,232	4,824	228,071	119,110
204,246	4,581	228,139	118,947
205,261	4,771	228,025	119,023
206,275	4,783	227,974	118,996
207,290	4,933	227,816	119,017
208,304	5,049	227,487	118,924
209,319	4,683	227,450	118,613
210,334	4,734	227,137	118,478
211,348	4,568	226,901	118,218
212,363	4,297	226,607	117,847
213,377	4,012	226,455	117,540
214,392	3,846	226,381	117,364
215,407	4,360	226,099	117,600
216,421	4,120	226,146	117,431
217,436	4,213	225,775	117,298
218,450	4,106	225,502	117,064
219,465	3,732	225,571	116,806
220,480	3,868	225,348	116,783
221,494	3,826	225,273	116,702
222,509	3,968	225,275	116,800
223,523	4,061	225,001	116,719
224,538	3,712	224,818	116,349
225,553	4,045	224,629	116,493
226,567	4,227	224,417	116,510
227,582	4,269	224,421	116,533
228,596	4,250	224,445	116,521
229,611	4,054	224,161	116,215
230,626	3,964	224,027	116,067
231,640	3,952	223,810	115,935
232,655	4,193	223,851	116,128
233,669	4,814	223,714	116,514
234,684	4,715	223,618	116,380
235,699	4,351	223,338	115,950
236,713	4,125	223,237	115,717
237,728	3,974	222,942	115,440
238,742	3,869	222,771	115,263
239,757	3,856	222,655	115,183
240,772	4,038	222,451	115,203
241,786	3,799	222,413	114,994
242,801	4,196	222,301	115,224
243,815	4,459	222,178	115,346
244,830	4,426	222,162	115,302
245,844	4,218	221,805	114,952
246,859	4,390	221,712	115,021
247,874	4,232	221,847	114,963
248,888	4,525	221,428	114,954
249,903	4,118	221,319	114,585
250,917	4,260	221,073	114,552
251,932	4,176	220,881	114,380
252,947	4,184	220,790	114,329
253,961	3,979	220,483	114,008
254,976	3,871	220,509	113,931
255,990	4,193	220,342	114,073
257,005	4,021	220,407	113,969
258,020	3,977	220,238	113,839
259,034	4,405	220,183	114,117
260,049	4,542	219,866	114,044
261,063	4,133	219,765	113,680
262,078	4,376	219,634	113,781
263,093	4,413	219,508	113,733
264,107	4,203	219,422	113,523
265,122	4,280	219,274	113,493
266,136	4,624	219,067	113,629
267,151	4,458	218,880	113,400
268,166	4,278	218,644	113,135
269,180	3,948	218,550	112,835
270,195	4,147	218,247	112,814
271,209	3,909	218,203	112,607
272,224	3,810	218,057	112,448
273,239	4,002	218,022	112,561
274,253	4,099	217,783	112,498
275,268	4,056	217,601	112,363
276,282	3,782	217,544	112,124
277,297	3,589	217,377	111,887
278,312	3,864	217,304	112,040
279,326	4,112	217,087	112,099
280,341	4,055	217,214	112,113
281,355	4,216	216,763	111,987
282,370	4,024	216,735	111,823
283,384	3,890	216,632	111,663
284,399	3,648	216,267	111,289
285,414	3,751	216,284	111,363
286,428	4,178	216,087	111,561
287,443	4,291	215,984	111,579
288,457	4,245	215,918	111,502
289,472	4,075	215,696	111,254
290,487	3,684	215,408	110,814
291,501	3,801	215,210	110,786
292,516	3,579	215,298	110,661
293,530	3,614	215,217	110,636
294,545	3,777	214,876	110,568
295,560	3,931	214,831	110,645
296,574	3,796	214,813	110,529
297,589	3,998	214,682	110,597
298,603	4,180	214,356	110,550
299,618	4,025	214,324	110,412
300,633	4,058	214,175	110,349
301,647	4,226	214,149	110,446
302,662	4,339	213,898	110,388
303,676	4,520	213,847	110,481
304,691	4,356	213,679	110,268
305,706	4,553	213,481	110,296
306,720	4,499	213,536	110,276
307,735	4,262	213,229	109,939
308,749	4,061	213,062	109,699
309,764	4,196	212,966	109,736
310,779	4,372	212,972	109,855
311,793	4,303	212,775	109,695
312,808	3,943	212,692	109,386
313,822	4,131	212,460	109,391
314,837	3,915	212,325	109,158
315,852	3,839	212,145	109,002
316,866	3,872	212,025	108,954
317,881	4,137	212,096	109,169
318,895	4,328	211,783	109,133
319,910	3,900	211,669	108,761
320,925	3,856	211,461	108,614
321,939	3,620	211,253	108,331
322,954	3,578	211,251	108,291
323,968	4,098	211,174	108,608
324,983	4,195	211,081	108,619
325,997	4,314	210,991	108,647
327,012	4,066	210,785	108,356
328,027	3,970	210,588	108,178
329,041	4,516	210,538	108,526
330,056	4,614	210,344	108,485
331,070	3,993	210,273	108,004
332,085	4,058	209,956	107,877
333,100	3,842	209,739	107,604
334,114	4,198	209,671	107,809
335,129	4,063	209,581	107,659
336,143	3,852	209,467	107,443
337,158	3,890	209,363	107,407
338,173	3,935	209,218	107,354
339,187	3,894	209,065	107,237
340,202	3,579	209,105	107,029
341,216	3,784	208,723	106,966
342,231	3,725	208,714	106,911
343,246	3,799	208,432	106,808
344,260	3,851	208,326	106,781
345,275	3,951	208,326	106,840
346,289	3,965	208,246	106,800
347,304	3,978	208,204	106,778
348,319	4,160	207,915	106,746
349,333	3,869	207,820	106,486
350,348	3,818	207,765	106,413
351,362	4,332	207,521	106,634
352,377	4,326	207,414	106,566
353,392	4,228	207,196	106,376
354,406	4,101	207,330	106,348
355,421	194,098	1345,027	1434,576
356,435	154,846	1483,748	1434,700
