DTS Sentinel unit serial number:	SN410029Multiplexer serial number:	ORYXHardware model number:	OX2-SRSoftware version number:	ORYX F/W v4,00 Oryx Data Collector v3.7.2.0data status	okinstallation	B6 Nyhavnadifferential loss correction	single-endedforward channel	channel 2reverse channel	N/Adate	2023/12/10time	01:50:08forward acquisition time	300,00reverse acquisition time	0,00gamma	499,1914k internal	0,3125k external	0,3125temperature offset calibration	1,0000default loss term (dB/km)	0,3820temperature slope calibration	1,0000multiplexer offset coefficient	1,0000multiplexer slope coefficient	1,0000fibre end	0,00T internal ref (°C)	21,94T ext. ref 1 (°C)	5,68T ext. ref 2 (°C)	5,68length (m)	temperature (°C)	Stokes	anti-Stokes-744,400	-200,000	0,012	-0,114
-743,385	-177,539	-0,137	0,002
-742,371	-56,365	0,174	-0,057
-741,356	-86,047	-0,222	0,051
-740,342	800,000	-0,039	-0,089
-739,327	130,169	-0,175	0,167
-738,312	275,677	0,102	0,135
-737,298	-142,215	-0,271	-0,020
-736,283	24,922	-0,066	-0,041
-735,269	-9,968	-0,294	0,145
-734,254	800,000	0,054	0,126
-733,239	-137,126	-0,494	-0,041
-732,225	-196,548	0,201	-0,001
-731,210	-77,724	0,017	0,004
-730,196	174,119	0,065	-0,070
-729,181	-200,000	0,011	-0,120
-728,167	326,547	0,063	0,090
-727,152	-82,096	0,080	0,019
-726,137	-102,361	-0,084	-0,015
-725,123	800,000	-0,067	-0,162
-724,108	-200,000	-0,053	-0,231
-723,094	-134,896	-0,176	0,016
-722,079	-200,000	-0,022	-0,128
-721,064	88,386	-0,005	0,004
-720,050	445,036	-0,068	0,111
-719,035	215,893	-0,065	-0,077
-718,021	40,295	-0,089	-0,059
-717,006	-143,472	-0,038	-0,003
-715,991	-25,474	-0,148	-0,065
-714,977	-76,965	-0,071	0,018
-713,962	-49,325	-0,043	0,015
-712,948	406,077	-0,080	0,126
-711,933	-200,000	-0,007	-0,093
-710,918	-200,000	0,018	-0,064
-709,904	-121,940	0,008	-0,001
-708,889	732,367	-0,014	-0,029
-707,875	46,141	-0,181	-0,124
-706,860	143,609	0,104	-0,103
-705,845	-200,000	0,000	-0,020
-704,831	-36,891	0,084	0,033
-703,816	177,352	-0,090	-0,097
-702,802	6,180	0,098	0,054
-701,787	153,835	-0,129	-0,132
-700,772	393,568	-0,046	-0,071
-699,758	232,491	-0,029	-0,035
-698,743	-200,000	0,029	0,114
-697,729	50,413	0,059	-0,041
-696,714	-30,683	-0,091	-0,038
-695,699	-200,000	-0,010	0,084
-694,685	589,769	-0,077	-0,141
-693,670	800,000	0,055	-0,123
-692,656	-200,000	-0,007	0,115
-691,641	14,671	-0,047	-0,027
-690,627	579,017	-0,041	-0,075
-689,612	-166,244	-0,123	0,004
-688,597	-200,000	0,013	0,158
-687,583	-17,568	-0,056	-0,026
-686,568	17,762	-0,061	0,036
-685,554	711,627	0,087	-0,172
-684,539	800,000	-0,037	-0,105
-683,524	-66,692	0,031	-0,009
-682,510	-200,000	-0,030	-0,111
-681,495	800,000	-0,023	0,048
-680,481	63,441	-0,095	-0,070
-679,466	-140,289	-0,109	-0,008
-678,451	193,288	-0,026	-0,029
-677,437	-88,700	0,028	-0,006
-676,422	-200,000	0,011	0,059
-675,408	377,086	0,044	0,067
-674,393	-38,023	-0,064	-0,025
-673,378	174,190	-0,132	-0,142
-672,364	40,206	-0,043	0,029
-671,349	-108,245	-0,106	-0,017
-670,335	98,467	0,106	-0,091
-669,320	-88,746	-0,013	0,003
-668,305	60,621	-0,039	0,028
-667,291	53,520	0,086	0,061
-666,276	137,564	-0,023	-0,022
-665,262	800,000	-0,027	0,071
-664,247	153,735	-0,031	0,032
-663,232	800,000	0,036	-0,112
-662,218	197,617	-0,065	0,074
-661,203	-82,280	-0,043	0,010
-660,189	4,261	-0,010	0,005
-659,174	-93,258	-0,065	-0,013
-658,159	-44,311	-0,153	-0,057
-657,145	-152,789	-0,112	0,006
-656,130	-200,000	-0,034	0,124
-655,116	800,000	0,009	0,022
-654,101	-72,392	-0,121	0,033
-653,086	-200,000	0,009	0,110
-652,072	800,000	0,021	-0,052
-651,057	27,549	-0,116	-0,072
-650,043	-200,000	-0,047	-0,168
-649,028	-114,431	0,012	0,002
-648,014	-200,000	-0,013	0,073
-646,999	53,004	-0,104	0,074
-645,984	-200,000	-0,006	-0,082
-644,970	74,397	-0,082	-0,064
-643,955	-91,950	-0,073	0,015
-642,941	86,921	0,055	-0,045
-641,926	678,053	0,037	0,071
-640,911	-200,000	-0,019	0,066
-639,897	89,969	0,060	0,050
-638,882	-200,000	0,022	0,151
-637,868	-200,000	0,017	0,095
-636,853	-200,000	-0,001	0,056
-635,838	549,425	-0,010	0,017
-634,824	-200,000	-0,016	-0,098
-633,809	-104,904	-0,109	0,018
-632,795	136,218	0,036	-0,035
-631,780	-112,394	-0,047	-0,007
-630,765	-200,000	0,007	-0,197
-629,751	36,668	-0,049	0,032
-628,736	-96,893	-0,095	-0,018
-627,722	68,596	-0,048	0,036
-626,707	800,000	0,016	-0,047
-625,692	110,956	-0,048	-0,043
-624,678	18,232	0,162	0,095
-623,663	800,000	-0,026	-0,080
-622,649	-13,108	-0,041	-0,019
-621,634	800,000	-0,025	0,054
-620,619	-22,629	-0,061	-0,027
-619,605	-73,565	0,189	0,051
-618,590	549,437	-0,092	0,163
-617,576	800,000	0,060	0,131
-616,561	800,000	0,024	0,064
-615,546	-78,268	-0,104	0,026
-614,532	203,423	-0,071	-0,081
-613,517	185,447	0,009	0,010
-612,503	366,211	0,077	-0,115
-611,488	-32,734	0,095	0,039
-610,474	120,280	-0,105	0,097
-609,459	614,323	0,036	0,067
-608,444	-200,000	0,016	-0,149
-607,430	-57,859	-0,098	-0,031
-606,415	-145,701	0,065	0,004
-605,401	-66,215	0,041	-0,012
-604,386	137,057	0,072	0,070
-603,371	-80,333	0,202	0,050
-602,357	419,619	0,086	-0,137
-601,342	-39,161	-0,067	-0,026
-600,328	-106,108	-0,229	-0,038
-599,313	183,091	-0,088	0,096
-598,298	-200,000	-0,013	-0,075
-597,284	-200,000	-0,008	0,166
-596,269	-66,003	-0,060	0,018
-595,255	-122,678	-0,103	0,012
-594,240	-33,559	-0,148	0,060
-593,225	-200,000	0,011	-0,100
-592,211	-200,000	0,011	-0,102
-591,196	793,521	-0,027	0,056
-590,182	396,320	0,031	0,048
-589,167	800,000	0,035	-0,080
-588,152	-200,000	0,033	0,185
-587,138	-162,121	-0,170	-0,006
-586,123	1,991	-0,197	-0,105
-585,109	541,529	-0,066	0,116
-584,094	-200,000	0,004	-0,048
-583,079	110,517	-0,038	-0,034
-582,065	61,114	0,162	-0,119
-581,050	0,757	-0,099	0,052
-580,036	-54,628	0,117	-0,039
-579,021	-200,000	0,016	0,140
-578,006	-200,000	0,057	-0,216
-576,992	78,760	0,112	-0,089
-575,977	498,726	-0,055	-0,095
-574,963	69,135	0,097	0,074
-573,948	800,000	-0,031	0,065
-572,934	-152,010	-0,050	0,003
-571,919	800,000	0,043	-0,114
-570,904	-200,000	-0,020	-0,067
-569,890	361,331	0,080	-0,119
-568,875	800,000	-0,028	-0,070
-567,861	-87,438	0,070	-0,015
-566,846	-174,878	0,039	-0,001
-565,831	-79,594	0,038	0,009
-564,817	203,470	0,046	-0,052
-563,802	-75,719	0,048	0,013
-562,788	-119,513	-0,064	0,008
-561,773	-164,130	-0,074	0,002
-560,758	550,987	-0,043	0,076
-559,744	38,439	0,078	0,052
-558,729	-200,000	0,018	-0,069
-557,715	550,284	-0,033	-0,059
-556,700	-200,000	-0,014	-0,137
-555,685	-200,000	-0,008	-0,046
-554,671	-122,721	-0,091	0,011
-553,656	-171,877	0,087	0,002
-552,642	308,830	-0,016	-0,023
-551,627	116,996	0,164	0,149
-550,612	103,267	0,011	0,009
-549,598	173,575	-0,166	-0,177
-548,583	800,000	-0,061	-0,141
-547,569	800,000	-0,021	0,050
-546,554	67,217	-0,023	0,017
-545,539	-200,000	0,002	0,172
-544,525	-200,000	0,040	0,134
-543,510	800,000	-0,061	-0,162
-542,496	-41,558	-0,083	-0,031
-541,481	-15,472	-0,107	-0,050
-540,466	800,000	-0,044	0,113
-539,452	-71,127	0,034	0,009
-538,437	74,185	0,199	0,155
-537,423	800,000	-0,014	0,030
-536,408	151,780	0,053	0,054
-535,393	-200,000	-0,004	-0,078
-534,379	-200,000	0,025	-0,084
-533,364	-0,499	-0,094	0,049
-532,350	-133,265	-0,106	-0,010
-531,335	18,812	-0,133	-0,078
-530,321	-49,628	0,043	-0,015
-529,306	-17,993	0,030	-0,014
-528,291	343,129	-0,076	-0,110
-527,277	-1,508	-0,144	-0,075
-526,262	800,000	0,037	0,108
-525,248	505,814	0,055	0,094
-524,233	12,569	0,064	0,036
-523,218	88,622	-0,095	-0,078
-522,204	685,063	0,055	-0,106
-521,189	-11,086	0,085	0,041
-520,175	-126,032	-0,086	0,009
-519,160	-200,000	0,032	0,150
-518,145	-200,000	-0,044	0,147
-517,131	800,000	-0,040	0,081
-516,116	-200,000	-0,010	0,095
-515,102	-200,000	0,009	0,076
-514,087	62,476	-0,097	-0,071
-513,072	613,738	0,040	-0,074
-512,058	715,521	-0,043	0,084
-511,043	-97,903	-0,185	-0,035
-510,029	-200,000	0,023	0,125
-509,014	50,040	0,085	-0,059
-507,999	110,091	0,162	0,143
-506,985	-7,262	-0,034	-0,017
-505,970	57,540	-0,122	-0,088
-504,956	-200,000	0,016	0,116
-503,941	-200,000	0,008	0,047
-502,926	800,000	0,019	-0,039
-501,912	97,558	-0,011	-0,009
-500,897	70,658	-0,083	-0,063
-499,883	-200,000	0,016	0,081
-498,868	-55,785	-0,072	0,024
-497,853	-33,328	-0,046	-0,019
-496,839	122,810	0,025	-0,023
-495,824	800,000	-0,050	-0,106
-494,810	-200,000	-0,003	-0,014
-493,795	366,086	0,078	0,117
-492,781	800,000	-0,014	-0,038
-491,766	137,296	-0,077	-0,074
-490,751	-55,663	-0,129	-0,042
-489,737	-107,385	-0,087	-0,014
-488,722	20,895	0,136	-0,081
-487,708	-200,000	-0,003	0,107
-486,693	179,692	-0,068	-0,073
-485,678	110,848	0,079	-0,070
-484,664	800,000	-0,033	0,080
-483,649	-200,000	0,023	-0,115
-482,635	-82,858	-0,024	0,006
-481,620	41,308	-0,040	-0,027
-480,605	-139,371	0,111	0,009
-479,591	-200,000	0,009	0,108
-478,576	63,645	0,097	0,071
-477,562	800,000	-0,028	-0,065
-476,547	-200,000	-0,009	-0,051
-475,532	229,445	-0,085	-0,103
-474,518	-200,000	-0,027	-0,095
-473,503	130,476	0,067	-0,063
-472,489	-200,000	-0,011	0,083
-471,474	-94,776	-0,135	0,027
-470,459	-71,255	-0,073	-0,020
-469,445	78,592	-0,092	-0,073
-468,430	358,558	-0,057	-0,085
-467,416	-76,770	0,038	0,010
-466,401	53,702	0,230	0,162
-465,386	8,164	0,091	0,050
-464,372	91,106	-0,023	-0,019
-463,357	278,979	-0,045	0,060
-462,343	-50,147	-0,062	-0,021
-461,328	345,460	-0,061	0,088
-460,313	-148,144	0,128	-0,008
-459,299	800,000	0,006	-0,018
-458,284	122,760	0,083	0,076
-457,270	800,000	-0,052	0,109
-456,255	-32,192	0,051	0,021
-455,241	-127,876	-0,099	-0,010
-454,226	108,104	-0,103	-0,090
-453,211	-200,000	0,032	-0,127
-452,197	800,000	0,041	-0,084
-451,182	-200,000	0,002	0,097
-450,168	26,850	-0,139	0,086
-449,153	-200,000	0,007	0,058
-448,138	-200,000	0,014	0,053
-447,124	-145,215	0,024	-0,002
-446,109	444,356	-0,049	0,079
-445,095	71,647	0,016	-0,012
-444,080	72,167	0,065	0,049
-443,065	5,726	0,104	0,057
-442,051	-119,266	-0,078	-0,010
-441,036	-151,829	0,152	0,008
-440,022	-86,924	-0,079	0,018
-439,007	-200,000	0,013	-0,084
-437,992	800,000	-0,039	0,099
-436,978	417,993	-0,034	0,054
-435,963	534,936	-0,036	-0,063
-434,949	173,374	-0,054	-0,057
-433,934	755,255	-0,052	-0,105
-432,919	-82,978	-0,088	-0,021
-431,905	-109,377	-0,069	-0,011
-430,890	800,000	-0,060	-0,161
-429,876	45,068	0,079	-0,054
-428,861	-87,115	-0,079	0,018
-427,846	678,094	-0,052	0,099
-426,832	-200,000	0,035	-0,128
-425,817	800,000	0,007	-0,021
-424,803	-88,798	0,093	0,020
-423,788	425,581	0,074	0,118
-422,773	56,606	0,073	0,052
-421,759	73,128	0,080	0,061
-420,744	242,427	-0,043	-0,053
-419,730	460,027	-0,048	-0,078
-418,715	-106,213	-0,084	0,014
-417,701	272,208	0,110	-0,143
-416,686	327,882	0,031	-0,044
-415,671	-200,000	0,008	0,040
-414,657	212,644	0,061	0,070
-413,642	299,943	0,071	0,096
-412,628	-32,746	-0,134	-0,054
-411,613	2,937	-0,097	-0,052
-410,598	178,223	0,033	-0,035
-409,584	-13,411	-0,093	0,044
-408,569	115,502	-0,104	0,093
-407,555	-50,731	-0,057	-0,020
-406,540	-200,000	-0,019	-0,134
-405,525	-66,083	-0,084	-0,024
-404,511	399,905	0,045	-0,070
-403,496	-200,000	-0,019	0,077
-402,482	-39,966	-0,068	0,026
-401,467	-200,000	-0,002	-0,050
-400,452	800,000	-0,029	0,087
-399,438	800,000	0,028	0,070
-398,423	577,116	0,041	-0,075
-397,409	-67,752	-0,058	0,017
-396,394	124,617	0,055	0,051
-395,379	186,561	-0,031	-0,033
-394,365	31,580	-0,037	-0,023
-393,350	-125,844	0,040	-0,004
-392,336	-68,795	-0,106	0,030
-391,321	-30,166	0,049	-0,020
-390,306	-38,416	0,026	0,010
-389,292	136,620	0,063	-0,061
-388,277	208,837	0,036	0,042
-387,263	191,131	0,141	0,156
-386,248	171,134	-0,042	0,045
-385,233	776,314	0,070	0,141
-384,219	62,014	0,017	-0,012
-383,204	-200,000	0,003	-0,092
-382,190	-79,582	-0,165	-0,041
-381,175	-95,158	0,091	-0,018
-380,160	-200,000	-0,003	-0,014
-379,146	800,000	0,021	-0,052
-378,131	550,174	0,051	-0,091
-377,117	-33,177	-0,057	-0,023
-376,102	-200,000	-0,001	-0,111
-375,088	35,332	-0,095	-0,061
-374,073	24,844	0,039	-0,024
-373,058	83,438	0,120	0,096
-372,044	409,795	-0,039	0,060
-371,029	755,732	-0,052	0,103
-370,015	-98,773	0,083	0,015
-369,000	-200,000	0,004	-0,034
-367,985	-200,000	0,019	-0,103
-366,971	92,995	-0,079	-0,065
-365,956	52,057	0,046	0,032
-364,942	-35,958	0,127	0,050
-363,927	358,327	-0,048	0,070
-362,912	800,000	-0,031	0,081
-361,898	-200,000	-0,004	0,079
-360,883	800,000	0,036	0,113
-359,869	219,616	-0,029	-0,034
-358,854	-200,000	0,032	0,131
-357,839	-5,412	-0,074	0,037
-356,825	800,000	0,017	-0,037
-355,810	-16,621	-0,141	0,065
-354,796	-185,384	0,070	-0,001
-353,781	-58,154	-0,015	0,005
-352,766	-145,895	0,081	0,005
-351,752	376,708	-0,096	0,144
-350,737	599,107	-0,019	0,035
-349,723	-200,000	0,012	0,080
-348,708	800,000	0,050	0,132
-347,693	141,961	-0,126	0,123
-346,679	34,002	0,087	-0,056
-345,664	-87,243	-0,075	0,017
-344,650	188,030	-0,044	0,049
-343,635	239,605	0,042	0,051
-342,620	-52,942	0,047	0,016
-341,606	127,635	-0,038	0,035
-340,591	275,582	-0,081	-0,106
-339,577	-200,000	-0,009	-0,060
-338,562	-200,000	-0,017	-0,104
-337,548	222,973	-0,036	-0,043
-336,533	-200,000	-0,006	0,147
-335,518	-200,000	-0,025	0,172
-334,504	10,792	0,064	0,036
-333,489	-33,098	0,112	-0,046
-332,475	-117,528	-0,042	0,006
-331,460	-200,000	0,002	-0,016
-330,445	420,588	0,018	-0,028
-329,431	800,000	0,045	0,096
-328,416	800,000	0,064	0,155
-327,402	800,000	-0,027	0,073
-326,387	119,179	-0,033	0,029
-325,372	-200,000	0,029	-0,127
-324,358	-149,256	-0,150	-0,009
-323,343	43,827	0,055	-0,037
-322,329	69,770	-0,074	0,056
-321,314	118,475	0,066	0,059
-320,299	232,059	-0,056	0,067
-319,285	-42,528	0,122	-0,045
-318,270	-200,000	0,012	-0,076
-317,256	-100,469	-0,044	-0,008
-316,241	-58,613	0,081	-0,026
-315,226	-200,000	0,007	0,049
-314,212	-81,012	-0,076	0,018
-313,197	652,351	0,045	-0,086
-312,183	-200,000	0,001	0,066
-311,168	-170,572	0,067	-0,002
-310,153	-50,592	0,150	-0,052
-309,139	782,456	-0,071	-0,142
-308,124	-200,000	0,137	0,000
-307,110	29,073	0,188	0,116
-306,095	-150,017	0,058	-0,003
-305,080	-42,138	0,069	0,026
-304,066	-76,715	-0,030	-0,008
-303,051	-120,095	0,128	-0,016
-302,037	-200,000	-0,003	-0,079
-301,022	60,192	0,031	-0,022
-300,008	84,181	0,044	0,035
-298,993	-104,854	0,101	-0,017
-297,978	165,115	-0,090	-0,093
-296,964	-167,675	0,097	0,003
-295,949	-63,749	-0,061	-0,018
-294,935	-150,776	-0,049	0,003
-293,920	-45,711	0,042	-0,015
-292,905	-35,204	0,146	-0,058
-291,891	21,778	-0,020	-0,012
-290,876	-200,000	-0,004	-0,023
-289,862	-118,653	-0,204	-0,026
-288,847	-200,000	0,017	-0,067
-287,832	800,000	-0,040	-0,121
-286,818	178,454	0,031	0,033
-285,803	-41,269	0,089	-0,033
-284,789	-115,935	0,131	0,018
-283,774	-200,000	-0,008	0,107
-282,759	741,740	0,039	-0,078
-281,745	-162,916	-0,124	0,004
-280,730	108,509	0,076	0,066
-279,716	-15,430	0,055	0,026
-278,701	-14,752	0,089	-0,042
-277,686	-200,000	0,007	0,082
-276,672	-200,000	0,027	-0,191
-275,657	49,130	-0,118	-0,081
-274,643	169,797	-0,073	-0,076
-273,628	-134,252	-0,066	-0,006
-272,613	-126,155	0,068	0,007
-271,599	91,136	0,070	-0,058
-270,584	-115,157	0,097	-0,013
-269,570	-200,000	-0,012	0,060
-268,555	-37,247	-0,141	0,055
-267,540	-107,294	0,155	-0,025
-266,526	-90,386	-0,069	0,014
-265,511	-22,016	-0,048	-0,021
-264,497	64,908	0,034	0,025
-263,482	800,000	0,083	-0,192
-262,467	-89,053	0,049	-0,010
-261,453	171,894	0,103	0,108
-260,438	38,179	0,054	0,035
-259,424	165,971	-0,049	-0,050
-258,409	-200,000	-0,001	-0,122
-257,395	-63,790	0,058	-0,017
-256,380	553,058	0,040	0,071
-255,365	800,000	-0,006	0,016
-254,351	-137,869	0,093	-0,007
-253,336	576,315	0,011	0,020
-252,322	326,711	-0,076	-0,106
-251,307	501,745	0,089	-0,151
-250,292	-14,367	-0,034	-0,016
-249,278	338,976	-0,072	-0,103
-248,263	-124,621	0,077	0,009
-247,249	-114,595	0,023	-0,003
-246,234	-40,987	-0,056	0,021
-245,219	-7,994	-0,043	0,021
-244,205	722,003	-0,030	-0,059
-243,190	-98,994	0,088	0,016
-242,176	-44,398	0,108	0,039
-241,161	-200,000	0,031	0,122
-240,146	800,000	-0,028	0,081
-239,132	-49,700	-0,036	-0,013
-238,117	-76,240	-0,024	0,006
-237,103	-62,578	0,023	0,007
-236,088	-134,138	0,151	-0,013
-235,073	557,222	0,019	0,034
-234,059	328,938	-0,052	0,073
-233,044	-12,054	-0,118	0,056
-232,030	135,669	-0,052	0,049
-231,015	800,000	-0,050	-0,114
-230,000	800,000	-0,030	-0,075
-228,986	-90,898	-0,107	-0,022
-227,971	78,272	0,172	-0,134
-226,957	-113,496	0,066	0,009
-225,942	-16,304	0,019	0,009
-224,927	-200,000	-0,007	-0,024
-223,913	-200,000	0,012	-0,083
-222,898	-200,000	0,006	0,029
-221,884	361,972	-0,048	-0,070
-220,869	595,073	-0,039	0,071
-219,855	723,442	-0,039	0,076
-218,840	-200,000	0,042	0,136
-217,825	-200,000	-0,022	-0,148
-216,811	-66,628	-0,081	0,023
-215,796	-9,742	-0,063	-0,031
-214,782	-110,825	-0,103	0,015
-213,767	791,832	-0,027	0,055
-212,752	-200,000	0,042	0,142
-211,738	271,675	0,067	-0,087
-210,723	-130,262	-0,074	-0,007
-209,709	1,412	-0,037	-0,019
-208,694	21,236	-0,097	-0,058
-207,679	-117,802	-0,072	0,009
-206,665	-39,612	0,107	0,041
-205,650	-200,000	-0,013	-0,097
-204,636	100,067	0,063	-0,053
-203,621	-140,739	-0,054	-0,004
-202,606	124,649	-0,034	0,032
-201,592	30,493	0,066	-0,041
-200,577	800,000	0,035	-0,103
-199,563	-200,000	0,032	0,104
-198,548	331,427	0,100	0,141
-197,533	-108,097	0,123	-0,019
-196,519	-200,000	0,008	-0,032
-195,504	-200,000	-0,004	0,015
-194,490	-200,000	0,027	-0,089
-193,475	800,000	-0,020	0,051
-192,460	-200,000	-0,001	0,005
-191,446	-56,145	0,135	-0,044
-190,431	56,705	-0,158	0,112
-189,417	-109,379	0,021	-0,003
-188,402	88,400	-0,127	0,103
-187,387	-200,000	0,046	-0,171
-186,373	123,181	-0,023	0,021
-185,358	189,090	0,060	-0,066
-184,344	-38,923	0,091	0,035
-183,329	-45,848	-0,028	-0,010
-182,315	-166,584	0,084	-0,002
-181,300	68,762	-0,058	-0,044
-180,285	63,275	-0,113	0,082
-179,271	-200,000	0,032	-0,117
-178,256	78,206	0,045	-0,035
-177,242	-68,076	0,106	-0,030
-176,227	329,522	0,014	0,019
-175,212	-200,000	0,005	0,042
-174,198	-200,000	0,007	-0,059
-173,183	379,478	-0,119	-0,178
-172,169	-28,212	0,054	-0,023
-171,154	93,922	0,074	-0,061
-170,139	-16,328	0,148	-0,068
-169,125	22,680	0,061	0,036
-168,110	-143,117	0,200	-0,014
-167,096	114,021	-0,042	0,037
-166,081	-200,000	-0,057	-0,187
-165,066	102,256	-0,063	-0,053
-164,052	34,181	0,020	-0,013
-163,037	-200,000	0,053	0,170
-162,023	-200,000	-0,006	0,152
-161,008	14,289	-0,205	-0,116
-159,993	133,108	0,013	-0,012
-158,979	11,910	-0,093	-0,052
-157,964	241,633	0,082	0,100
-156,950	145,725	0,037	0,036
-155,935	-7,725	-0,072	0,035
-154,920	378,933	0,032	0,048
-153,906	-103,800	0,220	0,037
-152,891	54,486	0,045	0,032
-151,877	-200,000	-0,016	0,065
-150,862	-200,000	-0,002	0,097
-149,847	1,213	-0,061	0,032
-148,833	167,770	0,039	0,040
-147,818	-200,000	-0,032	0,127
-146,804	800,000	-0,008	-0,022
-145,789	169,414	0,086	0,090
-144,775	151,178	-0,090	0,089
-143,760	114,069	0,035	0,031
-142,745	-158,977	-0,153	-0,006
-141,731	175,780	0,120	0,127
-140,716	82,570	0,107	0,085
-139,702	-3,234	0,110	0,056
-138,687	182,957	0,073	-0,078
-137,672	159,952	-0,172	0,174
-136,658	-23,208	-0,083	-0,036
-135,643	-40,544	-0,054	-0,020
-134,629	228,253	-0,075	-0,089
-133,614	-92,256	0,048	-0,010
-132,599	272,251	-0,085	0,109
-131,585	57,109	0,047	0,033
-130,570	-38,991	0,062	-0,024
-129,556	12,745	-0,118	-0,066
-128,541	-200,000	0,020	-0,113
-127,526	-15,220	-0,081	-0,038
-126,512	239,117	-0,071	0,086
-125,497	289,189	0,053	-0,070
-124,483	-2,479	0,031	0,016
-123,468	107,345	0,112	0,096
-122,453	458,169	0,027	0,044
-121,439	32,100	0,071	-0,044
-120,424	65,490	0,137	-0,101
-119,410	-200,000	-0,011	0,091
-118,395	800,000	0,035	0,079
-117,380	-200,000	-0,025	0,171
-116,366	491,966	0,070	0,117
-115,351	-200,000	-0,007	-0,024
-114,337	99,507	-0,045	0,037
-113,322	206,776	0,086	-0,097
-112,307	-200,000	-0,023	0,076
-111,293	336,717	0,138	0,195
-110,278	32,948	-0,061	0,039
-109,264	-43,843	-0,132	0,048
-108,249	-200,000	-0,018	0,089
-107,234	-200,000	0,019	0,098
-106,220	152,665	0,068	0,067
-105,205	93,844	0,051	0,042
-104,191	800,000	0,041	0,114
-103,176	71,717	0,075	0,057
-102,162	-75,273	0,062	-0,016
-101,147	261,339	0,039	0,049
-100,132	-200,000	0,017	-0,060
-99,118	-87,118	-0,022	-0,005
-98,103	512,662	-0,081	-0,138
-97,089	-21,898	0,133	-0,059
-96,074	-200,000	-0,004	-0,022
-95,059	318,339	-0,048	-0,066
-94,045	-200,000	0,005	0,078
-93,030	-49,667	-0,066	0,023
-92,016	52,192	0,077	-0,054
-91,001	781,600	-0,042	-0,084
-89,986	-10,646	0,061	-0,029
-88,972	800,000	0,037	0,087
-87,957	-200,000	-0,014	0,126
-86,943	-200,000	0,003	-0,034
-85,928	-40,244	-0,103	0,039
-84,913	6,559	-0,062	0,033
-83,899	61,221	0,034	0,025
-82,884	-4,844	-0,049	0,024
-81,870	-26,881	0,075	0,032
-80,855	244,070	0,074	0,090
-79,840	-160,406	-0,154	-0,006
-78,826	751,668	-0,038	-0,076
-77,811	-88,218	-0,045	0,010
-76,797	55,909	0,064	-0,045
-75,782	-108,144	-0,059	-0,009
-74,767	327,422	-0,010	-0,014
-73,753	-200,000	-0,042	0,177
-72,738	800,000	-0,028	0,067
-71,724	-88,852	0,068	0,014
-70,709	800,000	0,016	0,046
-69,694	36,690	-0,112	-0,072
-68,680	452,388	0,033	0,054
-67,665	287,125	0,066	0,087
-66,651	209,206	-0,044	0,050
-65,636	49,183	-0,064	-0,043
-64,622	62,624	0,036	0,026
-63,607	130,593	-0,142	0,132
-62,592	-145,660	-0,071	-0,005
-61,578	-200,000	-0,001	0,172
-60,563	800,000	0,018	0,045
-59,549	496,185	-0,036	-0,061
-58,534	-123,922	-1,532	-0,173
-57,519	513,280	-0,828	-1,405
-56,505	-200,000	-0,979	-4,518
-55,490	1,780	0,639	-0,333
-54,476	800,000	5,080	11,715
-53,461	-200,000	14,114	253,268
-52,446	-200,000	692,976	2239,974
-51,432	574,843	1623,700	2885,009
-50,417	117,644	1632,898	1457,079
-49,403	72,380	1286,837	971,308
-48,388	37,446	1023,185	656,449
-47,373	23,902	981,323	585,083
-46,359	23,194	970,759	576,441
-45,344	22,190	966,498	570,610
-44,330	22,065	965,017	569,308
-43,315	21,984	963,585	568,174
-42,300	21,990	962,553	567,564
-41,286	21,974	961,534	566,888
-40,271	21,977	960,551	566,297
-39,257	21,945	959,701	565,668
-38,242	21,931	958,772	565,054
-37,227	21,892	958,044	564,477
-36,213	21,943	956,914	563,954
-35,198	21,939	956,136	563,459
-34,184	21,980	955,523	563,208
-33,169	21,945	954,652	562,559
-32,154	21,981	953,856	562,185
-31,140	22,020	952,756	561,638
-30,125	22,009	951,979	561,122
-29,111	21,990	951,273	560,624
-28,096	21,907	950,713	560,004
-27,082	21,960	949,803	559,616
-26,067	22,003	949,101	559,319
-25,052	21,984	948,334	558,784
-24,038	21,974	947,766	558,394
-23,023	21,963	947,082	557,934
-22,009	22,047	946,419	557,791
-20,994	22,035	945,765	557,343
-19,979	21,996	945,257	556,897
-18,965	21,973	944,556	556,389
-17,950	22,021	943,993	556,190
-16,936	21,900	943,316	555,382
-15,921	21,939	942,566	555,044
-14,906	21,804	942,057	554,293
-13,892	21,852	941,210	553,924
-12,877	21,860	940,592	553,564
-11,863	21,843	939,909	553,088
-10,848	21,848	939,372	552,764
-9,833	21,957	938,751	552,721
-8,819	21,929	938,333	552,366
-7,804	21,887	937,685	551,829
-6,790	21,903	937,154	551,546
-5,775	21,867	936,451	550,996
-4,760	21,869	935,904	550,660
-3,746	21,859	935,186	550,183
-2,731	21,715	934,591	549,358
-1,717	21,695	933,907	548,868
-0,702	21,701	933,269	548,492
0,313	21,437	932,801	548,212
1,327	24,560	930,747	556,768
2,342	34,091	794,785	500,775
3,356	31,807	450,707	280,520
4,371	1,134	293,664	152,189
5,386	-3,313	274,691	138,137
6,400	-4,809	269,048	133,899
7,415	-5,223	266,792	132,383
8,429	-4,858	265,434	132,032
9,444	-4,917	264,604	131,553
10,459	-4,941	263,925	131,182
11,473	-5,050	263,489	130,855
12,488	-5,086	262,949	130,543
13,502	-5,129	262,434	130,236
14,517	-5,040	262,056	130,117
15,531	-5,037	261,668	129,916
16,546	-4,898	261,203	129,799
17,561	-5,039	260,938	129,529
18,575	-4,874	260,640	129,517
19,590	-5,056	260,221	129,134
20,604	-5,035	259,965	129,015
21,619	-5,148	259,626	128,734
22,634	-5,047	259,203	128,603
23,648	-4,983	259,003	128,549
24,663	-4,992	258,646	128,352
25,677	-5,051	258,577	128,255
26,692	-4,723	258,130	128,313
27,707	-5,010	257,980	127,971
28,721	-4,941	257,658	127,862
29,736	-4,911	257,229	127,664
30,750	-5,005	257,095	127,503
31,765	-5,171	256,906	127,251
32,780	-4,970	256,773	127,352
33,794	-4,976	256,542	127,220
34,809	-5,023	256,232	127,014
35,823	-4,987	256,062	126,950
36,838	-5,089	255,623	126,632
37,853	-5,030	255,647	126,684
38,867	-5,222	255,343	126,353
39,882	-5,040	255,180	126,421
40,896	-5,190	254,859	126,119
41,911	-4,996	254,533	126,117
42,926	-5,056	254,405	125,989
43,940	-5,166	254,273	125,816
44,955	-4,981	253,878	125,771
45,969	-5,001	253,703	125,656
46,984	-5,345	253,554	125,272
47,999	-5,483	253,266	124,998
49,013	-5,582	252,942	124,740
50,028	-5,651	252,759	124,579
51,042	-5,770	252,436	124,306
52,057	-5,895	252,240	124,090
53,071	-5,800	252,107	124,095
54,086	-5,826	251,922	123,971
55,101	-5,457	251,666	124,153
56,115	-5,416	251,632	124,160
57,130	-5,033	251,415	124,373
58,144	-4,645	251,155	124,568
59,159	-4,759	251,078	124,420
60,174	-4,847	250,999	124,294
61,188	-4,960	250,804	124,089
62,203	-5,084	250,584	123,863
63,217	-4,880	250,305	123,889
64,232	-4,965	250,134	123,720
65,247	-5,028	249,909	123,543
66,261	-4,919	249,577	123,462
67,276	-5,150	249,364	123,148
68,290	-5,364	248,991	122,770
69,305	-5,366	248,971	122,747
70,320	-5,304	248,670	122,642
71,334	-5,099	248,603	122,772
72,349	-4,758	248,380	122,941
73,363	-4,796	248,185	122,801
74,378	-4,949	247,972	122,555
75,393	-4,924	247,863	122,512
76,407	-4,781	247,542	122,463
77,422	-4,897	247,495	122,331
78,436	-4,778	247,252	122,301
79,451	-4,970	247,035	122,020
80,466	-5,036	246,816	121,845
81,480	-5,226	246,528	121,532
82,495	-5,290	246,394	121,400
83,509	-5,066	246,231	121,498
84,524	-5,161	246,009	121,298
85,539	-5,411	245,886	121,015
86,553	-5,450	245,702	120,881
87,568	-5,459	245,527	120,777
88,582	-5,161	245,355	120,932
89,597	-5,226	245,110	120,746
90,611	-5,271	244,912	120,600
91,626	-4,958	244,726	120,760
92,641	-5,016	244,581	120,629
93,655	-5,069	244,359	120,464
94,670	-5,189	244,205	120,278
95,684	-4,931	243,840	120,302
96,699	-5,099	243,861	120,162
97,714	-5,026	243,477	120,022
98,728	-5,261	243,366	119,761
99,743	-5,218	243,159	119,685
100,757	-5,401	243,018	119,452
101,772	-5,179	242,715	119,477
102,787	-5,230	242,803	119,468
103,801	-5,198	242,355	119,263
104,816	-5,288	242,392	119,196
105,830	-5,031	242,227	119,318
106,845	-5,036	242,061	119,220
107,860	-4,897	241,763	119,178
108,874	-5,112	241,516	118,868
109,889	-5,064	241,409	118,845
110,903	-4,936	241,201	118,837
111,918	-5,064	240,874	118,560
112,933	-5,133	240,951	118,531
113,947	-5,114	240,891	118,506
114,962	-5,004	240,569	118,428
115,976	-5,100	240,539	118,323
116,991	-5,157	240,311	118,154
118,006	-5,299	240,116	117,931
119,020	-5,096	239,955	118,007
120,035	-4,895	239,778	118,074
121,049	-4,998	239,682	117,932
122,064	-4,799	239,317	117,905
123,079	-5,094	239,251	117,621
124,093	-5,180	239,031	117,432
125,108	-5,210	238,777	117,273
126,122	-5,375	238,516	116,999
127,137	-5,647	238,541	116,780
128,151	-5,332	238,385	116,949
129,166	-5,196	238,139	116,929
130,181	-5,326	237,994	116,741
131,195	-5,224	237,767	116,703
132,210	-5,312	237,740	116,608
133,224	-5,037	237,496	116,701
134,239	-5,158	237,309	116,500
135,254	-4,996	237,145	116,540
136,268	-4,967	236,844	116,405
137,283	-5,163	236,667	116,150
138,297	-5,428	236,471	115,830
139,312	-5,591	236,462	115,683
140,327	-5,242	236,187	115,819
141,341	-4,675	236,118	116,232
142,356	-4,608	236,037	116,235
143,370	-4,669	235,857	116,088
144,385	-4,661	235,732	116,023
145,400	-4,640	235,567	115,947
146,414	-4,717	235,325	115,756
147,429	-4,743	235,139	115,633
148,443	-4,887	235,030	115,454
149,458	-4,890	234,789	115,323
150,473	-4,790	234,578	115,289
151,487	-4,836	234,592	115,249
152,502	-4,961	234,383	115,036
153,516	-4,885	234,155	114,975
154,531	-4,979	234,105	114,865
155,546	-4,941	233,974	114,821
156,560	-4,981	233,732	114,659
157,575	-5,029	233,444	114,470
158,589	-5,012	233,207	114,357
159,604	-4,806	233,253	114,533
160,619	-4,613	232,955	114,530
161,633	-4,664	232,731	114,369
162,648	-4,723	232,795	114,344
163,662	-4,796	232,564	114,162
164,677	-5,045	232,494	113,921
165,692	-4,748	232,424	114,111
166,706	-4,649	232,205	114,072
167,721	-4,646	231,963	113,945
168,735	-4,614	231,837	113,898
169,750	-4,687	231,623	113,725
170,764	-4,599	231,489	113,718
171,779	-4,830	231,495	113,529
172,794	-4,494	231,277	113,676
173,808	-4,773	230,968	113,296
174,823	-5,033	230,685	112,943
175,837	-5,109	230,495	112,780
176,852	-4,923	230,349	112,844
177,867	-4,930	230,430	112,869
178,881	-4,907	230,273	112,799
179,896	-4,545	230,156	113,015
180,910	-4,617	229,974	112,860
181,925	-4,600	229,837	112,795
182,940	-4,550	229,671	112,743
183,954	-4,685	229,625	112,604
184,969	-4,772	229,491	112,461
185,983	-4,404	229,266	112,628
186,998	-4,671	229,231	112,393
188,013	-4,706	229,036	112,260
189,027	-4,614	228,760	112,186
190,042	-4,542	228,606	112,156
191,056	-4,327	228,411	112,217
192,071	-4,499	228,304	112,021
193,086	-4,475	228,031	111,896
194,100	-4,599	227,851	111,702
195,115	-4,816	227,672	111,436
196,129	-5,269	227,537	111,011
197,144	-2,616	228,271	113,412
198,159	1,300	229,473	117,041
199,173	4,030	229,989	119,414
200,188	3,927	229,936	119,296
201,202	4,059	229,653	119,241
202,217	4,125	229,788	119,351
203,232	4,399	229,634	119,472
204,246	4,402	229,395	119,340
205,261	4,357	229,182	119,184
206,275	4,623	229,162	119,368
207,290	4,840	229,129	119,508
208,304	4,859	228,837	119,359
209,319	4,604	228,669	119,065
210,334	4,786	228,519	119,116
211,348	4,391	228,384	118,731
212,363	3,932	228,032	118,185
213,377	3,885	227,832	118,035
214,392	3,922	227,538	117,900
215,407	4,017	227,525	117,956
216,421	3,886	227,506	117,835
217,436	3,839	227,229	117,645
218,450	3,630	226,961	117,336
219,465	3,658	226,807	117,268
220,480	3,748	226,659	117,249
221,494	3,495	226,542	116,985
222,509	3,977	226,510	117,326
223,523	3,795	226,274	117,054
224,538	3,730	226,259	116,987
225,553	3,923	226,126	117,054
226,567	3,853	226,023	116,937
227,582	4,075	225,857	117,010
228,596	4,141	225,859	117,050
229,611	4,093	225,430	116,781
230,626	3,490	225,366	116,281
231,640	3,598	225,125	116,228
232,655	3,757	225,126	116,339
233,669	4,382	225,038	116,756
234,684	4,765	224,900	116,963
235,699	4,394	224,695	116,565
236,713	3,985	224,536	116,164
237,728	3,990	224,219	115,993
238,742	3,762	223,994	115,695
239,757	3,494	224,006	115,489
240,772	3,604	223,812	115,462
241,786	3,855	223,510	115,485
242,801	3,874	223,634	115,552
243,815	4,269	223,511	115,775
244,830	4,171	223,432	115,651
245,844	3,881	223,133	115,267
246,859	3,759	223,030	115,113
247,874	4,055	222,820	115,216
248,888	4,114	222,759	115,218
249,903	4,098	222,594	115,111
250,917	3,755	222,370	114,728
251,932	3,793	222,254	114,686
252,947	3,528	222,131	114,415
253,961	3,503	222,040	114,339
254,976	3,799	221,868	114,461
255,990	4,080	221,717	114,582
257,005	3,791	221,696	114,346
258,020	4,130	221,448	114,460
259,034	4,182	221,453	114,491
260,049	4,136	221,236	114,334
261,063	4,028	220,948	114,095
262,078	4,180	220,987	114,218
263,093	4,281	220,742	114,156
264,107	4,178	220,566	113,978
265,122	4,045	220,588	113,881
266,136	4,376	220,444	114,041
267,151	4,131	220,358	113,806
268,166	3,895	219,985	113,428
269,180	3,443	219,821	113,001
270,195	3,705	219,635	113,088
271,209	3,924	219,534	113,187
272,224	3,631	219,461	112,924
273,239	3,870	219,269	112,991
274,253	3,860	219,257	112,968
275,268	3,494	219,012	112,563
276,282	3,674	218,614	112,479
277,297	3,475	218,565	112,299
278,312	3,684	218,572	112,446
279,326	3,812	218,394	112,437
280,341	3,854	218,318	112,419
281,355	3,975	218,151	112,411
282,370	3,815	218,038	112,226
283,384	3,556	217,729	111,868
284,399	3,317	217,593	111,614
285,414	3,627	217,501	111,783
286,428	3,718	217,396	111,785
287,443	3,759	217,345	111,779
288,457	3,843	217,222	111,767
289,472	3,825	216,959	111,609
290,487	3,399	216,684	111,148
291,501	3,516	216,592	111,175
292,516	3,334	216,567	111,021
293,530	3,485	216,375	111,022
294,545	3,156	216,353	110,763
295,560	3,854	216,161	111,159
296,574	3,994	215,944	111,139
297,589	3,809	216,001	111,025
298,603	3,982	215,822	111,048
299,618	3,822	215,735	110,878
300,633	3,647	215,617	110,681
301,647	4,000	215,549	110,890
302,662	4,141	215,431	110,921
303,676	4,043	215,144	110,693
304,691	4,163	214,886	110,637
305,706	3,968	214,829	110,458
306,720	4,203	214,620	110,509
307,735	3,911	214,578	110,268
308,749	3,461	214,452	109,871
309,764	3,845	214,406	110,112
310,779	4,188	214,214	110,250
311,793	4,018	214,024	110,021
312,808	4,053	213,803	109,922
313,822	4,107	213,804	109,951
314,837	3,829	213,543	109,609
315,852	3,488	213,439	109,303
316,866	3,611	213,485	109,405
317,881	3,909	213,297	109,510
318,895	4,196	213,167	109,638
319,910	3,862	212,982	109,296
320,925	3,394	212,734	108,827
321,939	3,367	212,472	108,663
322,954	3,371	212,390	108,615
323,968	3,910	212,293	108,937
324,983	4,013	212,114	108,908
325,997	4,309	212,217	109,161
327,012	4,304	211,899	108,984
328,027	3,847	211,888	108,647
329,041	4,320	211,947	109,001
330,056	4,047	211,811	108,729
331,070	3,748	211,469	108,333
332,085	3,563	211,224	108,067
333,100	3,755	211,169	108,165
334,114	3,893	210,905	108,117
335,129	4,022	210,997	108,245
336,143	3,739	210,746	107,908
337,158	3,643	210,741	107,828
338,173	3,900	210,415	107,832
339,187	3,563	210,342	107,549
340,202	3,766	210,058	107,536
341,216	3,462	210,036	107,302
342,231	3,607	209,946	107,348
343,246	3,534	209,821	107,223
344,260	3,468	209,774	107,144
345,275	3,728	209,647	107,251
346,289	3,854	209,438	107,223
347,304	3,934	209,444	107,272
348,319	3,788	209,264	107,069
349,333	3,793	209,088	106,972
350,348	3,913	208,981	106,991
351,362	4,080	208,824	107,017
352,377	4,062	208,696	106,930
353,392	3,815	208,616	106,708
354,406	3,905	208,415	106,658
355,421	194,306	1345,719	1434,509
356,435	155,048	1484,389	1434,622
