DTS Sentinel unit serial number:	SN410029Multiplexer serial number:	ORYXHardware model number:	OX2-SRSoftware version number:	ORYX F/W v4,00 Oryx Data Collector v3.7.2.0data status	okinstallation	B6 Nyhavnadifferential loss correction	single-endedforward channel	channel 2reverse channel	N/Adate	2023/12/10time	23:20:08forward acquisition time	300,00reverse acquisition time	0,00gamma	499,1914k internal	0,3122k external	0,3122temperature offset calibration	1,0000default loss term (dB/km)	0,3820temperature slope calibration	1,0000multiplexer offset coefficient	1,0000multiplexer slope coefficient	1,0000fibre end	0,00T internal ref (°C)	22,39T ext. ref 1 (°C)	6,08T ext. ref 2 (°C)	6,09length (m)	temperature (°C)	Stokes	anti-Stokes-744,400	-200,000	-0,026	-0,089
-743,385	-180,493	-0,290	0,004
-742,371	-200,000	0,012	0,100
-741,356	90,181	-0,276	0,230
-740,342	432,077	0,060	0,098
-739,327	-6,048	-0,167	0,085
-738,312	-200,000	0,000	-0,033
-737,298	-83,708	-0,253	0,060
-736,283	-141,874	-0,054	0,004
-735,269	255,099	-0,108	0,138
-734,254	211,637	-0,039	0,045
-733,239	-84,815	-0,495	-0,115
-732,225	-178,117	0,200	0,003
-731,210	-125,606	0,021	-0,002
-730,196	496,364	0,017	0,029
-729,181	-200,000	-0,021	0,070
-728,167	800,000	0,025	0,077
-727,152	-31,577	-0,099	-0,041
-726,137	-200,000	-0,013	0,060
-725,123	76,755	0,008	-0,006
-724,108	800,000	-0,056	-0,118
-723,094	415,992	0,039	-0,062
-722,079	324,498	-0,045	0,064
-721,064	800,000	-0,014	0,044
-720,050	-200,000	0,013	-0,086
-719,035	169,925	-0,068	-0,072
-718,021	138,788	-0,094	0,092
-717,006	-200,000	-0,003	0,070
-715,991	-200,000	-0,024	-0,097
-714,977	19,137	0,126	-0,075
-713,962	-44,619	-0,170	0,063
-712,948	509,578	-0,079	0,138
-711,933	-20,992	-0,053	-0,024
-710,918	406,789	0,061	0,097
-709,904	103,063	-0,084	0,073
-708,889	-200,000	-0,007	-0,053
-707,875	247,658	-0,111	-0,139
-706,860	2,100	0,023	-0,012
-705,845	53,335	-0,006	-0,004
-704,831	768,241	-0,039	0,079
-703,816	-42,226	-0,120	0,045
-702,802	211,445	0,025	0,030
-701,787	-175,298	0,098	-0,002
-700,772	-8,700	0,022	0,011
-699,758	-200,000	0,025	0,102
-698,743	-92,022	0,050	-0,010
-697,729	-200,000	0,026	0,114
-696,714	-168,781	0,206	0,006
-695,699	56,685	0,035	0,025
-694,685	-31,429	-0,076	-0,032
-693,670	35,679	-0,027	0,018
-692,656	-138,844	0,060	-0,005
-691,641	-32,537	-0,101	-0,042
-690,627	-137,410	0,077	0,006
-689,612	79,963	0,056	0,045
-688,597	-115,542	-0,017	-0,002
-687,583	292,643	-0,131	-0,178
-686,568	83,295	-0,093	-0,076
-685,554	245,199	-0,082	0,103
-684,539	-200,000	-0,002	0,053
-683,524	61,681	-0,041	-0,030
-682,510	783,074	-0,045	0,092
-681,495	-200,000	-0,006	0,079
-680,481	297,621	-0,061	0,084
-679,466	-86,605	-0,146	-0,033
-678,451	-56,006	-0,012	0,004
-677,437	-200,000	-0,013	-0,088
-676,422	800,000	-0,068	0,147
-675,408	-200,000	0,011	-0,052
-674,393	-84,480	0,144	0,034
-673,378	-105,819	-0,035	0,006
-672,364	-163,244	-0,243	-0,008
-671,349	800,000	0,017	0,048
-670,335	257,090	-0,094	-0,120
-669,320	140,953	0,070	-0,069
-668,305	-200,000	-0,045	0,000
-667,291	-200,000	0,056	0,199
-666,276	-200,000	-0,015	-0,112
-665,262	-46,264	-0,007	-0,003
-664,247	5,199	-0,077	0,042
-663,232	-54,153	-0,018	-0,006
-662,218	-187,986	0,158	-0,001
-661,203	230,774	-0,122	0,149
-660,189	-56,671	-0,110	0,036
-659,174	-34,787	0,093	-0,037
-658,159	-21,936	-0,145	0,065
-657,145	-100,102	-0,204	0,037
-656,130	365,283	0,054	-0,081
-655,116	800,000	0,032	-0,070
-654,101	-136,589	0,048	-0,004
-653,086	-178,835	-0,038	0,001
-652,072	268,617	-0,029	0,037
-651,057	103,592	0,054	0,047
-650,043	175,007	-0,033	-0,035
-649,028	-5,749	0,063	-0,032
-648,014	397,416	0,020	-0,031
-646,999	800,000	-0,015	0,043
-645,984	800,000	0,021	0,047
-644,970	683,979	-0,043	-0,083
-643,955	27,549	-0,122	-0,076
-642,941	549,055	0,021	-0,037
-641,926	517,164	0,048	-0,084
-640,911	-84,005	-0,078	0,018
-639,897	336,820	-0,037	0,053
-638,882	479,676	-0,067	0,112
-637,868	62,551	-0,056	-0,042
-636,853	-200,000	-0,025	0,117
-635,838	17,650	-0,051	-0,030
-634,824	140,540	-0,011	-0,011
-633,809	636,603	-0,032	0,060
-632,795	-13,876	0,077	0,037
-631,780	-200,000	0,000	0,106
-630,765	72,555	-0,028	0,021
-629,751	800,000	-0,042	0,093
-628,736	525,813	-0,085	-0,149
-627,722	-109,159	0,010	-0,002
-626,707	-154,916	0,164	0,008
-625,692	533,281	0,045	0,080
-624,678	800,000	0,030	0,072
-623,663	29,143	-0,064	0,040
-622,649	-134,974	-0,152	-0,013
-621,634	547,260	-0,026	0,046
-620,619	53,729	0,058	0,041
-619,605	313,809	-0,026	0,036
-618,590	800,000	0,088	0,183
-617,576	75,201	0,023	0,018
-616,561	-200,000	-0,003	0,030
-615,546	-200,000	0,001	-0,050
-614,532	-200,000	-0,090	-0,000
-613,517	-200,000	-0,031	0,110
-612,503	800,000	0,037	0,100
-611,488	702,312	-0,003	-0,006
-610,474	-166,227	0,078	-0,002
-609,459	-200,000	0,014	-0,046
-608,444	134,106	-0,084	-0,080
-607,430	-200,000	0,022	-0,085
-606,415	-200,000	0,003	-0,027
-605,401	-200,000	-0,015	0,054
-604,386	-200,000	0,034	0,199
-603,371	-47,811	0,038	0,014
-602,357	212,373	-0,090	-0,106
-601,342	-65,296	0,045	0,013
-600,328	380,151	-0,078	-0,119
-599,313	-200,000	0,018	-0,059
-598,298	-47,909	-0,022	-0,008
-597,284	-15,706	0,071	-0,034
-596,269	614,554	0,030	-0,056
-595,255	8,608	-0,147	0,082
-594,240	-91,026	-0,110	-0,023
-593,225	-43,150	0,076	0,028
-592,211	84,559	-0,114	-0,092
-591,196	-37,473	-0,043	0,017
-590,182	-1,431	-0,019	0,010
-589,167	-136,941	-0,100	0,008
-588,152	142,630	-0,052	0,051
-587,138	-85,608	0,123	-0,028
-586,123	-28,990	-0,050	0,021
-585,109	631,566	-0,016	0,030
-584,094	800,000	0,039	-0,082
-583,079	434,488	-0,061	-0,098
-582,065	700,488	0,034	-0,066
-581,050	800,000	-0,022	0,052
-580,036	-103,135	-0,144	-0,025
-579,021	-80,427	-0,045	0,011
-578,006	64,024	-0,069	-0,052
-576,992	-183,015	0,072	-0,001
-575,977	800,000	-0,052	0,138
-574,963	-200,000	-0,001	0,128
-573,948	800,000	0,001	-0,003
-572,934	-151,575	0,075	0,004
-571,919	-200,000	-0,003	-0,118
-570,904	-122,423	0,055	-0,007
-569,890	-200,000	0,002	0,061
-568,875	464,056	0,022	0,037
-567,861	12,714	0,105	0,060
-566,846	800,000	-0,017	0,043
-565,831	207,273	0,005	0,006
-564,817	-44,350	0,107	0,039
-563,802	-24,034	-0,053	-0,023
-562,788	-6,683	-0,074	-0,037
-561,773	-200,000	0,033	-0,144
-560,758	-200,000	0,017	-0,112
-559,744	-141,277	-0,166	-0,012
-558,729	-193,909	0,011	0,000
-557,715	685,555	-0,058	-0,112
-556,700	-83,565	-0,066	-0,015
-555,685	800,000	-0,017	-0,049
-554,671	57,810	-0,021	-0,015
-553,656	-54,801	0,016	-0,005
-552,642	689,450	0,059	0,116
-551,627	-66,819	0,041	0,012
-550,612	-200,000	0,005	-0,158
-549,598	-200,000	0,007	-0,070
-548,583	26,302	0,079	0,049
-547,569	-200,000	0,003	0,050
-546,554	541,047	-0,020	-0,035
-545,539	-102,613	0,144	0,025
-544,525	-200,000	-0,030	0,109
-543,510	-115,999	0,212	-0,029
-542,496	45,428	-0,061	-0,041
-541,481	7,669	-0,122	0,067
-540,466	800,000	0,024	-0,052
-539,452	293,466	-0,027	-0,036
-538,437	220,382	0,045	0,053
-537,423	800,000	0,043	0,107
-536,408	1,670	-0,081	0,043
-535,393	800,000	0,021	0,048
-534,379	-200,000	0,007	-0,055
-533,364	-200,000	-0,005	-0,031
-532,350	800,000	0,051	-0,155
-531,335	269,855	-0,077	-0,101
-530,321	-123,802	0,083	0,010
-529,306	156,694	-0,053	0,054
-528,291	-18,263	-0,082	-0,038
-527,277	-200,000	0,009	0,111
-526,262	800,000	0,020	0,055
-525,248	157,560	-0,079	0,081
-524,233	237,208	-0,030	0,037
-523,218	-48,430	-0,055	0,019
-522,204	140,871	-0,128	-0,125
-521,189	-200,000	-0,007	0,035
-520,175	-200,000	-0,015	-0,084
-519,160	-60,731	0,056	0,017
-518,145	-120,605	0,050	0,006
-517,131	-200,000	-0,002	-0,076
-516,116	-200,000	-0,029	0,201
-515,102	-200,000	-0,030	0,108
-514,087	20,185	-0,086	-0,051
-513,072	-200,000	0,017	-0,055
-512,058	-200,000	0,020	-0,117
-511,043	-98,535	0,102	-0,019
-510,029	354,085	0,066	0,097
-509,014	243,177	0,057	0,071
-507,999	-200,000	-0,011	-0,146
-506,985	-200,000	-0,013	-0,065
-505,970	433,385	-0,095	-0,153
-504,956	-128,884	-0,089	0,009
-503,941	276,603	-0,030	0,040
-502,926	800,000	0,092	0,217
-501,912	121,714	0,042	0,038
-500,897	-200,000	-0,003	-0,039
-499,883	-91,462	0,058	0,012
-498,868	800,000	0,027	-0,084
-497,853	-92,029	-0,089	0,018
-496,839	151,926	-0,082	0,083
-495,824	-200,000	-0,001	0,095
-494,810	384,803	0,071	0,108
-493,795	800,000	0,020	-0,048
-492,781	228,284	0,056	-0,068
-491,766	84,215	-0,080	-0,065
-490,751	-200,000	-0,010	-0,039
-489,737	-111,673	0,088	0,013
-488,722	136,934	0,019	0,018
-487,708	26,736	0,112	-0,069
-486,693	248,962	-0,028	-0,035
-485,678	-84,654	-0,170	0,039
-484,664	-200,000	0,025	-0,198
-483,649	689,425	0,034	-0,066
-482,635	688,227	-0,023	-0,045
-481,620	-200,000	0,009	-0,105
-480,605	800,000	0,049	-0,127
-479,591	800,000	0,013	-0,032
-478,576	-21,938	0,050	0,022
-477,562	800,000	0,033	0,078
-476,547	105,094	-0,033	-0,028
-475,532	70,739	-0,039	-0,029
-474,518	-51,472	0,105	-0,036
-473,503	-159,883	-0,053	-0,002
-472,489	448,149	0,084	-0,137
-471,474	-46,138	0,083	0,030
-470,459	800,000	0,038	0,121
-469,445	-45,805	0,015	-0,005
-468,430	664,476	0,050	-0,096
-467,416	-126,083	-0,120	0,013
-466,401	-200,000	0,015	0,074
-465,386	-200,000	-0,024	0,154
-464,372	-10,867	-0,016	0,008
-463,357	-133,354	0,188	0,017
-462,343	-55,084	0,049	-0,016
-461,328	-105,786	0,031	-0,005
-460,313	25,934	0,051	-0,031
-459,299	-200,000	-0,009	-0,077
-458,284	-56,165	0,104	-0,034
-457,270	-119,076	0,039	-0,005
-456,255	-157,855	0,030	0,001
-455,241	-200,000	0,029	-0,147
-454,226	-200,000	0,003	-0,047
-453,211	-49,818	-0,062	-0,022
-452,197	-46,682	0,026	0,009
-451,182	-200,000	0,025	0,097
-450,168	800,000	-0,033	0,091
-449,153	800,000	-0,038	0,118
-448,138	-58,611	-0,139	-0,044
-447,124	497,304	0,040	0,068
-446,109	617,064	0,078	0,145
-445,095	242,219	0,038	0,047
-444,080	-197,231	0,045	0,000
-443,065	800,000	0,053	-0,166
-442,051	-68,389	0,049	-0,014
-441,036	139,913	0,180	0,175
-440,022	12,289	-0,118	0,067
-439,007	396,788	-0,069	-0,106
-437,992	800,000	-0,063	-0,130
-436,978	5,891	0,051	-0,028
-435,963	-100,411	0,060	0,011
-434,949	19,082	0,025	0,015
-433,934	159,933	-0,063	0,064
-432,919	-6,157	-0,090	0,045
-431,905	355,365	-0,029	-0,042
-430,890	-200,000	0,012	0,137
-429,876	-81,652	0,116	-0,028
-428,861	-200,000	-0,025	0,121
-427,846	-126,100	0,106	-0,012
-426,832	491,055	-0,004	0,006
-425,817	-95,618	-0,140	0,027
-424,803	373,377	0,016	0,024
-423,788	54,169	-0,047	-0,033
-422,773	-23,571	-0,063	-0,028
-421,759	-200,000	-0,003	-0,097
-420,744	111,263	-0,031	0,027
-419,730	-86,764	0,106	-0,024
-418,715	30,007	0,102	-0,064
-417,701	-200,000	0,003	-0,108
-416,686	182,414	-0,054	-0,059
-415,671	-32,310	0,162	0,066
-414,657	800,000	-0,036	0,079
-413,642	400,046	-0,065	0,101
-412,628	17,787	-0,044	0,026
-411,613	71,922	-0,066	-0,050
-410,598	-200,000	0,060	-0,228
-409,584	-121,522	-0,048	-0,006
-408,569	367,794	0,017	-0,026
-407,555	-59,223	-0,115	0,036
-406,540	-200,000	-0,010	-0,181
-405,525	237,204	0,061	-0,075
-404,511	-200,000	0,008	-0,157
-403,496	-200,000	0,029	0,097
-402,482	-200,000	-0,004	0,056
-401,467	-133,125	0,046	0,004
-400,452	69,299	-0,046	0,035
-399,438	-200,000	0,002	0,009
-398,423	-200,000	-0,019	-0,065
-397,409	-200,000	-0,017	-0,164
-396,394	-200,000	-0,022	-0,085
-395,379	-200,000	0,016	0,143
-394,365	145,183	0,036	-0,035
-393,350	800,000	-0,061	0,162
-392,336	-200,000	0,021	0,108
-391,321	-158,503	-0,060	-0,002
-390,306	-95,114	-0,068	0,013
-389,292	14,890	0,122	-0,070
-388,277	187,675	-0,086	0,095
-387,263	-41,413	-0,055	0,021
-386,248	-200,000	-0,038	0,153
-385,233	-200,000	0,035	0,180
-384,219	-200,000	0,003	0,034
-383,204	-87,908	0,085	-0,019
-382,190	477,381	-0,105	-0,175
-381,175	-200,000	0,002	-0,091
-380,160	800,000	-0,030	0,074
-379,146	800,000	0,053	-0,131
-378,131	-59,275	-0,021	0,007
-377,117	-200,000	-0,046	-0,167
-376,102	-200,000	-0,035	-0,166
-375,088	800,000	0,053	0,128
-374,073	-40,847	-0,024	0,009
-373,058	-155,340	0,073	0,003
-372,044	331,918	-0,048	0,068
-371,029	-200,000	-0,003	0,046
-370,015	-200,000	0,006	0,088
-369,000	310,970	0,031	0,042
-367,985	-124,229	-0,063	0,007
-366,971	17,501	-0,105	0,061
-365,956	-25,049	-0,031	-0,013
-364,942	-45,080	0,014	-0,005
-363,927	-52,054	0,099	-0,034
-362,912	45,251	-0,038	-0,026
-361,898	800,000	0,067	-0,190
-360,883	800,000	-0,058	-0,143
-359,869	130,438	-0,101	-0,095
-358,854	-101,715	0,130	-0,023
-357,839	385,442	-0,041	0,062
-356,825	190,449	-0,047	-0,052
-355,810	475,525	0,028	-0,047
-354,796	-159,058	-0,074	0,003
-353,781	13,080	-0,097	-0,055
-352,766	800,000	0,006	0,016
-351,752	774,388	-0,072	0,144
-350,737	52,264	-0,074	-0,052
-349,723	-94,908	0,057	0,011
-348,708	433,355	0,017	-0,027
-347,693	-200,000	-0,021	-0,203
-346,679	800,000	-0,030	-0,065
-345,664	66,088	0,114	-0,085
-344,650	608,858	-0,041	0,075
-343,635	-200,000	0,013	0,172
-342,620	176,225	-0,031	-0,033
-341,606	-186,922	0,170	-0,002
-340,591	150,223	-0,065	-0,065
-339,577	434,073	-0,068	-0,108
-338,562	428,636	-0,059	-0,093
-337,548	800,000	-0,065	0,134
-336,533	14,880	0,107	0,061
-335,518	-66,961	0,044	-0,013
-334,504	-98,344	0,051	-0,010
-333,489	-200,000	-0,002	0,038
-332,475	-200,000	-0,008	0,083
-331,460	-103,773	0,115	0,020
-330,445	770,465	0,028	0,057
-329,431	110,725	-0,030	0,027
-328,416	156,172	0,094	0,095
-327,402	360,945	0,064	-0,095
-326,387	-43,515	-0,031	0,012
-325,372	-138,694	-0,046	-0,004
-324,358	-80,361	0,049	0,012
-323,343	800,000	0,012	-0,037
-322,329	44,745	-0,013	0,009
-321,314	-200,000	0,045	0,149
-320,299	-200,000	0,003	0,069
-319,285	-200,000	0,017	0,092
-318,270	763,950	0,009	0,018
-317,256	80,040	-0,057	0,045
-316,241	-200,000	0,000	-0,080
-315,226	-64,530	0,072	-0,021
-314,212	108,830	0,081	0,071
-313,197	93,253	0,049	0,041
-312,183	-116,957	-0,018	0,002
-311,168	800,000	-0,054	-0,171
-310,153	34,525	-0,106	-0,068
-309,139	800,000	-0,035	-0,074
-308,124	-55,064	-0,088	-0,029
-307,110	396,218	-0,070	0,107
-306,095	800,000	0,045	0,098
-305,080	22,713	0,040	0,024
-304,066	-85,797	0,157	0,035
-303,051	63,748	-0,106	-0,078
-302,037	261,699	-0,116	0,148
-301,022	-200,000	-0,018	-0,091
-300,008	125,399	-0,059	-0,054
-298,993	-200,000	0,070	0,268
-297,978	128,781	-0,016	-0,015
-296,964	65,020	0,102	-0,076
-295,949	-200,000	-0,006	-0,083
-294,935	15,826	0,090	-0,052
-293,920	-36,265	-0,024	-0,010
-292,905	250,210	0,071	0,089
-291,891	483,836	-0,084	0,140
-290,876	-200,000	-0,000	-0,080
-289,862	-173,647	0,031	-0,001
-288,847	35,157	0,135	-0,086
-287,832	-200,000	0,003	0,027
-286,818	-54,412	-0,093	-0,031
-285,803	-154,101	0,135	-0,007
-284,789	-83,927	-0,056	0,013
-283,774	77,699	-0,023	0,018
-282,759	-200,000	-0,004	-0,085
-281,745	-14,159	-0,056	-0,027
-280,730	-200,000	0,022	-0,232
-279,716	-200,000	0,011	0,053
-278,701	172,923	-0,085	0,090
-277,686	-200,000	0,007	0,142
-276,672	169,577	-0,014	0,015
-275,657	800,000	0,038	0,099
-274,643	89,103	-0,046	0,038
-273,628	800,000	-0,020	0,043
-272,613	-9,424	-0,025	-0,012
-271,599	-2,026	0,042	0,021
-270,584	-195,372	0,049	0,000
-269,570	154,645	-0,071	-0,071
-268,555	125,147	-0,096	0,089
-267,540	43,605	-0,048	-0,032
-266,526	-136,257	0,084	0,007
-265,511	-200,000	-0,003	0,010
-264,497	800,000	-0,039	0,096
-263,482	18,603	0,024	-0,014
-262,467	179,242	0,080	-0,085
-261,453	-200,000	-0,023	0,098
-260,438	-161,028	-0,202	0,008
-259,424	429,291	0,063	-0,101
-258,409	278,214	0,097	0,127
-257,395	67,917	-0,030	0,022
-256,380	800,000	0,037	-0,099
-255,365	321,886	-0,028	0,040
-254,351	-200,000	0,028	0,184
-253,336	-18,578	0,045	-0,020
-252,322	19,274	0,024	-0,014
-251,307	-7,415	0,139	-0,068
-250,292	88,696	0,142	0,115
-249,278	-124,325	0,105	0,012
-248,263	82,626	0,083	0,066
-247,249	449,740	0,059	0,096
-246,234	800,000	0,067	0,147
-245,219	117,937	-0,039	-0,035
-244,205	800,000	0,024	-0,057
-243,190	800,000	-0,020	-0,060
-242,176	800,000	-0,023	0,065
-241,161	-26,690	-0,084	-0,036
-240,146	755,881	0,043	0,084
-239,132	75,172	0,027	-0,021
-238,117	367,599	0,021	0,031
-237,103	-106,656	-0,139	0,022
-236,088	9,618	0,040	-0,022
-235,073	-81,125	0,139	-0,033
-234,059	800,000	-0,027	0,083
-233,044	399,277	0,072	0,110
-232,030	-200,000	0,001	-0,055
-231,015	109,392	-0,033	0,029
-230,000	241,038	-0,065	0,080
-228,986	23,838	0,099	-0,060
-227,971	57,823	0,060	-0,043
-226,957	-62,513	0,110	-0,033
-225,942	520,296	0,068	-0,117
-224,927	48,025	-0,117	-0,080
-223,913	-130,852	-0,061	-0,006
-222,898	54,901	-0,071	-0,050
-221,884	-90,936	-0,038	0,008
-220,869	116,975	0,062	-0,055
-219,855	626,150	-0,031	0,058
-218,840	-200,000	-0,000	-0,049
-217,825	800,000	-0,053	-0,110
-216,811	-95,647	0,053	0,010
-215,796	269,162	0,080	-0,102
-214,782	-200,000	0,005	-0,019
-213,767	76,208	0,120	-0,093
-212,752	106,691	-0,034	0,030
-211,738	402,188	0,040	0,062
-210,723	-48,005	-0,077	-0,027
-209,709	800,000	-0,013	0,035
-208,694	139,991	0,047	0,045
-207,679	800,000	-0,027	0,063
-206,665	86,248	0,046	-0,037
-205,650	196,781	0,062	-0,069
-204,636	-200,000	-0,016	0,055
-203,621	-40,446	-0,088	0,033
-202,606	214,466	-0,024	0,028
-201,592	-76,581	-0,157	-0,040
-200,577	800,000	-0,019	-0,048
-199,563	54,670	0,011	0,007
-198,548	-46,899	-0,031	0,011
-197,533	141,708	-0,012	-0,012
-196,519	800,000	-0,009	0,028
-195,504	-200,000	0,008	0,033
-194,490	800,000	-0,059	0,124
-193,475	-0,793	-0,089	0,046
-192,460	-200,000	-0,019	0,110
-191,446	-200,000	0,001	0,113
-190,431	19,071	-0,065	-0,038
-189,417	251,428	0,067	0,083
-188,402	91,534	0,108	-0,089
-187,387	-134,285	-0,191	0,017
-186,373	183,454	-0,106	0,114
-185,358	-56,950	0,070	-0,022
-184,344	34,816	0,068	0,043
-183,329	774,441	0,071	0,141
-182,315	800,000	-0,015	-0,040
-181,300	255,521	-0,078	-0,098
-180,285	9,790	-0,039	0,022
-179,271	-200,000	0,018	0,093
-178,256	800,000	0,055	-0,128
-177,242	-25,990	-0,113	0,048
-176,227	156,452	0,047	-0,047
-175,212	302,405	0,038	-0,051
-174,198	-12,316	-0,123	-0,058
-173,183	445,001	0,090	-0,144
-172,169	532,730	-0,060	-0,104
-171,154	-200,000	-0,004	-0,101
-170,139	-200,000	-0,003	0,058
-169,125	86,533	-0,098	-0,078
-168,110	54,731	0,063	0,045
-167,096	356,708	0,026	-0,038
-166,081	-200,000	-0,008	-0,054
-165,066	179,852	0,090	0,096
-164,052	-200,000	-0,006	-0,045
-163,037	157,766	0,051	-0,051
-162,023	-40,095	-0,068	0,026
-161,008	-105,649	0,105	-0,017
-159,993	671,708	0,025	0,048
-158,979	92,298	-0,033	0,027
-157,964	-200,000	0,012	-0,106
-156,950	-200,000	0,011	-0,137
-155,935	-76,776	0,063	0,016
-154,920	-150,602	0,033	-0,002
-153,906	385,467	-0,024	0,036
-152,891	-54,426	-0,059	0,019
-151,877	-200,000	0,009	-0,073
-150,862	82,749	-0,017	-0,014
-149,847	-200,000	0,055	-0,185
-148,833	481,604	0,047	-0,078
-147,818	49,333	-0,120	-0,082
-146,804	218,364	-0,110	0,128
-145,789	-200,000	-0,016	0,066
-144,775	-200,000	-0,030	0,128
-143,760	272,511	-0,050	0,065
-142,745	230,352	-0,031	-0,037
-141,731	-200,000	0,016	0,111
-140,716	65,891	0,110	0,081
-139,702	261,313	-0,070	0,088
-138,687	-166,419	-0,125	-0,004
-137,672	27,908	-0,056	0,034
-136,658	-64,497	0,080	0,023
-135,643	-200,000	-0,040	-0,161
-134,629	58,032	-0,014	0,010
-133,614	-200,000	-0,015	0,067
-132,599	18,846	0,113	0,066
-131,585	595,572	0,040	0,072
-130,570	116,538	-0,124	-0,110
-129,556	136,751	-0,053	0,051
-128,541	-56,312	0,142	0,046
-127,526	-101,919	0,109	0,019
-126,512	65,817	0,020	-0,015
-125,497	86,801	0,124	-0,099
-124,483	4,079	-0,029	0,015
-123,468	-200,000	0,035	0,117
-122,453	152,775	-0,107	-0,107
-121,439	-200,000	-0,008	0,057
-120,424	-153,612	-0,015	-0,001
-119,410	193,375	0,053	0,058
-118,395	-94,963	0,037	-0,007
-117,380	-200,000	0,042	0,148
-116,366	-200,000	-0,008	0,061
-115,351	-200,000	-0,017	0,116
-114,337	297,379	-0,066	-0,089
-113,322	-172,550	0,092	-0,002
-112,307	800,000	0,037	0,085
-111,293	-200,000	-0,023	-0,098
-110,278	-200,000	0,010	0,138
-109,264	-200,000	-0,005	-0,087
-108,249	-200,000	-0,005	0,065
-107,234	18,278	0,017	-0,010
-106,220	-200,000	-0,025	-0,122
-105,205	-200,000	0,001	0,049
-104,191	-95,663	0,032	-0,006
-103,176	-200,000	0,009	0,056
-102,162	-200,000	-0,105	-0,000
-101,147	-200,000	-0,002	0,025
-100,132	-161,975	-0,131	-0,005
-99,118	48,155	-0,156	-0,106
-98,103	110,641	0,107	-0,094
-97,089	216,088	0,060	0,070
-96,074	-60,579	-0,087	-0,027
-95,059	128,394	0,011	-0,010
-94,045	-179,940	-0,088	0,001
-93,030	99,143	-0,108	-0,091
-92,016	-200,000	0,000	0,040
-91,001	-11,334	-0,108	0,051
-89,986	-30,945	0,149	0,061
-88,972	19,014	0,110	0,064
-87,957	387,288	0,025	-0,038
-86,943	2,877	-0,096	-0,051
-85,928	-179,892	-0,047	-0,001
-84,913	-200,000	-0,008	-0,104
-83,899	800,000	-0,013	0,035
-82,884	60,293	-0,077	-0,056
-81,870	369,243	0,095	0,141
-80,855	-7,678	-0,068	0,033
-79,840	180,313	-0,012	-0,013
-78,826	800,000	-0,005	-0,014
-77,811	800,000	-0,041	-0,094
-76,797	24,431	0,102	0,061
-75,782	60,827	-0,036	0,026
-74,767	255,371	0,048	-0,060
-73,753	325,468	0,073	-0,102
-72,738	-98,276	0,092	-0,017
-71,724	257,136	-0,108	0,135
-70,709	335,678	-0,107	-0,152
-69,694	-200,000	0,036	-0,116
-68,680	800,000	0,026	-0,080
-67,665	31,856	0,091	0,057
-66,651	-200,000	0,021	0,083
-65,636	-60,451	0,133	0,041
-64,622	188,912	0,043	0,047
-63,607	149,886	0,060	0,059
-62,592	-79,350	-0,105	-0,026
-61,578	800,000	-0,032	0,085
-60,563	42,605	-0,044	0,029
-59,549	-200,000	0,000	-0,012
-58,534	-159,872	-1,351	-0,053
-57,519	615,861	-0,850	-1,553
-56,505	-200,000	-0,791	-4,349
-55,490	153,612	0,493	-0,491
-54,476	800,000	5,126	11,881
-53,461	-200,000	13,652	252,844
-52,446	-200,000	689,232	2260,802
-51,432	592,938	1621,994	2920,570
-50,417	119,523	1635,351	1469,689
-49,403	73,382	1289,208	978,153
-48,388	38,123	1024,274	660,110
-47,373	24,346	981,772	587,410
-46,359	23,548	971,645	578,710
-45,344	22,589	967,312	572,971
-44,330	22,533	965,867	571,910
-43,315	22,456	964,430	570,786
-42,300	22,361	963,481	569,891
-41,286	22,424	962,402	569,436
-40,271	22,407	961,449	568,794
-39,257	22,390	960,372	568,079
-38,242	22,343	959,707	567,510
-37,227	22,387	958,737	567,057
-36,213	22,408	957,886	566,600
-35,198	22,419	956,797	565,966
-34,184	22,450	956,420	565,824
-33,169	22,360	955,511	564,970
-32,154	22,422	954,489	564,544
-31,140	22,415	953,669	564,013
-30,125	22,431	952,879	563,578
-29,111	22,468	951,972	563,137
-28,096	22,410	951,490	562,642
-27,082	22,441	950,676	562,240
-26,067	22,440	949,795	561,693
-25,052	22,446	949,215	561,346
-24,038	22,417	948,577	560,855
-23,023	22,460	947,819	560,519
-22,009	22,486	947,266	560,255
-20,994	22,521	946,575	559,936
-19,979	22,542	945,791	559,516
-18,965	22,438	945,454	558,962
-17,950	22,447	944,577	558,450
-16,936	22,388	944,066	557,940
-15,921	22,404	943,418	557,584
-14,906	22,308	942,687	556,825
-13,892	22,328	942,090	556,515
-12,877	22,290	941,507	556,026
-11,863	22,287	940,740	555,542
-10,848	22,335	940,222	555,366
-9,833	22,413	939,717	555,294
-8,819	22,373	939,291	554,894
-7,804	22,289	938,449	554,108
-6,790	22,311	937,979	553,877
-5,775	22,286	937,468	553,474
-4,760	22,333	936,704	553,151
-3,746	22,222	936,358	552,573
-2,731	22,158	935,408	551,789
-1,717	22,087	934,787	551,175
-0,702	22,126	934,049	550,844
0,313	21,957	933,287	550,692
1,327	24,933	931,547	558,977
2,342	34,583	796,054	503,383
3,356	32,577	451,433	282,416
4,371	1,776	293,435	152,871
5,386	-2,734	274,436	138,696
6,400	-4,252	268,494	134,274
7,415	-4,798	266,106	132,566
8,429	-4,481	265,079	132,333
9,444	-4,658	264,095	131,669
10,459	-4,572	263,468	131,422
11,473	-4,664	262,989	131,088
12,488	-4,581	262,314	130,816
13,502	-4,987	261,881	130,221
14,517	-4,673	261,463	130,285
15,531	-4,703	261,022	130,026
16,546	-4,682	260,607	129,827
17,561	-4,575	260,267	129,742
18,575	-4,506	259,852	129,586
19,590	-4,583	259,553	129,355
20,604	-4,550	259,303	129,249
21,619	-4,866	259,100	128,854
22,634	-4,671	258,775	128,855
23,648	-4,777	258,338	128,531
24,663	-4,740	258,154	128,461
25,677	-4,827	257,944	128,268
26,692	-4,800	257,616	128,118
27,707	-4,829	257,427	127,986
28,721	-4,704	257,101	127,924
29,736	-4,772	256,843	127,724
30,750	-4,855	256,573	127,504
31,765	-4,719	256,382	127,519
32,780	-4,765	256,235	127,393
33,794	-4,733	255,903	127,245
34,809	-4,738	255,775	127,166
35,823	-4,790	255,472	126,958
36,838	-4,726	255,128	126,832
37,853	-4,830	254,932	126,632
38,867	-4,859	254,783	126,521
39,882	-4,876	254,511	126,360
40,896	-4,911	254,338	126,232
41,911	-4,666	253,968	126,252
42,926	-4,962	253,822	125,909
43,940	-4,970	253,581	125,771
44,955	-4,947	253,271	125,626
45,969	-5,112	253,125	125,399
46,984	-5,257	252,855	125,128
47,999	-5,276	252,686	125,017
49,013	-5,414	252,223	124,657
50,028	-5,649	252,090	124,376
51,042	-5,714	251,741	124,136
52,057	-5,736	251,622	124,047
53,071	-5,650	251,484	124,043
54,086	-5,410	251,268	124,132
55,101	-5,635	251,273	123,930
56,115	-5,039	250,873	124,235
57,130	-4,767	250,742	124,394
58,144	-4,461	250,750	124,650
59,159	-4,616	250,500	124,382
60,174	-4,679	250,463	124,298
61,188	-4,768	250,121	124,040
62,203	-4,657	249,933	124,032
63,217	-4,771	249,697	123,806
64,232	-4,832	249,643	123,715
65,247	-4,499	249,157	123,749
66,261	-4,743	249,252	123,576
67,276	-4,895	248,785	123,204
68,290	-4,979	248,528	122,994
69,305	-5,298	248,207	122,552
70,320	-5,034	248,135	122,730
71,334	-4,934	248,030	122,752
72,349	-4,649	248,071	123,005
73,363	-4,629	247,748	122,850
74,378	-4,518	247,418	122,770
75,393	-4,729	247,344	122,543
76,407	-4,663	247,049	122,442
77,422	-4,715	246,902	122,315
78,436	-4,847	246,663	122,073
79,451	-4,708	246,557	122,127
80,466	-4,771	246,267	121,920
81,480	-5,139	246,163	121,547
82,495	-4,896	245,764	121,544
83,509	-5,002	245,684	121,404
84,524	-4,998	245,497	121,304
85,539	-5,178	245,220	121,005
86,553	-5,137	245,127	120,983
87,568	-4,977	244,756	120,923
88,582	-4,863	244,699	120,980
89,597	-4,957	244,472	120,778
90,611	-5,048	244,539	120,724
91,626	-4,859	244,332	120,770
92,641	-4,628	244,063	120,819
93,655	-4,699	243,824	120,631
94,670	-4,825	243,703	120,455
95,684	-5,140	243,567	120,114
96,699	-4,915	243,338	120,178
97,714	-4,927	243,095	120,037
98,728	-5,038	242,935	119,855
99,743	-5,082	242,757	119,721
100,757	-5,251	242,565	119,474
101,772	-5,138	242,239	119,397
102,787	-5,139	242,249	119,390
103,801	-5,084	241,962	119,283
104,816	-4,861	241,913	119,434
105,830	-4,745	241,728	119,428
106,845	-4,657	241,421	119,338
107,860	-4,767	241,452	119,252
108,874	-4,976	241,068	118,879
109,889	-4,913	240,964	118,870
110,903	-4,963	240,609	118,642
111,918	-5,021	240,553	118,557
112,933	-4,884	240,330	118,549
113,947	-4,782	240,165	118,540
114,962	-4,847	240,077	118,433
115,976	-4,814	239,913	118,369
116,991	-4,659	239,765	118,412
118,006	-4,576	239,388	118,283
119,020	-4,706	239,341	118,143
120,035	-4,749	239,468	118,160
121,049	-4,593	239,226	118,158
122,064	-4,859	239,065	117,850
123,079	-4,783	238,813	117,778
124,093	-4,984	238,554	117,475
125,108	-5,086	238,352	117,283
126,122	-5,160	238,098	117,087
127,137	-5,215	237,928	116,948
128,151	-5,122	237,714	116,908
129,166	-5,093	237,559	116,845
130,181	-5,265	237,396	116,615
131,195	-5,134	237,285	116,656
132,210	-4,965	237,159	116,721
133,224	-4,793	237,047	116,794
134,239	-4,847	236,834	116,635
135,254	-4,834	236,776	116,607
136,268	-4,905	236,291	116,300
137,283	-5,073	236,143	116,082
138,297	-5,325	235,892	115,745
139,312	-5,319	235,780	115,684
140,327	-5,010	235,828	115,947
141,341	-4,583	235,870	116,301
142,356	-4,495	235,769	116,311
143,370	-4,572	235,428	116,071
144,385	-4,442	235,324	116,114
145,400	-4,478	235,136	115,981
146,414	-4,326	234,971	116,012
147,429	-4,402	234,732	115,822
148,443	-4,586	234,528	115,564
149,458	-4,397	234,422	115,653
150,473	-4,504	234,327	115,510
151,487	-4,616	234,103	115,300
152,502	-4,558	234,105	115,336
153,516	-4,465	233,716	115,209
154,531	-4,425	233,499	115,124
155,546	-4,571	233,366	114,932
156,560	-4,568	233,181	114,833
157,575	-4,777	233,066	114,600
158,589	-4,677	232,737	114,507
159,604	-4,490	232,737	114,646
160,619	-4,275	232,517	114,697
161,633	-4,461	232,583	114,572
162,648	-4,418	232,359	114,486
163,662	-4,259	232,139	114,492
164,677	-4,669	232,000	114,090
165,692	-4,679	231,892	114,019
166,706	-4,375	231,752	114,179
167,721	-4,378	231,650	114,116
168,735	-4,339	231,480	114,053
169,750	-4,543	231,377	113,832
170,764	-4,437	231,137	113,787
171,779	-4,485	230,948	113,646
172,794	-4,437	230,778	113,590
173,808	-4,532	230,704	113,469
174,823	-4,997	230,218	112,856
175,837	-5,147	230,064	112,653
176,852	-4,693	230,032	112,982
177,867	-4,408	229,896	113,128
178,881	-4,495	229,773	112,990
179,896	-4,340	229,707	113,068
180,910	-4,473	229,644	112,923
181,925	-4,319	229,308	112,868
182,940	-4,431	229,185	112,710
183,954	-4,479	229,201	112,671
184,969	-4,624	229,005	112,451
185,983	-4,424	228,932	112,561
186,998	-4,217	228,611	112,554
188,013	-4,237	228,572	112,509
189,027	-4,333	228,275	112,279
190,042	-4,197	228,201	112,337
191,056	-4,196	228,042	112,250
192,071	-4,353	227,771	111,985
193,086	-4,439	227,680	111,864
194,100	-4,284	227,513	111,892
195,115	-4,462	227,204	111,593
196,129	-5,202	227,026	110,924
197,144	-1,593	228,003	114,185
198,159	2,202	229,242	117,740
199,173	4,217	229,566	119,459
200,188	4,195	229,567	119,432
201,202	4,489	229,272	119,495
202,217	4,671	229,155	119,564
203,232	4,688	229,132	119,554
204,246	4,772	229,017	119,549
205,261	4,860	228,901	119,546
206,275	4,912	228,843	119,545
207,290	5,336	228,586	119,726
208,304	4,904	228,483	119,330
209,319	5,087	228,321	119,375
210,334	4,942	228,046	119,109
211,348	4,635	227,767	118,717
212,363	4,456	227,542	118,452
213,377	4,089	227,441	118,107
214,392	4,080	227,273	118,002
215,407	4,310	227,009	118,031
216,421	4,147	227,054	117,918
217,436	3,997	226,814	117,669
218,450	3,877	226,683	117,499
219,465	3,957	226,379	117,392
220,480	3,925	226,257	117,294
221,494	3,865	226,110	117,161
222,509	4,072	226,085	117,295
223,523	4,161	225,890	117,252
224,538	4,095	225,733	117,109
225,553	4,063	225,566	116,989
226,567	4,290	225,480	117,105
227,582	4,414	225,486	117,193
228,596	4,650	225,206	117,215
229,611	4,250	225,011	116,800
230,626	3,959	224,794	116,457
231,640	4,168	224,728	116,571
232,655	4,408	224,609	116,680
233,669	4,709	224,679	116,933
234,684	4,941	224,477	116,993
235,699	4,331	224,331	116,446
236,713	3,985	224,075	116,042
237,728	4,138	223,899	116,056
238,742	3,956	223,679	115,794
239,757	3,990	223,488	115,711
240,772	4,117	223,377	115,738
241,786	3,895	223,280	115,511
242,801	4,196	223,287	115,730
243,815	4,353	223,158	115,771
244,830	4,499	222,903	115,738
245,844	4,217	222,796	115,461
246,859	4,226	222,627	115,370
247,874	4,311	222,541	115,378
248,888	4,293	222,295	115,227
249,903	4,119	222,304	115,091
250,917	4,296	221,992	115,052
251,932	4,237	221,797	114,897
252,947	4,017	221,706	114,676
253,961	4,246	221,393	114,674
254,976	4,110	221,452	114,593
255,990	4,160	221,264	114,522
257,005	4,473	221,154	114,688
258,020	4,294	221,197	114,566
259,034	4,483	221,096	114,644
260,049	4,453	220,851	114,485
261,063	4,255	220,678	114,239
262,078	4,393	220,526	114,251
263,093	4,465	220,400	114,229
264,107	4,509	220,256	114,177
265,122	4,563	220,035	114,092
266,136	4,605	220,022	114,106
267,151	4,595	219,986	114,070
268,166	4,328	219,549	113,637
269,180	3,766	219,347	113,108
270,195	4,066	219,262	113,275
271,209	3,950	219,168	113,131
272,224	3,801	219,120	112,987
273,239	4,268	218,918	113,215
274,253	3,727	218,761	112,727
275,268	3,767	218,639	112,684
276,282	3,777	218,436	112,576
277,297	3,911	218,141	112,512
278,312	3,969	218,086	112,517
279,326	4,168	217,997	112,606
280,341	4,324	217,784	112,600
281,355	4,130	217,722	112,415
282,370	4,326	217,589	112,480
283,384	3,914	217,400	112,072
284,399	3,635	217,246	111,780
285,414	3,829	217,141	111,857
286,428	3,970	217,053	111,904
287,443	4,235	217,046	112,083
288,457	4,185	216,833	111,927
289,472	4,210	216,574	111,802
290,487	3,719	216,381	111,336
291,501	3,977	216,141	111,390
292,516	3,734	216,156	111,211
293,530	4,099	215,842	111,303
294,545	3,925	215,865	111,180
295,560	3,857	215,797	111,086
296,574	4,151	215,798	111,289
297,589	3,864	215,511	110,924
298,603	4,298	215,213	111,073
299,618	3,910	215,308	110,833
300,633	4,010	215,230	110,855
301,647	4,452	215,096	111,094
302,662	4,329	214,975	110,933
303,676	4,686	214,836	111,108
304,691	4,472	214,635	110,841
305,706	4,354	214,489	110,671
306,720	4,438	214,427	110,689
307,735	4,059	214,239	110,310
308,749	3,864	214,022	110,049
309,764	4,133	213,911	110,175
310,779	4,207	213,891	110,208
311,793	4,371	213,694	110,213
312,808	4,197	213,490	109,974
313,822	4,392	213,170	109,938
314,837	4,241	213,085	109,777
315,852	3,719	213,193	109,451
316,866	3,996	212,975	109,527
317,881	4,228	212,863	109,624
318,895	4,304	212,797	109,634
319,910	4,186	212,473	109,374
320,925	3,777	212,271	108,970
321,939	3,696	212,018	108,773
322,954	3,630	212,029	108,723
323,968	4,132	211,963	109,035
324,983	4,483	211,937	109,260
325,997	4,433	211,745	109,116
327,012	4,190	211,594	108,856
328,027	4,128	211,482	108,745
329,041	4,318	211,414	108,835
330,056	4,803	211,301	109,108
331,070	4,267	211,083	108,609
332,085	3,793	210,823	108,132
333,100	4,143	210,736	108,324
334,114	4,089	210,539	108,175
335,129	4,066	210,366	108,060
336,143	3,781	210,270	107,802
337,158	3,922	210,118	107,812
338,173	3,978	210,123	107,845
339,187	3,847	209,950	107,655
340,202	3,897	209,552	107,476
341,216	3,792	209,594	107,415
342,231	3,901	209,468	107,417
343,246	3,819	209,312	107,270
344,260	4,069	209,133	107,343
345,275	4,123	209,220	107,416
346,289	4,122	209,031	107,308
347,304	4,173	208,980	107,308
348,319	4,157	208,722	107,155
349,333	4,170	208,719	107,153
350,348	4,151	208,515	107,026
351,362	4,256	208,351	107,004
352,377	4,330	208,227	106,982
353,392	3,978	208,078	106,652
354,406	4,067	208,151	106,742
355,421	194,718	1344,544	1436,047
356,435	155,394	1483,104	1436,174
