DTS Sentinel unit serial number:	SN410029Multiplexer serial number:	ORYXHardware model number:	OX2-SRSoftware version number:	ORYX F/W v4,00 Oryx Data Collector v3.7.2.0data status	okinstallation	B6 Nyhavnadifferential loss correction	single-endedforward channel	channel 2reverse channel	N/Adate	2023/12/07time	20:50:08forward acquisition time	300,00reverse acquisition time	0,00gamma	499,1914k internal	0,3164k external	0,3164temperature offset calibration	1,0000default loss term (dB/km)	0,3820temperature slope calibration	1,0000multiplexer offset coefficient	1,0000multiplexer slope coefficient	1,0000fibre end	0,00T internal ref (°C)	13,76T ext. ref 1 (°C)	-3,12T ext. ref 2 (°C)	-3,14length (m)	temperature (°C)	Stokes	anti-Stokes-744,400	23,955	0,089	-0,054
-743,385	-107,956	-0,322	0,051
-742,371	-200,000	0,003	0,109
-741,356	41,440	-0,290	0,193
-740,342	0,083	0,086	0,045
-739,327	-76,569	-0,261	0,067
-738,312	132,845	0,089	-0,084
-737,298	-148,971	-0,367	0,021
-736,283	-41,095	0,134	0,051
-735,269	-49,419	-0,353	-0,123
-734,254	-200,000	-0,002	-0,093
-733,239	-19,470	-0,578	-0,262
-732,225	-60,200	0,274	0,085
-731,210	375,078	0,073	0,110
-730,196	-200,000	-0,002	0,088
-729,181	42,791	0,078	-0,052
-728,167	11,431	0,045	0,025
-727,152	-52,670	-0,097	-0,033
-726,137	-0,951	-0,091	0,047
-725,123	-200,000	0,009	-0,044
-724,108	50,005	-0,116	0,080
-723,094	-99,862	-0,042	0,008
-722,079	56,616	-0,161	-0,115
-721,064	800,000	0,018	0,041
-720,050	439,326	-0,027	0,043
-719,035	-24,496	-0,070	0,031
-718,021	-59,681	-0,137	0,043
-717,006	-128,492	-0,042	-0,004
-715,991	-200,000	-0,013	-0,098
-714,977	800,000	-0,060	-0,152
-713,962	645,442	0,054	-0,102
-712,948	419,318	-0,061	-0,096
-711,933	-200,000	0,029	-0,129
-710,918	-10,549	-0,073	0,036
-709,904	4,075	-0,037	-0,020
-708,889	128,166	-0,067	-0,062
-707,875	375,045	0,020	-0,030
-706,860	48,657	-0,072	0,050
-705,845	800,000	-0,035	-0,111
-704,831	67,794	0,064	0,048
-703,816	-71,113	-0,047	-0,013
-702,802	800,000	0,045	0,101
-701,787	152,625	0,095	-0,095
-700,772	45,716	-0,072	-0,049
-699,758	185,146	-0,041	-0,044
-698,743	463,294	0,032	0,053
-697,729	800,000	0,047	-0,105
-696,714	115,908	-0,096	-0,086
-695,699	800,000	-0,044	-0,102
-694,685	47,985	-0,044	-0,030
-693,670	-105,292	-0,062	0,010
-692,656	-149,088	0,047	0,003
-691,641	-130,800	-0,044	-0,004
-690,627	383,906	0,060	0,092
-689,612	72,325	0,078	0,060
-688,597	246,179	-0,028	-0,035
-687,583	-200,000	0,000	0,018
-686,568	785,313	-0,064	-0,129
-685,554	-148,999	-0,062	-0,004
-684,539	97,082	0,049	-0,041
-683,524	-200,000	-0,016	-0,067
-682,510	-86,109	-0,031	-0,007
-681,495	-7,619	-0,062	0,031
-680,481	800,000	-0,044	-0,121
-679,466	98,168	-0,138	0,117
-678,451	-200,000	-0,010	-0,104
-677,437	113,446	-0,099	-0,088
-676,422	57,200	-0,017	-0,012
-675,408	-200,000	-0,003	0,033
-674,393	800,000	0,027	-0,060
-673,378	-91,336	0,040	-0,008
-672,364	-57,857	-0,057	-0,018
-671,349	397,367	-0,041	-0,063
-670,335	-47,219	-0,042	-0,015
-669,320	-200,000	0,004	-0,024
-668,305	109,841	-0,009	-0,008
-667,291	-65,409	-0,123	0,036
-666,276	46,867	0,020	-0,013
-665,262	672,632	0,048	-0,092
-664,247	-7,319	0,176	-0,087
-663,232	209,778	-0,050	-0,057
-662,218	538,738	-0,050	-0,088
-661,203	800,000	-0,037	0,114
-660,189	-200,000	0,027	0,139
-659,174	-30,720	-0,139	-0,057
-658,159	800,000	-0,045	-0,096
-657,145	86,957	-0,092	0,074
-656,130	-200,000	0,004	0,075
-655,116	800,000	0,019	-0,058
-654,101	0,966	0,093	0,049
-653,086	430,967	-0,060	0,095
-652,072	-200,000	0,016	0,127
-651,057	-200,000	-0,022	-0,115
-650,043	50,760	-0,132	-0,092
-649,028	404,119	-0,092	-0,142
-648,014	227,064	0,070	0,084
-646,999	8,256	-0,037	0,020
-645,984	-200,000	-0,013	-0,118
-644,970	-200,000	-0,003	-0,107
-643,955	-200,000	-0,009	0,043
-642,941	24,714	-0,091	0,055
-641,926	-200,000	0,021	0,087
-640,911	21,778	0,139	-0,083
-639,897	-149,179	-0,104	0,006
-638,882	132,138	0,039	0,037
-637,868	-100,816	-0,115	-0,021
-636,853	198,834	0,044	-0,050
-635,838	71,891	-0,072	0,055
-634,824	-85,883	-0,116	0,026
-633,809	-24,610	0,064	0,028
-632,795	1,076	0,134	-0,070
-631,780	-200,000	0,009	-0,031
-630,765	-152,925	-0,060	-0,003
-629,751	152,229	0,022	-0,022
-628,736	75,733	-0,036	0,028
-627,722	-7,179	0,081	-0,040
-626,707	734,826	-0,022	0,044
-625,692	208,690	0,051	0,059
-624,678	-83,618	0,083	-0,019
-623,663	484,979	0,011	0,019
-622,649	783,242	-0,021	-0,041
-621,634	54,824	0,028	-0,020
-620,619	-35,064	-0,039	-0,015
-619,605	-148,156	0,077	-0,005
-618,590	-200,000	-0,000	-0,019
-617,576	800,000	-0,037	0,114
-616,561	-38,884	0,143	0,055
-615,546	800,000	-0,045	0,114
-614,532	240,091	-0,090	0,109
-613,517	-200,000	0,000	-0,076
-612,503	800,000	0,054	-0,143
-611,488	-86,036	0,077	0,017
-610,474	17,509	-0,034	0,020
-609,459	-94,335	-0,154	-0,031
-608,444	-35,126	-0,123	-0,049
-607,430	-104,270	-0,079	-0,013
-606,415	518,785	0,046	-0,079
-605,401	800,000	-0,040	0,091
-604,386	-103,952	0,115	-0,019
-603,371	-200,000	0,010	-0,071
-602,357	109,225	0,106	0,093
-601,342	-146,402	0,059	-0,004
-600,328	26,912	-0,191	-0,117
-599,313	123,145	-0,017	-0,015
-598,298	-26,856	-0,122	0,052
-597,284	-42,533	-0,012	-0,004
-596,269	136,383	-0,026	0,024
-595,255	-99,401	-0,135	-0,025
-594,240	-108,759	-0,126	0,019
-593,225	-33,119	-0,056	-0,023
-592,211	-39,196	-0,096	-0,037
-591,196	-5,896	-0,073	0,036
-590,182	-149,900	0,072	-0,004
-589,167	-69,093	0,070	0,020
-588,152	417,175	-0,038	-0,060
-587,138	-71,731	-0,117	0,032
-586,123	7,779	-0,052	0,029
-585,109	-200,000	-0,001	-0,033
-584,094	-200,000	0,010	-0,070
-583,079	800,000	-0,066	-0,135
-582,065	800,000	0,031	-0,095
-581,050	347,177	-0,082	0,119
-580,036	-117,999	-0,034	-0,004
-579,021	793,805	0,048	-0,096
-578,006	-89,008	-0,057	0,012
-576,992	800,000	-0,009	0,020
-575,977	-65,643	-0,122	0,035
-574,963	-29,410	-0,150	0,062
-573,948	-32,307	-0,091	0,037
-572,934	227,961	-0,065	-0,078
-571,919	-132,817	0,077	-0,007
-570,904	578,060	0,042	-0,076
-569,890	435,917	0,035	-0,056
-568,875	149,493	0,112	-0,111
-567,861	-50,971	-0,079	-0,027
-566,846	-200,000	0,031	0,196
-565,831	113,543	-0,147	-0,131
-564,817	-200,000	-0,021	0,070
-563,802	0,859	0,077	-0,040
-562,788	800,000	-0,021	0,055
-561,773	92,413	0,085	-0,070
-560,758	-200,000	-0,012	0,064
-559,744	282,893	-0,014	-0,019
-558,729	199,696	0,044	-0,050
-557,715	357,299	0,021	0,031
-556,700	-79,904	-0,096	0,023
-555,685	-200,000	0,005	0,089
-554,671	-149,913	-0,062	0,004
-553,656	-65,275	0,062	0,018
-552,642	83,686	-0,009	-0,007
-551,627	25,049	0,015	0,009
-550,612	-200,000	0,032	-0,150
-549,598	-19,168	0,108	0,049
-548,583	53,690	-0,111	-0,077
-547,569	-108,590	0,126	0,019
-546,554	-32,830	0,147	0,059
-545,539	307,474	-0,073	0,100
-544,525	253,851	0,116	-0,145
-543,510	-200,000	-0,004	-0,080
-542,496	800,000	0,050	-0,137
-541,481	-200,000	-0,003	0,022
-540,466	-200,000	-0,008	0,090
-539,452	-200,000	0,001	-0,012
-538,437	130,571	0,015	-0,014
-537,423	50,209	0,032	-0,022
-536,408	180,957	-0,107	-0,115
-535,393	800,000	0,054	-0,124
-534,379	58,290	-0,083	-0,059
-533,364	-146,743	-0,121	-0,008
-532,350	5,041	0,077	-0,041
-531,335	-200,000	0,005	-0,051
-530,321	74,473	0,009	0,007
-529,306	-200,000	0,028	-0,121
-528,291	-18,471	0,048	0,022
-527,277	-97,406	0,177	0,033
-526,262	-111,553	-0,048	-0,007
-525,248	97,022	0,050	0,042
-524,233	23,487	0,141	0,084
-523,218	23,780	0,040	-0,024
-522,204	-79,494	-0,128	-0,031
-521,189	-101,755	-0,010	0,002
-520,175	217,684	0,077	-0,090
-519,160	-200,000	-0,053	-0,219
-518,145	-141,164	0,135	0,010
-517,131	26,693	0,035	0,021
-516,116	165,279	-0,014	0,014
-515,102	-38,955	-0,039	0,015
-514,087	251,344	0,024	0,030
-513,072	-23,325	-0,033	-0,014
-512,058	259,954	0,015	0,019
-511,043	521,820	-0,041	0,071
-510,029	595,170	0,010	0,018
-509,014	-200,000	0,070	0,241
-507,999	340,561	0,100	0,143
-506,985	242,521	-0,050	0,061
-505,970	-200,000	0,010	-0,151
-504,956	-200,000	-0,006	0,146
-503,941	618,174	0,015	-0,027
-502,926	-183,871	-0,067	0,001
-501,912	-200,000	-0,016	0,140
-500,897	8,433	-0,083	0,045
-499,883	118,706	-0,061	-0,055
-498,868	21,090	0,096	-0,056
-497,853	139,035	-0,024	0,023
-496,839	-200,000	-0,020	-0,084
-495,824	176,119	0,057	0,060
-494,810	-45,568	0,110	0,039
-493,795	-19,053	0,008	0,004
-492,781	12,177	0,025	-0,014
-491,766	8,322	-0,054	-0,030
-490,751	-40,790	-0,093	-0,035
-489,737	-139,547	-0,102	-0,008
-488,722	-200,000	-0,008	0,064
-487,708	-200,000	0,001	0,048
-486,693	-65,687	-0,058	-0,017
-485,678	-200,000	-0,008	0,097
-484,664	-158,542	0,030	-0,001
-483,649	800,000	0,014	-0,031
-482,635	-200,000	-0,006	-0,158
-481,620	546,767	0,043	-0,075
-480,605	-102,728	-0,079	0,014
-479,591	-200,000	-0,006	-0,053
-478,576	-200,000	-0,029	-0,191
-477,562	-200,000	0,011	-0,040
-476,547	322,414	-0,021	0,029
-475,532	-81,677	-0,217	-0,051
-474,518	14,622	0,058	0,033
-473,503	800,000	-0,027	0,080
-472,489	-200,000	-0,004	-0,019
-471,474	539,127	0,046	0,079
-470,459	-90,135	-0,124	-0,026
-469,445	-200,000	0,016	-0,108
-468,430	-200,000	0,034	-0,125
-467,416	303,936	0,034	-0,046
-466,401	0,211	-0,061	-0,031
-465,386	-200,000	0,012	0,045
-464,372	-21,563	0,044	0,020
-463,357	-200,000	0,009	-0,032
-462,343	-24,253	0,053	0,023
-461,328	-200,000	0,001	-0,007
-460,313	-65,120	-0,058	0,017
-459,299	106,471	0,168	0,145
-458,284	-53,620	0,044	0,014
-457,270	800,000	-0,029	0,069
-456,255	7,140	0,123	0,067
-455,241	93,850	-0,069	-0,057
-454,226	50,528	0,127	-0,087
-453,211	-139,484	0,150	-0,012
-452,197	417,216	0,107	0,167
-451,182	668,753	0,048	0,090
-450,168	-200,000	-0,000	0,090
-449,153	539,909	-0,041	-0,071
-448,138	-60,575	-0,089	0,027
-447,124	-200,000	0,011	0,040
-446,109	-200,000	0,012	-0,039
-445,095	800,000	0,037	-0,080
-444,080	35,829	0,100	-0,064
-443,065	169,943	0,019	-0,019
-442,051	49,751	0,137	-0,094
-441,036	-200,000	0,017	-0,102
-440,022	-200,000	0,002	0,048
-439,007	-200,000	0,007	-0,045
-437,992	-200,000	0,007	-0,055
-436,978	406,206	0,072	-0,111
-435,963	194,898	0,127	0,141
-434,949	-200,000	0,021	-0,093
-433,934	185,974	0,014	0,015
-432,919	340,093	0,076	0,109
-431,905	373,827	-0,085	0,127
-430,890	-200,000	-0,003	0,011
-429,876	-82,584	-0,052	0,012
-428,861	800,000	0,038	0,091
-427,846	-71,444	-0,053	-0,014
-426,832	-115,053	-0,126	0,017
-425,817	454,109	0,072	-0,116
-424,803	-81,388	-0,153	-0,036
-423,788	-101,494	0,145	0,025
-422,773	-2,239	-0,141	0,072
-421,759	-111,205	0,127	0,019
-420,744	800,000	0,045	0,131
-419,730	15,017	-0,037	0,021
-418,715	-200,000	0,000	-0,022
-417,701	-200,000	0,014	0,090
-416,686	-200,000	-0,036	0,146
-415,671	800,000	0,056	0,123
-414,657	800,000	0,023	0,046
-413,642	424,793	0,059	0,092
-412,628	-95,885	-0,107	0,021
-411,613	-200,000	-0,045	-0,162
-410,598	278,938	0,109	-0,142
-409,584	-200,000	-0,004	0,020
-408,569	129,022	-0,075	0,070
-407,555	413,483	0,113	-0,176
-406,540	-200,000	0,022	-0,099
-405,525	135,458	-0,102	-0,096
-404,511	-42,516	-0,038	-0,014
-403,496	133,594	-0,144	-0,136
-402,482	-100,291	-0,067	-0,012
-401,467	800,000	0,038	-0,106
-400,452	-200,000	0,000	0,062
-399,438	164,961	-0,022	-0,023
-398,423	-80,993	0,063	0,015
-397,409	8,964	-0,037	0,020
-396,394	298,390	-0,084	-0,112
-395,379	800,000	0,026	-0,074
-394,365	164,983	-0,025	0,026
-393,350	800,000	0,034	0,078
-392,336	-90,467	0,048	0,010
-391,321	-200,000	0,027	0,187
-390,306	-61,952	-0,105	0,032
-389,292	275,491	-0,074	0,096
-388,277	372,010	0,062	0,092
-387,263	800,000	0,004	0,011
-386,248	149,206	0,031	0,030
-385,233	-111,815	0,092	-0,013
-384,219	77,367	0,102	-0,079
-383,204	179,337	-0,047	0,050
-382,190	800,000	0,043	-0,119
-381,175	-68,756	0,049	-0,014
-380,160	544,144	0,034	-0,060
-379,146	40,831	0,072	-0,047
-378,131	-200,000	0,011	0,158
-377,117	535,600	0,032	0,055
-376,102	-200,000	-0,029	-0,097
-375,088	-24,707	-0,070	0,030
-374,073	84,195	0,085	-0,067
-373,058	175,572	-0,076	-0,080
-372,044	114,853	0,073	-0,064
-371,029	147,757	0,011	0,011
-370,015	-91,692	-0,091	0,019
-369,000	301,841	-0,033	0,044
-367,985	54,713	0,083	0,058
-366,971	-32,044	0,063	-0,025
-365,956	800,000	-0,060	0,152
-364,942	237,282	0,050	0,060
-363,927	264,992	-0,054	0,069
-362,912	800,000	0,023	0,049
-361,898	-200,000	0,006	-0,022
-360,883	-107,823	-0,156	0,024
-359,869	762,850	0,076	-0,150
-358,854	767,517	-0,051	0,101
-357,839	142,011	0,028	-0,027
-356,825	-70,565	0,084	0,023
-355,810	-124,491	0,087	0,010
-354,796	-200,000	0,003	0,080
-353,781	800,000	0,022	-0,047
-352,766	48,175	-0,115	-0,078
-351,752	-119,124	-0,098	0,012
-350,737	800,000	-0,036	0,084
-349,723	-101,321	0,097	-0,017
-348,708	-84,173	0,067	0,015
-347,693	216,591	-0,090	-0,104
-346,679	-200,000	0,031	0,100
-345,664	31,035	-0,064	-0,040
-344,650	800,000	0,021	0,052
-343,635	73,508	0,058	-0,044
-342,620	-128,073	-0,047	0,005
-341,606	-200,000	0,002	-0,019
-340,591	-15,132	0,089	-0,041
-339,577	-61,087	-0,055	0,017
-338,562	800,000	0,014	-0,045
-337,548	51,767	0,095	-0,066
-336,533	800,000	-0,064	0,170
-335,518	202,910	0,060	0,067
-334,504	-200,000	0,023	-0,097
-333,489	-200,000	0,014	0,083
-332,475	487,046	0,018	0,029
-331,460	800,000	0,044	0,108
-330,445	-200,000	-0,001	-0,012
-329,431	220,123	0,031	-0,036
-328,416	-81,243	-0,030	-0,007
-327,402	-200,000	-0,005	0,024
-326,387	51,082	0,101	-0,069
-325,372	-120,723	-0,090	-0,011
-324,358	29,822	-0,022	-0,014
-323,343	800,000	-0,025	-0,062
-322,329	201,175	-0,013	0,015
-321,314	-200,000	-0,041	-0,138
-320,299	-33,985	-0,124	0,049
-319,285	124,107	0,023	0,021
-318,270	800,000	-0,039	-0,099
-317,256	800,000	0,010	0,031
-316,241	-200,000	-0,042	-0,144
-315,226	-137,509	0,178	0,014
-314,212	1,873	-0,098	0,051
-313,197	-200,000	-0,019	0,090
-312,183	-37,786	-0,052	-0,020
-311,168	80,480	-0,078	0,060
-310,153	115,342	-0,059	-0,052
-309,139	-200,000	0,003	-0,054
-308,124	194,885	-0,110	0,121
-307,110	-9,644	0,078	0,038
-306,095	451,716	0,045	0,072
-305,080	-200,000	-0,022	0,154
-304,066	-178,421	-0,089	0,001
-303,051	-112,289	-0,140	0,020
-302,037	275,283	0,079	-0,102
-301,022	480,117	0,043	-0,070
-300,008	-200,000	0,002	0,010
-298,993	76,100	0,031	0,023
-297,978	-200,000	0,004	0,047
-296,964	-174,960	-0,052	0,001
-295,949	115,016	-0,008	-0,007
-294,935	-96,423	-0,167	0,032
-293,920	-200,000	0,015	0,066
-292,905	-152,797	0,085	-0,004
-291,891	800,000	-0,029	0,091
-290,876	-22,363	-0,192	0,084
-289,862	800,000	0,047	0,102
-288,847	800,000	0,003	0,006
-287,832	-200,000	0,024	-0,114
-286,818	-9,449	-0,158	0,076
-285,803	336,329	0,029	-0,041
-284,789	800,000	0,041	0,101
-283,774	-200,000	-0,028	0,134
-282,759	186,397	-0,007	-0,008
-281,745	800,000	-0,009	0,021
-280,730	-163,282	0,024	-0,001
-279,716	135,856	0,054	0,051
-278,701	800,000	0,045	-0,092
-277,686	-200,000	-0,025	0,119
-276,672	336,083	0,024	-0,033
-275,657	-54,729	0,188	-0,061
-274,643	-90,051	0,101	0,021
-273,628	-200,000	0,020	-0,089
-272,613	-151,027	0,130	-0,007
-271,599	360,199	0,035	0,051
-270,584	333,933	-0,039	-0,055
-269,570	453,908	0,045	-0,072
-268,555	-35,292	-0,037	-0,015
-267,540	-40,829	0,112	0,042
-266,526	-78,949	-0,114	-0,028
-265,511	-200,000	-0,003	0,055
-264,497	-200,000	-0,001	0,186
-263,482	-200,000	-0,002	0,139
-262,467	218,617	-0,019	-0,022
-261,453	-200,000	0,001	0,230
-260,438	-129,957	-0,134	0,013
-259,424	-91,021	-0,081	-0,017
-258,409	-133,654	0,072	0,006
-257,395	-54,901	-0,010	-0,003
-256,380	647,384	-0,023	-0,042
-255,365	322,228	-0,116	-0,160
-254,351	229,763	-0,032	0,038
-253,336	-87,347	0,093	0,020
-252,322	77,936	0,021	-0,016
-251,307	-200,000	0,007	0,031
-250,292	-200,000	-0,002	0,030
-249,278	-200,000	-0,010	0,190
-248,263	145,411	0,029	-0,028
-247,249	-97,264	0,125	0,023
-246,234	-200,000	0,006	-0,033
-245,219	-200,000	-0,003	-0,043
-244,205	53,135	0,040	-0,027
-243,190	273,068	-0,040	-0,051
-242,176	14,741	-0,097	0,055
-241,161	-140,441	-0,040	0,003
-240,146	311,318	-0,058	0,078
-239,132	-200,000	0,003	0,018
-238,117	80,446	-0,051	-0,039
-237,103	-200,000	0,021	-0,164
-236,088	4,254	0,037	0,020
-235,073	800,000	0,070	0,162
-234,059	-36,557	0,115	0,044
-233,044	-52,778	0,069	0,023
-232,030	-200,000	-0,012	0,073
-231,015	566,011	0,028	-0,048
-230,000	-200,000	0,016	-0,146
-228,986	57,257	-0,150	0,106
-227,971	-30,299	0,129	-0,053
-226,957	-119,611	0,030	0,004
-225,942	509,833	-0,013	-0,022
-224,927	800,000	-0,030	0,070
-223,913	-200,000	0,017	-0,083
-222,898	212,158	-0,089	0,101
-221,884	-180,964	-0,057	-0,001
-220,869	149,546	0,015	0,015
-219,855	61,074	-0,019	0,014
-218,840	-200,000	-0,020	0,099
-217,825	800,000	0,015	-0,043
-216,811	-200,000	-0,006	-0,099
-215,796	-134,694	-0,093	-0,008
-214,782	183,456	-0,087	-0,092
-213,767	79,998	-0,038	0,030
-212,752	109,680	0,132	0,114
-211,738	-194,766	0,109	0,001
-210,723	800,000	-0,034	-0,079
-209,709	179,689	-0,090	-0,095
-208,694	-200,000	-0,027	-0,106
-207,679	-200,000	-0,025	0,099
-206,665	-200,000	0,000	-0,083
-205,650	800,000	0,041	-0,090
-204,636	-196,817	-0,129	0,001
-203,621	85,816	0,111	0,088
-202,606	-63,245	-0,129	-0,038
-201,592	800,000	-0,014	0,034
-200,577	137,208	0,064	-0,060
-199,563	-97,014	-0,051	-0,010
-198,548	800,000	-0,034	-0,083
-197,533	-61,068	0,158	0,048
-196,519	630,722	0,041	-0,075
-195,504	-200,000	-0,000	-0,081
-194,490	-130,404	-0,144	0,014
-193,475	-200,000	-0,026	-0,126
-192,460	-106,308	-0,115	-0,018
-191,446	-200,000	0,014	0,101
-190,431	125,012	0,111	0,101
-189,417	70,018	-0,013	0,010
-188,402	-61,470	-0,067	-0,020
-187,387	-166,043	0,063	0,002
-186,373	-148,787	-0,112	0,006
-185,358	-200,000	0,006	-0,048
-184,344	-200,000	0,008	0,138
-183,329	-200,000	0,003	0,117
-182,315	-91,271	0,019	0,004
-181,300	800,000	-0,028	0,078
-180,285	93,992	0,024	0,019
-179,271	-102,747	-0,089	0,015
-178,256	283,834	0,065	-0,084
-177,242	-120,672	0,148	-0,018
-176,227	-200,000	-0,001	-0,040
-175,212	-6,719	0,038	0,019
-174,198	362,536	0,040	-0,058
-173,183	-200,000	-0,015	-0,092
-172,169	-8,216	-0,048	0,023
-171,154	361,695	-0,064	-0,093
-170,139	270,685	-0,021	-0,027
-169,125	342,466	-0,037	0,053
-168,110	800,000	0,021	0,053
-167,096	800,000	-0,031	0,093
-166,081	800,000	0,050	-0,105
-165,066	40,039	0,026	0,017
-164,052	224,406	0,071	-0,082
-163,037	-31,198	-0,065	-0,026
-162,023	-130,939	0,080	-0,008
-161,008	-51,389	0,038	-0,013
-159,993	375,808	-0,054	-0,080
-158,979	128,368	0,154	-0,141
-157,964	231,061	-0,047	-0,055
-156,950	239,345	0,073	-0,088
-155,935	-95,184	0,042	0,008
-154,920	-136,316	0,058	-0,005
-153,906	256,622	0,110	0,137
-152,891	-200,000	0,032	0,114
-151,877	-200,000	-0,049	-0,165
-150,862	-26,165	-0,082	0,034
-149,847	800,000	-0,007	0,021
-148,833	195,188	0,151	0,165
-147,818	-200,000	0,008	0,145
-146,804	388,862	-0,045	0,067
-145,789	-200,000	0,015	0,054
-144,775	227,282	-0,063	-0,074
-143,760	84,099	-0,087	-0,068
-142,745	197,366	0,034	0,037
-141,731	172,167	0,040	0,041
-140,716	800,000	-0,028	0,062
-139,702	71,388	-0,049	0,036
-138,687	-200,000	-0,013	-0,069
-137,672	93,978	-0,062	0,050
-136,658	-73,647	-0,061	0,016
-135,643	3,563	0,189	0,099
-134,629	-157,418	-0,095	0,004
-133,614	-200,000	-0,012	-0,088
-132,599	97,530	0,029	0,024
-131,585	-89,512	-0,156	0,033
-130,570	-200,000	0,007	-0,040
-129,556	57,011	0,034	-0,024
-128,541	119,113	0,118	-0,105
-127,526	64,797	0,074	-0,054
-126,512	-200,000	-0,014	0,094
-125,497	-200,000	0,013	-0,059
-124,483	60,691	-0,070	0,050
-123,468	389,888	-0,023	0,034
-122,453	-200,000	-0,026	0,119
-121,439	-45,370	0,092	0,033
-120,424	800,000	0,043	0,117
-119,410	265,476	-0,059	0,073
-118,395	91,334	0,118	0,096
-117,380	119,220	-0,091	-0,080
-116,366	325,526	-0,031	0,043
-115,351	109,393	0,085	0,073
-114,337	-200,000	0,013	0,055
-113,322	-69,764	0,119	0,032
-112,307	-78,234	0,059	0,015
-111,293	-17,969	0,167	-0,075
-110,278	-200,000	-0,020	0,097
-109,264	800,000	0,026	0,066
-108,249	264,032	0,015	0,019
-107,234	143,708	-0,114	-0,110
-106,220	-62,298	-0,046	0,014
-105,205	-37,380	0,126	-0,048
-104,191	800,000	0,053	-0,141
-103,176	86,149	0,075	0,059
-102,162	121,895	-0,046	0,041
-101,147	-200,000	-0,120	0,000
-100,132	498,189	0,056	-0,094
-99,118	102,873	-0,071	-0,059
-98,103	216,125	-0,033	-0,038
-97,089	-129,195	0,123	-0,012
-96,074	6,257	0,075	-0,040
-95,059	-200,000	-0,027	-0,137
-94,045	-8,897	-0,076	0,036
-93,030	-136,325	-0,105	0,009
-92,016	800,000	0,056	-0,137
-91,001	159,977	-0,114	-0,114
-89,986	140,149	-0,048	-0,046
-88,972	-145,673	-0,102	-0,006
-87,957	162,691	0,148	0,149
-86,943	-14,632	-0,111	-0,051
-85,928	-128,524	0,143	-0,014
-84,913	-113,397	0,047	0,007
-83,899	-200,000	-0,011	-0,116
-82,884	-200,000	-0,003	0,085
-81,870	800,000	-0,027	0,074
-80,855	46,424	0,039	0,026
-79,840	258,471	0,031	-0,039
-78,826	800,000	-0,034	-0,076
-77,811	-82,480	0,095	-0,022
-76,797	8,280	-0,136	-0,073
-75,782	241,793	-0,010	-0,012
-74,767	103,650	0,085	-0,072
-73,753	-200,000	0,021	0,075
-72,738	-200,000	-0,010	-0,073
-71,724	-148,193	0,092	0,005
-70,709	517,920	0,027	0,045
-69,694	800,000	-0,024	0,076
-68,680	-30,308	0,043	0,017
-67,665	-87,052	-0,067	-0,015
-66,651	39,278	-0,015	-0,010
-65,636	-105,526	0,078	0,013
-64,622	86,443	-0,097	-0,076
-63,607	138,460	-0,062	-0,058
-62,592	-102,098	-0,024	0,004
-61,578	298,370	0,027	0,035
-60,563	-58,472	0,084	0,026
-59,549	-200,000	0,011	0,080
-58,534	29,561	-2,226	-1,354
-57,519	-200,000	-0,046	-0,860
-56,505	-200,000	-1,306	-5,099
-55,490	41,765	0,873	0,566
-54,476	800,000	5,335	12,145
-53,461	-200,000	18,551	306,313
-52,446	800,000	737,387	2272,727
-51,432	536,009	1650,116	2815,519
-50,417	108,268	1635,756	1397,264
-49,403	71,915	1286,468	957,326
-48,388	29,851	1027,465	625,446
-47,373	19,796	989,834	569,390
-46,359	17,533	977,252	554,722
-45,344	14,113	973,672	541,485
-44,330	14,394	972,328	541,633
-43,315	13,823	970,333	538,637
-42,300	13,781	969,222	537,862
-41,286	13,744	968,355	537,239
-40,271	13,775	967,497	536,844
-39,257	13,754	966,465	536,181
-38,242	13,797	965,561	535,797
-37,227	13,799	964,735	535,326
-36,213	13,814	963,863	534,867
-35,198	13,668	963,186	533,997
-34,184	13,787	962,360	533,903
-33,169	13,718	961,331	533,088
-32,154	13,782	960,371	532,741
-31,140	13,751	959,588	532,188
-30,125	13,853	958,861	532,090
-29,111	13,825	957,944	531,471
-28,096	13,780	957,414	531,011
-27,082	13,829	956,490	530,636
-26,067	13,820	955,836	530,221
-25,052	13,750	955,215	529,632
-24,038	13,795	954,357	529,278
-23,023	13,800	953,751	528,939
-22,009	13,873	953,013	528,742
-20,994	13,765	952,659	528,180
-19,979	13,802	951,869	527,837
-18,965	13,794	951,219	527,431
-17,950	13,790	950,761	527,142
-16,936	13,809	949,890	526,702
-15,921	13,772	949,372	526,273
-14,906	13,704	948,447	525,524
-13,892	13,715	948,134	525,364
-12,877	13,669	947,416	524,799
-11,863	13,664	946,759	524,398
-10,848	13,694	946,230	524,182
-9,833	13,741	945,645	523,984
-8,819	13,744	945,197	523,724
-7,804	13,751	944,383	523,276
-6,790	13,678	943,865	522,735
-5,775	13,798	943,099	522,672
-4,760	13,671	942,639	521,995
-3,746	13,714	942,001	521,757
-2,731	13,579	941,319	520,929
-1,717	13,590	940,501	520,491
-0,702	13,484	939,998	519,858
0,313	13,294	939,520	519,780
1,327	16,787	937,349	529,532
2,342	25,882	788,323	469,243
3,356	22,014	443,260	258,115
4,371	-7,456	296,084	142,911
5,386	-11,271	277,776	130,442
6,400	-12,325	271,974	126,726
7,415	-12,505	269,903	125,584
8,429	-12,571	268,207	124,724
9,444	-12,585	267,341	124,297
10,459	-12,656	266,678	123,912
11,473	-12,901	266,246	123,478
12,488	-12,879	265,609	123,191
13,502	-13,117	265,021	122,692
14,517	-12,965	264,638	122,642
15,531	-12,963	264,149	122,406
16,546	-12,992	263,806	122,210
17,561	-12,928	263,542	122,134
18,575	-12,676	262,887	122,046
19,590	-12,805	262,739	121,850
20,604	-12,836	262,515	121,708
21,619	-13,010	262,024	121,313
22,634	-13,045	261,790	121,163
23,648	-13,025	261,477	121,026
24,663	-12,939	261,287	121,004
25,677	-12,886	260,810	120,820
26,692	-12,872	260,571	120,710
27,707	-13,005	260,406	120,505
28,721	-13,153	260,141	120,239
29,736	-12,950	259,731	120,219
30,750	-13,087	259,578	120,017
31,765	-13,040	259,390	119,961
32,780	-12,926	259,177	119,952
33,794	-12,970	258,928	119,787
34,809	-12,952	258,534	119,610
35,823	-12,965	258,210	119,438
36,838	-12,995	257,933	119,273
37,853	-13,000	257,811	119,202
38,867	-13,136	257,504	118,930
39,882	-13,133	257,390	118,869
40,896	-13,050	257,141	118,817
41,911	-12,889	256,909	118,839
42,926	-13,003	256,611	118,591
43,940	-13,133	256,273	118,311
44,955	-13,115	256,005	118,193
45,969	-13,080	256,001	118,211
46,984	-13,342	255,664	117,816
47,999	-13,524	255,289	117,474
49,013	-13,702	255,150	117,245
50,028	-13,447	254,721	117,259
51,042	-13,817	254,572	116,859
52,057	-13,762	254,302	116,773
53,071	-13,692	254,224	116,787
54,086	-13,782	254,096	116,639
55,101	-13,490	253,879	116,782
56,115	-13,244	253,597	116,855
57,130	-12,997	253,602	117,060
58,144	-12,829	253,445	117,121
59,159	-12,790	253,167	117,017
60,174	-12,719	252,980	116,981
61,188	-12,799	252,780	116,809
62,203	-13,021	252,772	116,603
63,217	-12,845	252,266	116,511
64,232	-12,970	252,065	116,301
65,247	-12,965	251,772	116,159
66,261	-13,004	251,725	116,093
67,276	-13,194	251,436	115,787
68,290	-13,399	251,217	115,502
69,305	-13,289	250,775	115,382
70,320	-13,374	250,785	115,304
71,334	-13,135	250,605	115,414
72,349	-13,041	250,600	115,482
73,363	-12,893	250,322	115,470
74,378	-12,853	250,018	115,352
75,393	-12,827	249,741	115,236
76,407	-12,879	249,649	115,140
77,422	-12,845	249,397	115,042
78,436	-12,742	249,017	114,944
79,451	-13,073	248,861	114,582
80,466	-13,110	248,715	114,473
81,480	-13,091	248,545	114,401
82,495	-12,998	248,263	114,339
83,509	-13,090	248,241	114,241
84,524	-12,977	247,745	114,097
85,539	-13,275	247,786	113,856
86,553	-13,377	247,498	113,627
87,568	-13,235	247,388	113,686
88,582	-13,277	247,112	113,514
89,597	-13,389	246,943	113,332
90,611	-12,954	246,796	113,619
91,626	-13,031	246,648	113,476
92,641	-12,922	246,302	113,398
93,655	-13,096	246,312	113,247
94,670	-13,187	246,031	113,032
95,684	-13,130	245,824	112,974
96,699	-13,032	245,584	112,936
97,714	-13,026	245,239	112,772
98,728	-13,078	245,043	112,628
99,743	-13,354	245,028	112,382
100,757	-13,440	244,845	112,217
101,772	-13,373	244,632	112,164
102,787	-13,253	244,272	112,089
103,801	-13,212	244,147	112,055
104,816	-12,851	244,137	112,340
105,830	-12,940	244,025	112,205
106,845	-12,895	243,704	112,084
107,860	-12,811	243,531	112,064
108,874	-13,103	243,343	111,727
109,889	-13,039	243,101	111,659
110,903	-13,127	242,991	111,526
111,918	-13,144	242,823	111,424
112,933	-13,214	242,654	111,279
113,947	-13,043	242,503	111,340
114,962	-12,973	242,237	111,266
115,976	-12,953	242,059	111,191
116,991	-13,196	241,843	110,883
118,006	-13,160	241,792	110,879
119,020	-13,092	241,759	110,910
120,035	-12,912	241,542	110,947
121,049	-13,014	241,271	110,729
122,064	-13,021	240,929	110,557
123,079	-12,944	241,047	110,664
124,093	-13,007	240,583	110,390
125,108	-13,333	240,440	110,049
126,122	-13,413	240,299	109,910
127,137	-13,487	240,118	109,757
128,151	-13,430	239,844	109,668
129,166	-13,320	239,608	109,639
130,181	-13,327	239,607	109,624
131,195	-13,389	239,418	109,478
132,210	-13,142	239,187	109,562
133,224	-13,015	239,032	109,584
134,239	-12,936	238,819	109,540
135,254	-12,969	238,655	109,428
136,268	-13,087	238,311	109,166
137,283	-13,406	238,158	108,829
138,297	-13,360	237,861	108,721
139,312	-13,461	237,722	108,567
140,327	-13,048	237,625	108,844
141,341	-12,866	237,657	108,995
142,356	-12,822	237,496	108,947
143,370	-12,841	237,310	108,836
144,385	-12,628	237,134	108,917
145,400	-12,656	236,968	108,808
146,414	-12,555	236,803	108,803
147,429	-12,913	236,525	108,381
148,443	-12,980	236,477	108,295
149,458	-12,753	236,277	108,375
150,473	-12,795	236,087	108,245
151,487	-13,147	235,920	107,878
152,502	-12,762	235,710	108,078
153,516	-12,785	235,726	108,059
154,531	-12,924	235,397	107,787
155,546	-12,770	235,191	107,806
156,560	-12,887	235,004	107,618
157,575	-12,960	234,857	107,483
158,589	-12,769	234,693	107,549
159,604	-12,727	234,562	107,514
160,619	-12,594	234,399	107,534
161,633	-12,520	234,291	107,533
162,648	-12,639	234,095	107,340
163,662	-12,770	233,784	107,084
164,677	-12,952	233,828	106,952
165,692	-12,795	233,591	106,957
166,706	-12,701	233,510	106,984
167,721	-12,627	233,333	106,952
168,735	-12,479	233,243	107,017
169,750	-12,710	233,014	106,722
170,764	-12,814	232,850	106,555
171,779	-12,595	232,656	106,629
172,794	-12,770	232,482	106,403
173,808	-12,775	232,329	106,319
174,823	-13,293	232,033	105,769
175,837	-13,688	232,012	105,441
176,852	-13,039	231,874	105,876
177,867	-12,897	231,685	105,891
178,881	-12,742	231,480	105,909
179,896	-12,501	231,195	105,957
180,910	-12,762	231,325	105,804
181,925	-12,708	231,218	105,787
182,940	-12,705	230,892	105,630
183,954	-12,650	230,822	105,632
184,969	-12,618	230,785	105,631
185,983	-12,551	230,530	105,557
186,998	-12,453	230,400	105,563
188,013	-12,496	230,271	105,462
189,027	-12,443	229,983	105,362
190,042	-12,634	229,925	105,178
191,056	-12,557	229,733	105,140
192,071	-12,581	229,458	104,986
193,086	-12,578	229,325	104,918
194,100	-12,521	229,279	104,932
195,115	-12,942	228,669	104,320
196,129	-13,185	228,807	104,186
197,144	-7,560	230,670	109,384
198,159	-1,505	232,459	114,939
199,173	1,785	233,329	117,924
200,188	2,289	233,400	118,341
201,202	2,229	233,059	118,112
202,217	2,301	232,961	118,108
203,232	2,455	232,916	118,194
204,246	2,436	232,836	118,127
205,261	2,577	232,702	118,158
206,275	2,650	232,661	118,184
207,290	2,681	232,501	118,116
208,304	2,715	232,278	118,019
209,319	2,763	231,985	117,896
210,334	2,695	231,815	117,747
211,348	2,393	231,541	117,364
212,363	2,186	231,398	117,122
213,377	2,136	231,004	116,874
214,392	1,830	231,080	116,666
215,407	2,176	230,918	116,840
216,421	1,931	230,944	116,654
217,436	2,150	230,647	116,662
218,450	1,784	230,302	116,196
219,465	2,050	230,168	116,322
220,480	1,781	230,140	116,091
221,494	2,023	229,955	116,173
222,509	2,107	229,816	116,156
223,523	2,253	229,710	116,204
224,538	2,019	229,536	115,928
225,553	1,908	229,396	115,762
226,567	2,051	229,262	115,793
227,582	2,352	229,258	116,010
228,596	2,558	229,114	116,084
229,611	2,574	228,766	115,910
230,626	1,745	228,588	115,178
231,640	1,789	228,477	115,145
232,655	2,231	228,345	115,404
233,669	2,478	228,304	115,561
234,684	2,368	228,229	115,429
235,699	2,517	228,068	115,451
236,713	2,236	227,781	115,082
237,728	2,053	227,644	114,864
238,742	1,984	227,444	114,701
239,757	1,977	227,314	114,620
240,772	1,972	227,120	114,508
241,786	1,925	226,942	114,373
242,801	2,170	226,931	114,541
243,815	2,586	226,839	114,798
244,830	2,339	226,719	114,541
245,844	2,336	226,392	114,363
246,859	2,067	226,255	114,082
247,874	2,295	226,171	114,201
248,888	2,250	226,099	114,121
249,903	2,444	225,978	114,195
250,917	2,290	225,676	113,917
251,932	1,985	225,495	113,587
252,947	1,824	225,434	113,426
253,961	1,920	225,149	113,344
254,976	1,807	225,171	113,260
255,990	2,293	225,026	113,541
257,005	2,322	224,998	113,538
258,020	2,400	224,691	113,431
259,034	2,314	224,623	113,322
260,049	2,510	224,623	113,458
261,063	2,187	224,387	113,089
262,078	2,329	224,315	113,147
263,093	2,531	224,154	113,207
264,107	2,426	223,985	113,033
265,122	2,507	223,909	113,045
266,136	2,646	223,736	113,051
267,151	2,383	223,546	112,750
268,166	2,078	223,280	112,379
269,180	1,850	223,015	112,068
270,195	2,042	222,878	112,130
271,209	2,017	222,814	112,070
272,224	1,959	222,798	112,009
273,239	2,122	222,572	112,006
274,253	1,902	222,505	111,799
275,268	1,837	222,226	111,602
276,282	1,779	221,982	111,427
277,297	1,828	221,864	111,393
278,312	2,121	221,758	111,545
279,326	2,059	221,624	111,423
280,341	2,137	221,558	111,437
281,355	2,418	221,311	111,509
282,370	2,418	221,197	111,441
283,384	1,896	221,027	110,964
284,399	1,850	220,741	110,776
285,414	1,887	220,768	110,807
286,428	2,158	220,633	110,927
287,443	2,171	220,768	110,994
288,457	2,303	220,402	110,897
289,472	2,245	220,299	110,794
290,487	1,869	219,884	110,301
291,501	1,722	219,850	110,167
292,516	1,566	219,721	109,979
293,530	1,724	219,660	110,054
294,545	1,863	219,458	110,044
295,560	2,033	219,410	110,133
296,574	2,093	219,297	110,110
297,589	2,097	219,136	110,022
298,603	2,101	219,106	110,000
299,618	2,056	219,033	109,921
300,633	2,089	218,850	109,844
301,647	2,450	218,781	110,060
302,662	2,481	218,583	109,974
303,676	2,298	218,388	109,733
304,691	2,471	218,313	109,811
305,706	2,378	217,974	109,563
306,720	2,391	217,979	109,566
307,735	2,007	217,761	109,170
308,749	1,990	217,594	109,064
309,764	2,297	217,584	109,270
310,779	2,515	217,470	109,360
311,793	2,441	217,219	109,171
312,808	2,283	217,075	108,975
313,822	2,034	216,973	108,736
314,837	1,992	216,757	108,588
315,852	1,909	216,716	108,498
316,866	2,128	216,546	108,560
317,881	2,360	216,417	108,651
318,895	2,272	216,305	108,523
319,910	2,093	216,012	108,238
320,925	1,808	215,810	107,924
321,939	1,489	215,620	107,592
322,954	1,801	215,609	107,800
323,968	2,139	215,645	108,049
324,983	2,281	215,414	108,024
325,997	2,592	215,382	108,220
327,012	2,435	215,246	108,030
328,027	2,456	215,104	107,964
329,041	2,449	214,943	107,868
330,056	2,661	214,831	107,953
331,070	2,162	214,538	107,443
332,085	2,092	214,350	107,290
333,100	2,357	214,260	107,423
334,114	2,449	214,098	107,397
335,129	2,353	214,084	107,312
336,143	2,144	213,791	107,009
337,158	2,042	213,690	106,877
338,173	2,181	213,469	106,854
339,187	1,850	213,428	106,591
340,202	1,608	213,112	106,254
341,216	1,772	213,254	106,431
342,231	2,131	213,130	106,611
343,246	2,146	212,865	106,480
344,260	2,309	212,795	106,550
345,275	2,489	212,807	106,672
346,289	2,423	212,561	106,493
347,304	2,340	212,319	106,304
348,319	2,236	212,264	106,195
349,333	2,113	212,212	106,074
350,348	2,303	212,032	106,107
351,362	2,537	211,880	106,185
352,377	2,618	211,709	106,146
353,392	2,208	211,523	105,757
354,406	2,214	211,463	105,722
355,421	197,702	1313,850	1394,161
356,435	158,142	1448,114	1394,112
