DTS Sentinel unit serial number:	SN410029Multiplexer serial number:	ORYXHardware model number:	OX2-SRSoftware version number:	ORYX F/W v4,00 Oryx Data Collector v3.7.2.0data status	okinstallation	B6 Nyhavnadifferential loss correction	single-endedforward channel	channel 2reverse channel	N/Adate	2023/12/09time	19:10:08forward acquisition time	300,00reverse acquisition time	0,00gamma	499,1914k internal	0,3130k external	0,3130temperature offset calibration	1,0000default loss term (dB/km)	0,3820temperature slope calibration	1,0000multiplexer offset coefficient	1,0000multiplexer slope coefficient	1,0000fibre end	0,00T internal ref (°C)	21,06T ext. ref 1 (°C)	4,84T ext. ref 2 (°C)	4,81length (m)	temperature (°C)	Stokes	anti-Stokes-744,400	800,000	-0,062	-0,175
-743,385	4,358	-0,245	0,133
-742,371	10,097	0,053	-0,030
-741,356	60,022	-0,092	0,068
-740,342	-117,864	0,070	-0,009
-739,327	-0,786	-0,139	0,073
-738,312	416,147	-0,035	-0,055
-737,298	-71,664	-0,233	0,064
-736,283	167,875	0,019	0,020
-735,269	-76,145	-0,188	-0,049
-734,254	800,000	0,061	-0,156
-733,239	-110,711	-0,469	-0,071
-732,225	525,879	0,030	-0,052
-731,210	-78,456	-0,134	0,034
-730,196	-200,000	0,028	-0,120
-729,181	800,000	0,014	-0,033
-728,167	800,000	0,078	0,174
-727,152	6,186	-0,131	-0,072
-726,137	42,577	-0,161	-0,109
-725,123	189,395	-0,046	-0,052
-724,108	-200,000	-0,025	-0,229
-723,094	260,925	-0,039	-0,051
-722,079	-71,282	-0,119	-0,033
-721,064	-90,484	0,091	-0,019
-720,050	219,735	-0,027	-0,033
-719,035	57,116	-0,108	-0,078
-718,021	397,219	-0,032	-0,050
-717,006	-200,000	-0,026	-0,116
-715,991	30,689	-0,101	0,064
-714,977	-200,000	0,002	-0,130
-713,962	-8,566	-0,121	-0,060
-712,948	-134,462	-0,094	0,008
-711,933	800,000	-0,046	-0,100
-710,918	800,000	0,058	0,131
-709,904	-103,005	-0,133	-0,023
-708,889	290,086	0,024	-0,032
-707,875	184,101	0,022	0,024
-706,860	-50,548	0,073	-0,025
-705,845	-82,651	-0,050	-0,012
-704,831	486,864	0,090	0,152
-703,816	37,223	-0,041	-0,027
-702,802	228,722	-0,070	0,085
-701,787	109,130	-0,106	0,094
-700,772	106,669	-0,099	-0,087
-699,758	87,004	0,038	0,031
-698,743	-200,000	-0,018	0,151
-697,729	-98,473	0,066	0,012
-696,714	-200,000	0,012	0,042
-695,699	-200,000	-0,010	0,062
-694,685	108,703	-0,102	-0,090
-693,670	-200,000	0,022	-0,121
-692,656	246,076	0,042	-0,052
-691,641	14,660	0,079	0,046
-690,627	-200,000	-0,020	0,098
-689,612	26,558	0,052	0,032
-688,597	800,000	0,019	0,046
-687,583	-118,447	-0,143	0,019
-686,568	27,665	-0,148	-0,092
-685,554	106,679	-0,081	0,071
-684,539	-18,567	0,124	-0,057
-683,524	-168,358	-0,024	-0,001
-682,510	-28,934	-0,020	-0,009
-681,495	62,300	-0,090	0,067
-680,481	-66,639	-0,102	0,030
-679,466	800,000	-0,030	-0,064
-678,451	800,000	0,009	-0,024
-677,437	-200,000	-0,008	0,102
-676,422	-200,000	-0,008	0,035
-675,408	108,300	0,073	0,064
-674,393	204,750	-0,103	0,119
-673,378	-200,000	0,014	-0,120
-672,364	800,000	0,025	-0,053
-671,349	-200,000	-0,013	-0,153
-670,335	211,207	-0,018	-0,021
-669,320	135,393	0,033	0,032
-668,305	-200,000	0,001	0,016
-667,291	613,979	0,078	-0,145
-666,276	520,933	-0,023	0,040
-665,262	57,807	-0,126	-0,091
-664,247	-87,886	-0,147	0,032
-663,232	35,280	-0,136	0,089
-662,218	26,770	0,080	0,050
-661,203	-200,000	-0,002	0,058
-660,189	800,000	0,013	-0,042
-659,174	168,681	-0,138	-0,146
-658,159	-71,833	-0,066	0,018
-657,145	800,000	0,047	-0,138
-656,130	800,000	0,023	0,053
-655,116	800,000	0,049	-0,143
-654,101	750,480	0,061	-0,124
-653,086	104,847	-0,029	0,025
-652,072	228,684	-0,039	0,047
-651,057	-200,000	-0,001	-0,015
-650,043	-80,077	0,044	-0,011
-649,028	-95,519	0,097	-0,019
-648,014	800,000	0,035	0,087
-646,999	-200,000	-0,009	-0,067
-645,984	415,451	-0,046	0,074
-644,970	-12,098	-0,071	0,034
-643,955	28,212	-0,081	-0,051
-642,941	-52,494	-0,064	-0,022
-641,926	-200,000	-0,004	-0,098
-640,911	800,000	0,036	-0,088
-639,897	517,651	0,045	-0,078
-638,882	-15,781	-0,011	0,005
-637,868	52,513	-0,089	0,063
-636,853	66,443	-0,122	-0,092
-635,838	-30,420	-0,052	-0,022
-634,824	400,148	-0,023	-0,036
-633,809	762,754	0,014	-0,027
-632,795	-200,000	0,004	-0,133
-631,780	39,506	0,070	0,046
-630,765	-59,000	-0,072	-0,023
-629,751	438,953	0,037	0,059
-628,736	542,017	0,021	0,037
-627,722	-200,000	-0,005	-0,036
-626,707	-17,269	-0,109	-0,051
-625,692	525,957	0,059	0,103
-624,678	15,979	0,100	0,058
-623,663	191,361	0,031	0,035
-622,649	-88,514	-0,051	0,011
-621,634	116,456	0,024	-0,021
-620,619	135,918	0,042	0,040
-619,605	16,512	0,040	-0,023
-618,590	42,778	0,104	-0,070
-617,576	-36,282	0,053	-0,021
-616,561	362,963	-0,032	-0,047
-615,546	-200,000	-0,030	-0,155
-614,532	800,000	0,046	-0,118
-613,517	-14,110	-0,193	0,092
-612,503	361,981	0,122	-0,181
-611,488	-53,173	-0,047	0,016
-610,474	-200,000	-0,026	0,191
-609,459	800,000	-0,005	-0,017
-608,444	-200,000	-0,018	-0,106
-607,430	-6,129	-0,083	-0,042
-606,415	800,000	0,028	0,059
-605,401	-200,000	-0,001	0,085
-604,386	506,016	-0,044	0,076
-603,371	-76,295	0,071	0,018
-602,357	-123,434	0,094	0,011
-601,342	-89,496	-0,070	0,015
-600,328	-200,000	-0,021	-0,072
-599,313	-200,000	0,018	-0,130
-598,298	-7,517	-0,050	-0,025
-597,284	16,801	0,025	0,015
-596,269	76,474	-0,050	-0,040
-595,255	800,000	-0,065	-0,143
-594,240	6,531	0,050	-0,028
-593,225	-150,974	-0,038	-0,002
-592,211	-200,000	0,004	0,056
-591,196	800,000	-0,014	0,037
-590,182	88,039	-0,055	-0,045
-589,167	-200,000	0,016	0,059
-588,152	800,000	0,030	0,091
-587,138	58,298	-0,029	-0,021
-586,123	-200,000	-0,007	-0,054
-585,109	-200,000	-0,016	0,078
-584,094	-148,113	-0,040	-0,002
-583,079	-6,419	-0,169	0,085
-582,065	-175,406	0,066	-0,001
-581,050	-97,847	0,051	0,010
-580,036	15,321	-0,020	0,012
-579,021	397,253	-0,033	-0,051
-578,006	68,013	-0,101	-0,076
-576,992	-200,000	-0,004	-0,043
-575,977	-78,953	0,065	0,016
-574,963	-76,057	0,204	-0,053
-573,948	800,000	-0,038	-0,092
-572,934	-40,537	-0,063	0,024
-571,919	171,350	-0,041	0,044
-570,904	344,483	0,113	-0,164
-569,890	-200,000	-0,002	-0,051
-568,875	168,287	0,012	-0,013
-567,861	623,932	0,036	0,067
-566,846	-200,000	0,010	0,039
-565,831	323,261	0,021	0,030
-564,817	157,066	0,037	0,037
-563,802	-200,000	0,007	-0,061
-562,788	-130,281	0,029	-0,003
-561,773	258,936	-0,081	0,104
-560,758	438,040	0,020	-0,033
-559,744	142,835	0,056	-0,055
-558,729	745,453	-0,003	-0,007
-557,715	15,545	-0,146	-0,084
-556,700	-45,295	-0,089	0,032
-555,685	-116,413	-0,050	0,007
-554,671	-20,015	-0,049	0,022
-553,656	-75,634	0,185	0,048
-552,642	-200,000	0,015	-0,123
-551,627	-68,686	0,129	-0,037
-550,612	-200,000	-0,025	0,163
-549,598	-200,000	-0,019	-0,065
-548,583	672,291	-0,071	-0,136
-547,569	-83,466	0,002	0,000
-546,554	-200,000	-0,010	0,087
-545,539	241,056	-0,011	0,013
-544,525	-100,952	0,071	0,013
-543,510	77,634	0,110	-0,086
-542,496	-169,049	-0,160	0,004
-541,481	100,491	0,048	-0,041
-540,466	800,000	-0,048	-0,154
-539,452	-200,000	-0,026	-0,103
-538,437	300,116	0,081	0,111
-537,423	-88,756	0,026	-0,006
-536,408	800,000	-0,056	-0,152
-535,393	-158,526	-0,139	0,006
-534,379	-200,000	0,006	0,035
-533,364	-155,901	-0,025	0,001
-532,350	10,418	-0,054	-0,030
-531,335	-200,000	0,012	0,124
-530,321	-60,563	0,060	0,019
-529,306	481,279	0,042	-0,071
-528,291	-200,000	0,026	-0,156
-527,277	-200,000	-0,011	0,082
-526,262	-35,562	-0,056	-0,022
-525,248	-200,000	-0,023	0,099
-524,233	-200,000	0,002	-0,095
-523,218	57,219	-0,059	0,043
-522,204	270,180	-0,038	0,049
-521,189	-129,621	-0,088	0,009
-520,175	-200,000	-0,000	-0,104
-519,160	32,996	-0,140	-0,089
-518,145	800,000	0,087	-0,224
-517,131	-200,000	-0,019	0,114
-516,116	185,120	0,089	0,097
-515,102	265,741	-0,030	0,038
-514,087	-94,676	-0,169	0,033
-513,072	-17,041	-0,116	-0,054
-512,058	-78,401	0,153	-0,038
-511,043	535,359	0,069	-0,121
-510,029	-200,000	-0,016	0,129
-509,014	800,000	0,057	0,149
-507,999	-67,095	0,091	0,026
-506,985	-30,283	-0,070	0,029
-505,970	72,376	-0,054	-0,042
-504,956	-78,832	-0,112	-0,028
-503,941	426,483	0,024	0,039
-502,926	-200,000	0,021	0,101
-501,912	-10,946	-0,050	-0,024
-500,897	-19,595	-0,036	0,017
-499,883	-200,000	-0,011	0,058
-498,868	-66,902	-0,170	-0,049
-497,853	22,067	-0,056	-0,034
-496,839	14,930	-0,129	0,074
-495,824	316,881	-0,057	-0,080
-494,810	-82,303	0,128	0,031
-493,795	324,594	0,104	0,147
-492,781	-200,000	-0,030	-0,189
-491,766	-72,039	-0,109	0,030
-490,751	800,000	-0,050	0,138
-489,737	12,398	-0,046	0,026
-488,722	128,537	-0,029	0,027
-487,708	-200,000	-0,002	-0,030
-486,693	-200,000	0,013	0,101
-485,678	-200,000	-0,010	-0,104
-484,664	-48,547	0,122	-0,043
-483,649	-200,000	-0,012	0,045
-482,635	265,764	-0,030	-0,038
-481,620	-200,000	-0,014	0,073
-480,605	78,051	0,105	0,082
-479,591	-200,000	-0,031	0,145
-478,576	147,594	-0,020	-0,019
-477,562	767,017	-0,066	-0,133
-476,547	-129,840	0,097	0,010
-475,532	800,000	0,031	0,075
-474,518	-116,196	0,070	0,009
-473,503	-200,000	0,022	-0,091
-472,489	42,634	0,028	0,019
-471,474	139,493	-0,040	-0,039
-470,459	-200,000	-0,022	-0,082
-469,445	389,385	0,049	0,074
-468,430	358,246	0,031	-0,046
-467,416	-200,000	0,017	0,057
-466,401	800,000	0,014	0,039
-465,386	-200,000	0,028	0,160
-464,372	-105,011	-0,032	-0,005
-463,357	800,000	-0,032	-0,082
-462,343	489,368	-0,061	-0,103
-461,328	800,000	0,006	-0,014
-460,313	-200,000	0,001	-0,017
-459,299	33,673	-0,075	0,048
-458,284	500,977	0,019	-0,033
-457,270	-153,847	0,124	0,006
-456,255	-124,040	-0,091	0,010
-455,241	-84,823	0,065	-0,015
-454,226	-200,000	-0,001	-0,037
-453,211	-48,820	0,042	-0,015
-452,197	77,575	-0,143	0,112
-451,182	800,000	0,048	0,101
-450,168	69,323	-0,037	0,028
-449,153	405,551	-0,046	0,072
-448,138	-11,916	0,146	-0,070
-447,124	-39,624	-0,022	0,008
-446,109	117,936	0,042	0,038
-445,095	289,845	0,070	0,094
-444,080	388,853	0,050	-0,076
-443,065	-16,582	0,023	0,011
-442,051	246,487	-0,041	0,051
-441,036	800,000	-0,065	-0,150
-440,022	800,000	-0,066	-0,183
-439,007	135,104	0,050	0,048
-437,992	-177,342	0,092	-0,002
-436,978	-36,987	0,152	0,059
-435,963	14,983	0,085	0,049
-434,949	603,296	-0,097	-0,179
-433,934	387,351	-0,072	-0,110
-432,919	226,321	-0,044	0,053
-431,905	693,507	0,091	0,176
-430,890	22,806	0,073	0,044
-429,876	450,202	0,068	0,110
-428,861	605,161	-0,013	-0,025
-427,846	311,431	-0,054	0,074
-426,832	586,324	-0,055	0,100
-425,817	-6,213	-0,106	-0,053
-424,803	800,000	0,048	-0,104
-423,788	175,094	-0,065	0,070
-422,773	104,454	0,020	0,017
-421,759	-98,205	0,081	0,015
-420,744	-200,000	-0,026	0,096
-419,730	623,143	-0,040	0,074
-418,715	-44,918	0,021	-0,008
-417,701	-200,000	0,025	0,139
-416,686	297,525	0,069	0,094
-415,671	456,525	0,015	-0,025
-414,657	208,461	0,134	0,154
-413,642	68,085	-0,072	-0,054
-412,628	-200,000	-0,020	0,081
-411,613	-118,802	-0,077	0,010
-410,598	-108,821	-0,150	-0,023
-409,584	-57,915	-0,059	0,019
-408,569	499,783	-0,049	0,083
-407,555	-200,000	0,016	0,109
-406,540	225,486	0,029	0,035
-405,525	-21,538	-0,020	-0,009
-404,511	-200,000	0,044	-0,142
-403,496	800,000	0,062	-0,128
-402,482	-147,473	0,140	-0,009
-401,467	800,000	0,090	0,184
-400,452	206,008	-0,024	0,028
-399,438	-200,000	0,001	0,198
-398,423	-200,000	-0,011	0,196
-397,409	114,501	0,017	0,015
-396,394	-200,000	-0,008	-0,055
-395,379	-90,357	0,028	-0,006
-394,365	-200,000	0,020	-0,095
-393,350	58,100	-0,086	0,061
-392,336	-69,730	-0,106	-0,029
-391,321	457,660	0,022	-0,036
-390,306	-200,000	-0,017	-0,087
-389,292	92,842	-0,061	-0,050
-388,277	175,532	0,104	0,111
-387,263	520,562	0,076	-0,132
-386,248	437,602	-0,033	-0,053
-385,233	-200,000	-0,011	0,124
-384,219	-79,838	-0,070	0,017
-383,204	45,385	-0,126	-0,085
-382,190	800,000	0,053	-0,132
-381,175	-200,000	0,015	0,049
-380,160	-72,084	0,118	-0,032
-379,146	800,000	0,044	0,126
-378,131	690,710	0,057	0,111
-377,117	-74,581	-0,016	-0,004
-376,102	50,671	-0,066	0,046
-375,088	-152,427	0,040	-0,002
-374,073	171,777	0,075	0,079
-373,058	-162,445	0,106	0,004
-372,044	-200,000	-0,010	0,220
-371,029	77,461	-0,038	0,029
-370,015	387,163	-0,070	-0,106
-369,000	137,831	-0,083	-0,080
-367,985	-200,000	-0,002	-0,034
-366,971	162,417	-0,093	-0,095
-365,956	-62,487	0,132	0,040
-364,942	311,257	0,054	-0,074
-363,927	-80,685	0,078	-0,019
-362,912	-27,974	-0,156	-0,066
-361,898	-200,000	0,043	0,147
-360,883	233,250	-0,033	0,040
-359,869	390,952	-0,089	-0,137
-358,854	-188,744	0,101	-0,001
-357,839	-166,336	0,203	0,006
-356,825	106,533	0,154	0,134
-355,810	-29,331	-0,151	-0,063
-354,796	800,000	0,071	-0,216
-353,781	105,699	-0,146	-0,127
-352,766	800,000	0,033	-0,073
-351,752	178,191	-0,059	0,063
-350,737	187,463	-0,024	0,027
-349,723	-81,416	-0,049	0,012
-348,708	-200,000	-0,009	-0,031
-347,693	800,000	-0,047	0,126
-346,679	204,765	0,026	-0,030
-345,664	800,000	0,055	-0,119
-344,650	-43,756	-0,064	-0,024
-343,635	-22,647	0,051	-0,022
-342,620	80,659	0,048	-0,038
-341,606	184,062	-0,077	-0,083
-340,591	-56,000	-0,114	0,037
-339,577	18,198	-0,101	-0,059
-338,562	-200,000	-0,005	0,095
-337,548	36,352	0,013	-0,008
-336,533	-112,592	-0,027	0,004
-335,518	-200,000	-0,000	0,077
-334,504	135,123	-0,084	0,080
-333,489	-200,000	0,026	0,098
-332,475	-200,000	-0,004	0,055
-331,460	40,532	-0,154	-0,101
-330,445	-45,336	0,058	-0,021
-329,431	18,445	0,097	-0,057
-328,416	258,638	0,111	0,141
-327,402	800,000	0,031	0,072
-326,387	557,295	0,023	0,041
-325,372	337,627	-0,092	0,132
-324,358	-200,000	-0,021	-0,083
-323,343	480,153	-0,067	-0,112
-322,329	-200,000	0,003	-0,170
-321,314	800,000	0,031	-0,095
-320,299	-73,412	-0,012	0,003
-319,285	800,000	0,027	0,068
-318,270	85,481	-0,009	0,007
-317,256	-200,000	0,006	0,031
-316,241	-157,996	0,110	-0,005
-315,226	-154,253	0,126	0,006
-314,212	378,957	-0,073	-0,109
-313,197	-9,353	-0,070	-0,034
-312,183	-200,000	-0,009	-0,087
-311,168	-78,517	0,011	-0,003
-310,153	-37,985	-0,132	-0,051
-309,139	-200,000	0,008	-0,078
-308,124	4,499	0,194	-0,104
-307,110	45,976	0,097	-0,065
-306,095	367,556	0,026	-0,039
-305,080	165,581	0,057	0,059
-304,066	95,427	-0,070	0,059
-303,051	265,719	0,052	-0,066
-302,037	-161,228	0,040	0,001
-301,022	-200,000	0,035	-0,127
-300,008	195,856	-0,152	0,169
-298,993	800,000	0,026	0,082
-297,978	-2,935	0,081	0,041
-296,964	-73,347	0,052	-0,014
-295,949	-200,000	-0,009	0,050
-294,935	-21,615	-0,101	-0,045
-293,920	-200,000	-0,014	0,141
-292,905	-200,000	-0,006	0,074
-291,891	-100,568	0,048	0,009
-290,876	64,077	0,127	0,093
-289,862	358,975	-0,068	-0,099
-288,847	661,708	0,021	-0,041
-287,832	-200,000	0,001	0,013
-286,818	-152,367	-0,077	0,004
-285,803	-200,000	-0,015	0,081
-284,789	800,000	0,029	0,090
-283,774	800,000	0,019	0,047
-282,759	230,588	-0,152	-0,183
-281,745	140,138	0,058	-0,056
-280,730	800,000	-0,045	-0,114
-279,716	-53,976	0,055	-0,018
-278,701	245,393	0,055	0,067
-277,686	-111,505	0,054	0,008
-276,672	-57,325	-0,104	0,033
-275,657	191,753	0,127	-0,140
-274,643	-112,726	0,064	-0,009
-273,628	800,000	-0,031	-0,084
-272,613	-21,117	0,065	-0,029
-271,599	-134,849	0,188	-0,016
-270,584	214,885	-0,006	0,007
-269,570	-200,000	-0,038	0,197
-268,555	73,580	-0,128	0,098
-267,540	144,527	-0,096	0,094
-266,526	-200,000	0,049	-0,158
-265,511	-200,000	-0,007	-0,023
-264,497	-13,489	-0,214	-0,101
-263,482	-200,000	-0,001	0,119
-262,467	38,057	0,097	-0,063
-261,453	800,000	-0,012	-0,030
-260,438	-135,596	-0,193	0,017
-259,424	532,430	0,074	0,129
-258,409	36,639	-0,101	0,065
-257,395	800,000	0,040	-0,091
-256,380	138,194	-0,025	0,024
-255,365	30,625	0,047	-0,029
-254,351	-200,000	-0,002	0,026
-253,336	-145,032	0,050	-0,003
-252,322	280,658	0,122	0,160
-251,307	-41,903	-0,097	-0,036
-250,292	-74,431	-0,103	-0,027
-249,278	69,016	0,096	0,072
-248,263	422,306	0,049	0,077
-247,249	413,470	0,012	0,018
-246,234	800,000	-0,047	0,104
-245,219	234,960	-0,132	-0,159
-244,205	800,000	-0,025	-0,053
-243,190	356,703	0,083	-0,122
-242,176	477,562	0,067	0,110
-241,161	10,709	0,025	0,014
-240,146	-140,641	0,103	-0,008
-239,132	81,607	-0,076	0,060
-238,117	-8,710	-0,010	-0,005
-237,103	-26,441	0,060	-0,026
-236,088	-99,304	-0,057	0,010
-235,073	-200,000	-0,022	-0,096
-234,059	219,622	0,065	0,076
-233,044	521,171	-0,036	0,061
-232,030	361,682	-0,102	-0,149
-231,015	59,339	-0,064	0,046
-230,000	-200,000	-0,002	0,071
-228,986	-200,000	0,006	0,087
-227,971	132,765	0,081	0,077
-226,957	149,296	0,141	0,139
-225,942	-115,689	0,077	0,010
-224,927	-37,704	0,183	0,071
-223,913	-67,920	-0,093	0,026
-222,898	601,792	-0,028	0,051
-221,884	-173,467	-0,031	-0,001
-220,869	-130,863	-0,083	0,008
-219,855	800,000	-0,015	0,043
-218,840	484,379	0,065	0,109
-217,825	561,521	-0,010	-0,018
-216,811	-200,000	-0,052	-0,184
-215,796	-200,000	0,013	-0,154
-214,782	-200,000	0,018	0,107
-213,767	394,435	0,053	0,081
-212,752	-200,000	0,015	-0,135
-211,738	66,005	0,199	-0,147
-210,723	-58,395	0,118	-0,037
-209,709	387,835	0,022	0,033
-208,694	-97,893	0,173	0,032
-207,679	-155,315	-0,058	-0,003
-206,665	78,365	0,086	-0,067
-205,650	800,000	0,009	-0,025
-204,636	-200,000	-0,015	0,052
-203,621	41,880	0,123	0,081
-202,606	126,232	0,036	-0,033
-201,592	-64,429	0,040	0,012
-200,577	193,036	-0,121	-0,134
-199,563	-61,819	0,174	-0,053
-198,548	31,597	-0,044	-0,027
-197,533	-165,697	0,057	-0,002
-196,519	-200,000	0,012	0,164
-195,504	-200,000	0,013	0,066
-194,490	64,581	0,006	0,005
-193,475	156,597	-0,046	-0,046
-192,460	800,000	-0,043	-0,116
-191,446	-105,504	0,139	0,023
-190,431	406,677	-0,078	0,121
-189,417	-70,096	0,195	-0,054
-188,402	-30,193	0,062	-0,026
-187,387	-200,000	-0,020	0,129
-186,373	-128,072	0,055	-0,006
-185,358	455,391	-0,048	-0,077
-184,344	-96,360	0,061	-0,012
-183,329	800,000	0,031	0,075
-182,315	219,701	-0,057	0,066
-181,300	-47,880	-0,087	-0,030
-180,285	-84,089	-0,108	-0,025
-179,271	-200,000	-0,032	-0,114
-178,256	-200,000	-0,009	-0,094
-177,242	83,694	-0,033	-0,026
-176,227	90,855	-0,032	-0,026
-175,212	65,179	0,052	0,038
-174,198	51,960	0,079	0,054
-173,183	-200,000	-0,008	-0,039
-172,169	795,311	0,019	-0,037
-171,154	-7,371	-0,071	0,035
-170,139	187,815	0,102	0,111
-169,125	-121,763	-0,108	0,013
-168,110	-200,000	0,004	0,083
-167,096	-33,836	-0,111	-0,044
-166,081	71,358	-0,124	0,093
-165,066	-200,000	0,007	-0,159
-164,052	-200,000	-0,012	-0,078
-163,037	85,899	-0,021	-0,017
-162,023	800,000	-0,020	-0,043
-161,008	13,208	0,124	0,070
-159,993	800,000	0,029	-0,071
-158,979	79,440	-0,081	-0,063
-157,964	-49,710	-0,125	0,043
-156,950	-160,640	-0,073	0,003
-155,935	-200,000	-0,007	0,047
-154,920	77,086	0,024	0,018
-153,906	631,832	-0,034	-0,063
-152,891	-171,661	0,045	0,001
-151,877	209,108	-0,072	-0,082
-150,862	43,913	-0,050	0,033
-149,847	609,808	-0,028	-0,051
-148,833	-86,008	0,065	-0,014
-147,818	11,530	-0,035	0,020
-146,804	-200,000	-0,025	-0,091
-145,789	-200,000	0,003	0,059
-144,775	800,000	-0,023	-0,069
-143,760	800,000	-0,048	-0,100
-142,745	36,493	-0,155	-0,099
-141,731	-200,000	0,022	-0,102
-140,716	-64,079	0,058	-0,017
-139,702	-200,000	-0,030	0,103
-138,687	-200,000	0,003	0,036
-137,672	-89,845	-0,053	-0,011
-136,658	-39,913	-0,156	0,059
-135,643	-200,000	-0,000	-0,029
-134,629	-123,085	0,086	-0,010
-133,614	800,000	-0,072	0,149
-132,599	-200,000	0,003	0,030
-131,585	52,954	-0,134	0,093
-130,570	800,000	0,049	-0,109
-129,556	-90,818	0,021	-0,004
-128,541	41,132	-0,067	0,044
-127,526	123,141	0,015	-0,013
-126,512	-120,509	0,143	0,017
-125,497	800,000	-0,029	0,087
-124,483	-200,000	-0,025	0,161
-123,468	196,650	0,061	-0,067
-122,453	-7,759	-0,128	0,063
-121,439	96,008	-0,144	0,120
-120,424	74,585	-0,029	-0,022
-119,410	800,000	0,010	-0,026
-118,395	0,536	0,082	0,043
-117,380	-93,119	0,074	0,015
-116,366	-28,839	0,064	-0,026
-115,351	-200,000	0,011	-0,057
-114,337	-117,413	-0,038	0,005
-113,322	-200,000	0,003	-0,190
-112,307	172,967	-0,103	0,107
-111,293	-200,000	0,030	0,095
-110,278	800,000	-0,025	-0,052
-109,264	337,113	-0,065	0,092
-108,249	800,000	0,020	-0,050
-107,234	-80,172	-0,164	0,040
-106,220	7,359	-0,017	-0,009
-105,205	86,027	0,059	0,047
-104,191	-88,010	0,072	-0,016
-103,176	-88,075	0,038	0,008
-102,162	-25,768	0,062	0,027
-101,147	-200,000	-0,013	0,075
-100,132	-95,714	-0,029	0,006
-99,118	285,233	0,102	-0,133
-98,103	13,791	-0,042	0,023
-97,089	-200,000	-0,001	-0,029
-96,074	-200,000	0,017	0,076
-95,059	326,013	-0,042	-0,059
-94,045	46,234	-0,089	0,060
-93,030	103,357	0,069	0,059
-92,016	476,384	-0,040	-0,067
-91,001	-103,891	-0,100	0,017
-89,986	-200,000	-0,012	0,052
-88,972	-101,735	0,126	-0,022
-87,957	174,786	0,038	0,039
-86,943	-134,005	0,079	0,007
-85,928	800,000	0,053	-0,123
-84,913	145,320	0,123	-0,120
-83,899	800,000	0,053	0,114
-82,884	-153,876	0,144	-0,007
-81,870	-200,000	0,004	0,038
-80,855	-200,000	0,002	-0,047
-79,840	214,667	-0,068	0,078
-78,826	-200,000	-0,019	-0,189
-77,811	22,205	0,065	0,038
-76,797	85,034	-0,128	-0,101
-75,782	485,617	-0,021	-0,035
-74,767	325,108	-0,059	0,082
-73,753	35,140	-0,059	0,037
-72,738	-200,000	0,004	-0,081
-71,724	-5,979	-0,054	-0,027
-70,709	140,099	-0,124	0,118
-69,694	647,555	-0,089	-0,165
-68,680	-82,801	-0,111	-0,026
-67,665	430,482	-0,103	0,162
-66,651	-65,529	0,088	0,025
-65,636	258,680	0,012	0,015
-64,622	65,203	0,026	-0,019
-63,607	-57,798	-0,065	-0,020
-62,592	-200,000	-0,025	-0,121
-61,578	800,000	-0,029	-0,062
-60,563	508,040	0,047	0,079
-59,549	34,072	0,117	0,074
-58,534	-119,964	-1,503	-0,185
-57,519	772,794	-0,744	-1,477
-56,505	-200,000	-0,932	-4,537
-55,490	-119,658	0,673	-0,083
-54,476	800,000	5,096	11,707
-53,461	-200,000	14,375	258,683
-52,446	-200,000	696,407	2235,404
-51,432	566,162	1622,585	2861,271
-50,417	117,605	1630,375	1452,485
-49,403	74,586	1284,521	977,037
-48,388	37,382	1022,596	654,880
-47,373	23,267	981,655	582,310
-46,359	22,434	971,085	573,291
-45,344	21,317	966,801	567,094
-44,330	21,299	965,221	566,088
-43,315	21,091	963,781	564,543
-42,300	21,121	962,894	564,097
-41,286	21,093	961,867	563,384
-40,271	21,099	960,716	562,705
-39,257	21,079	959,989	562,192
-38,242	21,060	958,983	561,521
-37,227	21,059	958,256	561,068
-36,213	21,076	957,037	560,387
-35,198	21,028	956,289	559,774
-34,184	21,064	955,713	559,529
-33,169	21,042	954,736	558,866
-32,154	21,150	953,809	558,648
-31,140	21,196	952,827	558,198
-30,125	21,174	952,216	557,747
-29,111	21,121	951,579	557,181
-28,096	21,135	950,782	556,737
-27,082	21,083	950,012	556,098
-26,067	21,099	949,151	555,622
-25,052	21,129	948,417	555,266
-24,038	21,114	947,920	554,908
-23,023	21,078	947,384	554,457
-22,009	21,094	946,565	554,007
-20,994	21,053	946,030	553,541
-19,979	21,136	945,372	553,396
-18,965	21,120	944,753	552,961
-17,950	21,124	944,195	552,624
-16,936	21,068	943,591	552,073
-15,921	21,049	942,671	551,452
-14,906	20,942	942,185	550,807
-13,892	21,005	941,442	550,551
-12,877	20,962	940,831	550,035
-11,863	20,991	940,133	549,696
-10,848	20,984	939,684	549,389
-9,833	21,091	939,329	549,500
-8,819	21,001	938,778	548,870
-7,804	20,978	938,140	548,401
-6,790	20,985	937,449	547,999
-5,775	21,003	936,806	547,659
-4,760	20,971	936,183	547,170
-3,746	20,978	935,572	546,813
-2,731	20,892	934,786	546,062
-1,717	20,802	934,148	545,383
-0,702	20,848	933,469	545,111
0,313	20,633	932,898	544,925
1,327	23,712	930,868	553,355
2,342	33,109	794,131	497,024
3,356	30,469	450,938	278,233
4,371	0,085	294,748	151,461
5,386	-4,092	275,728	137,713
6,400	-5,484	269,998	133,545
7,415	-5,774	267,752	132,154
8,429	-5,665	266,508	131,628
9,444	-5,723	265,710	131,169
10,459	-5,515	264,932	130,964
11,473	-5,599	264,339	130,582
12,488	-5,894	263,991	130,130
13,502	-5,911	263,432	129,828
14,517	-5,817	262,987	129,682
15,531	-5,767	262,464	129,458
16,546	-5,909	262,228	129,201
17,561	-5,731	261,798	129,139
18,575	-5,744	261,640	129,038
19,590	-5,777	261,176	128,768
20,604	-5,662	260,892	128,719
21,619	-5,982	260,593	128,274
22,634	-5,840	260,292	128,241
23,648	-5,700	259,919	128,171
24,663	-5,648	259,682	128,089
25,677	-5,718	259,512	127,932
26,692	-5,592	259,271	127,913
27,707	-5,733	258,782	127,536
28,721	-6,015	258,614	127,191
29,736	-5,897	258,444	127,200
30,750	-5,863	258,162	127,080
31,765	-5,767	257,855	127,003
32,780	-5,801	257,584	126,828
33,794	-5,907	257,469	126,667
34,809	-5,754	257,033	126,576
35,823	-5,777	256,950	126,503
36,838	-5,924	256,603	126,191
37,853	-6,097	256,495	125,975
38,867	-6,050	256,322	125,920
39,882	-6,127	256,052	125,708
40,896	-6,023	255,872	125,700
41,911	-5,815	255,512	125,694
42,926	-5,838	255,296	125,557
43,940	-6,043	255,059	125,250
44,955	-5,868	254,876	125,302
45,969	-6,094	254,639	124,977
46,984	-6,186	254,353	124,745
47,999	-6,367	254,175	124,488
49,013	-6,477	253,937	124,264
50,028	-6,502	253,498	124,017
51,042	-6,566	253,343	123,875
52,057	-6,512	253,130	123,806
53,071	-6,393	252,920	123,795
54,086	-6,406	252,767	123,699
55,101	-6,405	252,727	123,669
56,115	-6,073	252,417	123,794
57,130	-5,874	252,348	123,921
58,144	-5,611	252,242	124,085
59,159	-5,558	252,025	124,013
60,174	-5,775	251,837	123,723
61,188	-5,840	251,675	123,576
62,203	-5,878	251,404	123,399
63,217	-5,646	251,140	123,458
64,232	-5,722	250,932	123,280
65,247	-5,694	250,592	123,125
66,261	-5,903	250,631	122,954
67,276	-5,971	250,150	122,649
68,290	-6,316	250,096	122,316
69,305	-6,046	249,708	122,346
70,320	-6,075	249,545	122,231
71,334	-5,917	249,456	122,311
72,349	-5,686	249,396	122,468
73,363	-5,663	249,139	122,351
74,378	-5,630	248,886	122,244
75,393	-5,731	248,653	122,033
76,407	-5,638	248,470	122,011
77,422	-5,787	248,266	121,773
78,436	-5,795	248,087	121,667
79,451	-6,001	248,063	121,470
80,466	-5,828	247,670	121,414
81,480	-5,898	247,431	121,226
82,495	-6,031	247,216	120,997
83,509	-5,847	247,041	121,056
84,524	-5,945	246,792	120,841
85,539	-6,072	246,639	120,648
86,553	-6,196	246,426	120,428
87,568	-6,058	246,313	120,479
88,582	-6,034	246,015	120,342
89,597	-6,156	245,961	120,202
90,611	-5,992	245,889	120,295
91,626	-6,017	245,793	120,216
92,641	-6,081	245,525	120,021
93,655	-5,772	245,198	120,109
94,670	-6,050	245,098	119,816
95,684	-5,855	244,821	119,833
96,699	-5,996	244,693	119,643
97,714	-6,012	244,432	119,491
98,728	-5,975	244,275	119,434
99,743	-6,119	243,955	119,147
100,757	-5,883	243,694	119,206
101,772	-5,978	243,736	119,136
102,787	-6,061	243,469	118,926
103,801	-5,701	243,399	119,181
104,816	-5,901	243,223	118,918
105,830	-5,784	243,082	118,935
106,845	-5,759	242,874	118,844
107,860	-5,712	242,751	118,812
108,874	-5,851	242,402	118,515
109,889	-5,800	242,278	118,486
110,903	-5,816	242,067	118,359
111,918	-5,942	241,875	118,150
112,933	-5,906	241,741	118,104
113,947	-5,791	241,604	118,122
114,962	-5,785	241,429	118,031
115,976	-5,787	241,204	117,908
116,991	-5,922	240,967	117,671
118,006	-5,924	240,789	117,573
119,020	-5,799	240,628	117,586
120,035	-5,729	240,584	117,611
121,049	-5,799	240,405	117,456
122,064	-5,791	240,235	117,369
123,079	-5,874	240,082	117,215
124,093	-6,114	239,888	116,914
125,108	-6,135	239,694	116,792
126,122	-6,201	239,503	116,635
127,137	-6,289	239,263	116,436
128,151	-6,300	239,162	116,367
129,166	-5,977	238,850	116,468
130,181	-5,952	238,610	116,361
131,195	-6,295	238,521	116,028
132,210	-6,131	238,541	116,161
133,224	-5,901	238,423	116,280
134,239	-5,905	238,097	116,107
135,254	-5,823	237,997	116,115
136,268	-6,015	237,607	115,759
137,283	-6,095	237,505	115,634
138,297	-5,970	237,318	115,634
139,312	-6,240	237,009	115,254
140,327	-6,071	237,024	115,389
141,341	-5,596	236,950	115,725
142,356	-5,455	236,768	115,739
143,370	-5,641	236,791	115,590
144,385	-5,729	236,526	115,380
145,400	-5,462	236,353	115,500
146,414	-5,465	236,141	115,384
147,429	-5,498	235,886	115,222
148,443	-5,675	235,885	115,070
149,458	-5,507	235,589	115,050
150,473	-5,602	235,425	114,883
151,487	-5,694	235,255	114,716
152,502	-5,539	235,174	114,791
153,516	-5,696	234,975	114,558
154,531	-5,552	234,775	114,566
155,546	-5,654	234,651	114,413
156,560	-5,676	234,403	114,264
157,575	-5,798	234,298	114,105
158,589	-5,573	234,057	114,158
159,604	-5,694	234,005	114,025
160,619	-5,429	233,739	114,096
161,633	-5,417	233,567	114,012
162,648	-5,279	233,454	114,056
163,662	-5,341	233,305	113,924
164,677	-5,717	233,264	113,595
165,692	-5,559	233,081	113,621
166,706	-5,379	232,817	113,625
167,721	-5,377	232,731	113,574
168,735	-5,548	232,523	113,327
169,750	-5,688	232,478	113,185
170,764	-5,563	232,278	113,176
171,779	-5,433	232,120	113,192
172,794	-5,640	232,167	113,041
173,808	-5,689	231,877	112,851
174,823	-6,221	231,495	112,237
175,837	-6,050	231,273	112,254
176,852	-5,830	231,281	112,421
177,867	-5,391	231,226	112,728
178,881	-5,431	231,056	112,604
179,896	-5,386	230,927	112,567
180,910	-5,269	230,701	112,537
181,925	-5,561	230,605	112,253
182,940	-5,449	230,488	112,273
183,954	-5,450	230,219	112,131
184,969	-5,303	230,159	112,207
185,983	-5,272	230,005	112,146
186,998	-5,383	229,795	111,947
188,013	-5,278	229,627	111,937
189,027	-5,123	229,422	111,947
190,042	-5,398	229,387	111,707
191,056	-5,504	229,287	111,565
192,071	-5,435	229,153	111,544
193,086	-5,448	228,867	111,385
194,100	-5,390	228,769	111,372
195,115	-5,676	228,505	111,012
196,129	-6,046	228,274	110,604
197,144	-3,230	229,077	113,168
198,159	1,497	230,362	117,473
199,173	3,679	230,979	119,477
200,188	3,902	230,927	119,613
201,202	3,958	230,692	119,523
202,217	4,075	230,585	119,549
203,232	4,330	230,503	119,693
204,246	4,252	230,601	119,673
205,261	4,309	230,227	119,512
206,275	4,466	230,188	119,603
207,290	4,584	230,066	119,620
208,304	4,470	229,835	119,401
209,319	4,440	229,600	119,246
210,334	4,492	229,433	119,188
211,348	4,228	229,245	118,877
212,363	3,832	229,133	118,502
213,377	3,670	228,710	118,148
214,392	3,634	228,673	118,091
215,407	3,682	228,505	118,031
216,421	3,887	228,399	118,123
217,436	3,768	228,130	117,882
218,450	3,654	227,852	117,641
219,465	3,481	227,777	117,459
220,480	3,453	227,701	117,388
221,494	3,308	227,461	117,143
222,509	3,614	227,570	117,422
223,523	3,477	227,268	117,151
224,538	3,876	227,029	117,322
225,553	3,442	227,097	117,015
226,567	3,801	226,867	117,160
227,582	3,983	226,751	117,228
228,596	4,118	226,648	117,267
229,611	3,667	226,503	116,839
230,626	3,803	226,173	116,762
231,640	3,504	226,015	116,443
232,655	3,777	226,007	116,635
233,669	4,267	225,888	116,935
234,684	4,362	225,968	117,038
235,699	4,037	225,661	116,623
236,713	3,956	225,426	116,430
237,728	3,719	225,229	116,138
238,742	3,655	224,941	115,931
239,757	3,609	224,865	115,847
240,772	3,722	224,697	115,835
241,786	3,626	224,608	115,707
242,801	3,899	224,590	115,893
243,815	3,901	224,439	115,806
244,830	4,076	224,368	115,890
245,844	3,653	224,089	115,419
246,859	3,892	223,894	115,487
247,874	4,049	223,719	115,505
248,888	4,048	223,757	115,512
249,903	3,681	223,572	115,132
250,917	3,643	223,290	114,948
251,932	3,686	223,130	114,887
252,947	3,454	223,059	114,667
253,961	3,530	222,919	114,641
254,976	3,557	222,809	114,595
255,990	3,644	222,655	114,570
257,005	3,889	222,572	114,701
258,020	3,856	222,415	114,584
259,034	4,070	222,299	114,674
260,049	3,907	222,258	114,521
261,063	3,918	221,934	114,352
262,078	3,876	221,823	114,253
263,093	3,985	221,790	114,308
264,107	3,964	221,585	114,176
265,122	3,982	221,373	114,070
266,136	4,103	221,362	114,144
267,151	3,914	221,252	113,937
268,166	3,733	220,946	113,635
269,180	3,530	220,702	113,350
270,195	3,518	220,525	113,240
271,209	3,681	220,430	113,302
272,224	3,614	220,410	113,232
273,239	3,824	220,180	113,258
274,253	3,549	220,152	113,031
275,268	3,533	219,937	112,899
276,282	3,369	219,749	112,672
277,297	3,523	219,383	112,587
278,312	3,540	219,347	112,571
279,326	3,581	219,218	112,525
280,341	3,723	219,231	112,626
281,355	3,647	219,037	112,460
282,370	3,457	218,977	112,280
283,384	3,369	218,652	112,039
284,399	3,343	218,446	111,905
285,414	3,260	218,530	111,877
286,428	3,741	218,320	112,111
287,443	3,736	218,286	112,080
288,457	3,821	218,038	112,004
289,472	3,766	217,846	111,855
290,487	3,190	217,730	111,367
291,501	3,334	217,484	111,335
292,516	3,380	217,389	111,310
293,530	3,374	217,251	111,226
294,545	3,295	217,308	111,188
295,560	3,468	217,172	111,233
296,574	3,726	216,942	111,293
297,589	3,816	216,790	111,270
298,603	3,654	216,658	111,075
299,618	3,788	216,400	111,030
300,633	3,638	216,493	110,959
301,647	3,333	216,458	110,711
302,662	3,602	216,302	110,816
303,676	3,922	216,132	110,949
304,691	4,070	215,991	110,974
305,706	3,986	215,888	110,850
306,720	3,755	215,618	110,536
307,735	3,517	215,545	110,318
308,749	3,580	215,362	110,259
309,764	3,872	215,187	110,369
310,779	3,856	215,138	110,323
311,793	3,755	214,995	110,167
312,808	3,864	214,754	110,112
313,822	3,747	214,672	109,976
314,837	3,639	214,446	109,773
315,852	3,492	214,323	109,596
316,866	3,592	214,264	109,627
317,881	3,764	214,216	109,716
318,895	3,952	213,895	109,675
319,910	3,686	213,768	109,411
320,925	3,482	213,467	109,102
321,939	3,123	213,392	108,799
322,954	3,300	213,311	108,874
323,968	3,864	213,222	109,219
324,983	3,863	213,214	109,205
325,997	3,874	213,141	109,165
327,012	3,711	213,017	108,976
328,027	3,969	212,750	109,013
329,041	4,000	212,692	108,995
330,056	4,011	212,609	108,951
331,070	3,620	212,316	108,514
332,085	3,385	212,077	108,217
333,100	3,585	211,974	108,295
334,114	3,803	211,958	108,432
335,129	3,555	211,718	108,124
336,143	3,627	211,623	108,117
337,158	3,492	211,556	107,978
338,173	3,582	211,321	107,912
339,187	3,424	211,237	107,748
340,202	3,223	211,095	107,525
341,216	3,274	210,835	107,419
342,231	3,617	210,767	107,615
343,246	3,326	210,596	107,314
344,260	3,251	210,465	107,185
345,275	3,620	210,425	107,414
346,289	3,776	210,407	107,504
347,304	3,833	210,203	107,430
348,319	3,587	209,946	107,118
349,333	3,653	209,817	107,088
350,348	3,508	209,767	106,952
351,362	3,841	209,672	107,126
352,377	3,682	209,542	106,940
353,392	3,606	209,385	106,797
354,406	3,715	209,267	106,803
355,421	194,895	1343,855	1432,319
356,435	155,577	1482,169	1432,412
