DTS Sentinel unit serial number:	SN410029Multiplexer serial number:	ORYXHardware model number:	OX2-SRSoftware version number:	ORYX F/W v4,00 Oryx Data Collector v3.7.2.0data status	okinstallation	B6 Nyhavnadifferential loss correction	single-endedforward channel	channel 2reverse channel	N/Adate	2023/12/07time	11:45:08forward acquisition time	300,00reverse acquisition time	0,00gamma	499,1914k internal	0,3203k external	0,3203temperature offset calibration	1,0000default loss term (dB/km)	0,3820temperature slope calibration	1,0000multiplexer offset coefficient	1,0000multiplexer slope coefficient	1,0000fibre end	0,00T internal ref (°C)	8,94T ext. ref 1 (°C)	-4,95T ext. ref 2 (°C)	-4,96length (m)	temperature (°C)	Stokes	anti-Stokes-744,400	-40,786	0,212	0,080
-743,385	-49,124	-0,335	-0,116
-742,371	-121,151	0,251	0,030
-741,356	-154,685	-0,290	0,014
-740,342	20,324	0,049	-0,029
-739,327	-102,173	-0,348	0,060
-738,312	-101,756	0,172	0,030
-737,298	-133,976	-0,403	-0,036
-736,283	-157,964	0,189	-0,008
-735,269	-116,951	-0,296	-0,039
-734,254	-168,787	0,258	0,007
-733,239	15,249	-0,530	-0,301
-732,225	-33,558	0,167	0,067
-731,210	-101,416	0,050	0,009
-730,196	-200,000	0,029	-0,098
-729,181	42,228	-0,075	0,049
-728,167	309,266	0,026	-0,035
-727,152	800,000	-0,058	0,119
-726,137	-15,304	-0,116	-0,054
-725,123	723,477	-0,094	-0,184
-724,108	-59,162	-0,077	-0,024
-723,094	279,564	-0,127	-0,164
-722,079	26,578	-0,158	-0,096
-721,064	-200,000	-0,047	-0,171
-720,050	-200,000	0,021	-0,068
-719,035	-81,432	0,016	-0,004
-718,021	85,505	-0,097	0,077
-717,006	800,000	-0,011	-0,022
-715,991	155,421	0,063	0,063
-714,977	83,593	-0,077	-0,061
-713,962	481,933	-0,048	-0,080
-712,948	91,177	0,046	0,038
-711,933	-67,659	-0,130	0,037
-710,918	-200,000	0,003	-0,062
-709,904	141,793	-0,138	-0,133
-708,889	387,930	0,058	-0,087
-707,875	463,034	-0,090	0,146
-706,860	416,133	-0,089	-0,138
-705,845	304,580	0,051	0,068
-704,831	58,445	-0,052	0,037
-703,816	800,000	0,035	-0,087
-702,802	356,805	-0,073	-0,106
-701,787	193,101	-0,082	-0,090
-700,772	-47,775	0,084	0,029
-699,758	88,599	0,005	-0,004
-698,743	-107,234	0,158	0,025
-697,729	51,164	0,090	0,062
-696,714	-116,887	-0,038	0,005
-695,699	51,824	0,134	0,092
-694,685	-200,000	0,006	-0,026
-693,670	-20,890	0,073	-0,032
-692,656	800,000	-0,015	0,048
-691,641	-200,000	-0,018	0,068
-690,627	156,165	0,093	-0,093
-689,612	-137,045	0,066	0,005
-688,597	-75,214	0,092	-0,024
-687,583	-28,490	-0,136	-0,057
-686,568	-200,000	-0,015	-0,117
-685,554	-14,682	-0,019	0,009
-684,539	-43,656	0,049	-0,018
-683,524	-97,956	-0,059	-0,011
-682,510	800,000	0,028	0,061
-681,495	48,451	-0,085	-0,058
-680,481	230,197	0,016	0,019
-679,466	371,363	-0,005	0,007
-678,451	69,031	-0,055	-0,041
-677,437	-5,199	-0,074	0,037
-676,422	-33,151	0,105	-0,042
-675,408	204,847	-0,117	-0,132
-674,393	101,218	-0,079	0,066
-673,378	-87,486	-0,101	0,022
-672,364	464,150	-0,010	-0,016
-671,349	800,000	0,081	-0,167
-670,335	597,512	0,003	0,005
-669,320	49,889	-0,107	-0,073
-668,305	139,120	-0,093	-0,088
-667,291	71,432	-0,060	0,045
-666,276	-180,510	-0,151	-0,002
-665,262	99,063	0,152	-0,128
-664,247	418,248	0,038	0,058
-663,232	10,813	0,097	-0,053
-662,218	-58,474	0,150	0,047
-661,203	493,505	0,024	0,041
-660,189	38,032	-0,027	0,017
-659,174	800,000	0,028	-0,057
-658,159	-103,856	-0,051	0,009
-657,145	-200,000	-0,007	-0,104
-656,130	329,001	0,019	0,026
-655,116	-41,061	-0,050	-0,018
-654,101	-79,219	-0,064	-0,015
-653,086	-200,000	-0,003	0,020
-652,072	-12,946	0,033	0,015
-651,057	800,000	0,044	-0,104
-650,043	-144,818	-0,092	0,006
-649,028	656,214	-0,060	0,113
-648,014	800,000	-0,056	-0,158
-646,999	-200,000	-0,001	-0,086
-645,984	-7,880	0,113	0,055
-644,970	800,000	0,011	-0,032
-643,955	125,688	0,084	0,077
-642,941	407,431	0,039	-0,059
-641,926	800,000	-0,049	-0,120
-640,911	765,853	-0,007	0,014
-639,897	278,119	-0,073	0,095
-638,882	-149,957	-0,132	-0,007
-637,868	36,415	-0,040	0,025
-636,853	-200,000	-0,021	-0,097
-635,838	85,135	-0,116	-0,092
-634,824	800,000	-0,062	-0,131
-633,809	325,066	-0,008	0,012
-632,795	-200,000	0,017	0,138
-631,780	-200,000	-0,006	-0,079
-630,765	191,371	-0,065	-0,071
-629,751	38,590	-0,097	-0,063
-628,736	753,204	0,053	-0,104
-627,722	-200,000	0,016	0,060
-626,707	-200,000	0,012	0,046
-625,692	686,981	-0,021	-0,040
-624,678	625,983	-0,097	0,179
-623,663	70,339	0,069	0,051
-622,649	800,000	-0,054	-0,118
-621,634	-200,000	0,013	-0,116
-620,619	-200,000	0,001	-0,143
-619,605	-200,000	-0,025	0,107
-618,590	-4,003	-0,092	0,046
-617,576	398,748	-0,081	0,123
-616,561	-19,844	-0,057	-0,025
-615,546	315,715	0,060	0,082
-614,532	-159,702	-0,045	0,002
-613,517	800,000	0,048	-0,103
-612,503	-116,805	0,174	-0,023
-611,488	551,870	0,084	0,147
-610,474	-200,000	-0,001	0,141
-609,459	-200,000	-0,003	-0,033
-608,444	80,996	-0,108	-0,084
-607,430	-121,767	-0,105	0,012
-606,415	-200,000	0,021	-0,070
-605,401	43,458	-0,079	0,052
-604,386	800,000	-0,013	0,038
-603,371	61,580	-0,054	0,039
-602,357	-200,000	-0,007	0,040
-601,342	-4,073	-0,029	0,015
-600,328	17,136	-0,092	0,053
-599,313	-52,879	-0,121	-0,040
-598,298	98,617	0,067	0,056
-597,284	-113,829	-0,094	-0,013
-596,269	98,322	0,052	-0,043
-595,255	276,424	0,022	-0,028
-594,240	-138,823	-0,085	0,007
-593,225	-31,875	-0,132	-0,053
-592,211	800,000	0,005	-0,014
-591,196	7,411	-0,058	-0,031
-590,182	800,000	0,026	0,064
-589,167	-163,406	0,123	-0,004
-588,152	166,094	0,017	-0,017
-587,138	800,000	0,002	-0,005
-586,123	58,003	-0,196	-0,139
-585,109	800,000	0,024	0,048
-584,094	-80,875	-0,086	0,020
-583,079	60,088	0,101	0,072
-582,065	800,000	-0,044	0,119
-581,050	737,360	0,054	0,106
-580,036	-200,000	-0,025	-0,091
-579,021	-39,215	0,250	-0,095
-578,006	800,000	0,035	-0,083
-576,992	-200,000	-0,026	-0,102
-575,977	760,334	-0,039	-0,076
-574,963	153,155	0,046	0,046
-573,948	800,000	-0,023	-0,049
-572,934	-135,637	-0,076	0,006
-571,919	12,939	-0,047	0,026
-570,904	-200,000	-0,014	-0,137
-569,890	-200,000	-0,029	-0,129
-568,875	166,509	0,049	-0,051
-567,861	405,854	-0,079	0,121
-566,846	-121,073	0,102	-0,012
-565,831	103,256	-0,093	-0,078
-564,817	-200,000	-0,011	-0,134
-563,802	210,029	-0,092	-0,104
-562,788	-64,807	0,073	-0,021
-561,773	-200,000	-0,000	-0,140
-560,758	-92,737	0,067	-0,013
-559,744	55,991	0,037	0,026
-558,729	800,000	-0,034	0,076
-557,715	169,698	0,070	-0,072
-556,700	198,627	-0,104	-0,115
-555,685	-76,898	-0,086	0,022
-554,671	229,497	0,053	0,062
-553,656	-200,000	0,002	0,179
-552,642	137,551	0,056	0,053
-551,627	-57,790	-0,125	0,039
-550,612	-200,000	0,022	-0,076
-549,598	-139,195	-0,091	-0,007
-548,583	84,838	-0,042	-0,033
-547,569	433,038	-0,086	-0,135
-546,554	71,805	0,007	0,005
-545,539	79,414	0,022	-0,017
-544,525	-200,000	0,007	0,128
-543,510	-27,824	0,080	-0,033
-542,496	29,808	0,144	-0,088
-541,481	637,517	-0,040	-0,073
-540,466	-200,000	0,016	0,061
-539,452	-133,079	0,130	-0,012
-538,437	-200,000	-0,002	-0,081
-537,423	-137,966	-0,043	-0,003
-536,408	66,873	0,035	-0,026
-535,393	238,921	0,060	0,072
-534,379	-50,812	-0,065	-0,022
-533,364	-57,649	-0,097	-0,031
-532,350	105,404	-0,057	0,048
-531,335	17,385	-0,119	-0,068
-530,321	-150,472	0,068	-0,004
-529,306	800,000	0,043	-0,090
-528,291	177,441	-0,091	-0,096
-527,277	-200,000	0,024	-0,134
-526,262	-200,000	0,018	-0,133
-525,248	-49,524	0,052	0,018
-524,233	682,250	-0,088	0,167
-523,218	800,000	0,081	0,182
-522,204	-200,000	-0,038	-0,157
-521,189	784,344	0,024	-0,048
-520,175	-81,155	-0,239	-0,057
-519,160	800,000	0,065	0,185
-518,145	-200,000	0,004	0,159
-517,131	800,000	-0,013	0,035
-516,116	-7,356	-0,116	0,056
-515,102	-36,825	0,034	-0,013
-514,087	-17,932	-0,045	-0,020
-513,072	-150,101	0,116	0,006
-512,058	42,980	-0,074	-0,049
-511,043	-166,052	0,190	-0,006
-510,029	-200,000	-0,001	0,150
-509,014	-65,600	0,088	-0,025
-507,999	690,447	0,026	-0,049
-506,985	34,002	-0,115	-0,072
-505,970	-108,942	-0,099	0,015
-504,956	-200,000	-0,002	0,014
-503,941	753,511	-0,013	0,026
-502,926	800,000	0,045	0,105
-501,912	-200,000	0,018	0,065
-500,897	-200,000	-0,009	-0,133
-499,883	-200,000	-0,012	-0,071
-498,868	-8,707	-0,119	-0,057
-497,853	-200,000	-0,006	-0,043
-496,839	445,198	0,065	-0,103
-495,824	-3,020	0,045	0,023
-494,810	-200,000	0,012	0,042
-493,795	800,000	0,045	-0,111
-492,781	64,891	-0,073	0,053
-491,766	-62,746	0,087	0,026
-490,751	-162,350	-0,151	0,005
-489,737	800,000	-0,022	-0,054
-488,722	-56,632	0,099	0,031
-487,708	17,580	0,039	0,022
-486,693	139,877	0,059	0,056
-485,678	155,481	-0,100	-0,099
-484,664	24,086	-0,069	0,041
-483,649	-200,000	0,026	-0,176
-482,635	628,885	0,120	-0,219
-481,620	-200,000	0,013	-0,079
-480,605	-200,000	-0,021	-0,085
-479,591	150,654	-0,054	-0,053
-478,576	-137,010	-0,165	-0,013
-477,562	57,208	-0,064	-0,045
-476,547	42,169	0,103	-0,067
-475,532	32,515	-0,131	0,081
-474,518	800,000	-0,064	0,159
-473,503	-122,594	0,165	-0,019
-472,489	-200,000	-0,033	0,139
-471,474	77,763	0,093	-0,071
-470,459	-200,000	0,001	0,056
-469,445	-52,645	-0,097	0,032
-468,430	-112,201	-0,097	-0,014
-467,416	138,303	0,113	0,106
-466,401	-200,000	-0,017	-0,076
-465,386	-200,000	-0,007	0,057
-464,372	800,000	0,045	0,097
-463,357	800,000	-0,039	-0,111
-462,343	98,213	0,107	-0,088
-461,328	-200,000	0,042	-0,141
-460,313	800,000	0,047	-0,117
-459,299	341,191	0,008	-0,011
-458,284	-21,966	0,128	-0,056
-457,270	46,699	0,065	-0,043
-456,255	800,000	-0,025	-0,051
-455,241	-200,000	-0,019	-0,082
-454,226	14,570	0,099	-0,055
-453,211	-200,000	-0,021	0,142
-452,197	-200,000	0,004	0,091
-451,182	-97,171	-0,059	-0,011
-450,168	-200,000	-0,007	-0,025
-449,153	800,000	-0,011	0,025
-448,138	41,371	0,108	-0,070
-447,124	-99,087	-0,075	-0,013
-446,109	-23,558	0,069	0,030
-445,095	-80,695	-0,108	-0,026
-444,080	-200,000	0,005	0,019
-443,065	187,054	0,093	0,100
-442,051	800,000	-0,032	0,068
-441,036	-9,060	-0,050	0,024
-440,022	-200,000	0,030	0,141
-439,007	68,585	0,130	0,096
-437,992	800,000	-0,030	0,066
-436,978	-119,857	0,018	-0,002
-435,963	136,270	-0,093	0,087
-434,949	-33,449	0,060	-0,024
-433,934	-100,425	0,048	-0,009
-432,919	59,629	-0,045	-0,032
-431,905	245,915	0,087	0,105
-430,890	-81,912	-0,060	-0,014
-429,876	166,807	0,071	-0,072
-428,861	767,464	-0,010	0,020
-427,846	-96,873	-0,026	0,005
-426,832	800,000	0,016	0,037
-425,817	273,576	0,088	0,112
-424,803	-200,000	-0,001	0,064
-423,788	103,160	0,102	-0,086
-422,773	132,051	0,026	-0,024
-421,759	-32,976	-0,065	0,026
-420,744	-65,321	0,101	0,029
-419,730	-200,000	-0,017	-0,075
-418,715	449,245	-0,053	0,085
-417,701	-200,000	0,004	0,045
-416,686	112,635	0,021	-0,018
-415,671	490,925	-0,063	-0,104
-414,657	-139,376	0,060	-0,005
-413,642	16,226	-0,138	-0,078
-412,628	173,920	0,064	-0,066
-411,613	213,298	0,058	0,065
-410,598	-200,000	-0,012	0,143
-409,584	177,129	-0,072	0,076
-408,569	-200,000	-0,007	0,101
-407,555	-114,331	0,029	-0,004
-406,540	-200,000	-0,001	0,183
-405,525	-45,995	-0,103	0,036
-404,511	471,433	-0,055	-0,089
-403,496	8,741	0,038	-0,020
-402,482	246,646	0,048	0,059
-401,467	52,632	0,071	0,049
-400,452	-141,784	0,053	-0,004
-399,438	-95,569	-0,083	-0,016
-398,423	-200,000	-0,011	0,074
-397,409	-124,595	-0,151	-0,017
-396,394	800,000	0,035	0,070
-395,379	160,902	-0,018	0,018
-394,365	-143,051	-0,053	0,004
-393,350	100,860	0,087	0,072
-392,336	-200,000	0,014	0,118
-391,321	-130,891	0,019	-0,002
-390,306	135,891	-0,056	-0,052
-389,292	-114,491	0,093	0,013
-388,277	-137,706	0,059	-0,005
-387,263	-81,718	0,065	0,015
-386,248	-97,360	0,082	-0,015
-385,233	94,254	-0,097	0,079
-384,219	2,116	-0,103	0,053
-383,204	-35,592	-0,145	0,056
-382,190	-58,021	0,118	0,037
-381,175	-148,051	0,059	-0,003
-380,160	156,233	-0,110	0,109
-379,146	10,894	0,074	-0,040
-378,131	193,409	0,022	-0,023
-377,117	-200,000	-0,021	0,119
-376,102	11,688	0,042	0,023
-375,088	-146,476	0,096	-0,006
-374,073	-71,079	0,096	0,026
-373,058	-46,454	-0,049	-0,017
-372,044	260,446	0,069	0,086
-371,029	97,570	0,026	0,022
-370,015	536,631	-0,076	0,130
-369,000	40,348	0,066	-0,043
-367,985	800,000	0,067	-0,186
-366,971	-71,811	0,061	0,016
-365,956	-200,000	0,006	0,142
-364,942	496,831	0,031	-0,051
-363,927	230,606	0,078	-0,091
-362,912	21,030	-0,047	-0,027
-361,898	800,000	0,017	0,054
-360,883	-39,136	0,087	-0,032
-359,869	204,099	0,052	0,058
-358,854	54,091	0,054	0,037
-357,839	279,813	-0,017	-0,022
-356,825	-75,938	0,050	0,013
-355,810	123,801	-0,080	0,072
-354,796	-200,000	0,006	-0,072
-353,781	-200,000	-0,042	-0,196
-352,766	800,000	-0,040	-0,111
-351,752	785,144	0,063	0,124
-350,737	-200,000	-0,012	0,046
-349,723	12,794	0,085	-0,047
-348,708	492,007	-0,027	0,044
-347,693	260,400	-0,043	0,054
-346,679	-59,242	0,034	0,010
-345,664	44,643	0,067	0,044
-344,650	135,084	-0,100	0,093
-343,635	398,245	0,098	0,148
-342,620	-79,991	0,040	0,010
-341,606	6,954	0,102	-0,054
-340,591	-115,154	-0,087	-0,012
-339,577	-200,000	-0,021	-0,107
-338,562	233,216	0,068	-0,080
-337,548	-85,786	0,042	-0,009
-336,533	800,000	-0,045	-0,113
-335,518	490,511	-0,075	-0,124
-334,504	23,876	-0,067	-0,039
-333,489	-200,000	-0,006	0,068
-332,475	79,579	0,038	-0,029
-331,460	-67,679	-0,019	0,005
-330,445	-200,000	0,021	-0,089
-329,431	-84,045	0,133	0,030
-328,416	389,059	-0,053	-0,079
-327,402	114,734	0,098	-0,085
-326,387	800,000	0,019	-0,054
-325,372	-200,000	-0,009	0,059
-324,358	-200,000	-0,011	0,121
-323,343	628,134	0,018	-0,033
-322,329	328,595	-0,040	-0,054
-321,314	315,085	0,058	-0,079
-320,299	35,921	0,073	-0,046
-319,285	127,488	-0,027	-0,025
-318,270	-200,000	-0,008	-0,051
-317,256	-200,000	-0,002	-0,058
-316,241	-200,000	-0,011	-0,068
-315,226	126,953	-0,015	0,014
-314,212	10,480	0,067	0,036
-313,197	27,152	0,026	0,016
-312,183	32,595	-0,050	0,031
-311,168	-200,000	0,010	-0,079
-310,153	-124,142	-0,051	-0,006
-309,139	160,196	-0,072	0,072
-308,124	-71,393	-0,074	-0,020
-307,110	371,591	-0,071	0,103
-306,095	-27,328	0,079	-0,033
-305,080	8,501	-0,064	0,034
-304,066	301,087	-0,079	-0,105
-303,051	721,565	-0,037	-0,070
-302,037	86,862	-0,038	-0,030
-301,022	299,408	0,078	0,103
-300,008	-146,392	0,062	0,004
-298,993	-200,000	-0,003	0,080
-297,978	-200,000	0,003	0,102
-296,964	153,955	-0,081	0,079
-295,949	59,198	-0,063	-0,045
-294,935	96,789	0,088	-0,072
-293,920	269,891	0,087	0,109
-292,905	247,250	0,039	0,048
-291,891	166,201	0,134	0,135
-290,876	-39,370	-0,077	0,029
-289,862	-185,162	0,092	0,001
-288,847	800,000	-0,051	-0,129
-287,832	498,057	-0,024	-0,039
-286,818	215,522	-0,032	0,036
-285,803	-47,888	0,049	-0,017
-284,789	16,418	-0,078	-0,044
-283,774	155,800	0,051	-0,050
-282,759	-200,000	0,011	-0,078
-281,745	251,626	0,021	-0,026
-280,730	82,491	-0,127	-0,098
-279,716	-200,000	-0,010	-0,139
-278,701	-79,329	0,035	0,008
-277,686	-32,607	0,054	0,021
-276,672	155,759	-0,040	0,040
-275,657	405,374	-0,010	0,016
-274,643	-23,527	-0,114	-0,049
-273,628	14,268	0,026	-0,014
-272,613	-76,800	-0,170	0,042
-271,599	-72,365	0,146	-0,038
-270,584	-60,857	0,077	0,023
-269,570	-168,626	-0,135	0,004
-268,555	-200,000	0,008	-0,045
-267,540	101,970	0,041	-0,035
-266,526	800,000	0,035	-0,103
-265,511	-200,000	0,039	0,130
-264,497	-200,000	0,026	0,168
-263,482	800,000	0,066	0,155
-262,467	44,729	-0,057	-0,038
-261,453	-200,000	-0,001	0,086
-260,438	-200,000	-0,016	0,094
-259,424	-200,000	0,027	0,089
-258,409	175,929	-0,114	-0,118
-257,395	110,316	-0,067	0,057
-256,380	-11,473	0,062	-0,029
-255,365	-197,707	0,108	0,000
-254,351	-47,907	-0,058	-0,020
-253,336	211,156	-0,055	0,061
-252,322	217,543	0,041	-0,047
-251,307	-200,000	-0,012	-0,047
-250,292	-1,423	-0,055	-0,028
-249,278	-10,760	0,101	0,047
-248,263	91,151	0,109	0,087
-247,249	6,603	-0,074	-0,039
-246,234	60,058	-0,060	0,042
-245,219	751,748	0,030	-0,058
-244,205	-200,000	-0,005	0,118
-243,190	-142,808	-0,037	0,003
-242,176	-200,000	-0,000	0,001
-241,161	717,451	-0,065	0,123
-240,146	-200,000	0,004	0,021
-239,132	-52,150	0,022	-0,007
-238,117	112,371	0,055	0,048
-237,103	-119,959	0,028	0,003
-236,088	-200,000	-0,023	0,105
-235,073	-55,995	0,061	-0,019
-234,059	-70,369	-0,088	-0,023
-233,044	-89,684	0,126	0,026
-232,030	29,779	-0,097	0,059
-231,015	10,721	0,029	-0,016
-230,000	279,718	0,040	-0,052
-228,986	-200,000	-0,012	0,045
-227,971	6,339	0,011	0,006
-226,957	-31,670	0,025	-0,010
-225,942	27,495	-0,087	-0,052
-224,927	-66,438	0,105	0,030
-223,913	800,000	-0,021	-0,055
-222,898	71,130	-0,078	0,057
-221,884	-172,646	0,140	-0,003
-220,869	745,192	0,068	0,132
-219,855	800,000	-0,014	-0,043
-218,840	593,478	0,064	-0,114
-217,825	-92,317	0,014	0,003
-216,811	184,940	-0,166	-0,175
-215,796	295,065	-0,117	-0,153
-214,782	-42,044	-0,129	0,047
-213,767	-58,392	0,090	0,028
-212,752	-200,000	0,006	-0,105
-211,738	99,276	0,061	0,050
-210,723	800,000	-0,014	0,029
-209,709	-200,000	0,008	-0,135
-208,694	145,137	0,031	-0,029
-207,679	6,267	0,174	-0,092
-206,665	230,229	-0,047	0,054
-205,650	-45,650	0,057	-0,020
-204,636	-200,000	-0,021	0,109
-203,621	18,540	-0,047	-0,027
-202,606	-176,374	0,041	-0,001
-201,592	-59,255	-0,110	-0,034
-200,577	306,735	-0,034	0,045
-199,563	-200,000	0,018	0,100
-198,548	-200,000	0,011	-0,108
-197,533	-66,428	0,162	-0,045
-196,519	-139,201	0,202	-0,015
-195,504	-16,128	-0,074	0,034
-194,490	1,825	0,012	-0,006
-193,475	800,000	0,056	-0,123
-192,460	-200,000	0,002	0,019
-191,446	800,000	-0,066	0,151
-190,431	800,000	-0,025	0,071
-189,417	-200,000	0,027	0,099
-188,402	155,453	-0,131	0,129
-187,387	26,633	0,047	-0,028
-186,373	-200,000	0,016	0,107
-185,358	-11,294	0,025	0,012
-184,344	373,032	0,093	0,135
-183,329	217,917	0,048	-0,055
-182,315	800,000	0,021	0,062
-181,300	-10,750	-0,073	0,034
-180,285	323,776	-0,029	-0,040
-179,271	29,092	0,027	0,016
-178,256	509,197	-0,060	-0,099
-177,242	800,000	0,057	0,157
-176,227	800,000	0,016	-0,036
-175,212	-32,052	0,050	-0,020
-174,198	800,000	-0,018	0,042
-173,183	800,000	-0,031	0,066
-172,169	-200,000	-0,016	-0,147
-171,154	-200,000	-0,011	-0,070
-170,139	-36,845	-0,067	0,025
-169,125	-200,000	-0,004	-0,047
-168,110	455,419	0,057	-0,090
-167,096	35,610	-0,099	0,062
-166,081	-74,406	-0,091	-0,023
-165,066	254,293	-0,013	0,016
-164,052	-200,000	0,002	0,134
-163,037	79,277	-0,097	-0,074
-162,023	-45,210	0,088	0,031
-161,008	7,010	0,120	-0,064
-159,993	800,000	0,044	0,091
-158,979	-200,000	0,013	0,128
-157,964	483,172	-0,045	0,072
-156,950	-200,000	-0,011	-0,138
-155,935	50,086	-0,118	0,079
-154,920	-103,187	0,124	-0,021
-153,906	100,532	0,115	0,095
-152,891	96,498	-0,073	-0,059
-151,877	-162,449	-0,112	-0,004
-150,862	-200,000	0,009	0,101
-149,847	-22,764	-0,010	0,004
-148,833	48,836	0,057	0,038
-147,818	-198,428	-0,143	0,001
-146,804	800,000	0,069	0,192
-145,789	239,253	0,079	0,093
-144,775	-200,000	0,005	0,057
-143,760	9,709	-0,094	-0,050
-142,745	505,606	-0,052	-0,085
-141,731	-123,671	-0,162	-0,018
-140,716	-76,595	0,072	0,018
-139,702	-32,297	0,059	0,023
-138,687	-20,136	0,149	0,065
-137,672	-200,000	0,020	0,097
-136,658	-200,000	0,007	-0,131
-135,643	-137,503	0,039	-0,003
-134,629	50,251	-0,021	0,014
-133,614	20,176	0,035	-0,020
-132,599	-156,452	-0,021	-0,001
-131,585	180,080	0,127	-0,132
-130,570	195,864	-0,053	-0,058
-129,556	-200,000	-0,029	-0,120
-128,541	4,807	0,055	-0,029
-127,526	-76,876	0,129	-0,032
-126,512	-200,000	0,001	0,011
-125,497	345,867	-0,039	0,055
-124,483	231,026	-0,024	-0,028
-123,468	-188,993	0,114	-0,001
-122,453	733,137	-0,055	-0,106
-121,439	397,497	0,018	0,026
-120,424	800,000	-0,019	-0,047
-119,410	-109,854	0,039	-0,006
-118,395	-200,000	0,013	-0,085
-117,380	-200,000	-0,009	-0,113
-116,366	-69,926	0,126	-0,034
-115,351	-126,074	-0,096	0,010
-114,337	-96,680	-0,092	-0,017
-113,322	800,000	-0,017	-0,036
-112,307	-97,313	-0,106	0,019
-111,293	-127,495	0,162	0,016
-110,278	-200,000	0,009	0,132
-109,264	-200,000	0,020	0,158
-108,249	108,787	-0,061	0,051
-107,234	800,000	-0,018	0,041
-106,220	374,829	-0,074	-0,108
-105,205	717,560	-0,065	0,123
-104,191	97,436	0,092	-0,075
-103,176	800,000	-0,042	0,100
-102,162	189,223	0,044	-0,047
-101,147	-200,000	-0,005	-0,086
-100,132	-200,000	0,021	-0,111
-99,118	41,997	-0,057	-0,037
-98,103	115,924	-0,024	0,020
-97,089	261,559	-0,059	0,072
-96,074	250,979	0,064	0,077
-95,059	-118,540	0,168	0,021
-94,045	75,310	-0,040	-0,030
-93,030	-82,489	-0,071	-0,016
-92,016	-200,000	-0,008	-0,034
-91,001	800,000	0,030	0,068
-89,986	-200,000	0,005	0,090
-88,972	-6,691	0,107	0,051
-87,957	15,552	-0,034	-0,019
-86,943	-80,079	0,165	0,039
-85,928	800,000	0,023	0,048
-84,913	564,509	-0,079	0,136
-83,899	-77,525	0,050	-0,012
-82,884	-19,133	-0,187	-0,082
-81,870	100,726	0,068	0,056
-80,855	-200,000	0,004	0,092
-79,840	-200,000	0,027	0,108
-78,826	-136,973	-0,170	0,014
-77,811	467,667	-0,093	-0,148
-76,797	800,000	-0,013	-0,029
-75,782	117,059	0,072	-0,063
-74,767	-200,000	-0,013	0,194
-73,753	800,000	-0,070	0,142
-72,738	800,000	-0,021	0,044
-71,724	180,680	-0,080	0,083
-70,709	141,869	-0,072	-0,068
-69,694	-80,150	-0,070	0,017
-68,680	-200,000	0,006	-0,098
-67,665	410,337	0,083	-0,124
-66,651	-200,000	0,006	0,136
-65,636	18,213	-0,087	0,049
-64,622	-93,134	-0,062	0,012
-63,607	445,327	-0,055	-0,086
-62,592	444,543	-0,084	-0,131
-61,578	-92,606	0,099	0,019
-60,563	-200,000	0,000	-0,076
-59,549	424,518	-0,058	0,088
-58,534	82,751	-2,635	-2,025
-57,519	91,581	0,422	-0,336
-56,505	-200,000	-1,618	-5,370
-55,490	273,349	1,091	1,368
-54,476	800,000	5,303	12,009
-53,461	-200,000	21,721	346,204
-52,446	800,000	763,915	2316,525
-51,432	524,790	1661,856	2776,585
-50,417	68,421	1670,685	1210,004
-49,403	15,819	1589,819	882,443
-48,388	10,570	1542,744	829,345
-47,373	18,677	1536,307	867,219
-46,359	13,954	1525,196	837,023
-45,344	9,105	1521,014	810,133
-44,330	9,012	1519,101	808,608
-43,315	8,938	1517,699	807,458
-42,300	8,988	1515,676	806,602
-41,286	8,946	1514,139	805,541
-40,271	8,972	1512,452	804,740
-39,257	8,983	1510,901	803,941
-38,242	8,958	1509,823	803,210
-37,227	8,943	1508,462	802,378
-36,213	8,961	1507,098	801,708
-35,198	8,982	1505,736	801,060
-34,184	8,972	1504,597	800,373
-33,169	8,969	1503,095	799,526
-32,154	8,996	1501,479	798,767
-31,140	9,019	1500,020	798,076
-30,125	9,021	1498,947	797,482
-29,111	9,015	1497,700	796,758
-28,096	9,009	1496,557	796,090
-27,082	8,986	1495,501	795,383
-26,067	8,986	1494,200	794,655
-25,052	8,940	1493,027	793,775
-24,038	8,913	1492,154	793,144
-23,023	8,904	1491,178	792,548
-22,009	8,981	1490,198	792,378
-20,994	8,958	1489,099	791,646
-19,979	8,974	1487,916	791,069
-18,965	8,965	1487,117	790,568
-17,950	8,992	1486,084	790,121
-16,936	8,927	1485,135	789,264
-15,921	8,934	1483,738	788,521
-14,906	8,855	1482,570	787,482
-13,892	8,861	1481,796	787,067
-12,877	8,873	1480,878	786,608
-11,863	8,777	1479,931	785,600
-10,848	8,828	1478,895	785,272
-9,833	8,935	1477,896	785,237
-8,819	8,943	1476,843	784,682
-7,804	8,869	1475,804	783,738
-6,790	8,849	1475,323	783,353
-5,775	8,940	1474,308	783,229
-4,760	8,907	1473,493	782,605
-3,746	8,863	1472,137	781,637
-2,731	8,792	1470,984	780,643
-1,717	8,696	1470,081	779,662
-0,702	8,713	1469,055	779,171
0,313	8,550	1467,884	778,930
1,327	12,307	1465,148	795,753
2,342	21,542	1225,422	702,983
3,356	17,566	687,226	385,175
4,371	-10,648	464,340	216,373
5,386	-13,913	436,948	198,772
6,400	-14,795	427,986	193,403
7,415	-14,487	424,424	192,218
8,429	-16,033	421,479	188,666
9,444	-16,211	420,217	187,830
10,459	-16,413	419,094	187,026
11,473	-16,413	418,174	186,599
12,488	-16,607	417,105	185,832
13,502	-16,765	416,376	185,268
14,517	-16,915	415,486	184,644
15,531	-16,992	414,652	184,150
16,546	-17,128	413,953	183,633
17,561	-17,058	413,530	183,527
18,575	-17,111	412,712	183,073
19,590	-17,176	412,253	182,763
20,604	-17,049	411,803	182,723
21,619	-17,152	411,258	182,323
22,634	-17,169	410,791	182,076
23,648	-17,233	410,171	181,695
24,663	-17,169	409,867	181,633
25,677	-17,214	409,389	181,344
26,692	-17,090	408,816	181,244
27,707	-17,216	408,395	180,868
28,721	-17,284	408,025	180,595
29,736	-17,292	407,527	180,346
30,750	-17,316	407,331	180,211
31,765	-17,302	406,722	179,945
32,780	-17,285	406,524	179,865
33,794	-17,246	405,982	179,662
34,809	-17,187	405,580	179,549
35,823	-17,322	405,176	179,169
36,838	-17,308	404,709	178,966
37,853	-17,337	404,391	178,770
38,867	-17,196	403,877	178,719
39,882	-17,163	403,651	178,648
40,896	-17,249	403,183	178,308
41,911	-17,250	402,737	178,094
42,926	-17,253	402,322	177,890
43,940	-17,437	402,108	177,530
44,955	-17,314	401,553	177,435
45,969	-17,338	401,402	177,321
46,984	-17,371	400,867	177,024
47,999	-17,611	400,664	176,595
49,013	-17,544	400,276	176,498
50,028	-17,566	399,882	176,279
51,042	-17,565	399,485	176,089
52,057	-17,514	399,143	175,992
53,071	-17,504	398,748	175,816
54,086	-17,571	398,559	175,626
55,101	-17,468	398,212	175,596
56,115	-17,342	397,835	175,583
57,130	-17,136	397,754	175,806
58,144	-16,967	397,267	175,802
59,159	-16,923	396,964	175,711
60,174	-16,954	396,477	175,439
61,188	-16,951	396,236	175,321
62,203	-17,183	395,969	174,877
63,217	-17,038	395,419	174,812
64,232	-16,997	395,235	174,769
65,247	-16,867	394,873	174,767
66,261	-17,011	394,472	174,382
67,276	-17,163	393,949	173,934
68,290	-17,281	393,706	173,656
69,305	-17,333	393,312	173,397
70,320	-17,319	392,968	173,249
71,334	-17,117	392,686	173,376
72,349	-16,982	392,556	173,481
73,363	-16,767	392,108	173,551
74,378	-16,901	391,790	173,218
75,393	-16,908	391,265	172,961
76,407	-17,067	391,072	172,651
77,422	-17,148	390,708	172,370
78,436	-17,076	390,346	172,289
79,451	-16,923	389,914	172,283
80,466	-17,138	389,556	171,828
81,480	-17,138	389,143	171,631
82,495	-17,239	388,925	171,387
83,509	-17,235	388,794	171,319
84,524	-17,313	388,292	170,980
85,539	-17,249	387,936	170,892
86,553	-17,212	387,608	170,781
87,568	-17,221	387,441	170,680
88,582	-17,249	387,086	170,473
89,597	-17,272	386,750	170,280
90,611	-17,209	386,616	170,287
91,626	-17,075	386,448	170,372
92,641	-17,133	386,022	170,093
93,655	-17,099	385,557	169,918
94,670	-17,101	385,248	169,764
95,684	-17,198	385,002	169,515
96,699	-17,065	384,622	169,504
97,714	-16,941	384,426	169,562
98,728	-17,367	384,184	168,892
99,743	-17,331	383,833	168,769
100,757	-17,344	383,305	168,504
101,772	-17,001	383,013	168,802
102,787	-17,015	382,909	168,723
103,801	-17,162	382,556	168,363
104,816	-17,097	382,381	168,355
105,830	-16,882	381,975	168,437
106,845	-16,979	381,773	168,208
107,860	-16,910	381,536	168,177
108,874	-16,881	381,156	168,031
109,889	-16,982	380,771	167,717
110,903	-16,927	380,387	167,604
111,918	-16,909	380,176	167,518
112,933	-16,904	379,941	167,407
113,947	-16,970	379,617	167,165
114,962	-16,972	379,418	167,060
115,976	-16,960	379,019	166,885
116,991	-17,023	378,808	166,697
118,006	-16,911	378,423	166,655
119,020	-17,024	378,236	166,415
120,035	-16,940	377,887	166,352
121,049	-16,798	377,643	166,410
122,064	-16,841	377,427	166,246
123,079	-16,917	377,034	165,961
124,093	-16,982	376,759	165,744
125,108	-17,158	376,342	165,324
126,122	-17,306	375,928	164,941
127,137	-17,217	375,748	164,960
128,151	-17,234	375,358	164,752
129,166	-17,176	375,226	164,753
130,181	-16,988	374,882	164,822
131,195	-17,156	374,415	164,392
132,210	-16,975	374,333	164,568
133,224	-16,901	373,972	164,487
134,239	-16,827	373,794	164,486
135,254	-16,773	373,457	164,390
136,268	-16,810	373,126	164,184
137,283	-17,116	372,850	163,667
138,297	-17,138	372,299	163,383
139,312	-17,104	372,054	163,304
140,327	-16,826	372,017	163,618
141,341	-16,785	371,819	163,567
142,356	-16,750	371,535	163,471
143,370	-16,680	371,114	163,358
144,385	-16,660	370,890	163,270
145,400	-16,806	370,796	163,033
146,414	-16,764	370,413	162,902
147,429	-16,780	370,048	162,707
148,443	-16,789	369,792	162,569
149,458	-16,740	369,527	162,498
150,473	-16,850	369,287	162,243
151,487	-16,715	369,099	162,312
152,502	-16,786	368,726	162,046
153,516	-16,674	368,360	162,009
154,531	-16,823	368,182	161,733
155,546	-16,786	367,931	161,653
156,560	-16,727	367,576	161,556
157,575	-16,839	367,430	161,339
158,589	-16,782	367,204	161,297
159,604	-16,750	366,794	161,140
160,619	-16,704	366,424	161,020
161,633	-16,700	366,339	160,973
162,648	-16,705	366,160	160,874
163,662	-16,563	365,749	160,852
164,677	-16,691	365,615	160,622
165,692	-16,771	365,423	160,427
166,706	-16,534	365,139	160,577
167,721	-16,617	365,009	160,403
168,735	-16,594	364,587	160,231
169,750	-16,498	364,424	160,263
170,764	-16,590	364,224	160,049
171,779	-16,665	363,998	159,844
172,794	-16,611	363,751	159,786
173,808	-16,612	363,387	159,611
174,823	-16,902	363,070	159,107
175,837	-17,061	362,692	158,735
176,852	-16,771	362,618	159,039
177,867	-16,463	362,443	159,320
178,881	-16,570	362,114	159,032
179,896	-16,600	361,913	158,894
180,910	-16,494	361,612	158,875
181,925	-16,488	361,308	158,734
182,940	-16,497	361,077	158,608
183,954	-16,578	360,945	158,438
184,969	-16,646	360,644	158,210
185,983	-16,639	360,559	158,168
186,998	-16,498	360,168	158,151
188,013	-16,451	359,892	158,072
189,027	-16,509	359,621	157,869
190,042	-16,468	359,279	157,754
191,056	-16,317	359,058	157,824
192,071	-16,253	358,962	157,844
193,086	-16,264	358,716	157,708
194,100	-15,714	358,855	158,411
195,115	-15,052	358,854	159,187
196,129	-14,297	359,276	160,261
197,144	-10,254	361,076	165,897
198,159	-6,920	362,727	170,652
199,173	-4,037	363,850	174,637
200,188	-3,503	363,976	175,325
201,202	-3,143	363,586	175,555
202,217	-3,089	363,567	175,594
203,232	-2,843	363,138	175,667
204,246	-2,879	363,107	175,593
205,261	-2,649	362,986	175,795
206,275	-2,544	362,979	175,901
207,290	-2,671	362,591	175,546
208,304	-2,501	362,333	175,608
209,319	-2,586	361,804	175,235
210,334	-2,731	361,789	175,039
211,348	-2,535	361,522	175,128
212,363	-2,589	361,317	174,948
213,377	-2,587	361,151	174,855
214,392	-2,592	360,906	174,714
215,407	-2,364	360,571	174,809
216,421	-2,315	360,360	174,748
217,436	-2,391	360,176	174,554
218,450	-2,595	359,733	174,081
219,465	-2,474	359,696	174,192
220,480	-2,516	359,468	174,016
221,494	-2,523	359,418	173,968
222,509	-2,281	359,071	174,071
223,523	-2,242	358,823	173,981
224,538	-2,446	358,466	173,551
225,553	-2,407	358,252	173,479
226,567	-2,356	358,079	173,439
227,582	-2,234	357,849	173,456
228,596	-2,253	357,673	173,334
229,611	-2,373	357,366	173,028
230,626	-2,344	357,142	172,938
231,640	-2,502	356,878	172,608
232,655	-2,406	356,719	172,630
233,669	-2,372	356,572	172,583
234,684	-2,403	356,238	172,369
235,699	-2,368	355,914	172,239
236,713	-2,432	355,667	172,028
237,728	-2,420	355,458	171,925
238,742	-2,503	355,271	171,723
239,757	-2,417	354,971	171,663
240,772	-2,435	354,632	171,463
241,786	-2,373	354,351	171,383
242,801	-2,385	354,196	171,280
243,815	-2,344	353,968	171,202
244,830	-2,265	353,762	171,179
245,844	-2,386	353,469	170,882
246,859	-2,442	353,472	170,802
247,874	-2,341	353,192	170,770
248,888	-2,463	352,933	170,487
249,903	-2,442	352,834	170,449
250,917	-2,384	352,484	170,332
251,932	-2,248	352,151	170,313
252,947	-2,377	351,958	170,056
253,961	-2,402	351,816	169,943
254,976	-2,483	351,371	169,619
255,990	-2,340	351,217	169,694
257,005	-2,344	351,200	169,667
258,020	-2,292	350,906	169,569
259,034	-2,386	350,765	169,378
260,049	-2,351	350,457	169,255
261,063	-2,403	350,179	169,045
262,078	-2,353	349,973	168,988
263,093	-2,301	349,678	168,891
264,107	-2,082	349,352	168,969
265,122	-2,335	349,165	168,573
266,136	-2,195	349,002	168,640
267,151	-2,407	348,793	168,281
268,166	-2,265	348,421	168,249
269,180	-2,368	348,281	168,048
270,195	-2,403	347,957	167,838
271,209	-2,337	347,771	167,808
272,224	-2,338	347,512	167,667
273,239	-2,227	347,379	167,714
274,253	-2,270	347,074	167,503
275,268	-2,255	346,902	167,422
276,282	-2,257	346,693	167,304
277,297	-2,245	346,347	167,136
278,312	-2,149	346,178	167,149
279,326	-2,362	346,219	166,911
280,341	-2,324	345,824	166,750
281,355	-2,296	345,607	166,662
282,370	-2,132	345,352	166,709
283,384	-2,361	345,130	166,329
284,399	-2,196	344,882	166,381
285,414	-2,322	344,791	166,180
286,428	-2,132	344,573	166,275
287,443	-2,258	344,331	166,000
288,457	-2,201	344,130	165,953
289,472	-2,258	343,859	165,744
290,487	-2,306	343,583	165,541
291,501	-2,266	343,616	165,588
292,516	-2,163	343,271	165,522
293,530	-2,173	343,043	165,387
294,545	-2,076	342,726	165,328
295,560	-2,172	342,473	165,083
296,574	-2,088	342,228	165,045
297,589	-2,014	342,036	165,020
298,603	-2,089	341,922	164,866
299,618	-2,313	341,797	164,542
300,633	-2,103	341,473	164,605
301,647	-2,042	341,261	164,557
302,662	-1,905	340,922	164,531
303,676	-2,087	340,744	164,227
304,691	-2,015	340,569	164,208
305,706	-1,957	340,314	164,136
306,720	-2,162	340,230	163,853
307,735	-2,118	339,843	163,701
308,749	-2,076	339,777	163,700
309,764	-2,054	339,449	163,553
310,779	-2,100	339,308	163,419
311,793	-1,955	339,009	163,421
312,808	-1,990	338,726	163,232
313,822	-2,095	338,652	163,065
314,837	-1,929	338,507	163,164
315,852	-1,940	338,234	163,006
316,866	-1,839	337,960	162,971
317,881	-2,014	337,767	162,670
318,895	-2,030	337,646	162,580
319,910	-2,031	337,260	162,379
320,925	-2,088	337,168	162,257
321,939	-1,984	336,971	162,262
322,954	-2,001	336,718	162,107
323,968	-1,981	336,507	162,013
324,983	-1,765	336,130	162,054
325,997	-1,937	336,153	161,862
327,012	-1,810	335,842	161,837
328,027	-1,847	335,512	161,623
329,041	-1,933	335,408	161,464
330,056	-2,149	335,278	161,151
331,070	-1,846	334,888	161,281
332,085	-1,937	334,768	161,108
333,100	-1,778	334,535	161,155
334,114	-1,682	334,360	161,162
335,129	-1,763	334,012	160,891
336,143	-1,814	333,758	160,699
337,158	-1,842	333,692	160,623
338,173	-1,841	333,464	160,500
339,187	-1,666	333,206	160,552
340,202	-1,930	333,063	160,182
341,216	-1,808	332,765	160,157
342,231	-1,755	332,632	160,135
343,246	-1,860	332,366	159,879
344,260	-1,754	332,118	159,860
345,275	-1,834	332,002	159,704
346,289	-2,017	331,785	159,387
347,304	-1,806	331,476	159,452
348,319	-1,800	331,375	159,397
349,333	-1,616	331,161	159,477
350,348	-1,715	330,876	159,219
351,362	-1,881	330,651	158,918
352,377	-1,891	330,415	158,780
353,392	-1,829	330,447	158,848
354,406	-1,647	330,048	158,838
355,421	196,997	1325,423	1386,984
356,435	161,222	1446,528	1386,842
