DTS Sentinel unit serial number:	SN410029Multiplexer serial number:	ORYXHardware model number:	OX2-SRSoftware version number:	ORYX F/W v4,00 Oryx Data Collector v3.7.2.0data status	okinstallation	B6 Nyhavnadifferential loss correction	single-endedforward channel	channel 2reverse channel	N/Adate	2023/12/09time	09:15:08forward acquisition time	300,00reverse acquisition time	0,00gamma	499,1914k internal	0,3138k external	0,3138temperature offset calibration	1,0000default loss term (dB/km)	0,3820temperature slope calibration	1,0000multiplexer offset coefficient	1,0000multiplexer slope coefficient	1,0000fibre end	0,00T internal ref (°C)	18,44T ext. ref 1 (°C)	2,02T ext. ref 2 (°C)	2,01length (m)	temperature (°C)	Stokes	anti-Stokes-744,400	-200,000	-0,008	0,154
-743,385	-113,967	-0,230	0,033
-742,371	-200,000	0,021	0,085
-741,356	-71,908	-0,202	0,055
-740,342	683,834	0,101	0,196
-739,327	-3,592	-0,323	0,166
-738,312	-75,183	-0,047	0,012
-737,298	-11,226	-0,257	0,125
-736,283	70,842	0,021	-0,016
-735,269	-79,013	-0,268	0,067
-734,254	316,862	-0,051	0,072
-733,239	-87,296	-0,465	-0,104
-732,225	-79,463	0,131	-0,033
-731,210	26,538	-0,106	0,065
-730,196	519,166	0,073	0,128
-729,181	-200,000	0,002	0,085
-728,167	800,000	0,068	-0,196
-727,152	169,587	0,068	0,072
-726,137	-4,424	-0,225	0,115
-725,123	-107,261	-0,115	0,019
-724,108	2,117	-0,025	-0,014
-723,094	-200,000	0,038	-0,151
-722,079	115,714	-0,152	-0,138
-721,064	-200,000	-0,005	-0,082
-720,050	800,000	-0,025	0,065
-719,035	800,000	-0,014	-0,043
-718,021	-200,000	-0,022	0,077
-717,006	-22,510	-0,058	-0,026
-715,991	-174,547	-0,086	-0,002
-714,977	347,351	-0,053	-0,078
-713,962	278,803	-0,100	-0,132
-712,948	-0,689	0,140	0,073
-711,933	-200,000	-0,002	0,060
-710,918	-200,000	-0,003	0,044
-709,904	-87,982	-0,111	0,024
-708,889	-200,000	-0,004	-0,129
-707,875	800,000	-0,069	-0,191
-706,860	156,227	0,041	-0,042
-705,845	399,171	0,091	-0,141
-704,831	25,410	0,145	0,089
-703,816	-79,593	-0,112	0,028
-702,802	124,934	-0,063	-0,059
-701,787	-200,000	0,005	-0,059
-700,772	800,000	0,050	-0,159
-699,758	800,000	-0,045	0,095
-698,743	325,372	-0,053	0,075
-697,729	-14,873	-0,121	-0,058
-696,714	51,870	0,043	-0,031
-695,699	11,173	0,128	0,072
-694,685	153,586	0,078	0,079
-693,670	-77,769	-0,101	0,026
-692,656	-200,000	-0,034	0,114
-691,641	-44,764	0,169	0,062
-690,627	477,614	-0,033	0,055
-689,612	751,586	0,061	0,123
-688,597	119,848	-0,089	0,082
-687,583	-200,000	-0,006	-0,213
-686,568	-200,000	-0,002	0,022
-685,554	800,000	0,040	-0,114
-684,539	-200,000	-0,018	-0,142
-683,524	67,366	0,051	0,038
-682,510	-200,000	0,006	-0,028
-681,495	-110,761	-0,055	0,008
-680,481	-89,440	-0,128	-0,028
-679,466	800,000	-0,058	-0,126
-678,451	-200,000	-0,015	-0,116
-677,437	-200,000	-0,002	-0,112
-676,422	-130,561	0,094	0,009
-675,408	192,791	0,064	0,072
-674,393	198,709	0,083	-0,094
-673,378	46,919	-0,076	-0,052
-672,364	-89,431	-0,080	0,017
-671,349	10,630	0,035	0,019
-670,335	-200,000	0,007	-0,061
-669,320	687,606	-0,052	-0,101
-668,305	800,000	-0,042	-0,091
-667,291	-124,211	0,038	-0,004
-666,276	-200,000	-0,021	-0,079
-665,262	165,144	0,037	-0,039
-664,247	-44,215	0,020	0,007
-663,232	418,959	-0,065	0,104
-662,218	245,002	0,046	-0,057
-661,203	164,288	0,062	-0,064
-660,189	425,402	-0,014	0,022
-659,174	102,390	-0,146	-0,126
-658,159	342,956	-0,063	0,091
-657,145	592,507	0,022	-0,041
-656,130	604,590	0,058	-0,107
-655,116	800,000	-0,041	-0,091
-654,101	262,820	-0,127	0,163
-653,086	-45,455	-0,159	-0,058
-652,072	-74,195	-0,018	-0,005
-651,057	-144,510	-0,054	-0,004
-650,043	355,681	0,022	0,033
-649,028	-200,000	0,013	-0,045
-648,014	532,015	0,048	0,085
-646,999	800,000	0,027	-0,083
-645,984	283,855	-0,101	0,134
-644,970	-2,398	0,086	-0,045
-643,955	-200,000	0,049	-0,207
-642,941	800,000	0,067	-0,159
-641,926	636,157	-0,019	-0,035
-640,911	36,115	-0,077	0,050
-639,897	230,806	0,060	0,073
-638,882	115,865	0,146	-0,132
-637,868	308,981	0,037	0,051
-636,853	-80,424	-0,107	0,026
-635,838	82,198	0,070	0,056
-634,824	12,182	0,051	-0,029
-633,809	794,582	0,047	-0,096
-632,795	-46,637	-0,094	0,034
-631,780	89,885	0,121	-0,100
-630,765	84,291	0,046	0,037
-629,751	114,058	-0,145	-0,131
-628,736	800,000	0,040	-0,087
-627,722	5,735	-0,171	-0,093
-626,707	-28,344	0,093	-0,039
-625,692	-118,287	0,055	0,007
-624,678	-47,938	0,075	0,027
-623,663	800,000	0,021	0,051
-622,649	-200,000	-0,018	-0,085
-621,634	-200,000	-0,008	-0,042
-620,619	-4,438	0,088	-0,045
-619,605	800,000	0,027	-0,067
-618,590	658,509	0,055	0,105
-617,576	800,000	-0,033	0,075
-616,561	84,651	-0,116	-0,094
-615,546	800,000	0,026	0,077
-614,532	67,922	-0,024	-0,018
-613,517	767,458	-0,019	0,038
-612,503	-33,604	-0,017	-0,007
-611,488	-44,744	0,090	0,033
-610,474	-200,000	-0,013	0,092
-609,459	-52,551	-0,034	0,011
-608,444	278,185	0,037	0,049
-607,430	-100,035	-0,061	-0,011
-606,415	163,554	-0,032	-0,033
-605,401	533,230	-0,078	0,136
-604,386	-200,000	-0,038	0,172
-603,371	800,000	-0,029	0,086
-602,357	-200,000	-0,021	-0,138
-601,342	27,339	-0,039	-0,024
-600,328	150,879	0,017	-0,017
-599,313	138,378	-0,061	-0,059
-598,298	46,908	0,090	0,061
-597,284	-200,000	0,009	0,094
-596,269	168,898	0,038	0,040
-595,255	-109,142	0,057	0,009
-594,240	-200,000	0,007	-0,038
-593,225	-153,441	-0,121	-0,006
-592,211	237,162	-0,089	-0,109
-591,196	93,822	0,068	-0,057
-590,182	195,057	-0,114	-0,128
-589,167	-16,748	-0,089	-0,041
-588,152	47,151	-0,034	0,023
-587,138	-78,936	-0,123	0,031
-586,123	347,089	-0,042	-0,061
-585,109	-164,281	-0,034	-0,001
-584,094	101,232	0,015	-0,013
-583,079	-200,000	0,039	0,145
-582,065	800,000	0,012	0,029
-581,050	652,021	0,080	0,152
-580,036	202,918	-0,076	-0,087
-579,021	-161,752	0,216	0,008
-578,006	-200,000	-0,001	-0,037
-576,992	22,956	0,015	-0,009
-575,977	800,000	0,016	-0,050
-574,963	141,739	0,020	-0,020
-573,948	-200,000	0,041	0,137
-572,934	-200,000	0,006	0,047
-571,919	-27,335	-0,205	-0,088
-570,904	-59,649	-0,091	-0,029
-569,890	-200,000	-0,013	-0,059
-568,875	-42,510	-0,065	-0,024
-567,861	210,344	0,039	0,045
-566,846	-172,040	-0,016	0,000
-565,831	-85,083	-0,193	-0,044
-564,817	140,895	-0,066	-0,064
-563,802	-200,000	-0,003	0,073
-562,788	-22,003	-0,150	-0,067
-561,773	-200,000	0,012	0,071
-560,758	800,000	0,030	0,087
-559,744	654,595	-0,022	0,042
-558,729	800,000	0,038	0,110
-557,715	-188,244	-0,101	-0,001
-556,700	250,067	-0,075	0,093
-555,685	-8,834	0,059	0,029
-554,671	-40,955	0,084	-0,032
-553,656	800,000	0,033	0,073
-552,642	-169,465	0,072	0,002
-551,627	131,600	0,032	-0,030
-550,612	800,000	-0,023	-0,064
-549,598	-200,000	0,019	-0,082
-548,583	-43,058	0,037	0,014
-547,569	800,000	0,007	0,017
-546,554	146,386	-0,057	-0,056
-545,539	150,510	-0,098	0,098
-544,525	-106,601	0,064	0,010
-543,510	-16,788	-0,042	-0,019
-542,496	-123,441	-0,120	-0,014
-541,481	102,297	-0,079	-0,068
-540,466	-200,000	-0,027	-0,157
-539,452	-65,964	-0,074	-0,022
-538,437	130,205	0,134	-0,126
-537,423	-80,662	-0,046	0,011
-536,408	74,564	0,053	0,041
-535,393	-200,000	-0,022	0,236
-534,379	-111,385	-0,018	0,003
-533,364	5,474	0,128	0,069
-532,350	800,000	-0,022	0,071
-531,335	114,774	0,086	-0,078
-530,321	380,232	-0,021	-0,032
-529,306	-22,946	0,015	-0,007
-528,291	800,000	-0,023	0,051
-527,277	67,501	0,019	-0,014
-526,262	-66,813	0,107	-0,031
-525,248	-200,000	0,007	0,073
-524,233	-35,403	0,091	-0,036
-523,218	250,784	-0,073	0,091
-522,204	-131,420	-0,025	-0,002
-521,189	226,413	-0,023	0,028
-520,175	-200,000	-0,011	-0,062
-519,160	-126,561	-0,057	-0,006
-518,145	-103,428	0,036	0,006
-517,131	742,324	0,041	0,081
-516,116	23,725	-0,108	0,065
-515,102	-86,408	-0,166	-0,037
-514,087	706,146	0,041	-0,080
-513,072	196,558	-0,039	-0,043
-512,058	9,294	0,120	0,066
-511,043	489,252	-0,100	0,169
-510,029	-49,284	-0,065	0,023
-509,014	-200,000	0,032	0,137
-507,999	-200,000	0,010	0,117
-506,985	-172,129	-0,114	-0,003
-505,970	-200,000	-0,000	0,052
-504,956	630,091	0,016	-0,029
-503,941	-200,000	0,005	0,049
-502,926	-200,000	-0,016	-0,064
-501,912	800,000	-0,069	0,159
-500,897	-63,704	-0,091	0,027
-499,883	-118,986	-0,137	-0,017
-498,868	337,082	-0,105	-0,150
-497,853	335,669	-0,026	-0,038
-496,839	-200,000	0,011	-0,047
-495,824	48,480	0,048	0,033
-494,810	149,022	-0,087	0,087
-493,795	-141,307	-0,102	-0,008
-492,781	59,720	0,036	-0,026
-491,766	-99,823	0,027	-0,005
-490,751	-200,000	-0,008	0,067
-489,737	-200,000	-0,010	0,078
-488,722	-200,000	0,030	0,110
-487,708	-103,517	0,073	0,012
-486,693	800,000	0,030	0,097
-485,678	-200,000	0,022	0,097
-484,664	-6,749	-0,077	0,038
-483,649	596,661	0,036	-0,065
-482,635	800,000	0,036	-0,102
-481,620	-65,272	-0,118	0,035
-480,605	-76,370	0,075	0,019
-479,591	-200,000	-0,047	0,190
-478,576	222,166	0,063	0,075
-477,562	6,882	0,061	-0,033
-476,547	800,000	0,042	-0,093
-475,532	800,000	-0,063	-0,134
-474,518	800,000	-0,032	0,103
-473,503	20,299	0,072	0,043
-472,489	387,238	0,033	0,050
-471,474	-200,000	0,002	0,026
-470,459	81,674	0,072	0,058
-469,445	800,000	-0,041	-0,119
-468,430	-39,456	0,051	-0,019
-467,416	-48,858	-0,063	-0,022
-466,401	-200,000	-0,002	0,047
-465,386	-200,000	0,030	0,130
-464,372	93,405	-0,058	-0,048
-463,357	19,157	-0,052	-0,030
-462,343	140,839	-0,125	0,121
-461,328	-61,622	-0,103	0,032
-460,313	-200,000	0,010	0,104
-459,299	800,000	-0,007	-0,018
-458,284	-88,339	0,039	-0,008
-457,270	800,000	0,026	-0,075
-456,255	-88,681	-0,092	-0,020
-455,241	19,097	-0,027	0,016
-454,226	800,000	0,020	-0,048
-453,211	-200,000	-0,117	-0,000
-452,197	-200,000	0,021	-0,088
-451,182	-84,950	0,086	0,020
-450,168	-6,047	-0,016	-0,008
-449,153	800,000	-0,059	0,146
-448,138	800,000	-0,046	-0,093
-447,124	800,000	-0,046	-0,122
-446,109	625,449	-0,090	-0,167
-445,095	-102,172	-0,056	0,010
-444,080	-30,320	-0,092	0,038
-443,065	-53,115	0,066	0,022
-442,051	-200,000	-0,005	0,058
-441,036	-134,637	0,077	0,007
-440,022	179,162	-0,049	-0,053
-439,007	54,570	0,025	0,018
-437,992	774,482	0,029	0,059
-436,978	85,075	-0,030	0,024
-435,963	1,297	0,071	-0,038
-434,949	-144,962	0,183	-0,012
-433,934	-200,000	-0,013	-0,140
-432,919	-200,000	0,001	-0,044
-431,905	-66,609	0,161	-0,047
-430,890	-49,791	0,061	0,021
-429,876	-200,000	0,020	0,147
-428,861	800,000	0,046	-0,122
-427,846	114,000	0,033	0,030
-426,832	-83,934	-0,117	-0,027
-425,817	-200,000	0,015	-0,070
-424,803	-200,000	0,015	0,066
-423,788	132,414	0,022	-0,021
-422,773	37,173	-0,032	-0,021
-421,759	-48,262	0,051	-0,018
-420,744	200,687	-0,058	-0,065
-419,730	-200,000	-0,011	0,071
-418,715	-200,000	-0,003	0,012
-417,701	161,349	0,084	0,086
-416,686	458,267	-0,071	0,116
-415,671	-10,006	0,167	0,081
-414,657	-152,781	0,014	0,001
-413,642	-171,602	-0,107	0,003
-412,628	-200,000	0,013	0,053
-411,613	281,008	-0,067	-0,088
-410,598	180,051	-0,145	-0,156
-409,584	22,242	0,091	0,054
-408,569	-200,000	-0,012	0,047
-407,555	-200,000	0,026	0,135
-406,540	-93,087	0,088	-0,018
-405,525	-0,180	-0,070	-0,036
-404,511	202,097	0,087	-0,099
-403,496	-200,000	-0,005	-0,125
-402,482	-129,575	-0,188	0,019
-401,467	186,964	0,065	0,071
-400,452	-6,985	0,127	-0,063
-399,438	28,539	0,070	0,043
-398,423	-200,000	0,016	-0,105
-397,409	800,000	-0,034	-0,078
-396,394	-200,000	0,018	-0,067
-395,379	725,271	0,063	-0,123
-394,365	-99,634	-0,051	-0,009
-393,350	338,836	0,082	0,117
-392,336	800,000	-0,046	-0,136
-391,321	319,473	0,038	-0,053
-390,306	800,000	-0,059	-0,128
-389,292	466,401	-0,081	-0,133
-388,277	43,953	0,127	0,085
-387,263	131,929	0,101	0,095
-386,248	-168,188	0,161	-0,004
-385,233	-200,000	-0,033	0,177
-384,219	800,000	0,081	0,165
-383,204	-200,000	0,011	-0,043
-382,190	-200,000	-0,017	-0,085
-381,175	-200,000	-0,002	-0,072
-380,160	-47,079	0,085	0,030
-379,146	435,868	-0,076	-0,121
-378,131	150,459	-0,049	-0,048
-377,117	-60,179	-0,082	-0,025
-376,102	-70,888	0,028	0,008
-375,088	36,994	0,092	-0,059
-374,073	95,968	-0,042	0,035
-373,058	-187,803	-0,029	-0,000
-372,044	403,182	0,042	-0,065
-371,029	214,680	0,035	0,040
-370,015	-175,836	-0,093	0,002
-369,000	-7,262	-0,088	-0,044
-367,985	800,000	0,017	0,052
-366,971	-200,000	0,023	-0,127
-365,956	-183,528	-0,180	-0,002
-364,942	-200,000	0,009	0,082
-363,927	-1,306	-0,186	-0,096
-362,912	2,258	0,077	0,040
-361,898	596,585	-0,024	-0,044
-360,883	-200,000	-0,022	-0,120
-359,869	19,723	-0,063	0,037
-358,854	-104,811	0,190	0,032
-357,839	-200,000	0,002	0,035
-356,825	-106,833	0,034	0,005
-355,810	-57,424	-0,087	0,028
-354,796	800,000	-0,031	-0,087
-353,781	779,321	-0,070	-0,141
-352,766	-20,863	-0,039	-0,017
-351,752	-200,000	-0,031	-0,142
-350,737	234,029	0,126	0,152
-349,723	-200,000	-0,003	0,014
-348,708	289,896	0,086	-0,115
-347,693	-37,124	-0,085	0,033
-346,679	-24,425	0,021	-0,009
-345,664	800,000	0,054	-0,166
-344,650	93,580	0,064	-0,053
-343,635	-16,901	0,073	-0,034
-342,620	255,125	-0,037	0,046
-341,606	-39,532	0,041	0,016
-340,591	-200,000	0,001	0,066
-339,577	49,237	-0,060	0,041
-338,562	-200,000	-0,014	0,060
-337,548	110,226	-0,115	0,101
-336,533	196,048	0,043	-0,048
-335,518	249,091	-0,054	0,067
-334,504	-65,257	-0,022	-0,007
-333,489	176,096	-0,099	-0,105
-332,475	-200,000	0,036	-0,125
-331,460	5,568	-0,007	-0,004
-330,445	-64,574	-0,010	0,003
-329,431	-174,114	0,189	-0,004
-328,416	264,606	0,082	0,105
-327,402	-200,000	0,001	0,003
-326,387	800,000	0,051	-0,149
-325,372	800,000	-0,076	-0,210
-324,358	72,264	-0,082	-0,062
-323,343	-200,000	-0,000	0,048
-322,329	181,677	0,027	-0,029
-321,314	-148,524	0,036	-0,002
-320,299	191,496	-0,077	0,085
-319,285	73,995	0,107	0,082
-318,270	800,000	0,046	-0,138
-317,256	789,175	-0,032	0,064
-316,241	-57,341	-0,041	0,013
-315,226	-14,871	0,020	-0,010
-314,212	99,090	0,137	-0,116
-313,197	244,802	0,039	0,047
-312,183	800,000	0,047	0,118
-311,168	-4,182	0,130	-0,065
-310,153	-44,679	0,110	-0,040
-309,139	444,568	-0,019	0,030
-308,124	130,730	-0,060	-0,056
-307,110	-200,000	0,024	0,113
-306,095	521,778	-0,065	0,112
-305,080	68,228	0,063	0,047
-304,066	-81,354	0,054	0,013
-303,051	-76,908	-0,044	0,011
-302,037	-40,117	-0,117	0,044
-301,022	-154,991	0,104	0,005
-300,008	-200,000	0,011	0,068
-298,993	-77,520	0,091	-0,023
-297,978	-200,000	-0,028	0,104
-296,964	-142,671	-0,133	-0,009
-295,949	-88,075	-0,144	0,031
-294,935	26,306	0,037	-0,022
-293,920	134,229	0,109	-0,103
-292,905	-143,191	0,170	0,012
-291,891	43,577	-0,112	-0,074
-290,876	562,713	-0,055	-0,098
-289,862	92,639	0,105	0,086
-288,847	800,000	-0,030	0,088
-287,832	-162,546	-0,145	0,005
-286,818	-5,536	-0,006	0,003
-285,803	-200,000	-0,002	-0,096
-284,789	601,513	0,066	0,121
-283,774	30,004	-0,057	0,035
-282,759	-122,235	-0,035	0,004
-281,745	-200,000	0,013	-0,043
-280,730	31,636	-0,172	-0,107
-279,716	-200,000	0,045	-0,253
-278,701	156,384	0,031	0,031
-277,686	171,612	0,107	0,112
-276,672	51,004	-0,085	0,059
-275,657	378,489	0,019	0,028
-274,643	751,452	0,018	-0,035
-273,628	435,613	-0,046	0,073
-272,613	800,000	0,014	-0,029
-271,599	448,919	0,086	-0,139
-270,584	-34,236	-0,009	0,004
-269,570	116,508	0,035	-0,031
-268,555	-61,958	0,076	-0,023
-267,540	-75,638	-0,075	-0,019
-266,526	-200,000	-0,030	-0,152
-265,511	111,446	0,093	-0,082
-264,497	351,072	0,039	-0,056
-263,482	-88,951	-0,114	0,024
-262,467	-122,136	0,064	0,008
-261,453	470,568	0,062	0,102
-260,438	-200,000	0,005	-0,028
-259,424	24,418	0,029	-0,017
-258,409	-200,000	-0,034	-0,126
-257,395	-94,305	-0,058	-0,011
-256,380	166,948	-0,135	0,140
-255,365	-138,417	0,126	-0,010
-254,351	16,997	-0,057	0,033
-253,336	-89,581	-0,048	-0,010
-252,322	-174,942	-0,138	0,003
-251,307	-123,648	-0,072	-0,008
-250,292	800,000	-0,062	0,137
-249,278	-200,000	0,008	0,039
-248,263	800,000	-0,021	-0,049
-247,249	57,714	-0,020	0,014
-246,234	220,868	0,080	-0,094
-245,219	767,543	-0,071	-0,142
-244,205	-42,138	0,109	-0,040
-243,190	-96,794	-0,097	0,018
-242,176	-122,741	0,048	-0,006
-241,161	-82,350	0,053	0,012
-240,146	276,483	0,089	0,115
-239,132	495,413	0,060	-0,100
-238,117	-200,000	0,049	-0,233
-237,103	67,699	-0,061	-0,046
-236,088	-82,499	-0,057	-0,013
-235,073	-52,515	-0,055	-0,018
-234,059	800,000	0,038	-0,089
-233,044	126,581	0,050	0,046
-232,030	86,483	0,024	-0,019
-231,015	-92,435	-0,129	-0,026
-230,000	443,454	0,020	0,032
-228,986	800,000	-0,017	-0,044
-227,971	192,570	0,052	-0,057
-226,957	800,000	0,037	0,080
-225,942	-57,498	0,124	0,039
-224,927	455,964	-0,051	-0,082
-223,913	-200,000	-0,002	0,044
-222,898	-30,507	-0,145	-0,059
-221,884	195,776	0,033	0,037
-220,869	-200,000	-0,029	0,158
-219,855	800,000	0,078	0,171
-218,840	-200,000	0,034	0,135
-217,825	-200,000	-0,014	0,163
-216,811	-200,000	0,034	-0,119
-215,796	-200,000	0,025	-0,109
-214,782	-200,000	-0,001	0,048
-213,767	800,000	0,066	-0,164
-212,752	-200,000	-0,003	0,100
-211,738	-143,991	0,028	-0,002
-210,723	-146,716	0,121	-0,008
-209,709	-137,212	-0,104	-0,008
-208,694	-200,000	0,000	0,022
-207,679	-200,000	0,017	-0,106
-206,665	-200,000	-0,007	0,073
-205,650	-70,521	0,111	0,030
-204,636	-200,000	0,058	0,218
-203,621	-200,000	0,011	0,073
-202,606	100,893	-0,088	-0,074
-201,592	-200,000	-0,003	-0,019
-200,577	1,807	0,077	0,040
-199,563	-200,000	0,001	0,187
-198,548	259,339	-0,031	0,039
-197,533	69,443	0,119	0,089
-196,519	-15,307	0,065	0,030
-195,504	582,233	-0,120	-0,215
-194,490	800,000	-0,045	-0,103
-193,475	57,042	0,062	-0,044
-192,460	-53,774	0,140	0,046
-191,446	9,493	-0,024	-0,013
-190,431	-200,000	0,033	0,116
-189,417	116,157	-0,045	-0,040
-188,402	-43,457	-0,099	0,036
-187,387	-79,758	-0,034	-0,008
-186,373	-200,000	-0,034	0,171
-185,358	-200,000	0,004	0,031
-184,344	-175,680	0,071	-0,001
-183,329	512,112	0,085	0,145
-182,315	-140,173	-0,140	0,011
-181,300	-34,520	0,113	-0,045
-180,285	-181,277	0,058	0,001
-179,271	-200,000	-0,018	0,065
-178,256	-81,397	0,076	-0,018
-177,242	-90,016	-0,009	-0,002
-176,227	160,343	0,022	0,022
-175,212	314,100	0,027	-0,036
-174,198	-31,231	-0,051	-0,021
-173,183	800,000	0,041	0,090
-172,169	58,134	0,091	-0,065
-171,154	-99,199	0,104	0,019
-170,139	-96,254	0,040	-0,008
-169,125	-0,745	-0,060	0,031
-168,110	800,000	-0,048	-0,103
-167,096	-200,000	-0,017	0,086
-166,081	-200,000	0,016	0,120
-165,066	800,000	-0,030	-0,084
-164,052	-200,000	-0,013	-0,157
-163,037	126,482	-0,062	0,057
-162,023	94,680	0,062	-0,051
-161,008	339,149	0,035	0,050
-159,993	179,921	-0,172	0,183
-158,979	-200,000	0,047	-0,162
-157,964	-126,566	-0,046	-0,005
-156,950	-152,448	0,098	-0,005
-155,935	296,703	0,037	-0,050
-154,920	52,614	-0,053	-0,037
-153,906	21,677	0,198	0,117
-152,891	-200,000	0,023	0,191
-151,877	800,000	-0,050	0,132
-150,862	106,252	-0,132	-0,113
-149,847	-200,000	0,001	-0,056
-148,833	239,705	-0,104	-0,126
-147,818	171,419	0,086	0,089
-146,804	-200,000	0,053	0,193
-145,789	-200,000	0,022	-0,100
-144,775	-200,000	-0,019	0,147
-143,760	-153,956	0,117	-0,006
-142,745	-200,000	0,013	-0,089
-141,731	-4,032	-0,081	-0,041
-140,716	800,000	0,077	0,155
-139,702	-200,000	-0,024	0,078
-138,687	-63,794	-0,086	0,025
-137,672	50,359	-0,030	-0,021
-136,658	800,000	0,050	-0,122
-135,643	66,552	-0,077	-0,056
-134,629	-200,000	0,012	-0,037
-133,614	-130,733	0,090	0,009
-132,599	521,045	0,064	0,110
-131,585	224,782	0,048	-0,057
-130,570	-104,486	0,119	-0,020
-129,556	-31,796	-0,130	0,053
-128,541	-11,174	0,013	0,006
-127,526	615,418	0,061	0,111
-126,512	284,678	0,046	0,061
-125,497	-200,000	0,017	0,065
-124,483	364,785	0,036	0,052
-123,468	426,048	-0,071	-0,110
-122,453	-200,000	-0,001	0,011
-121,439	-125,370	-0,169	-0,018
-120,424	-183,435	0,110	0,001
-119,410	-73,253	-0,022	-0,006
-118,395	433,127	0,032	0,050
-117,380	800,000	0,029	0,087
-116,366	800,000	0,007	-0,021
-115,351	392,522	0,007	0,010
-114,337	710,736	0,026	-0,049
-113,322	191,426	-0,094	-0,103
-112,307	335,579	0,080	0,113
-111,293	-46,791	0,072	-0,025
-110,278	-89,518	0,055	-0,012
-109,264	-141,366	-0,107	-0,008
-108,249	596,735	-0,117	-0,210
-107,234	-81,100	-0,097	0,023
-106,220	-200,000	0,002	-0,112
-105,205	-122,069	-0,083	-0,010
-104,191	-200,000	-0,000	-0,121
-103,176	95,291	-0,044	-0,036
-102,162	800,000	-0,041	0,106
-101,147	329,277	0,037	-0,052
-100,132	315,538	0,047	-0,065
-99,118	-113,978	-0,051	0,007
-98,103	-130,720	-0,023	-0,002
-97,089	16,574	0,116	-0,066
-96,074	-200,000	0,025	0,140
-95,059	-200,000	-0,024	0,164
-94,045	29,902	-0,021	-0,013
-93,030	28,655	-0,022	-0,014
-92,016	717,683	0,052	-0,100
-91,001	189,353	0,063	0,068
-89,986	-2,750	0,099	0,050
-88,972	82,240	-0,041	0,032
-87,957	-200,000	-0,026	0,088
-86,943	102,995	-0,050	0,043
-85,928	-81,353	0,076	-0,018
-84,913	143,972	-0,096	-0,093
-83,899	492,455	0,092	0,152
-82,884	-139,571	-0,055	-0,004
-81,870	181,484	0,035	0,037
-80,855	800,000	0,043	0,110
-79,840	170,485	0,074	0,077
-78,826	-200,000	-0,011	0,037
-77,811	600,106	-0,051	0,091
-76,797	-80,897	-0,025	-0,006
-75,782	259,508	0,055	-0,068
-74,767	93,093	-0,060	0,049
-73,753	800,000	-0,073	0,185
-72,738	367,273	0,093	0,136
-71,724	65,928	0,023	0,017
-70,709	64,718	-0,047	0,034
-69,694	567,873	-0,051	-0,090
-68,680	-200,000	0,032	-0,102
-67,665	-46,217	-0,105	-0,037
-66,651	-79,276	0,123	-0,030
-65,636	324,711	0,078	-0,108
-64,622	-108,110	-0,126	0,019
-63,607	231,320	0,033	0,039
-62,592	-132,065	0,030	-0,003
-61,578	58,468	-0,025	0,018
-60,563	260,094	0,063	0,078
-59,549	121,034	0,078	0,070
-58,534	-18,149	-1,627	-0,732
-57,519	800,000	-0,476	-1,222
-56,505	-200,000	-0,998	-4,602
-55,490	-84,433	0,629	0,142
-54,476	800,000	5,365	12,179
-53,461	-200,000	15,797	278,932
-52,446	-200,000	702,614	2250,020
-51,432	566,050	1618,492	2846,463
-50,417	122,213	1622,802	1463,636
-49,403	83,028	1284,003	1007,836
-48,388	36,928	1028,414	655,361
-47,373	21,528	990,237	580,092
-46,359	20,463	978,924	569,931
-45,344	18,738	974,752	561,805
-44,330	18,780	973,558	561,233
-43,315	18,517	971,693	559,273
-42,300	18,443	970,746	558,461
-41,286	18,525	969,704	558,108
-40,271	18,483	968,693	557,367
-39,257	18,480	968,025	556,950
-38,242	18,515	967,227	556,585
-37,227	18,478	966,514	556,032
-36,213	18,465	965,620	555,452
-35,198	18,398	964,701	554,683
-34,184	18,523	963,869	554,590
-33,169	18,451	963,136	553,913
-32,154	18,430	962,245	553,308
-31,140	18,508	961,232	552,958
-30,125	18,506	960,670	552,606
-29,111	18,535	959,681	552,108
-28,096	18,554	959,020	551,770
-27,082	18,561	958,243	551,321
-26,067	18,501	957,628	550,751
-25,052	18,443	956,695	550,007
-24,038	18,449	956,018	549,616
-23,023	18,460	955,453	549,304
-22,009	18,498	954,771	549,014
-20,994	18,468	954,186	548,559
-19,979	18,483	953,589	548,242
-18,965	18,485	953,063	547,925
-17,950	18,471	952,237	547,382
-16,936	18,458	951,498	546,892
-15,921	18,411	950,879	546,367
-14,906	18,346	950,231	545,764
-13,892	18,386	949,625	545,520
-12,877	18,282	948,991	544,803
-11,863	18,293	948,458	544,511
-10,848	18,294	947,913	544,178
-9,833	18,508	947,314	544,495
-8,819	18,411	946,789	543,863
-7,804	18,337	946,113	543,217
-6,790	18,322	945,525	542,812
-5,775	18,416	944,789	542,668
-4,760	18,317	944,316	542,059
-3,746	18,351	943,576	541,719
-2,731	18,237	942,795	540,886
-1,717	18,235	942,108	540,466
-0,702	18,190	941,430	539,912
0,313	17,965	941,012	539,774
1,327	21,092	939,084	548,523
2,342	30,280	796,419	489,671
3,356	27,049	449,718	271,628
4,371	-2,665	295,659	148,748
5,386	-6,668	276,813	135,447
6,400	-8,069	271,152	131,359
7,415	-8,302	268,712	129,949
8,429	-8,002	267,482	129,619
9,444	-8,221	266,738	129,045
10,459	-8,228	266,181	128,758
11,473	-8,259	265,393	128,337
12,488	-8,321	264,965	128,063
13,502	-8,550	264,409	127,574
14,517	-8,552	263,977	127,352
15,531	-8,321	263,535	127,337
16,546	-8,445	263,214	127,059
17,561	-8,539	262,918	126,820
18,575	-8,259	262,403	126,813
19,590	-8,395	261,953	126,461
20,604	-8,331	261,715	126,393
21,619	-8,298	261,424	126,271
22,634	-8,349	261,126	126,070
23,648	-8,447	260,794	125,810
24,663	-8,571	260,697	125,641
25,677	-8,609	260,304	125,407
26,692	-8,618	260,031	125,256
27,707	-8,461	259,829	125,287
28,721	-8,372	259,505	125,199
29,736	-8,483	259,141	124,914
30,750	-8,620	258,969	124,698
31,765	-8,591	258,786	124,624
32,780	-8,653	258,660	124,497
33,794	-8,488	258,273	124,446
34,809	-8,513	258,008	124,286
35,823	-8,615	257,906	124,135
36,838	-8,641	257,602	123,955
37,853	-8,560	257,339	123,888
38,867	-8,626	257,009	123,660
39,882	-8,736	256,897	123,498
40,896	-8,751	256,618	123,340
41,911	-8,628	256,400	123,333
42,926	-8,656	256,168	123,186
43,940	-8,682	255,951	123,047
44,955	-8,685	255,591	122,860
45,969	-8,808	255,467	122,682
46,984	-9,004	255,224	122,383
47,999	-9,159	254,976	122,117
49,013	-9,209	254,588	121,877
50,028	-9,131	254,306	121,800
51,042	-9,491	254,190	121,419
52,057	-9,518	254,034	121,310
53,071	-9,522	253,790	121,179
54,086	-9,439	253,652	121,175
55,101	-9,384	253,471	121,125
56,115	-8,915	253,332	121,456
57,130	-8,435	253,325	121,858
58,144	-8,343	253,043	121,791
59,159	-8,227	252,902	121,813
60,174	-8,183	252,542	121,667
61,188	-8,145	252,332	121,587
62,203	-8,354	252,312	121,386
63,217	-8,499	252,071	121,134
64,232	-8,445	251,822	121,051
65,247	-8,186	251,528	121,122
66,261	-8,286	251,224	120,879
67,276	-8,637	250,952	120,435
68,290	-8,984	250,835	120,070
69,305	-8,898	250,569	120,006
70,320	-8,771	250,326	119,987
71,334	-8,719	250,251	119,986
72,349	-8,400	250,097	120,174
73,363	-8,289	249,867	120,148
74,378	-8,452	249,666	119,901
75,393	-8,387	249,408	119,823
76,407	-8,431	249,330	119,737
77,422	-8,523	249,112	119,542
78,436	-8,389	248,848	119,519
79,451	-8,529	248,675	119,307
80,466	-8,641	248,510	119,121
81,480	-8,679	248,133	118,898
82,495	-8,769	248,106	118,798
83,509	-8,679	247,793	118,714
84,524	-8,842	247,589	118,467
85,539	-9,029	247,467	118,240
86,553	-9,078	247,180	118,051
87,568	-8,988	247,129	118,093
88,582	-8,831	246,797	118,056
89,597	-8,823	246,570	117,944
90,611	-8,606	246,477	118,071
91,626	-8,512	246,389	118,097
92,641	-8,454	246,264	118,076
93,655	-8,481	245,876	117,857
94,670	-8,651	245,650	117,595
95,684	-8,712	245,721	117,567
96,699	-8,662	245,328	117,411
97,714	-8,745	245,090	117,217
98,728	-8,837	244,976	117,075
99,743	-8,966	244,787	116,867
100,757	-8,728	244,434	116,886
101,772	-8,926	244,458	116,722
102,787	-9,029	244,227	116,516
103,801	-8,705	244,024	116,678
104,816	-8,714	243,953	116,626
105,830	-8,534	243,831	116,707
106,845	-8,558	243,675	116,603
107,860	-8,516	243,449	116,519
108,874	-8,769	243,122	116,142
109,889	-8,823	242,996	116,027
110,903	-8,953	242,831	115,829
111,918	-8,891	242,550	115,737
112,933	-8,863	242,408	115,682
113,947	-8,768	242,292	115,695
114,962	-8,781	242,134	115,598
115,976	-8,481	241,853	115,701
116,991	-8,735	241,737	115,426
118,006	-8,683	241,620	115,403
119,020	-8,642	241,459	115,349
120,035	-8,660	241,405	115,298
121,049	-8,456	241,276	115,394
122,064	-8,603	240,984	115,123
123,079	-8,747	240,837	114,925
124,093	-8,713	240,506	114,784
125,108	-9,119	240,346	114,365
126,122	-9,049	240,142	114,315
127,137	-9,208	239,880	114,050
128,151	-9,100	239,868	114,123
129,166	-8,950	239,603	114,109
130,181	-8,962	239,594	114,085
131,195	-9,065	239,220	113,812
132,210	-9,035	239,215	113,824
133,224	-8,656	238,950	113,996
134,239	-8,399	238,799	114,123
135,254	-8,680	238,605	113,792
136,268	-8,940	238,287	113,419
137,283	-8,942	238,098	113,318
138,297	-9,097	237,923	113,099
139,312	-9,080	237,751	113,021
140,327	-8,846	237,780	113,214
141,341	-8,403	237,789	113,566
142,356	-8,293	237,482	113,499
143,370	-8,439	237,516	113,387
144,385	-8,223	237,258	113,428
145,400	-8,225	237,077	113,330
146,414	-8,284	236,857	113,167
147,429	-8,360	236,755	113,046
148,443	-8,339	236,511	112,937
149,458	-8,481	236,300	112,712
150,473	-8,440	236,106	112,642
151,487	-8,379	236,007	112,634
152,502	-8,378	235,842	112,546
153,516	-8,195	235,683	112,607
154,531	-8,353	235,539	112,402
155,546	-8,319	235,309	112,308
156,560	-8,430	234,933	112,031
157,575	-8,590	234,868	111,862
158,589	-8,801	234,798	111,650
159,604	-8,322	234,693	111,972
160,619	-8,210	234,570	111,993
161,633	-8,090	234,350	111,973
162,648	-8,206	234,169	111,784
163,662	-8,311	234,091	111,654
164,677	-8,405	233,921	111,488
165,692	-8,262	233,769	111,520
166,706	-8,084	233,655	111,596
167,721	-7,965	233,488	111,601
168,735	-8,060	233,344	111,447
169,750	-8,203	233,274	111,290
170,764	-8,077	232,936	111,219
171,779	-8,217	232,806	111,036
172,794	-8,089	232,683	111,069
173,808	-8,490	232,554	110,681
174,823	-8,707	232,031	110,251
175,837	-9,089	232,031	109,940
176,852	-8,614	231,942	110,262
177,867	-8,261	231,970	110,544
178,881	-8,081	231,716	110,554
179,896	-8,164	231,609	110,428
180,910	-8,206	231,421	110,295
181,925	-8,288	231,292	110,160
182,940	-8,258	231,224	110,141
183,954	-8,198	231,052	110,097
184,969	-8,286	230,849	109,921
185,983	-8,051	230,630	109,990
186,998	-8,062	230,587	109,952
188,013	-7,927	230,468	109,990
189,027	-8,279	230,164	109,562
190,042	-8,132	230,113	109,642
191,056	-8,025	229,852	109,591
192,071	-8,115	229,712	109,445
193,086	-8,033	229,590	109,441
194,100	-8,101	229,403	109,288
195,115	-8,316	229,019	108,929
196,129	-8,867	228,872	108,423
197,144	-4,118	230,554	112,912
198,159	1,458	232,025	117,985
199,173	3,369	232,344	119,630
200,188	3,345	232,449	119,655
201,202	3,578	232,298	119,748
202,217	3,865	232,209	119,916
203,232	3,926	231,934	119,811
204,246	3,997	231,940	119,859
205,261	4,101	231,775	119,843
206,275	4,372	231,815	120,064
207,290	4,276	231,630	119,883
208,304	4,350	231,416	119,819
209,319	4,305	231,044	119,581
210,334	4,131	231,037	119,431
211,348	3,950	230,787	119,152
212,363	3,540	230,537	118,695
213,377	3,159	230,265	118,250
214,392	3,138	230,183	118,181
215,407	3,336	230,096	118,278
216,421	3,126	230,068	118,091
217,436	3,347	229,691	118,058
218,450	3,225	229,483	117,846
219,465	3,242	229,369	117,790
220,480	3,116	229,172	117,582
221,494	3,043	229,106	117,481
222,509	3,359	228,950	117,633
223,523	3,482	228,734	117,606
224,538	3,250	228,798	117,451
225,553	3,358	228,526	117,384
226,567	3,328	228,469	117,321
227,582	3,686	228,402	117,550
228,596	3,733	228,330	117,538
229,611	3,524	228,126	117,263
230,626	3,270	227,673	116,826
231,640	3,354	227,569	116,826
232,655	3,549	227,512	116,935
233,669	4,144	227,478	117,361
234,684	3,899	227,350	117,098
235,699	3,603	227,165	116,766
236,713	3,612	227,026	116,692
237,728	3,596	226,701	116,503
238,742	3,213	226,567	116,132
239,757	3,300	226,432	116,119
240,772	3,301	226,221	116,001
241,786	3,260	226,143	115,919
242,801	3,513	226,063	116,060
243,815	3,638	226,008	116,116
244,830	3,529	225,953	115,995
245,844	3,372	225,581	115,674
246,859	3,710	225,351	115,802
247,874	3,641	225,267	115,696
248,888	3,532	225,233	115,586
249,903	3,557	225,055	115,503
250,917	3,439	224,858	115,303
251,932	3,414	224,627	115,155
252,947	3,288	224,423	114,946
253,961	3,214	224,478	114,908
254,976	3,434	224,247	114,945
255,990	3,449	224,217	114,930
257,005	3,603	224,102	114,977
258,020	3,661	223,869	114,890
259,034	3,746	223,848	114,933
260,049	3,680	223,790	114,844
261,063	3,499	223,556	114,578
262,078	3,706	223,368	114,626
263,093	3,580	223,283	114,478
264,107	3,892	223,004	114,558
265,122	3,665	222,817	114,282
266,136	3,705	222,821	114,304
267,151	3,858	222,710	114,350
268,166	3,418	222,429	113,868
269,180	3,204	222,224	113,595
270,195	3,220	222,029	113,497
271,209	3,223	221,858	113,402
272,224	3,401	221,848	113,518
273,239	3,727	221,565	113,604
274,253	3,452	221,519	113,367
275,268	3,344	221,300	113,166
276,282	3,178	221,074	112,917
277,297	3,128	220,957	112,811
278,312	3,066	220,937	112,744
279,326	3,295	220,860	112,865
280,341	3,416	220,713	112,868
281,355	3,551	220,559	112,879
282,370	3,231	220,414	112,559
283,384	3,141	220,261	112,404
284,399	3,005	220,030	112,177
285,414	3,062	220,008	112,197
286,428	3,307	219,848	112,286
287,443	3,508	219,797	112,397
288,457	3,399	219,643	112,229
289,472	3,319	219,198	111,932
290,487	3,144	219,122	111,756
291,501	2,670	219,014	111,344
292,516	2,916	218,699	111,354
293,530	3,181	218,736	111,556
294,545	3,091	218,695	111,460
295,560	3,455	218,467	111,598
296,574	3,302	218,388	111,437
297,589	3,383	218,249	111,415
298,603	3,584	218,205	111,529
299,618	3,373	218,120	111,322
300,633	3,531	217,902	111,315
301,647	3,536	217,872	111,293
302,662	3,585	217,658	111,210
303,676	3,615	217,628	111,207
304,691	3,618	217,410	111,087
305,706	3,803	217,173	111,090
306,720	3,643	217,139	110,947
307,735	3,431	216,876	110,650
308,749	3,135	216,735	110,354
309,764	3,479	216,571	110,509
310,779	3,589	216,611	110,599
311,793	3,277	216,269	110,190
312,808	3,461	216,225	110,290
313,822	3,408	216,095	110,175
314,837	3,427	215,919	110,090
315,852	3,292	215,900	109,973
316,866	3,204	215,872	109,886
317,881	3,475	215,605	109,934
318,895	3,668	215,445	109,982
319,910	3,235	215,340	109,608
320,925	3,053	214,975	109,283
321,939	2,998	214,766	109,127
322,954	3,008	214,738	109,110
323,968	3,319	214,872	109,391
324,983	3,702	214,576	109,504
325,997	3,837	214,521	109,562
327,012	3,403	214,363	109,162
328,027	3,490	214,150	109,106
329,041	3,678	214,155	109,233
330,056	3,555	214,161	109,139
331,070	3,583	213,685	108,906
332,085	3,105	213,616	108,522
333,100	3,198	213,574	108,557
334,114	3,467	213,402	108,651
335,129	3,418	213,171	108,488
336,143	3,311	213,079	108,356
337,158	3,115	212,995	108,165
338,173	3,215	212,782	108,118
339,187	3,002	212,623	107,877
340,202	2,952	212,283	107,660
341,216	3,183	212,261	107,802
342,231	3,179	212,189	107,753
343,246	3,024	212,099	107,589
344,260	3,103	212,029	107,599
345,275	3,320	211,772	107,611
346,289	3,181	211,821	107,529
347,304	3,469	211,601	107,610
348,319	3,247	211,398	107,341
349,333	3,360	211,341	107,382
350,348	3,343	211,167	107,272
351,362	3,548	211,187	107,416
352,377	3,762	210,966	107,444
353,392	3,571	210,786	107,209
354,406	3,490	210,683	107,091
355,421	194,625	1344,221	1428,134
356,435	155,390	1482,362	1428,173
