DTS Sentinel unit serial number:	SN410029Multiplexer serial number:	ORYXHardware model number:	OX2-SRSoftware version number:	ORYX F/W v4,00 Oryx Data Collector v3.7.2.0data status	okinstallation	B6 Nyhavnadifferential loss correction	single-endedforward channel	channel 2reverse channel	N/Adate	2023/12/09time	11:00:08forward acquisition time	300,00reverse acquisition time	0,00gamma	499,1914k internal	0,3139k external	0,3139temperature offset calibration	1,0000default loss term (dB/km)	0,3820temperature slope calibration	1,0000multiplexer offset coefficient	1,0000multiplexer slope coefficient	1,0000fibre end	0,00T internal ref (°C)	18,68T ext. ref 1 (°C)	2,52T ext. ref 2 (°C)	2,51length (m)	temperature (°C)	Stokes	anti-Stokes-744,400	800,000	0,067	-0,152
-743,385	-113,098	-0,292	-0,042
-742,371	800,000	0,048	0,117
-741,356	-200,000	-0,069	0,000
-740,342	-200,000	-0,014	0,094
-739,327	-124,568	-0,300	-0,034
-738,312	-38,283	0,033	0,013
-737,298	-84,046	-0,241	-0,056
-736,283	-200,000	0,003	-0,098
-735,269	-18,190	-0,172	0,080
-734,254	-6,062	0,123	0,062
-733,239	-138,501	-0,486	-0,039
-732,225	-75,659	0,269	0,070
-731,210	-47,332	0,118	0,042
-730,196	21,933	-0,122	-0,074
-729,181	-200,000	0,044	-0,153
-728,167	-117,692	0,208	-0,027
-727,152	800,000	0,031	0,071
-726,137	-18,979	0,101	0,046
-725,123	-159,768	-0,174	-0,007
-724,108	-200,000	0,042	-0,148
-723,094	2,132	-0,075	-0,040
-722,079	-71,567	-0,060	0,016
-721,064	-49,533	-0,036	0,013
-720,050	-160,313	0,036	0,001
-719,035	800,000	0,046	-0,110
-718,021	-118,923	-0,273	-0,035
-717,006	-118,397	0,116	-0,015
-715,991	595,595	-0,060	-0,110
-714,977	-200,000	-0,005	-0,084
-713,962	-171,522	0,072	-0,002
-712,948	800,000	0,038	0,084
-711,933	503,833	-0,016	0,027
-710,918	562,905	-0,039	0,071
-709,904	-91,957	-0,056	-0,012
-708,889	793,194	0,008	-0,017
-707,875	454,687	-0,051	-0,084
-706,860	-200,000	0,015	-0,059
-705,845	-31,373	-0,080	0,033
-704,831	-108,530	0,124	-0,020
-703,816	-3,184	-0,086	0,044
-702,802	-49,538	0,032	-0,011
-701,787	213,571	-0,027	-0,031
-700,772	-200,000	0,001	-0,067
-699,758	6,474	-0,056	-0,031
-698,743	47,523	0,019	0,013
-697,729	-1,912	-0,112	0,058
-696,714	-200,000	0,021	-0,125
-695,699	79,689	0,127	0,101
-694,685	551,720	-0,034	-0,060
-693,670	232,445	-0,135	-0,165
-692,656	800,000	0,032	0,092
-691,641	800,000	-0,041	0,129
-690,627	800,000	-0,045	-0,099
-689,612	6,816	-0,030	-0,017
-688,597	-123,890	-0,100	0,011
-687,583	800,000	0,017	-0,040
-686,568	723,120	0,036	0,071
-685,554	549,187	-0,074	-0,132
-684,539	347,567	-0,095	-0,139
-683,524	-2,272	0,033	-0,017
-682,510	132,731	0,039	0,037
-681,495	-11,584	0,082	0,040
-680,481	15,867	0,044	0,025
-679,466	121,846	0,050	-0,046
-678,451	800,000	-0,046	0,106
-677,437	-69,612	-0,136	0,038
-676,422	-200,000	-0,002	0,094
-675,408	800,000	-0,019	-0,061
-674,393	70,439	-0,066	0,050
-673,378	189,255	-0,024	-0,027
-672,364	800,000	-0,042	-0,099
-671,349	-85,612	-0,054	-0,012
-670,335	800,000	0,035	0,075
-669,320	181,606	-0,094	-0,102
-668,305	-200,000	0,015	-0,094
-667,291	186,565	-0,067	-0,074
-666,276	-1,094	-0,076	-0,040
-665,262	-73,004	-0,150	-0,040
-664,247	253,438	0,020	-0,025
-663,232	-200,000	-0,013	-0,121
-662,218	-89,492	-0,135	-0,029
-661,203	243,794	-0,096	-0,120
-660,189	7,991	-0,109	0,061
-659,174	378,110	-0,086	-0,130
-658,159	-60,913	-0,112	0,035
-657,145	-200,000	-0,013	-0,099
-656,130	-89,295	0,019	0,004
-655,116	-96,887	0,118	0,023
-654,101	221,626	0,082	0,097
-653,086	-147,011	-0,146	-0,009
-652,072	334,573	-0,025	-0,036
-651,057	-50,396	0,152	-0,053
-650,043	-31,033	-0,167	-0,070
-649,028	626,861	-0,069	0,128
-648,014	-108,796	0,093	0,015
-646,999	-200,000	-0,003	0,025
-645,984	-200,000	-0,041	-0,137
-644,970	-200,000	-0,008	-0,037
-643,955	-30,030	0,107	0,045
-642,941	205,958	-0,045	-0,052
-641,926	-200,000	-0,017	-0,118
-640,911	-17,277	0,059	0,027
-639,897	-1,951	-0,102	0,053
-638,882	-9,621	0,038	0,018
-637,868	61,122	-0,101	0,074
-636,853	-35,410	-0,092	0,037
-635,838	58,128	0,013	-0,009
-634,824	779,609	-0,047	0,095
-633,809	2,923	0,093	-0,050
-632,795	-9,540	0,091	0,045
-631,780	147,857	0,090	0,090
-630,765	77,710	0,139	-0,109
-629,751	-200,000	0,000	-0,133
-628,736	168,752	0,088	-0,093
-627,722	775,444	-0,071	-0,145
-626,707	-38,678	0,182	-0,070
-625,692	490,105	0,039	0,066
-624,678	646,563	0,080	0,151
-623,663	800,000	-0,081	0,184
-622,649	62,352	-0,102	-0,075
-621,634	-56,781	0,018	0,006
-620,619	800,000	0,066	-0,158
-619,605	-156,241	0,051	0,002
-618,590	58,090	-0,049	-0,035
-617,576	150,376	0,086	-0,086
-616,561	-200,000	0,008	-0,052
-615,546	191,481	0,026	-0,029
-614,532	67,265	-0,123	-0,093
-613,517	-70,293	-0,054	-0,015
-612,503	-143,478	0,107	-0,007
-611,488	527,181	0,069	-0,121
-610,474	-143,831	0,187	0,013
-609,459	190,013	-0,024	0,026
-608,444	403,473	0,024	0,037
-607,430	323,706	0,041	-0,058
-606,415	-200,000	0,000	-0,049
-605,401	800,000	-0,004	-0,010
-604,386	-120,118	-0,054	0,007
-603,371	800,000	-0,031	0,065
-602,357	162,194	0,142	0,147
-601,342	120,513	-0,098	-0,090
-600,328	57,928	-0,044	0,031
-599,313	-46,849	-0,161	-0,058
-598,298	-200,000	0,011	-0,068
-597,284	20,214	0,022	-0,013
-596,269	-200,000	-0,006	-0,083
-595,255	-200,000	-0,011	0,058
-594,240	1,104	-0,109	-0,058
-593,225	-57,933	-0,094	-0,030
-592,211	-168,723	-0,146	-0,004
-591,196	-200,000	-0,015	0,099
-590,182	-72,111	-0,093	0,025
-589,167	298,634	0,041	0,056
-588,152	38,652	-0,110	-0,072
-587,138	800,000	-0,024	0,054
-586,123	639,795	-0,047	-0,089
-585,109	-76,002	-0,096	-0,025
-584,094	-130,290	-0,104	-0,010
-583,079	141,261	-0,088	-0,086
-582,065	484,164	-0,022	0,037
-581,050	-200,000	-0,004	0,033
-580,036	-53,349	0,083	-0,028
-579,021	-15,297	-0,039	-0,018
-578,006	52,382	-0,096	0,068
-576,992	-122,362	-0,111	-0,013
-575,977	10,154	-0,085	-0,048
-574,963	343,543	0,025	0,036
-573,948	417,516	-0,027	0,043
-572,934	800,000	0,024	-0,054
-571,919	-108,277	-0,182	-0,029
-570,904	-200,000	0,006	-0,060
-569,890	800,000	0,021	0,044
-568,875	167,328	0,091	0,095
-567,861	800,000	0,036	-0,117
-566,846	168,841	0,059	0,062
-565,831	25,501	-0,152	-0,093
-564,817	-200,000	0,003	0,131
-563,802	41,773	-0,125	-0,083
-562,788	-155,985	-0,036	0,002
-561,773	1,311	-0,089	-0,047
-560,758	-81,226	0,089	-0,022
-559,744	55,682	0,099	0,071
-558,729	-40,571	-0,160	-0,061
-557,715	-123,286	-0,054	0,006
-556,700	161,628	0,063	-0,065
-555,685	154,086	0,016	-0,016
-554,671	-102,778	-0,056	-0,010
-553,656	10,655	0,095	-0,053
-552,642	800,000	0,030	-0,081
-551,627	211,829	0,061	0,070
-550,612	405,260	0,072	0,112
-549,598	800,000	-0,039	-0,103
-548,583	368,628	-0,055	-0,083
-547,569	800,000	-0,048	-0,120
-546,554	231,094	-0,037	0,045
-545,539	-84,734	0,142	0,033
-544,525	-7,417	-0,075	0,037
-543,510	222,499	-0,052	0,061
-542,496	-21,823	-0,060	-0,027
-541,481	-102,369	-0,058	-0,010
-540,466	283,635	0,078	-0,104
-539,452	-35,694	0,061	-0,024
-538,437	-133,446	0,159	0,015
-537,423	-58,313	0,079	-0,025
-536,408	-200,000	0,048	-0,182
-535,393	139,888	-0,128	-0,124
-534,379	256,916	0,058	0,074
-533,364	-4,985	-0,137	0,069
-532,350	-200,000	0,013	-0,051
-531,335	21,624	0,094	-0,056
-530,321	800,000	-0,013	-0,031
-529,306	158,640	-0,091	-0,093
-528,291	-200,000	0,018	-0,128
-527,277	77,774	0,082	-0,064
-526,262	-137,795	-0,167	-0,014
-525,248	-200,000	-0,010	-0,071
-524,233	332,938	0,110	-0,157
-523,218	69,661	-0,044	0,033
-522,204	-200,000	-0,007	0,072
-521,189	-59,203	-0,129	-0,041
-520,175	800,000	-0,039	0,122
-519,160	24,097	-0,046	-0,028
-518,145	120,248	-0,074	-0,067
-517,131	-119,556	-0,113	0,014
-516,116	-200,000	-0,010	0,068
-515,102	-77,491	-0,032	-0,008
-514,087	-200,000	0,008	-0,038
-513,072	41,780	0,018	-0,012
-512,058	800,000	-0,041	0,102
-511,043	800,000	0,017	0,054
-510,029	-200,000	-0,020	0,152
-509,014	800,000	0,010	-0,021
-507,999	-200,000	0,015	-0,056
-506,985	800,000	0,048	-0,119
-505,970	-200,000	0,019	-0,229
-504,956	148,778	-0,079	-0,078
-503,941	113,491	-0,098	-0,087
-502,926	-116,038	-0,058	-0,008
-501,912	-143,908	0,061	0,004
-500,897	-62,872	0,192	0,058
-499,883	800,000	0,021	0,044
-498,868	28,182	-0,166	0,103
-497,853	-200,000	-0,004	-0,154
-496,839	-200,000	-0,014	-0,148
-495,824	453,309	0,011	0,018
-494,810	237,833	0,059	0,072
-493,795	503,563	0,053	0,091
-492,781	-24,038	0,011	-0,005
-491,766	-43,248	-0,093	-0,035
-490,751	41,850	-0,023	0,015
-489,737	-200,000	-0,000	0,044
-488,722	-91,653	-0,062	-0,013
-487,708	-9,987	0,091	0,044
-486,693	718,365	-0,032	-0,063
-485,678	637,699	0,084	-0,157
-484,664	-68,110	-0,103	-0,029
-483,649	764,979	-0,018	-0,035
-482,635	800,000	0,031	-0,066
-481,620	-138,528	0,084	-0,007
-480,605	800,000	0,013	-0,028
-479,591	-13,768	0,159	-0,075
-478,576	161,729	-0,044	-0,045
-477,562	-57,409	-0,041	-0,013
-476,547	-115,672	-0,098	0,013
-475,532	-180,844	-0,099	0,001
-474,518	-200,000	-0,026	0,164
-473,503	-85,286	0,127	-0,029
-472,489	229,746	0,063	-0,076
-471,474	48,015	-0,046	0,031
-470,459	800,000	0,036	-0,112
-469,445	-88,567	-0,094	0,020
-468,430	83,939	-0,062	0,050
-467,416	140,721	0,040	0,039
-466,401	52,330	-0,031	0,022
-465,386	242,814	-0,050	0,061
-464,372	800,000	0,026	0,060
-463,357	-200,000	-0,011	-0,089
-462,343	55,578	-0,125	-0,089
-461,328	800,000	0,044	-0,130
-460,313	-200,000	-0,017	-0,069
-459,299	60,114	0,048	0,035
-458,284	-105,015	-0,040	0,007
-457,270	-200,000	0,015	-0,132
-456,255	800,000	0,045	-0,108
-455,241	800,000	0,039	-0,092
-454,226	-47,398	0,012	0,004
-453,211	-200,000	-0,001	-0,029
-452,197	48,236	0,089	-0,061
-451,182	5,377	0,143	0,077
-450,168	-20,490	0,055	-0,025
-449,153	302,207	0,066	-0,089
-448,138	122,786	0,058	0,053
-447,124	-200,000	0,027	0,151
-446,109	303,307	0,026	-0,035
-445,095	800,000	-0,078	0,185
-444,080	-11,756	-0,101	0,049
-443,065	48,595	-0,064	-0,044
-442,051	-1,840	0,094	0,048
-441,036	-200,000	0,004	-0,016
-440,022	92,198	-0,097	0,080
-439,007	-200,000	-0,010	0,085
-437,992	200,031	0,094	-0,106
-436,978	462,869	-0,014	0,023
-435,963	117,928	-0,041	0,037
-434,949	-121,701	-0,027	-0,003
-433,934	290,056	0,063	-0,084
-432,919	-200,000	0,000	-0,162
-431,905	-94,111	0,155	0,031
-430,890	109,547	-0,065	0,057
-429,876	-200,000	0,010	0,041
-428,861	-200,000	0,016	0,126
-427,846	-200,000	-0,002	-0,072
-426,832	575,097	-0,040	-0,072
-425,817	-38,906	0,122	-0,047
-424,803	355,427	0,028	0,041
-423,788	279,969	-0,024	0,031
-422,773	-45,158	-0,091	0,033
-421,759	-200,000	-0,004	0,083
-420,744	800,000	0,043	0,093
-419,730	-67,777	-0,098	-0,028
-418,715	-200,000	-0,010	-0,045
-417,701	-43,472	0,082	-0,030
-416,686	-200,000	0,012	0,061
-415,671	-18,085	0,109	-0,050
-414,657	350,002	-0,039	0,057
-413,642	62,472	0,060	0,044
-412,628	315,887	0,017	0,024
-411,613	800,000	0,030	0,096
-410,598	200,745	0,107	-0,121
-409,584	-24,797	0,054	-0,024
-408,569	80,205	-0,065	0,051
-407,555	661,340	0,043	0,081
-406,540	391,002	-0,044	-0,068
-405,525	-200,000	-0,039	-0,195
-404,511	417,496	-0,071	-0,111
-403,496	229,681	-0,086	-0,102
-402,482	-93,421	0,060	-0,012
-401,467	268,501	0,100	0,129
-400,452	415,754	0,066	0,103
-399,438	81,262	0,089	0,070
-398,423	-200,000	0,009	0,051
-397,409	48,061	0,023	-0,015
-396,394	721,657	0,003	-0,007
-395,379	-200,000	0,006	-0,033
-394,365	-81,619	0,154	0,037
-393,350	-24,670	-0,115	0,050
-392,336	-157,952	0,050	-0,002
-391,321	299,227	0,026	-0,035
-390,306	60,863	-0,082	0,059
-389,292	-103,595	0,060	0,010
-388,277	-200,000	0,020	0,073
-387,263	514,552	0,048	-0,083
-386,248	800,000	0,020	-0,049
-385,233	35,618	-0,075	0,048
-384,219	2,810	-0,121	0,064
-383,204	89,750	0,042	-0,035
-382,190	-44,207	0,123	-0,045
-381,175	-123,554	0,043	0,005
-380,160	-104,213	-0,032	0,005
-379,146	369,728	0,049	0,073
-378,131	502,442	-0,013	0,022
-377,117	168,129	0,043	0,045
-376,102	29,372	-0,068	0,042
-375,088	-62,835	-0,078	0,023
-374,073	-200,000	0,014	0,072
-373,058	-200,000	0,014	0,094
-372,044	-133,397	0,169	0,015
-371,029	136,710	-0,008	-0,008
-370,015	800,000	-0,021	0,043
-369,000	201,214	-0,124	-0,140
-367,985	-25,508	-0,071	-0,031
-366,971	-25,807	0,113	-0,049
-365,956	330,887	0,050	0,071
-364,942	435,559	-0,017	0,026
-363,927	157,522	-0,060	0,061
-362,912	800,000	0,040	-0,108
-361,898	-200,000	0,019	-0,173
-360,883	-54,900	0,117	0,038
-359,869	241,990	-0,099	-0,121
-358,854	32,001	-0,101	0,063
-357,839	-122,872	0,118	-0,014
-356,825	77,414	-0,134	0,104
-355,810	800,000	0,003	0,007
-354,796	13,053	0,061	0,034
-353,781	-200,000	-0,024	-0,087
-352,766	-80,983	-0,078	0,019
-351,752	-157,707	-0,064	0,003
-350,737	-200,000	-0,018	0,116
-349,723	-110,112	0,195	0,029
-348,708	-200,000	0,003	0,056
-347,693	312,488	-0,073	0,100
-346,679	-12,274	-0,017	0,008
-345,664	9,899	-0,081	0,045
-344,650	-200,000	0,005	0,079
-343,635	-87,281	0,103	0,023
-342,620	-88,748	-0,072	-0,016
-341,606	618,185	-0,055	-0,102
-340,591	-200,000	0,003	-0,033
-339,577	161,581	-0,076	0,078
-338,562	800,000	-0,026	0,058
-337,548	52,234	-0,028	0,019
-336,533	453,617	-0,063	0,102
-335,518	-143,546	0,257	-0,018
-334,504	638,596	0,006	0,012
-333,489	272,505	0,053	-0,068
-332,475	-200,000	0,009	-0,048
-331,460	506,697	-0,092	-0,156
-330,445	625,443	0,051	0,094
-329,431	13,018	-0,152	-0,086
-328,416	-135,721	0,076	0,006
-327,402	-15,852	-0,122	0,057
-326,387	508,434	0,048	-0,082
-325,372	-82,192	0,090	-0,021
-324,358	-104,670	-0,067	0,011
-323,343	229,367	-0,083	0,099
-322,329	424,519	0,010	-0,016
-321,314	266,652	-0,089	0,114
-320,299	-56,654	0,057	0,018
-319,285	-116,725	-0,099	-0,013
-318,270	-200,000	-0,026	0,094
-317,256	-117,701	0,093	0,012
-316,241	-200,000	-0,005	0,171
-315,226	157,511	-0,043	-0,044
-314,212	-200,000	-0,025	0,185
-313,197	164,294	0,091	-0,093
-312,183	-119,193	0,115	-0,014
-311,168	-28,098	-0,101	-0,043
-310,153	464,358	-0,056	0,091
-309,139	-42,907	0,048	0,018
-308,124	-200,000	0,040	-0,135
-307,110	-200,000	0,026	0,131
-306,095	800,000	-0,047	0,150
-305,080	-162,334	0,011	-0,000
-304,066	-200,000	0,003	-0,081
-303,051	99,754	-0,033	0,028
-302,037	-70,879	-0,085	-0,023
-301,022	-200,000	-0,024	-0,090
-300,008	253,655	0,108	-0,135
-298,993	-88,666	0,110	-0,024
-297,978	-200,000	0,020	0,168
-296,964	-43,157	-0,049	-0,018
-295,949	-96,610	-0,125	0,024
-294,935	312,925	0,078	0,107
-293,920	74,969	0,055	-0,042
-292,905	800,000	0,019	0,040
-291,891	-200,000	-0,021	0,120
-290,876	277,388	-0,088	0,114
-289,862	526,166	-0,044	-0,077
-288,847	256,184	0,047	-0,059
-287,832	-45,077	0,026	0,009
-286,818	-101,076	-0,029	-0,005
-285,803	-111,655	-0,120	0,018
-284,789	-200,000	0,003	-0,084
-283,774	413,172	-0,045	-0,070
-282,759	-54,620	-0,059	0,019
-281,745	555,985	-0,057	0,100
-280,730	202,634	0,036	-0,041
-279,716	73,053	-0,031	0,024
-278,701	800,000	-0,039	0,096
-277,686	-133,972	-0,031	0,003
-276,672	631,343	-0,062	0,114
-275,657	800,000	0,007	-0,023
-274,643	390,665	-0,023	-0,036
-273,628	22,616	0,056	-0,033
-272,613	-200,000	-0,010	-0,045
-271,599	157,387	0,072	-0,073
-270,584	800,000	0,067	-0,138
-269,570	78,169	-0,161	-0,125
-268,555	741,803	-0,073	-0,144
-267,540	-1,553	0,031	-0,016
-266,526	38,715	0,054	-0,035
-265,511	296,738	-0,054	-0,073
-264,497	-200,000	0,015	-0,112
-263,482	-200,000	0,037	0,123
-262,467	-82,001	0,085	0,020
-261,453	95,964	-0,234	0,194
-260,438	5,168	0,069	0,037
-259,424	316,534	0,027	-0,037
-258,409	-200,000	0,032	0,111
-257,395	800,000	0,013	0,033
-256,380	800,000	0,064	0,131
-255,365	41,765	0,068	-0,045
-254,351	636,107	0,038	-0,070
-253,336	-72,939	-0,065	0,017
-252,322	521,341	0,059	0,101
-251,307	360,866	0,031	-0,046
-250,292	-200,000	0,030	0,099
-249,278	-150,226	0,064	0,004
-248,263	-74,932	-0,077	-0,020
-247,249	184,954	0,160	0,172
-246,234	-77,843	0,073	-0,018
-245,219	523,234	-0,026	-0,044
-244,205	92,505	0,088	0,072
-243,190	-144,779	0,100	-0,007
-242,176	-170,629	0,115	0,003
-241,161	-155,969	-0,067	0,003
-240,146	-102,816	-0,129	0,022
-239,132	610,831	0,057	0,105
-238,117	506,360	0,043	-0,072
-237,103	-80,294	0,036	0,009
-236,088	800,000	0,061	0,133
-235,073	27,675	0,126	-0,077
-234,059	170,278	0,044	0,046
-233,044	-200,000	-0,062	0,291
-232,030	800,000	0,007	0,019
-231,015	37,387	-0,146	0,094
-230,000	175,200	-0,112	-0,118
-228,986	-84,995	0,111	-0,025
-227,971	-193,511	-0,237	0,001
-226,957	224,488	0,122	0,143
-225,942	435,689	0,099	-0,157
-224,927	-7,064	0,170	-0,083
-223,913	534,053	0,012	0,020
-222,898	284,820	0,102	-0,134
-221,884	800,000	-0,036	-0,086
-220,869	96,350	0,080	0,066
-219,855	220,823	-0,084	0,098
-218,840	-140,832	0,102	0,008
-217,825	800,000	-0,012	-0,033
-216,811	-200,000	0,003	-0,029
-215,796	-200,000	0,004	0,075
-214,782	272,983	0,068	-0,088
-213,767	-200,000	0,013	0,063
-212,752	18,514	0,034	-0,020
-211,738	-200,000	0,012	0,093
-210,723	-200,000	0,020	-0,098
-209,709	182,174	0,056	-0,060
-208,694	532,250	-0,050	0,086
-207,679	-200,000	0,038	-0,131
-206,665	395,834	0,039	-0,059
-205,650	800,000	0,015	0,035
-204,636	-200,000	-0,008	0,180
-203,621	12,214	0,037	-0,021
-202,606	269,524	-0,007	-0,009
-201,592	46,836	0,031	0,021
-200,577	40,362	0,150	0,098
-199,563	244,937	-0,032	-0,039
-198,548	-200,000	-0,018	-0,095
-197,533	-200,000	-0,015	0,090
-196,519	64,344	0,083	0,061
-195,504	-200,000	-0,007	0,115
-194,490	-200,000	0,042	-0,155
-193,475	-200,000	0,007	-0,071
-192,460	446,030	0,050	0,080
-191,446	321,540	0,026	0,036
-190,431	172,397	-0,070	0,073
-189,417	800,000	-0,028	0,068
-188,402	16,547	-0,041	0,023
-187,387	142,212	-0,079	-0,076
-186,373	-17,262	-0,059	-0,027
-185,358	421,704	0,005	0,008
-184,344	-200,000	0,018	-0,063
-183,329	-114,199	0,112	0,016
-182,315	-79,646	-0,058	-0,014
-181,300	800,000	-0,007	0,020
-180,285	-113,568	-0,099	-0,014
-179,271	800,000	-0,026	0,083
-178,256	480,866	-0,046	-0,076
-177,242	116,365	0,072	-0,064
-176,227	328,134	-0,042	0,058
-175,212	-102,405	-0,057	-0,010
-174,198	800,000	-0,035	0,083
-173,183	524,003	0,076	0,131
-172,169	-200,000	0,027	-0,150
-171,154	264,738	-0,014	-0,018
-170,139	669,798	0,074	0,139
-169,125	-24,564	-0,073	0,031
-168,110	179,746	0,042	-0,044
-167,096	-200,000	0,022	0,110
-166,081	135,035	0,063	-0,059
-165,066	168,295	-0,069	-0,071
-164,052	43,460	-0,073	0,048
-163,037	67,594	-0,069	0,051
-162,023	92,201	0,020	-0,017
-161,008	1,278	0,020	0,011
-159,993	-200,000	-0,018	0,088
-158,979	-63,424	-0,138	-0,041
-157,964	-165,898	0,057	-0,002
-156,950	-200,000	0,006	0,034
-155,935	-84,985	0,014	0,003
-154,920	-200,000	-0,006	0,109
-153,906	477,181	-0,067	0,110
-152,891	-200,000	-0,029	0,117
-151,877	-48,476	0,084	-0,029
-150,862	-82,519	0,126	-0,029
-149,847	-17,133	-0,088	-0,040
-148,833	171,847	0,108	-0,113
-147,818	364,626	0,044	0,064
-146,804	-131,223	0,086	0,008
-145,789	11,459	0,083	0,046
-144,775	212,199	-0,062	0,071
-143,760	800,000	-0,037	-0,115
-142,745	116,021	-0,056	-0,050
-141,731	104,835	-0,119	-0,101
-140,716	-200,000	0,005	0,132
-139,702	537,259	0,046	0,079
-138,687	137,713	0,108	0,103
-137,672	800,000	0,005	0,010
-136,658	-39,237	-0,061	-0,023
-135,643	376,381	0,057	-0,085
-134,629	-200,000	0,006	-0,124
-133,614	668,597	-0,066	-0,124
-132,599	-200,000	-0,008	0,235
-131,585	240,124	-0,030	0,036
-130,570	218,057	-0,163	-0,188
-129,556	5,265	0,127	-0,067
-128,541	-19,092	0,074	-0,033
-127,526	125,572	0,082	-0,075
-126,512	800,000	0,048	0,109
-125,497	-200,000	0,006	-0,032
-124,483	-200,000	0,014	0,130
-123,468	157,652	0,050	0,050
-122,453	-67,019	-0,050	-0,014
-121,439	634,277	-0,040	-0,074
-120,424	333,969	-0,031	0,043
-119,410	10,938	0,066	-0,036
-118,395	-92,671	-0,087	0,017
-117,380	800,000	-0,035	-0,109
-116,366	-200,000	-0,022	0,090
-115,351	-66,560	0,132	-0,038
-114,337	536,437	-0,053	-0,092
-113,322	-144,509	-0,129	-0,009
-112,307	88,384	-0,016	-0,013
-111,293	200,829	-0,077	0,086
-110,278	-200,000	0,030	0,130
-109,264	-200,000	0,046	0,178
-108,249	0,599	-0,008	0,004
-107,234	-200,000	-0,038	0,125
-106,220	11,366	-0,054	-0,030
-105,205	-21,255	-0,056	-0,025
-104,191	800,000	0,074	0,178
-103,176	92,717	0,074	0,060
-102,162	-97,996	0,098	-0,018
-101,147	180,633	-0,030	0,032
-100,132	17,213	-0,083	-0,047
-99,118	800,000	0,044	-0,116
-98,103	31,563	-0,037	-0,023
-97,089	212,566	-0,029	0,033
-96,074	-2,359	0,083	0,042
-95,059	-66,290	0,043	-0,012
-94,045	133,452	-0,018	-0,017
-93,030	394,026	0,048	0,073
-92,016	18,270	-0,071	0,041
-91,001	-153,600	0,095	-0,005
-89,986	800,000	0,046	-0,139
-88,972	800,000	-0,032	0,086
-87,957	-200,000	0,004	0,045
-86,943	-200,000	0,039	0,124
-85,928	-103,045	0,039	-0,007
-84,913	-200,000	-0,031	-0,100
-83,899	340,470	-0,014	0,019
-82,884	800,000	0,013	0,029
-81,870	656,641	0,028	-0,051
-80,855	-98,650	0,019	-0,003
-79,840	93,230	0,059	-0,048
-78,826	-74,581	0,058	-0,015
-77,811	-200,000	-0,005	0,068
-76,797	-77,695	0,124	0,031
-75,782	-197,722	0,067	-0,000
-74,767	269,190	-0,037	-0,047
-73,753	600,508	-0,087	0,157
-72,738	173,099	0,060	0,063
-71,724	-200,000	0,011	0,062
-70,709	179,308	-0,131	-0,138
-69,694	7,589	-0,120	0,065
-68,680	-11,860	-0,074	-0,035
-67,665	4,902	0,057	0,030
-66,651	44,085	0,103	-0,068
-65,636	-12,310	-0,137	-0,065
-64,622	-3,626	0,070	0,035
-63,607	-28,998	-0,056	-0,023
-62,592	138,184	-0,061	-0,057
-61,578	-200,000	0,032	-0,163
-60,563	142,764	0,039	-0,037
-59,549	61,972	-0,108	-0,078
-58,534	-40,354	-1,679	-0,627
-57,519	800,000	-0,553	-1,166
-56,505	-200,000	-1,141	-4,693
-55,490	-83,422	0,634	-0,146
-54,476	800,000	5,160	11,958
-53,461	-200,000	15,764	276,972
-52,446	-200,000	702,162	2243,708
-51,432	563,027	1618,527	2839,715
-50,417	121,049	1623,379	1458,350
-49,403	81,099	1283,611	999,626
-48,388	36,724	1027,574	653,973
-47,373	21,592	989,489	579,725
-46,359	20,597	978,212	569,818
-45,344	18,934	974,015	561,888
-44,330	19,011	972,702	561,361
-43,315	18,771	970,874	559,495
-42,300	18,710	969,886	558,706
-41,286	18,720	969,022	558,219
-40,271	18,715	968,014	557,597
-39,257	18,751	967,198	557,225
-38,242	18,761	966,309	556,723
-37,227	18,689	965,534	556,020
-36,213	18,703	964,788	555,612
-35,198	18,715	963,931	555,137
-34,184	18,763	963,192	554,846
-33,169	18,625	962,317	553,870
-32,154	18,750	961,379	553,715
-31,140	18,750	960,300	553,071
-30,125	18,727	959,757	552,662
-29,111	18,720	959,058	552,216
-28,096	18,756	958,356	551,905
-27,082	18,689	957,661	551,267
-26,067	18,711	956,778	550,809
-25,052	18,698	956,012	550,301
-24,038	18,708	955,338	549,926
-23,023	18,711	954,698	549,544
-22,009	18,751	954,084	549,298
-20,994	18,781	953,266	548,902
-19,979	18,686	952,948	548,391
-18,965	18,756	952,187	548,157
-17,950	18,736	951,508	547,678
-16,936	18,677	950,980	547,164
-15,921	18,673	950,157	546,657
-14,906	18,591	949,446	545,964
-13,892	18,643	948,831	545,754
-12,877	18,573	948,079	545,078
-11,863	18,497	947,552	544,508
-10,848	18,622	947,010	544,575
-9,833	18,676	946,665	544,526
-8,819	18,674	945,984	544,108
-7,804	18,597	945,214	543,398
-6,790	18,550	944,669	542,912
-5,775	18,599	944,287	542,828
-4,760	18,638	943,534	542,499
-3,746	18,589	943,014	542,022
-2,731	18,492	942,113	541,174
-1,717	18,427	941,318	540,489
-0,702	18,431	940,731	540,142
0,313	18,224	940,171	539,980
1,327	21,292	938,460	548,657
2,342	30,250	796,082	489,264
3,356	27,419	449,413	271,933
4,371	-2,075	295,330	149,145
5,386	-6,145	276,793	135,902
6,400	-7,214	270,962	132,031
7,415	-7,708	268,826	130,522
8,429	-7,635	267,411	129,890
9,444	-7,860	266,709	129,332
10,459	-7,692	265,987	129,123
11,473	-7,846	265,365	128,670
12,488	-8,038	264,797	128,208
13,502	-8,198	264,336	127,828
14,517	-8,065	263,799	127,677
15,531	-7,898	263,410	127,629
16,546	-8,033	263,169	127,379
17,561	-7,965	262,681	127,192
18,575	-7,957	262,339	127,023
19,590	-8,161	262,127	126,725
20,604	-8,146	261,674	126,508
21,619	-8,166	261,407	126,350
22,634	-7,997	261,058	126,321
23,648	-8,071	260,718	126,079
24,663	-7,979	260,427	126,010
25,677	-7,958	260,149	125,882
26,692	-8,170	260,137	125,676
27,707	-8,126	259,739	125,512
28,721	-8,061	259,473	125,431
29,736	-8,239	259,088	125,075
30,750	-8,262	258,836	124,922
31,765	-8,176	258,763	124,951
32,780	-8,161	258,471	124,813
33,794	-8,185	258,233	124,665
34,809	-8,132	257,872	124,527
35,823	-8,301	257,693	124,279
36,838	-8,108	257,521	124,356
37,853	-8,253	257,225	124,074
38,867	-8,362	257,160	123,935
39,882	-8,154	256,737	123,904
40,896	-8,219	256,567	123,754
41,911	-8,407	256,431	123,512
42,926	-8,188	256,054	123,512
43,940	-8,374	255,858	123,243
44,955	-8,362	255,559	123,098
45,969	-8,508	255,507	122,934
46,984	-8,645	255,234	122,672
47,999	-8,759	254,867	122,385
49,013	-8,816	254,511	122,153
50,028	-8,991	254,443	121,957
51,042	-9,092	253,993	121,643
52,057	-9,198	253,928	121,508
53,071	-9,147	253,754	121,459
54,086	-9,015	253,558	121,469
55,101	-8,930	253,476	121,493
56,115	-8,641	253,395	121,694
57,130	-7,971	253,123	122,133
58,144	-7,832	252,995	122,181
59,159	-7,853	252,939	122,126
60,174	-7,914	252,635	121,914
61,188	-8,007	252,473	121,745
62,203	-8,077	252,315	121,598
63,217	-7,975	251,902	121,476
64,232	-7,981	251,713	121,368
65,247	-8,093	251,616	121,215
66,261	-8,144	251,316	121,015
67,276	-8,382	251,081	120,687
68,290	-8,592	250,767	120,345
69,305	-8,814	250,507	120,019
70,320	-8,526	250,308	120,160
71,334	-8,468	250,314	120,202
72,349	-8,141	250,299	120,463
73,363	-7,870	249,950	120,517
74,378	-7,989	249,687	120,278
75,393	-8,069	249,547	120,131
76,407	-8,169	249,349	119,939
77,422	-8,104	249,044	119,837
78,436	-8,291	248,957	119,626
79,451	-8,102	248,823	119,711
80,466	-8,083	248,397	119,512
81,480	-8,622	248,255	118,975
82,495	-8,271	248,094	119,186
83,509	-8,353	247,974	119,048
84,524	-8,542	247,725	118,758
85,539	-8,717	247,428	118,457
86,553	-8,472	247,193	118,541
87,568	-8,628	247,175	118,390
88,582	-8,352	246,848	118,455
89,597	-8,386	246,700	118,345
90,611	-8,245	246,531	118,373
91,626	-8,365	246,585	118,286
92,641	-8,251	246,292	118,231
93,655	-8,350	246,046	118,019
94,670	-8,456	245,735	117,771
95,684	-8,228	245,615	117,894
96,699	-8,579	245,588	117,576
97,714	-8,282	245,211	117,634
98,728	-8,579	245,081	117,312
99,743	-8,624	244,787	117,123
100,757	-8,825	244,709	116,908
101,772	-8,538	244,474	117,025
102,787	-8,293	244,284	117,128
103,801	-8,637	244,144	116,763
104,816	-8,180	243,819	116,977
105,830	-7,921	243,777	117,162
106,845	-8,174	243,775	116,940
107,860	-8,281	243,608	116,762
108,874	-8,332	243,384	116,601
109,889	-8,244	243,022	116,490
110,903	-8,314	242,908	116,367
111,918	-8,283	242,563	116,217
112,933	-8,438	242,470	116,035
113,947	-8,457	242,477	116,012
114,962	-8,191	242,236	116,106
115,976	-8,305	241,978	115,878
116,991	-8,201	241,937	115,933
118,006	-8,224	241,673	115,778
119,020	-8,088	241,655	115,870
120,035	-8,178	241,404	115,666
121,049	-8,140	241,307	115,640
122,064	-8,143	241,114	115,535
123,079	-8,243	240,936	115,357
124,093	-8,265	240,707	115,219
125,108	-8,551	240,500	114,876
126,122	-8,555	240,055	114,650
127,137	-8,698	240,094	114,541
128,151	-8,789	239,941	114,384
129,166	-8,632	239,843	114,455
130,181	-8,455	239,385	114,370
131,195	-8,542	239,206	114,204
132,210	-8,466	239,115	114,212
133,224	-8,325	239,035	114,279
134,239	-8,267	238,897	114,249
135,254	-8,052	238,760	114,349
136,268	-8,498	238,530	113,866
137,283	-8,660	238,319	113,624
138,297	-8,584	237,985	113,516
139,312	-8,549	237,867	113,478
140,327	-8,429	237,722	113,496
141,341	-7,907	237,869	113,978
142,356	-7,903	237,624	113,853
143,370	-7,697	237,426	113,915
144,385	-7,664	237,224	113,834
145,400	-7,741	237,162	113,732
146,414	-7,929	237,031	113,508
147,429	-7,897	236,773	113,400
148,443	-8,173	236,663	113,115
149,458	-7,936	236,573	113,253
150,473	-7,786	236,160	113,165
151,487	-8,092	236,120	112,890
152,502	-7,867	235,931	112,971
153,516	-7,744	235,756	112,975
154,531	-7,864	235,480	112,737
155,546	-7,859	235,389	112,687
156,560	-8,021	235,161	112,439
157,575	-8,150	235,107	112,300
158,589	-8,046	234,977	112,310
159,604	-7,811	234,719	112,364
160,619	-7,878	234,675	112,280
161,633	-7,839	234,504	112,219
162,648	-7,879	234,314	112,087
163,662	-7,806	234,204	112,082
164,677	-7,954	233,997	111,855
165,692	-7,867	233,781	111,811
166,706	-7,738	233,769	111,898
167,721	-7,674	233,499	111,809
168,735	-7,696	233,475	111,770
169,750	-7,842	233,428	111,622
170,764	-8,050	233,155	111,318
171,779	-7,618	232,975	111,563
172,794	-7,733	232,716	111,338
173,808	-7,974	232,558	111,063
174,823	-8,402	232,296	110,591
175,837	-8,535	232,135	110,399
176,852	-8,233	232,130	110,624
177,867	-7,850	232,026	110,867
178,881	-7,864	231,782	110,729
179,896	-7,710	231,776	110,837
180,910	-7,899	231,487	110,541
181,925	-7,771	231,325	110,553
182,940	-7,666	231,105	110,521
183,954	-7,895	231,167	110,362
184,969	-7,693	231,014	110,437
185,983	-7,762	230,843	110,291
186,998	-7,597	230,602	110,295
188,013	-7,428	230,433	110,336
189,027	-7,604	230,305	110,128
190,042	-7,618	230,240	110,076
191,056	-7,594	230,045	109,992
192,071	-7,672	229,851	109,829
193,086	-7,721	229,738	109,727
194,100	-7,502	229,598	109,820
195,115	-7,703	229,248	109,487
196,129	-8,082	229,118	109,121
197,144	-3,687	230,520	113,203
198,159	1,379	232,031	117,898
199,173	3,364	232,419	119,636
200,188	3,381	232,378	119,617
201,202	3,596	232,205	119,686
202,217	3,803	232,138	119,802
203,232	4,006	231,908	119,831
204,246	4,179	231,834	119,916
205,261	4,162	231,830	119,891
206,275	4,222	231,684	119,851
207,290	4,324	231,535	119,842
208,304	4,342	231,372	119,761
209,319	4,125	231,260	119,524
210,334	4,177	231,010	119,425
211,348	4,026	230,863	119,221
212,363	3,762	230,541	118,840
213,377	3,423	230,341	118,464
214,392	3,387	230,060	118,281
215,407	3,394	230,123	118,308
216,421	3,621	229,894	118,355
217,436	3,366	229,749	118,073
218,450	3,255	229,516	117,858
219,465	3,332	229,224	117,756
220,480	3,401	229,299	117,837
221,494	3,311	229,023	117,616
222,509	3,624	228,869	117,767
223,523	3,406	228,788	117,547
224,538	3,315	228,588	117,364
225,553	3,455	228,465	117,398
226,567	3,732	228,366	117,548
227,582	3,747	228,285	117,508
228,596	3,792	228,224	117,500
229,611	3,602	228,099	117,280
230,626	3,163	227,706	116,733
231,640	3,299	227,618	116,781
232,655	3,443	227,680	116,912
233,669	4,124	227,408	117,281
234,684	3,943	227,439	117,148
235,699	3,733	227,169	116,839
236,713	3,642	226,930	116,637
237,728	3,332	226,729	116,288
238,742	3,331	226,511	116,165
239,757	3,443	226,454	116,210
240,772	3,464	226,244	116,108
241,786	3,464	226,069	116,008
242,801	3,683	226,029	116,143
243,815	3,837	225,895	116,179
244,830	3,801	225,693	116,038
245,844	3,488	225,513	115,699
246,859	3,556	225,434	115,700
247,874	3,723	225,389	115,792
248,888	3,717	225,227	115,694
249,903	3,670	225,099	115,583
250,917	3,395	224,673	115,147
251,932	3,349	224,606	115,067
252,947	3,398	224,460	115,019
253,961	3,228	224,389	114,845
254,976	3,239	224,241	114,767
255,990	3,567	224,018	114,889
257,005	3,623	224,106	114,966
258,020	3,680	223,984	114,936
259,034	3,639	223,906	114,854
260,049	3,866	223,579	114,846
261,063	3,600	223,507	114,600
262,078	3,780	223,413	114,676
263,093	3,979	223,162	114,686
264,107	4,132	223,041	114,726
265,122	3,765	222,946	114,394
266,136	3,825	222,873	114,391
267,151	3,909	222,727	114,369
268,166	3,537	222,374	113,901
269,180	3,237	222,115	113,536
270,195	3,274	222,017	113,503
271,209	3,462	221,839	113,541
272,224	3,583	221,783	113,592
273,239	3,389	221,676	113,383
274,253	3,270	221,433	113,161
275,268	3,124	221,333	112,992
276,282	3,218	221,121	112,943
277,297	3,130	220,965	112,788
278,312	3,144	221,013	112,813
279,326	3,341	220,786	112,832
280,341	3,392	220,665	112,798
281,355	3,570	220,524	112,847
282,370	3,422	220,381	112,655
283,384	3,213	220,200	112,399
284,399	3,224	219,916	112,252
285,414	3,179	219,824	112,162
286,428	3,401	219,857	112,332
287,443	3,670	219,776	112,477
288,457	3,521	219,584	112,260
289,472	3,487	219,393	112,128
290,487	2,959	219,160	111,613
291,501	2,906	219,053	111,509
292,516	3,151	218,855	111,577
293,530	3,323	218,754	111,642
294,545	3,146	218,592	111,419
295,560	3,311	218,506	111,486
296,574	3,430	218,425	111,522
297,589	3,524	218,269	111,500
298,603	3,270	218,090	111,214
299,618	3,759	217,943	111,484
300,633	3,667	217,811	111,340
301,647	3,666	217,941	111,396
302,662	3,670	217,721	111,276
303,676	3,700	217,618	111,235
304,691	3,568	217,455	111,047
305,706	3,910	217,235	111,172
306,720	3,571	217,080	110,837
307,735	3,358	216,932	110,599
308,749	3,246	216,747	110,414
309,764	3,287	216,623	110,370
310,779	3,678	216,540	110,600
311,793	3,806	216,386	110,604
312,808	3,564	216,240	110,345
313,822	3,477	216,110	110,206
314,837	3,481	215,857	110,070
315,852	3,217	215,741	109,812
316,866	3,444	215,616	109,901
317,881	3,822	215,520	110,113
318,895	3,589	215,509	109,930
319,910	3,646	215,224	109,817
320,925	3,037	215,091	109,303
321,939	2,831	214,816	109,006
322,954	2,970	214,835	109,106
323,968	3,562	214,855	109,529
324,983	3,678	214,651	109,498
325,997	3,814	214,587	109,553
327,012	3,672	214,284	109,287
328,027	3,609	214,203	109,191
329,041	3,827	214,207	109,339
330,056	3,714	214,065	109,176
331,070	3,467	213,863	108,888
332,085	3,434	213,574	108,707
333,100	3,385	213,390	108,569
334,114	3,380	213,388	108,555
335,129	3,438	213,212	108,497
336,143	3,261	212,985	108,247
337,158	3,338	212,903	108,249
338,173	3,451	212,853	108,294
339,187	3,240	212,677	108,046
340,202	3,160	212,496	107,888
341,216	3,161	212,176	107,717
342,231	3,229	212,223	107,779
343,246	3,371	211,929	107,720
344,260	3,250	211,966	107,644
345,275	3,286	211,739	107,544
346,289	3,359	211,843	107,639
347,304	3,489	211,628	107,612
348,319	3,438	211,467	107,485
349,333	3,409	211,364	107,402
350,348	3,303	211,230	107,250
351,362	3,839	211,100	107,550
352,377	3,838	210,920	107,448
353,392	3,757	210,749	107,295
354,406	3,537	210,663	107,087
355,421	195,076	1341,439	1426,295
356,435	155,783	1479,244	1426,345
