DTS Sentinel unit serial number:	SN410029Multiplexer serial number:	ORYXHardware model number:	OX2-SRSoftware version number:	ORYX F/W v4,00 Oryx Data Collector v3.7.2.0data status	okinstallation	B6 Nyhavnadifferential loss correction	single-endedforward channel	channel 2reverse channel	N/Adate	2023/12/10time	15:25:08forward acquisition time	300,00reverse acquisition time	0,00gamma	499,1914k internal	0,3122k external	0,3122temperature offset calibration	1,0000default loss term (dB/km)	0,3820temperature slope calibration	1,0000multiplexer offset coefficient	1,0000multiplexer slope coefficient	1,0000fibre end	0,00T internal ref (°C)	22,43T ext. ref 1 (°C)	5,90T ext. ref 2 (°C)	5,89length (m)	temperature (°C)	Stokes	anti-Stokes-744,400	255,793	-0,014	-0,018
-743,385	-146,074	-0,177	0,011
-742,371	198,155	0,037	0,042
-741,356	24,153	-0,208	0,128
-740,342	143,707	0,086	-0,085
-739,327	-128,409	-0,246	0,026
-738,312	-200,000	-0,011	-0,096
-737,298	-130,490	-0,247	0,025
-736,283	-200,000	0,009	-0,075
-735,269	109,366	-0,172	0,154
-734,254	800,000	-0,018	0,050
-733,239	-68,111	-0,221	-0,064
-732,225	215,836	0,054	-0,064
-731,210	143,132	0,088	0,087
-730,196	-55,192	-0,063	0,021
-729,181	-129,691	-0,054	0,006
-728,167	43,579	0,069	0,047
-727,152	-88,136	-0,112	0,025
-726,137	112,234	-0,150	-0,136
-725,123	-148,602	0,085	0,005
-724,108	33,059	-0,116	0,075
-723,094	92,623	-0,019	0,016
-722,079	-200,000	-0,029	-0,111
-721,064	387,671	0,024	-0,038
-720,050	-85,856	0,063	0,014
-719,035	-116,353	0,031	-0,004
-718,021	404,543	-0,125	-0,197
-717,006	-200,000	0,007	-0,109
-715,991	64,454	-0,020	-0,015
-714,977	259,146	-0,060	-0,078
-713,962	-200,000	0,006	-0,066
-712,948	202,199	0,033	-0,038
-711,933	339,411	0,031	-0,045
-710,918	156,061	-0,072	0,074
-709,904	567,526	-0,044	0,080
-708,889	420,292	0,045	-0,072
-707,875	206,310	-0,093	-0,108
-706,860	87,730	-0,082	0,068
-705,845	-77,974	-0,126	-0,032
-704,831	48,628	0,111	-0,078
-703,816	-138,724	0,065	0,005
-702,802	-108,868	-0,137	-0,022
-701,787	682,392	0,100	-0,194
-700,772	-86,555	0,084	-0,019
-699,758	800,000	-0,036	0,095
-698,743	32,547	-0,017	-0,011
-697,729	57,486	-0,071	0,052
-696,714	32,248	0,109	-0,070
-695,699	97,287	-0,056	-0,048
-694,685	-1,213	-0,119	0,063
-693,670	381,827	-0,107	0,164
-692,656	458,923	-0,067	0,111
-691,641	219,352	-0,019	-0,023
-690,627	-153,976	0,080	-0,004
-689,612	-200,000	-0,002	-0,032
-688,597	800,000	-0,017	0,042
-687,583	91,491	0,033	-0,028
-686,568	-85,710	-0,043	-0,010
-685,554	-200,000	0,021	0,126
-684,539	-200,000	0,023	-0,079
-683,524	28,895	0,156	-0,098
-682,510	-86,864	-0,121	0,027
-681,495	9,636	-0,124	0,070
-680,481	-200,000	-0,003	-0,063
-679,466	684,410	-0,042	0,082
-678,451	-57,617	-0,041	0,013
-677,437	-58,871	0,159	-0,051
-676,422	-200,000	0,010	-0,054
-675,408	-200,000	0,006	-0,065
-674,393	-47,818	-0,081	0,029
-673,378	-200,000	0,009	-0,104
-672,364	560,603	-0,082	-0,148
-671,349	-200,000	-0,008	-0,135
-670,335	-25,075	-0,033	0,015
-669,320	800,000	0,080	-0,193
-668,305	225,131	0,035	0,042
-667,291	348,180	-0,092	-0,135
-666,276	-126,912	0,051	0,006
-665,262	-94,654	-0,041	0,008
-664,247	-200,000	0,033	-0,122
-663,232	106,621	-0,031	0,028
-662,218	440,083	-0,058	0,095
-661,203	85,183	-0,133	-0,108
-660,189	-30,515	-0,127	-0,053
-659,174	44,793	0,035	-0,024
-658,159	537,421	-0,010	-0,018
-657,145	77,809	-0,092	-0,073
-656,130	-161,911	0,053	0,002
-655,116	800,000	0,029	0,069
-654,101	800,000	0,056	-0,174
-653,086	800,000	-0,022	0,052
-652,072	-19,507	0,059	-0,027
-651,057	-133,738	-0,148	0,013
-650,043	424,525	0,118	-0,189
-649,028	800,000	-0,051	-0,105
-648,014	-41,071	0,055	0,021
-646,999	564,777	-0,045	0,082
-645,984	503,309	0,048	-0,082
-644,970	800,000	0,018	-0,048
-643,955	59,784	-0,051	-0,037
-642,941	800,000	-0,054	-0,155
-641,926	-51,053	-0,144	0,050
-640,911	35,976	0,041	-0,027
-639,897	422,871	-0,073	0,117
-638,882	-200,000	0,019	0,093
-637,868	-200,000	0,001	0,019
-636,853	51,522	-0,025	-0,017
-635,838	38,017	0,071	-0,047
-634,824	127,836	-0,031	0,030
-633,809	-47,851	-0,072	-0,026
-632,795	800,000	0,091	-0,193
-631,780	41,272	-0,034	-0,022
-630,765	-200,000	0,051	-0,170
-629,751	399,063	0,027	-0,042
-628,736	25,914	-0,145	0,089
-627,722	254,205	-0,072	0,092
-626,707	800,000	0,041	-0,122
-625,692	-193,828	0,036	-0,000
-624,678	164,955	0,089	-0,094
-623,663	43,771	-0,059	0,040
-622,649	-1,768	-0,138	-0,072
-621,634	211,232	0,016	0,019
-620,619	64,626	0,045	-0,033
-619,605	619,190	0,035	-0,065
-618,590	800,000	0,028	0,069
-617,576	800,000	0,037	0,080
-616,561	55,148	-0,115	-0,082
-615,546	99,886	0,030	-0,026
-614,532	800,000	0,047	-0,133
-613,517	72,928	0,084	-0,065
-612,503	639,181	-0,062	0,118
-611,488	-200,000	-0,001	0,140
-610,474	-41,143	0,025	-0,010
-609,459	616,355	0,030	-0,055
-608,444	144,042	-0,012	-0,012
-607,430	-60,527	-0,037	0,011
-606,415	41,755	0,129	-0,087
-605,401	675,434	-0,031	0,061
-604,386	-18,664	-0,088	0,040
-603,371	-200,000	0,034	0,119
-602,357	-26,574	0,064	-0,028
-601,342	463,535	-0,048	-0,080
-600,328	-200,000	-0,029	-0,171
-599,313	-122,470	-0,062	0,007
-598,298	433,316	-0,013	-0,021
-597,284	-200,000	0,000	0,134
-596,269	-145,497	0,084	-0,006
-595,255	-200,000	0,003	0,104
-594,240	139,001	-0,022	-0,021
-593,225	358,642	0,093	-0,138
-592,211	-200,000	-0,014	-0,060
-591,196	-80,155	-0,161	0,040
-590,182	-200,000	0,005	0,108
-589,167	800,000	0,040	0,094
-588,152	135,008	-0,027	-0,026
-587,138	-200,000	-0,008	0,061
-586,123	112,840	-0,072	-0,065
-585,109	25,466	-0,094	-0,058
-584,094	-200,000	0,005	-0,033
-583,079	284,705	0,059	-0,079
-582,065	203,529	-0,084	-0,096
-581,050	66,809	-0,058	0,044
-580,036	-200,000	-0,005	-0,030
-579,021	579,838	-0,040	-0,073
-578,006	522,126	-0,098	-0,171
-576,992	703,763	-0,020	0,040
-575,977	-64,764	0,179	0,053
-574,963	309,316	-0,013	-0,018
-573,948	-200,000	0,012	0,044
-572,934	478,735	-0,043	0,072
-571,919	-23,150	-0,116	-0,051
-570,904	218,679	0,103	-0,122
-569,890	177,018	-0,105	-0,114
-568,875	-200,000	-0,004	0,070
-567,861	-200,000	-0,003	-0,047
-566,846	-57,185	-0,064	-0,021
-565,831	800,000	0,050	-0,146
-564,817	658,045	-0,014	0,026
-563,802	274,563	-0,023	-0,031
-562,788	194,376	-0,047	0,052
-561,773	-200,000	0,010	0,063
-560,758	-200,000	-0,010	-0,053
-559,744	92,575	-0,009	0,008
-558,729	-134,590	-0,133	0,012
-557,715	80,221	0,089	-0,071
-556,700	800,000	0,031	-0,093
-555,685	36,957	-0,085	-0,055
-554,671	800,000	-0,013	-0,040
-553,656	-200,000	-0,005	0,020
-552,642	-200,000	0,011	0,073
-551,627	546,547	-0,056	0,099
-550,612	369,167	0,061	0,092
-549,598	-71,508	0,027	0,007
-548,583	-104,122	-0,070	-0,012
-547,569	315,298	0,063	-0,088
-546,554	442,404	-0,043	-0,070
-545,539	40,135	0,077	0,051
-544,525	168,571	0,089	-0,094
-543,510	6,990	-0,076	-0,042
-542,496	-66,452	-0,031	-0,009
-541,481	800,000	-0,041	-0,125
-540,466	34,465	-0,072	-0,046
-539,452	76,915	0,089	0,070
-538,437	401,873	-0,036	-0,056
-537,423	33,060	-0,088	0,056
-536,408	-200,000	0,008	-0,039
-535,393	800,000	0,015	-0,048
-534,379	-200,000	-0,008	-0,118
-533,364	-79,146	-0,045	0,011
-532,350	86,550	-0,013	0,010
-531,335	-95,226	-0,097	0,019
-530,321	-200,000	-0,000	0,051
-529,306	365,229	0,065	0,097
-528,291	-164,632	-0,112	-0,004
-527,277	187,545	-0,068	0,075
-526,262	-200,000	-0,015	-0,110
-525,248	-150,091	0,122	-0,007
-524,233	732,024	0,016	-0,031
-523,218	-200,000	-0,000	0,006
-522,204	800,000	-0,039	-0,100
-521,189	-57,152	-0,089	-0,029
-520,175	800,000	-0,016	0,040
-519,160	478,346	-0,092	0,154
-518,145	-9,747	0,185	0,091
-517,131	-88,707	0,134	0,029
-516,116	157,200	0,106	-0,108
-515,102	800,000	-0,034	-0,076
-514,087	-103,933	-0,021	-0,004
-513,072	339,279	0,075	-0,108
-512,058	-175,193	-0,054	0,001
-511,043	-50,202	-0,132	0,046
-510,029	-200,000	0,008	-0,031
-509,014	-200,000	-0,001	-0,029
-507,999	711,426	-0,028	0,054
-506,985	-5,143	-0,058	-0,029
-505,970	800,000	-0,018	0,055
-504,956	441,545	-0,037	0,060
-503,941	137,090	-0,027	-0,026
-502,926	183,494	0,042	0,046
-501,912	262,102	0,046	0,058
-500,897	-200,000	0,009	0,155
-499,883	-47,867	0,162	0,058
-498,868	122,248	-0,064	-0,059
-497,853	230,344	-0,112	-0,135
-496,839	25,643	0,144	0,088
-495,824	800,000	0,030	0,087
-494,810	-120,015	0,050	-0,006
-493,795	-200,000	-0,012	-0,144
-492,781	800,000	0,047	-0,098
-491,766	800,000	-0,043	0,093
-490,751	43,833	-0,047	-0,032
-489,737	-200,000	-0,031	-0,157
-488,722	-50,671	0,074	-0,025
-487,708	601,520	0,049	-0,091
-486,693	54,275	-0,077	0,054
-485,678	87,995	0,002	0,002
-484,664	-200,000	-0,002	-0,058
-483,649	7,366	-0,151	0,083
-482,635	-84,118	-0,053	-0,012
-481,620	86,198	0,012	0,010
-480,605	51,383	0,112	0,078
-479,591	800,000	0,034	0,103
-478,576	465,551	-0,057	0,094
-477,562	-200,000	0,011	-0,145
-476,547	336,061	-0,072	-0,103
-475,532	-200,000	0,001	-0,046
-474,518	-200,000	-0,010	-0,052
-473,503	-55,003	0,045	0,015
-472,489	800,000	0,031	-0,084
-471,474	-200,000	-0,006	0,107
-470,459	800,000	-0,021	0,051
-469,445	25,456	0,100	-0,061
-468,430	25,280	-0,056	-0,034
-467,416	59,161	0,071	0,052
-466,401	-200,000	0,014	0,128
-465,386	55,300	0,015	0,011
-464,372	201,986	-0,050	0,056
-463,357	-200,000	-0,008	0,167
-462,343	800,000	-0,030	0,080
-461,328	-180,905	0,156	0,002
-460,313	-123,896	-0,133	-0,015
-459,299	55,337	0,017	-0,012
-458,284	553,054	0,040	0,070
-457,270	-188,552	0,085	-0,001
-456,255	690,857	0,041	0,079
-455,241	52,414	0,109	0,077
-454,226	-44,578	0,212	-0,078
-453,211	55,200	0,035	0,025
-452,197	19,063	0,063	0,037
-451,182	-106,569	0,032	-0,005
-450,168	754,821	0,050	0,101
-449,153	-167,069	0,004	-0,000
-448,138	-200,000	-0,005	0,089
-447,124	-70,356	-0,056	-0,016
-446,109	120,751	0,099	-0,091
-445,095	-200,000	-0,027	0,205
-444,080	-93,529	-0,086	-0,017
-443,065	-200,000	0,012	0,106
-442,051	417,228	0,026	0,040
-441,036	264,933	-0,053	0,069
-440,022	-200,000	0,005	-0,102
-439,007	-63,872	-0,110	-0,033
-437,992	15,194	-0,057	0,033
-436,978	321,692	-0,013	0,018
-435,963	-200,000	0,028	0,094
-434,949	800,000	-0,046	0,131
-433,934	432,021	-0,063	0,101
-432,919	71,813	-0,024	0,018
-431,905	-115,957	-0,048	-0,006
-430,890	515,696	-0,072	0,124
-429,876	-58,621	0,015	-0,005
-428,861	684,748	-0,038	0,073
-427,846	800,000	-0,039	0,088
-426,832	22,322	0,047	-0,028
-425,817	-200,000	-0,003	-0,095
-424,803	-78,718	-0,071	-0,018
-423,788	45,802	0,050	0,034
-422,773	158,613	0,105	0,107
-421,759	-86,991	-0,072	0,016
-420,744	-200,000	-0,024	0,144
-419,730	-77,739	0,105	-0,027
-418,715	-200,000	-0,017	-0,079
-417,701	-196,141	-0,067	-0,000
-416,686	20,865	0,043	0,025
-415,671	-143,520	0,086	-0,006
-414,657	-200,000	0,010	-0,043
-413,642	447,876	0,046	0,075
-412,628	-200,000	0,011	0,076
-411,613	613,975	0,040	0,075
-410,598	240,482	0,067	-0,082
-409,584	-200,000	0,012	-0,097
-408,569	392,249	0,072	0,111
-407,555	-200,000	-0,029	0,114
-406,540	42,219	-0,047	0,032
-405,525	-147,203	0,137	-0,008
-404,511	31,434	-0,093	-0,059
-403,496	312,806	-0,056	-0,078
-402,482	-200,000	-0,004	0,025
-401,467	202,371	-0,024	-0,027
-400,452	195,536	-0,094	0,105
-399,438	345,115	-0,067	0,097
-398,423	585,785	0,056	-0,102
-397,409	265,741	-0,090	0,116
-396,394	-200,000	0,009	-0,142
-395,379	-200,000	-0,031	-0,138
-394,365	800,000	0,056	-0,152
-393,350	-115,795	0,192	-0,026
-392,336	-62,406	-0,079	0,024
-391,321	-51,576	0,118	0,040
-390,306	-127,270	0,092	0,010
-389,292	723,205	-0,074	0,146
-388,277	-200,000	-0,012	0,110
-387,263	119,312	0,053	0,048
-386,248	-74,556	-0,035	-0,009
-385,233	210,464	-0,012	0,013
-384,219	-200,000	-0,001	0,074
-383,204	-200,000	-0,005	0,017
-382,190	-132,942	-0,071	-0,007
-381,175	45,385	0,048	0,033
-380,160	191,332	-0,025	0,028
-379,146	-48,103	0,054	0,019
-378,131	-7,629	-0,140	-0,069
-377,117	-200,000	-0,002	0,047
-376,102	53,610	-0,067	-0,047
-375,088	188,309	0,050	-0,055
-374,073	61,812	-0,065	-0,047
-373,058	-200,000	-0,012	0,049
-372,044	336,468	-0,031	-0,044
-371,029	93,500	-0,012	0,010
-370,015	-59,775	-0,042	-0,013
-369,000	-200,000	-0,026	-0,087
-367,985	-140,562	-0,103	-0,008
-366,971	64,518	0,027	-0,020
-365,956	26,090	0,077	0,047
-364,942	-200,000	-0,038	-0,130
-363,927	-200,000	0,005	0,134
-362,912	32,171	-0,170	0,107
-361,898	-200,000	-0,013	-0,109
-360,883	-200,000	-0,006	0,081
-359,869	800,000	0,046	-0,149
-358,854	-62,990	0,070	-0,021
-357,839	800,000	-0,018	-0,042
-356,825	-161,167	0,029	-0,001
-355,810	233,536	0,048	0,058
-354,796	347,043	0,021	0,031
-353,781	-155,277	-0,080	0,004
-352,766	-200,000	-0,016	-0,065
-351,752	800,000	0,018	0,043
-350,737	220,111	-0,054	-0,063
-349,723	49,775	0,080	-0,055
-348,708	-94,784	0,079	-0,016
-347,693	146,403	-0,123	-0,121
-346,679	45,695	0,025	-0,017
-345,664	108,971	-0,144	-0,127
-344,650	-2,568	0,128	0,065
-343,635	-90,564	0,050	0,010
-342,620	561,356	-0,054	0,096
-341,606	800,000	0,040	-0,089
-340,591	53,903	0,054	0,038
-339,577	800,000	-0,046	0,123
-338,562	137,311	-0,050	0,048
-337,548	-200,000	0,020	-0,077
-336,533	-200,000	-0,011	0,131
-335,518	27,182	0,090	0,055
-334,504	800,000	-0,069	0,148
-333,489	73,482	-0,017	0,013
-332,475	-200,000	-0,008	0,122
-331,460	-200,000	0,005	0,026
-330,445	80,895	-0,022	-0,018
-329,431	44,612	-0,097	0,065
-328,416	-88,813	0,067	0,015
-327,402	115,526	0,079	-0,071
-326,387	499,445	0,008	0,013
-325,372	800,000	0,055	-0,129
-324,358	-200,000	0,002	-0,021
-323,343	34,217	-0,056	-0,036
-322,329	-200,000	-0,031	0,126
-321,314	201,685	0,088	0,100
-320,299	-114,721	0,140	0,019
-319,285	-200,000	-0,004	0,036
-318,270	39,260	-0,176	0,116
-317,256	800,000	0,031	0,089
-316,241	-34,070	0,034	0,014
-315,226	-200,000	0,002	0,039
-314,212	-200,000	-0,005	-0,063
-313,197	-108,468	0,110	0,017
-312,183	800,000	-0,048	0,101
-311,168	-200,000	0,002	0,132
-310,153	33,535	-0,035	-0,022
-309,139	800,000	0,052	-0,140
-308,124	-57,768	-0,011	0,003
-307,110	-13,840	-0,051	0,024
-306,095	-200,000	0,011	0,121
-305,080	-118,152	-0,119	0,015
-304,066	-74,177	-0,153	0,040
-303,051	165,106	-0,047	-0,048
-302,037	-103,909	-0,060	-0,010
-301,022	64,693	0,022	-0,016
-300,008	800,000	0,034	0,095
-298,993	-33,505	0,165	0,066
-297,978	-200,000	0,014	0,051
-296,964	-200,000	0,008	-0,044
-295,949	92,665	-0,036	-0,029
-294,935	800,000	0,051	-0,122
-293,920	695,209	0,050	0,097
-292,905	-103,483	0,037	0,006
-291,891	800,000	0,037	-0,109
-290,876	436,004	-0,057	0,091
-289,862	313,621	-0,075	-0,104
-288,847	800,000	-0,017	-0,053
-287,832	-27,881	-0,120	-0,051
-286,818	-77,791	0,120	0,030
-285,803	-200,000	0,002	0,077
-284,789	800,000	0,029	-0,076
-283,774	-200,000	-0,019	0,083
-282,759	-200,000	-0,007	0,045
-281,745	55,052	-0,074	0,052
-280,730	-185,068	-0,155	-0,002
-279,716	-55,505	-0,144	0,047
-278,701	800,000	0,035	0,086
-277,686	650,542	0,043	0,081
-276,672	-51,791	0,193	0,066
-275,657	231,262	0,046	-0,055
-274,643	-53,396	-0,150	0,050
-273,628	34,804	-0,050	-0,032
-272,613	13,210	-0,061	-0,035
-271,599	65,881	0,174	0,129
-270,584	291,470	-0,060	0,081
-269,570	28,430	0,115	-0,071
-268,555	326,284	0,017	0,025
-267,540	-120,246	-0,112	0,014
-266,526	-200,000	0,000	-0,035
-265,511	119,377	-0,079	-0,072
-264,497	-41,846	0,055	0,021
-263,482	-34,685	-0,038	-0,015
-262,467	-183,218	0,164	-0,002
-261,453	283,929	0,003	-0,004
-260,438	396,846	-0,023	0,036
-259,424	-200,000	0,008	-0,070
-258,409	1,925	0,045	-0,023
-257,395	-148,509	0,040	-0,002
-256,380	167,314	0,031	0,032
-255,365	-200,000	0,037	0,135
-254,351	-41,169	0,181	0,068
-253,336	43,830	0,056	0,037
-252,322	63,503	-0,063	-0,046
-251,307	74,297	-0,015	-0,011
-250,292	-35,350	-0,086	-0,034
-249,278	800,000	0,050	-0,139
-248,263	-200,000	0,019	0,087
-247,249	134,401	-0,051	0,048
-246,234	118,836	-0,096	-0,086
-245,219	783,231	-0,090	-0,182
-244,205	-200,000	0,017	-0,145
-243,190	-30,727	-0,106	-0,044
-242,176	136,312	0,036	-0,035
-241,161	-119,333	0,065	0,008
-240,146	46,416	0,028	0,019
-239,132	332,822	0,036	-0,052
-238,117	-200,000	0,002	-0,065
-237,103	165,887	0,071	-0,073
-236,088	-200,000	0,015	0,085
-235,073	-200,000	0,016	-0,062
-234,059	-71,440	0,066	-0,018
-233,044	510,914	0,030	-0,051
-232,030	800,000	0,114	-0,243
-231,015	748,215	-0,054	-0,106
-230,000	33,444	-0,148	-0,094
-228,986	370,617	0,006	0,009
-227,971	-200,000	0,001	0,022
-226,957	-147,039	0,142	-0,009
-225,942	14,340	0,038	-0,022
-224,927	697,815	0,054	-0,105
-223,913	-200,000	0,028	-0,096
-222,898	-73,561	0,085	-0,022
-221,884	800,000	-0,016	-0,034
-220,869	800,000	-0,015	0,046
-219,855	-97,357	0,144	0,027
-218,840	-42,665	0,075	-0,028
-217,825	3,014	0,057	-0,030
-216,811	-101,248	-0,074	0,013
-215,796	-200,000	-0,001	-0,051
-214,782	800,000	0,067	-0,183
-213,767	-104,140	0,074	0,013
-212,752	12,344	0,043	-0,024
-211,738	-200,000	0,038	0,125
-210,723	-200,000	-0,017	0,086
-209,709	800,000	-0,046	0,105
-208,694	800,000	0,024	0,065
-207,679	-34,242	-0,058	-0,023
-206,665	288,524	0,021	0,028
-205,650	39,202	-0,059	0,039
-204,636	-24,861	0,084	-0,036
-203,621	12,971	0,092	0,052
-202,606	64,878	0,015	0,011
-201,592	720,271	-0,071	-0,139
-200,577	12,906	0,126	-0,071
-199,563	-200,000	-0,011	0,154
-198,548	800,000	0,033	0,067
-197,533	-126,992	-0,069	-0,007
-196,519	625,704	-0,023	-0,043
-195,504	-200,000	0,014	-0,056
-194,490	-200,000	0,032	-0,112
-193,475	786,505	0,037	-0,075
-192,460	-21,482	-0,043	-0,019
-191,446	491,601	0,052	0,086
-190,431	353,297	-0,067	-0,097
-189,417	23,375	0,062	0,037
-188,402	198,562	-0,072	-0,081
-187,387	269,254	0,041	-0,053
-186,373	-1,194	0,149	-0,077
-185,358	672,180	-0,031	0,059
-184,344	800,000	-0,035	-0,098
-183,329	-200,000	0,014	0,053
-182,315	-61,888	-0,057	-0,017
-181,300	349,944	-0,036	0,052
-180,285	245,563	0,062	0,076
-179,271	-55,417	-0,091	-0,029
-178,256	152,499	0,062	0,062
-177,242	-69,228	0,021	-0,006
-176,227	-200,000	0,023	-0,097
-175,212	303,347	0,073	-0,099
-174,198	-200,000	-0,001	0,071
-173,183	-200,000	-0,021	-0,183
-172,169	88,038	-0,034	0,027
-171,154	-12,712	0,060	-0,028
-170,139	-200,000	0,005	0,099
-169,125	137,206	0,046	0,044
-168,110	-47,522	0,057	0,020
-167,096	-200,000	-0,000	0,024
-166,081	564,212	-0,009	0,016
-165,066	-110,065	-0,163	-0,025
-164,052	-200,000	-0,032	-0,116
-163,037	-40,545	0,048	-0,018
-162,023	-200,000	0,014	0,093
-161,008	-146,342	-0,050	-0,003
-159,993	-10,250	-0,156	0,075
-158,979	800,000	0,043	-0,135
-157,964	-200,000	-0,043	0,138
-156,950	-200,000	-0,004	-0,104
-155,935	46,354	-0,080	0,054
-154,920	-200,000	0,002	0,121
-153,906	717,492	0,095	0,186
-152,891	-70,236	0,056	-0,015
-151,877	-102,561	-0,054	-0,009
-150,862	-36,114	0,061	-0,024
-149,847	4,963	-0,031	0,017
-148,833	-200,000	0,015	0,064
-147,818	-138,586	0,118	-0,009
-146,804	14,341	0,136	-0,077
-145,789	-28,500	0,031	-0,013
-144,775	-51,642	-0,119	-0,040
-143,760	-200,000	0,024	-0,114
-142,745	-13,293	0,094	-0,044
-141,731	-200,000	0,001	-0,096
-140,716	-168,946	-0,048	0,001
-139,702	-200,000	0,016	0,213
-138,687	65,912	0,023	0,017
-137,672	-200,000	-0,004	-0,022
-136,658	130,841	-0,113	0,105
-135,643	800,000	0,030	-0,086
-134,629	-200,000	-0,002	-0,190
-133,614	800,000	0,054	0,132
-132,599	-49,028	-0,091	0,031
-131,585	440,310	0,086	0,138
-130,570	-117,266	0,108	-0,014
-129,556	768,241	-0,036	-0,071
-128,541	-21,217	-0,105	-0,046
-127,526	241,731	0,013	-0,016
-126,512	-113,959	0,101	0,014
-125,497	-200,000	0,001	0,047
-124,483	228,491	0,124	0,148
-123,468	-97,949	0,198	0,037
-122,453	358,653	0,018	0,026
-121,439	312,882	-0,034	0,046
-120,424	-111,635	-0,132	-0,019
-119,410	433,533	0,118	-0,187
-118,395	-200,000	0,033	-0,109
-117,380	110,911	-0,078	0,069
-116,366	462,383	0,020	-0,032
-115,351	-25,492	-0,136	-0,058
-114,337	221,281	0,054	0,063
-113,322	249,441	-0,044	0,054
-112,307	-97,398	0,081	-0,015
-111,293	-200,000	0,022	0,132
-110,278	-125,470	-0,046	0,005
-109,264	99,146	0,072	0,060
-108,249	692,929	-0,032	-0,061
-107,234	-82,108	-0,063	-0,015
-106,220	-20,522	0,125	-0,056
-105,205	-200,000	0,014	-0,101
-104,191	-20,054	0,097	0,043
-103,176	133,448	0,124	0,116
-102,162	245,291	0,067	0,082
-101,147	-200,000	0,020	0,136
-100,132	478,739	-0,035	0,059
-99,118	-200,000	-0,002	-0,049
-98,103	-62,795	-0,154	0,046
-97,089	-99,365	0,112	-0,020
-96,074	800,000	-0,058	0,145
-95,059	-39,693	0,167	0,063
-94,045	369,927	-0,074	0,109
-93,030	239,050	-0,019	0,023
-92,016	-62,695	0,115	-0,034
-91,001	473,865	0,030	-0,049
-89,986	-75,143	0,141	0,036
-88,972	-176,109	0,047	-0,001
-87,957	257,859	-0,013	-0,017
-86,943	88,629	0,070	-0,056
-85,928	-200,000	-0,008	0,040
-84,913	800,000	0,056	-0,157
-83,899	-145,744	0,107	-0,007
-82,884	-128,702	0,091	0,009
-81,870	800,000	-0,059	-0,165
-80,855	187,253	-0,091	0,099
-79,840	295,503	0,039	-0,052
-78,826	800,000	-0,067	-0,178
-77,811	591,506	0,020	-0,036
-76,797	21,398	-0,083	-0,049
-75,782	-137,520	0,076	-0,006
-74,767	-16,713	0,173	0,079
-73,753	190,202	0,057	-0,062
-72,738	-200,000	-0,002	-0,109
-71,724	154,173	-0,130	-0,129
-70,709	753,887	0,037	-0,074
-69,694	-10,555	0,030	-0,014
-68,680	-200,000	-0,027	0,092
-67,665	355,263	0,079	-0,114
-66,651	604,701	-0,090	0,163
-65,636	395,469	0,048	0,073
-64,622	-15,358	0,032	0,015
-63,607	139,686	-0,059	-0,056
-62,592	219,217	0,021	0,025
-61,578	800,000	-0,022	0,052
-60,563	276,496	0,027	0,035
-59,549	1,896	0,075	0,039
-58,534	-153,155	-1,373	-0,069
-57,519	514,755	-0,845	-1,438
-56,505	-200,000	-0,832	-4,479
-55,490	85,782	0,491	-0,392
-54,476	800,000	5,054	11,810
-53,461	-200,000	13,450	253,141
-52,446	-200,000	689,061	2262,384
-51,432	593,082	1622,394	2921,596
-50,417	119,786	1635,490	1471,076
-49,403	73,461	1289,515	978,716
-48,388	38,193	1024,526	660,516
-47,373	24,381	982,041	587,690
-46,359	23,611	971,831	579,032
-45,344	22,656	967,401	573,248
-44,330	22,599	965,983	572,199
-43,315	22,482	964,676	571,019
-42,300	22,477	963,650	570,373
-41,286	22,419	962,724	569,614
-40,271	22,445	961,660	569,048
-39,257	22,523	960,572	568,632
-38,242	22,367	959,897	567,705
-37,227	22,412	958,907	567,243
-36,213	22,411	958,126	566,755
-35,198	22,407	957,089	566,107
-34,184	22,513	956,603	566,138
-33,169	22,406	955,583	565,168
-32,154	22,525	954,706	565,012
-31,140	22,511	953,748	564,376
-30,125	22,430	953,163	563,748
-29,111	22,429	952,397	563,268
-28,096	22,465	951,707	562,952
-27,082	22,423	950,931	562,337
-26,067	22,470	950,300	562,093
-25,052	22,475	949,443	561,578
-24,038	22,489	948,834	561,242
-23,023	22,443	948,183	560,687
-22,009	22,449	947,631	560,358
-20,994	22,522	946,772	560,059
-19,979	22,506	946,359	559,743
-18,965	22,523	945,598	559,324
-17,950	22,491	945,053	558,880
-16,936	22,400	944,472	558,222
-15,921	22,451	943,491	557,783
-14,906	22,381	943,004	557,251
-13,892	22,341	942,206	556,628
-12,877	22,354	941,691	556,342
-11,863	22,325	941,062	555,857
-10,848	22,372	940,579	555,700
-9,833	22,532	939,867	555,765
-8,819	22,477	939,325	555,248
-7,804	22,409	938,703	554,643
-6,790	22,328	938,212	554,075
-5,775	22,363	937,514	553,749
-4,760	22,361	936,982	553,409
-3,746	22,301	936,389	552,847
-2,731	22,191	935,741	552,094
-1,717	22,105	935,059	551,398
-0,702	22,138	934,471	551,132
0,313	21,991	933,675	551,034
1,327	24,872	931,805	558,944
2,342	34,238	796,400	502,691
3,356	32,029	451,482	281,622
4,371	1,479	293,078	152,386
5,386	-2,772	273,888	138,384
6,400	-4,479	267,994	133,815
7,415	-5,173	265,719	132,031
8,429	-4,731	264,535	131,834
9,444	-4,732	263,581	131,346
10,459	-4,565	262,915	131,154
11,473	-4,653	262,279	130,745
12,488	-4,729	261,874	130,463
13,502	-4,945	261,348	129,994
14,517	-4,879	260,901	129,820
15,531	-4,691	260,530	129,793
16,546	-4,576	260,111	129,675
17,561	-4,830	259,933	129,348
18,575	-4,622	259,612	129,363
19,590	-4,822	259,201	128,967
20,604	-4,640	258,999	129,018
21,619	-4,789	258,545	128,648
22,634	-4,712	258,210	128,538
23,648	-4,819	257,714	128,185
24,663	-4,623	257,712	128,347
25,677	-4,893	257,604	128,042
26,692	-4,704	257,221	128,007
27,707	-4,690	256,865	127,831
28,721	-4,871	256,654	127,555
29,736	-4,712	256,315	127,515
30,750	-4,738	256,083	127,365
31,765	-4,838	255,932	127,191
32,780	-4,693	255,694	127,189
33,794	-4,613	255,431	127,117
34,809	-4,791	255,316	126,892
35,823	-4,855	255,104	126,719
36,838	-4,918	254,757	126,480
37,853	-5,006	254,515	126,272
38,867	-4,910	254,364	126,269
39,882	-5,037	254,188	126,060
40,896	-4,750	253,745	126,080
41,911	-5,090	253,671	125,735
42,926	-5,013	253,378	125,646
43,940	-4,888	253,242	125,676
44,955	-4,978	253,023	125,478
45,969	-4,867	252,642	125,374
46,984	-5,038	252,403	125,095
47,999	-5,317	252,137	124,710
49,013	-5,555	251,912	124,382
50,028	-5,638	251,670	124,179
51,042	-5,690	251,539	124,058
52,057	-5,770	251,253	123,837
53,071	-5,678	250,981	123,771
54,086	-5,803	250,982	123,653
55,101	-5,542	250,719	123,737
56,115	-5,297	250,656	123,907
57,130	-5,059	250,472	124,009
58,144	-4,549	250,396	124,400
59,159	-4,738	250,042	124,051
60,174	-4,501	249,873	124,159
61,188	-4,696	249,711	123,901
62,203	-4,687	249,505	123,795
63,217	-4,767	249,308	123,617
64,232	-4,816	249,089	123,455
65,247	-4,795	248,969	123,403
66,261	-4,820	248,681	123,228
67,276	-5,001	248,327	122,888
68,290	-5,069	248,038	122,676
69,305	-5,536	248,004	122,250
70,320	-5,417	247,751	122,215
71,334	-4,876	247,669	122,624
72,349	-4,809	247,560	122,617
73,363	-4,647	247,308	122,618
74,378	-4,879	247,229	122,371
75,393	-4,785	246,892	122,273
76,407	-4,685	246,582	122,193
77,422	-4,671	246,614	122,210
78,436	-4,836	246,298	121,903
79,451	-4,776	246,080	121,834
80,466	-4,874	245,817	121,611
81,480	-4,866	245,436	121,419
82,495	-5,088	245,329	121,168
83,509	-4,930	245,236	121,244
84,524	-4,946	244,956	121,082
85,539	-5,272	244,881	120,760
86,553	-5,018	244,663	120,855
87,568	-5,277	244,476	120,535
88,582	-4,968	244,095	120,595
89,597	-5,133	244,217	120,506
90,611	-5,075	244,183	120,527
91,626	-4,740	243,761	120,588
92,641	-4,931	243,669	120,372
93,655	-4,869	243,540	120,349
94,670	-4,910	243,253	120,162
95,684	-4,891	243,009	120,047
96,699	-5,022	242,907	119,877
97,714	-4,884	242,525	119,792
98,728	-5,142	242,538	119,574
99,743	-5,215	242,330	119,400
100,757	-5,153	242,009	119,283
101,772	-5,349	241,934	119,072
102,787	-5,264	241,746	119,040
103,801	-5,196	241,716	119,071
104,816	-5,074	241,459	119,034
105,830	-4,899	241,318	119,099
106,845	-4,926	241,220	119,017
107,860	-4,663	240,908	119,070
108,874	-4,699	240,635	118,895
109,889	-4,980	240,563	118,617
110,903	-5,223	240,414	118,333
111,918	-5,015	240,127	118,352
112,933	-4,953	240,079	118,369
113,947	-5,092	239,990	118,200
114,962	-4,853	239,689	118,238
115,976	-4,852	239,543	118,156
116,991	-4,770	239,353	118,119
118,006	-4,877	239,134	117,913
119,020	-4,805	238,913	117,852
120,035	-4,846	238,989	117,845
121,049	-4,738	238,792	117,826
122,064	-4,752	238,615	117,717
123,079	-4,960	238,373	117,417
124,093	-5,076	238,122	117,189
125,108	-4,963	237,978	117,199
126,122	-5,248	237,794	116,867
127,137	-5,420	237,520	116,582
128,151	-5,313	237,293	116,547
129,166	-5,075	237,293	116,730
130,181	-5,165	236,911	116,458
131,195	-5,224	236,894	116,392
132,210	-5,200	236,672	116,292
133,224	-5,057	236,604	116,364
134,239	-4,894	236,333	116,351
135,254	-4,790	236,362	116,439
136,268	-4,984	236,044	116,117
137,283	-5,258	235,833	115,781
138,297	-5,321	235,612	115,611
139,312	-5,374	235,254	115,384
140,327	-5,053	235,251	115,629
141,341	-4,559	235,235	116,008
142,356	-4,670	235,223	115,902
143,370	-4,515	234,975	115,894
144,385	-4,559	234,891	115,807
145,400	-4,458	234,667	115,767
146,414	-4,665	234,539	115,528
147,429	-4,507	234,363	115,558
148,443	-4,620	234,197	115,374
149,458	-4,562	233,922	115,275
150,473	-4,493	233,816	115,268
151,487	-4,653	233,590	115,018
152,502	-4,705	233,438	114,893
153,516	-4,707	233,369	114,846
154,531	-4,663	233,123	114,751
155,546	-4,623	233,035	114,728
156,560	-4,894	232,791	114,383
157,575	-4,894	232,495	114,227
158,589	-4,804	232,467	114,275
159,604	-4,571	232,328	114,381
160,619	-4,450	232,123	114,365
161,633	-4,275	232,009	114,437
162,648	-4,600	231,873	114,103
163,662	-4,641	231,685	113,968
164,677	-4,513	231,367	113,903
165,692	-4,537	231,422	113,901
166,706	-4,498	231,180	113,802
167,721	-4,456	231,107	113,789
168,735	-4,536	230,977	113,652
169,750	-4,348	230,732	113,669
170,764	-4,581	230,658	113,439
171,779	-4,327	230,508	113,554
172,794	-4,415	230,339	113,392
173,808	-4,661	230,109	113,076
174,823	-5,163	229,622	112,434
175,837	-5,377	229,738	112,314
176,852	-4,807	229,610	112,687
177,867	-4,570	229,518	112,816
178,881	-4,510	229,352	112,772
179,896	-4,426	229,164	112,735
180,910	-4,392	229,011	112,676
181,925	-4,356	229,057	112,716
182,940	-4,388	228,681	112,497
183,954	-4,275	228,598	112,533
184,969	-4,233	228,439	112,478
185,983	-4,411	228,341	112,281
186,998	-4,206	228,098	112,311
188,013	-4,431	228,033	112,095
189,027	-4,372	227,928	112,079
190,042	-4,392	227,629	111,906
191,056	-4,281	227,495	111,916
192,071	-4,326	227,390	111,819
193,086	-4,455	227,213	111,623
194,100	-4,552	227,047	111,456
195,115	-4,780	226,669	111,086
196,129	-5,257	226,485	110,618
197,144	-1,982	227,465	113,616
198,159	2,027	228,490	117,219
199,173	3,955	229,049	118,988
200,188	4,274	228,962	119,179
201,202	4,352	228,819	119,154
202,217	4,138	228,708	118,920
203,232	4,381	228,664	119,074
204,246	4,811	228,529	119,325
205,261	4,810	228,272	119,179
206,275	4,876	228,253	119,210
207,290	4,925	228,151	119,184
208,304	5,069	227,922	119,164
209,319	4,660	227,882	118,818
210,334	4,809	227,604	118,777
211,348	4,625	227,358	118,497
212,363	4,277	227,099	118,085
213,377	3,990	226,908	117,756
214,392	3,999	226,859	117,726
215,407	4,215	226,697	117,797
216,421	4,015	226,610	117,588
217,436	3,895	226,456	117,406
218,450	3,724	226,068	117,065
219,465	3,595	226,047	116,945
220,480	3,775	225,897	116,993
221,494	3,802	225,775	116,941
222,509	4,045	225,528	116,987
223,523	3,785	225,566	116,799
224,538	3,702	225,295	116,586
225,553	3,989	225,091	116,687
226,567	4,140	225,043	116,766
227,582	4,261	225,048	116,850
228,596	4,362	224,786	116,780
229,611	3,775	224,604	116,231
230,626	3,686	224,425	116,061
231,640	3,799	224,313	116,078
232,655	4,029	224,175	116,170
233,669	4,304	224,165	116,362
234,684	4,491	223,968	116,390
235,699	4,187	223,790	116,058
236,713	4,168	223,631	115,951
237,728	4,116	223,240	115,699
238,742	3,845	223,075	115,399
239,757	3,982	223,025	115,466
240,772	3,898	222,935	115,346
241,786	3,791	222,839	115,206
242,801	3,923	222,912	115,333
243,815	4,267	222,498	115,365
244,830	4,139	222,583	115,304
245,844	3,873	222,406	115,003
246,859	4,118	222,186	115,062
247,874	4,216	222,018	115,038
248,888	4,210	221,884	114,953
249,903	4,162	221,708	114,816
250,917	4,083	221,435	114,606
251,932	3,941	221,439	114,492
252,947	4,120	221,015	114,396
253,961	3,907	221,024	114,231
254,976	3,881	220,984	114,181
255,990	4,192	220,859	114,337
257,005	4,143	220,807	114,264
258,020	4,182	220,517	114,132
259,034	4,502	220,442	114,321
260,049	4,202	220,369	114,050
261,063	4,308	220,263	114,064
262,078	4,280	219,971	113,881
263,093	4,590	219,787	114,005
264,107	4,133	219,762	113,645
265,122	4,226	219,565	113,601
266,136	4,445	219,506	113,722
267,151	4,372	219,482	113,646
268,166	3,888	219,106	113,085
269,180	3,736	218,835	112,823
270,195	3,713	218,801	112,778
271,209	3,897	218,703	112,853
272,224	3,803	218,613	112,728
273,239	4,041	218,478	112,823
274,253	3,786	218,190	112,477
275,268	3,844	218,065	112,445
276,282	3,656	217,808	112,165
277,297	3,876	217,718	112,270
278,312	3,614	217,788	112,104
279,326	3,693	217,581	112,046
280,341	3,980	217,535	112,221
281,355	3,990	217,362	112,129
282,370	3,851	217,246	111,958
283,384	3,891	216,888	111,793
284,399	3,948	216,687	111,721
285,414	3,552	216,731	111,445
286,428	3,976	216,514	111,631
287,443	3,984	216,545	111,643
288,457	4,241	216,399	111,745
289,472	3,972	216,140	111,406
290,487	3,431	215,824	110,842
291,501	3,347	215,699	110,707
292,516	3,640	215,555	110,835
293,530	3,458	215,592	110,713
294,545	3,432	215,552	110,663
295,560	3,623	215,415	110,721
296,574	3,893	215,122	110,755
297,589	4,022	215,000	110,775
298,603	4,077	214,986	110,798
299,618	4,059	214,804	110,681
300,633	4,083	214,718	110,644
301,647	4,142	214,592	110,612
302,662	4,278	214,498	110,651
303,676	4,156	214,307	110,455
304,691	4,070	214,262	110,360
305,706	4,289	214,015	110,380
306,720	4,372	213,864	110,352
307,735	3,950	213,781	109,998
308,749	3,948	213,459	109,821
309,764	4,112	213,431	109,913
310,779	4,512	213,309	110,126
311,793	4,095	213,094	109,708
312,808	4,219	213,062	109,771
313,822	4,255	212,910	109,708
314,837	4,022	212,702	109,426
315,852	3,800	212,561	109,185
316,866	3,882	212,489	109,197
317,881	4,038	212,377	109,240
318,895	4,044	212,223	109,155
319,910	3,911	211,976	108,925
320,925	3,942	211,762	108,827
321,939	3,474	211,586	108,395
322,954	3,647	211,506	108,467
323,968	4,034	211,566	108,762
324,983	4,190	211,463	108,810
325,997	4,039	211,402	108,662
327,012	3,938	211,146	108,449
328,027	4,007	211,126	108,478
329,041	4,337	210,923	108,597
330,056	4,571	210,923	108,752
331,070	3,949	210,565	108,120
332,085	3,631	210,375	107,789
333,100	3,593	210,251	107,689
334,114	4,051	210,106	107,927
335,129	4,095	210,052	107,921
336,143	3,678	209,953	107,567
337,158	3,600	209,720	107,384
338,173	3,734	209,627	107,421
339,187	3,891	209,490	107,451
340,202	3,630	209,354	107,189
341,216	3,717	209,134	107,128
342,231	3,756	209,025	107,090
343,246	3,853	208,891	107,079
344,260	3,712	208,758	106,903
345,275	3,753	208,815	106,951
346,289	3,887	208,640	106,945
347,304	3,952	208,452	106,885
348,319	3,955	208,420	106,861
349,333	3,872	208,167	106,664
350,348	3,967	208,187	106,730
351,362	4,008	207,935	106,620
352,377	4,110	207,927	106,677
353,392	4,024	207,646	106,464
354,406	3,952	207,526	106,343
355,421	194,214	1344,298	1434,143
356,435	154,950	1482,911	1434,264
