DTS Sentinel unit serial number:	SN410029Multiplexer serial number:	ORYXHardware model number:	OX2-SRSoftware version number:	ORYX F/W v4,00 Oryx Data Collector v3.7.2.0data status	okinstallation	B6 Nyhavnadifferential loss correction	single-endedforward channel	channel 2reverse channel	N/Adate	2023/12/10time	17:25:08forward acquisition time	300,00reverse acquisition time	0,00gamma	499,1914k internal	0,3123k external	0,3123temperature offset calibration	1,0000default loss term (dB/km)	0,3820temperature slope calibration	1,0000multiplexer offset coefficient	1,0000multiplexer slope coefficient	1,0000fibre end	0,00T internal ref (°C)	22,41T ext. ref 1 (°C)	6,08T ext. ref 2 (°C)	6,10length (m)	temperature (°C)	Stokes	anti-Stokes-744,400	-200,000	-0,008	-0,152
-743,385	86,018	-0,168	0,137
-742,371	-34,769	-0,004	0,002
-741,356	-200,000	-0,035	0,201
-740,342	-132,760	0,032	0,003
-739,327	-57,116	-0,199	-0,065
-738,312	70,072	-0,110	-0,085
-737,298	133,201	-0,210	0,203
-736,283	657,976	0,019	0,037
-735,269	-89,723	-0,141	-0,031
-734,254	-200,000	0,009	0,042
-733,239	-46,727	-0,398	-0,145
-732,225	-137,380	0,049	-0,004
-731,210	-95,126	-0,038	-0,008
-730,196	-164,106	0,150	0,005
-729,181	-8,730	0,009	-0,005
-728,167	400,093	-0,055	-0,086
-727,152	-74,046	-0,041	-0,011
-726,137	-151,318	-0,067	0,004
-725,123	-122,373	-0,116	0,014
-724,108	-200,000	0,055	-0,182
-723,094	238,073	-0,045	-0,056
-722,079	-7,157	-0,062	0,031
-721,064	800,000	0,039	-0,102
-720,050	333,671	-0,040	-0,058
-719,035	800,000	0,036	0,101
-718,021	-200,000	0,041	-0,151
-717,006	-140,712	-0,167	0,013
-715,991	147,537	-0,064	-0,064
-714,977	533,774	-0,090	-0,159
-713,962	-7,915	0,077	-0,039
-712,948	-25,254	-0,041	-0,018
-711,933	362,170	-0,049	-0,074
-710,918	457,829	-0,060	-0,100
-709,904	-47,574	-0,092	0,033
-708,889	800,000	0,018	-0,052
-707,875	132,281	-0,128	-0,123
-706,860	-200,000	0,000	-0,115
-705,845	-87,930	-0,054	-0,012
-704,831	-200,000	0,004	-0,097
-703,816	800,000	-0,026	0,065
-702,802	-200,000	-0,003	-0,054
-701,787	1,189	-0,075	-0,040
-700,772	674,016	-0,008	0,015
-699,758	521,490	0,021	0,036
-698,743	155,696	0,039	-0,040
-697,729	-200,000	0,035	0,142
-696,714	-200,000	-0,033	-0,136
-695,699	152,724	0,091	0,092
-694,685	443,515	-0,048	-0,078
-693,670	-200,000	-0,001	-0,066
-692,656	-200,000	-0,002	-0,029
-691,641	323,597	-0,042	-0,060
-690,627	-200,000	-0,004	-0,023
-689,612	55,603	-0,062	-0,045
-688,597	800,000	0,044	-0,111
-687,583	403,722	-0,111	-0,175
-686,568	187,492	0,063	-0,070
-685,554	-200,000	-0,020	0,070
-684,539	313,428	0,078	0,109
-683,524	-106,192	-0,122	0,020
-682,510	270,689	0,044	-0,058
-681,495	-69,232	-0,053	0,015
-680,481	353,168	-0,060	-0,088
-679,466	-54,130	-0,043	-0,015
-678,451	-200,000	0,015	-0,080
-677,437	-78,878	0,137	-0,034
-676,422	-164,128	0,107	-0,004
-675,408	21,785	-0,060	-0,036
-674,393	109,089	0,048	-0,043
-673,378	155,116	0,069	-0,071
-672,364	146,531	0,047	0,047
-671,349	264,017	-0,028	0,037
-670,335	-81,655	-0,036	0,009
-669,320	28,558	0,047	-0,029
-668,305	-200,000	-0,001	0,034
-667,291	122,350	-0,071	0,066
-666,276	-200,000	-0,000	-0,096
-665,262	-200,000	0,029	-0,134
-664,247	303,466	0,027	-0,038
-663,232	45,571	-0,016	0,011
-662,218	380,682	-0,068	-0,104
-661,203	-200,000	-0,013	-0,159
-660,189	-200,000	-0,001	-0,087
-659,174	772,478	-0,056	-0,114
-658,159	269,753	-0,048	-0,063
-657,145	-200,000	-0,008	-0,128
-656,130	768,795	-0,035	-0,072
-655,116	50,843	0,020	0,014
-654,101	341,333	-0,015	-0,022
-653,086	244,408	0,039	-0,048
-652,072	120,170	-0,072	0,067
-651,057	51,552	-0,029	0,021
-650,043	-200,000	-0,008	0,080
-649,028	231,478	-0,026	0,032
-648,014	-13,454	0,028	-0,013
-646,999	-200,000	0,014	-0,086
-645,984	299,692	0,063	-0,086
-644,970	350,078	0,041	-0,061
-643,955	254,460	-0,079	0,101
-642,941	199,540	-0,098	-0,112
-641,926	-200,000	0,004	0,109
-640,911	-200,000	0,009	-0,029
-639,897	-92,473	0,079	0,016
-638,882	164,578	-0,016	0,017
-637,868	-200,000	-0,036	-0,152
-636,853	-113,109	-0,112	-0,016
-635,838	800,000	0,045	-0,142
-634,824	-30,106	0,129	0,054
-633,809	-5,464	-0,044	0,022
-632,795	34,444	-0,152	0,098
-631,780	-12,000	-0,159	-0,077
-630,765	64,312	0,046	0,034
-629,751	-200,000	-0,018	-0,059
-628,736	276,145	-0,056	0,073
-627,722	-200,000	-0,021	-0,092
-626,707	47,435	-0,073	0,050
-625,692	-131,320	-0,078	-0,008
-624,678	-200,000	-0,009	0,081
-623,663	-200,000	0,008	-0,039
-622,649	-200,000	-0,010	0,071
-621,634	317,049	-0,132	-0,186
-620,619	-81,312	0,060	-0,014
-619,605	-200,000	-0,037	-0,140
-618,590	-200,000	-0,016	0,053
-617,576	-200,000	-0,014	0,082
-616,561	28,188	0,067	0,042
-615,546	-200,000	-0,013	-0,068
-614,532	71,559	-0,100	-0,077
-613,517	-32,821	0,100	-0,041
-612,503	105,337	0,039	-0,034
-611,488	45,993	0,048	-0,033
-610,474	99,768	-0,026	0,022
-609,459	800,000	-0,024	0,054
-608,444	36,638	0,079	0,051
-607,430	563,194	-0,032	-0,057
-606,415	205,389	-0,100	-0,115
-605,401	46,711	-0,100	0,069
-604,386	-190,412	0,097	-0,001
-603,371	-200,000	-0,019	0,088
-602,357	-73,447	0,014	-0,004
-601,342	800,000	0,053	-0,151
-600,328	-139,471	-0,149	-0,012
-599,313	67,996	-0,034	0,026
-598,298	5,738	0,076	0,042
-597,284	79,677	-0,071	0,056
-596,269	189,685	-0,080	0,089
-595,255	361,237	0,079	0,118
-594,240	196,158	0,023	-0,026
-593,225	87,856	-0,020	-0,017
-592,211	-200,000	0,003	-0,123
-591,196	800,000	-0,038	-0,122
-590,182	-200,000	-0,021	0,150
-589,167	351,658	0,066	0,098
-588,152	800,000	-0,059	-0,141
-587,138	-147,933	-0,101	0,006
-586,123	-12,254	-0,068	-0,033
-585,109	-200,000	0,009	-0,105
-584,094	-200,000	0,000	-0,082
-583,079	-179,899	0,051	-0,001
-582,065	229,759	0,050	-0,060
-581,050	800,000	0,030	0,074
-580,036	733,625	0,086	-0,171
-579,021	800,000	0,023	0,052
-578,006	-200,000	-0,010	-0,052
-576,992	301,896	-0,016	0,021
-575,977	365,033	-0,043	-0,065
-574,963	-3,638	0,088	0,045
-573,948	-134,089	0,084	-0,008
-572,934	800,000	-0,012	-0,039
-571,919	-154,706	-0,092	-0,004
-570,904	84,223	0,040	0,032
-569,890	168,312	0,086	-0,090
-568,875	81,121	-0,046	-0,037
-567,861	62,872	-0,037	0,028
-566,846	441,918	0,111	0,181
-565,831	-200,000	0,012	0,155
-564,817	-124,673	-0,082	-0,009
-563,802	-200,000	-0,004	0,069
-562,788	30,949	0,059	0,037
-561,773	-33,769	0,078	0,032
-560,758	136,284	-0,030	-0,029
-559,744	-24,392	0,113	0,050
-558,729	-140,058	-0,040	-0,003
-557,715	-91,589	-0,016	-0,003
-556,700	-200,000	0,011	0,054
-555,685	-104,081	-0,058	-0,010
-554,671	61,101	-0,081	0,059
-553,656	-188,055	0,094	-0,001
-552,642	49,753	0,118	0,082
-551,627	-49,135	-0,186	0,066
-550,612	-79,604	-0,064	0,016
-549,598	132,609	-0,057	0,054
-548,583	-163,339	0,086	0,003
-547,569	-20,874	-0,088	-0,040
-546,554	368,477	0,041	0,062
-545,539	2,352	0,177	0,094
-544,525	-39,799	-0,106	0,041
-543,510	178,014	0,044	-0,048
-542,496	-16,782	0,044	0,020
-541,481	-200,000	-0,057	-0,212
-540,466	-106,020	-0,281	0,046
-539,452	756,945	0,015	0,030
-538,437	480,975	0,067	0,112
-537,423	-200,000	-0,004	-0,035
-536,408	80,832	0,039	-0,031
-535,393	49,144	-0,065	0,045
-534,379	38,142	0,066	0,043
-533,364	630,115	0,030	-0,056
-532,350	149,542	0,115	-0,115
-531,335	515,552	0,045	0,078
-530,321	-9,097	0,056	-0,028
-529,306	57,206	0,070	-0,051
-528,291	-200,000	-0,007	-0,030
-527,277	-69,391	0,011	0,003
-526,262	748,769	0,055	-0,109
-525,248	84,038	0,018	-0,014
-524,233	22,391	0,041	0,025
-523,218	-150,650	0,136	0,008
-522,204	69,190	0,057	0,043
-521,189	-121,818	-0,173	0,021
-520,175	-165,997	0,041	0,001
-519,160	-200,000	0,010	-0,047
-518,145	-200,000	0,006	0,061
-517,131	-21,837	0,153	0,068
-516,116	-200,000	0,002	0,059
-515,102	149,121	-0,033	0,033
-514,087	-157,855	-0,072	0,003
-513,072	-200,000	0,001	-0,127
-512,058	-74,329	0,086	0,023
-511,043	252,345	0,036	-0,045
-510,029	114,705	-0,070	-0,063
-509,014	340,045	-0,033	-0,047
-507,999	-55,481	-0,069	0,023
-506,985	-83,810	0,138	-0,032
-505,970	-91,599	-0,060	-0,012
-504,956	-200,000	-0,027	-0,123
-503,941	-200,000	0,019	-0,077
-502,926	309,745	0,066	0,092
-501,912	373,868	0,052	0,079
-500,897	441,849	-0,040	-0,064
-499,883	-200,000	-0,002	-0,084
-498,868	-200,000	-0,015	0,079
-497,853	-121,791	-0,023	0,003
-496,839	-200,000	0,007	0,041
-495,824	133,973	0,100	0,096
-494,810	-93,920	-0,063	-0,013
-493,795	286,639	0,060	-0,080
-492,781	153,737	-0,027	0,028
-491,766	557,211	0,014	0,026
-490,751	79,435	0,023	-0,018
-489,737	347,953	-0,027	0,040
-488,722	800,000	-0,071	0,177
-487,708	-152,368	0,235	0,012
-486,693	469,974	0,037	0,061
-485,678	-46,016	-0,093	0,034
-484,664	76,929	-0,069	-0,054
-483,649	-200,000	-0,002	0,042
-482,635	343,255	0,071	-0,103
-481,620	179,705	-0,126	0,136
-480,605	-15,701	-0,062	-0,029
-479,591	-137,221	0,052	0,004
-478,576	-40,332	0,062	0,024
-477,562	-81,315	0,080	0,019
-476,547	800,000	0,026	-0,061
-475,532	254,477	0,056	0,071
-474,518	800,000	-0,013	-0,039
-473,503	-200,000	-0,009	0,099
-472,489	72,227	0,113	0,086
-471,474	-24,490	-0,124	-0,054
-470,459	-200,000	-0,014	-0,097
-469,445	-72,955	-0,186	0,050
-468,430	262,642	0,093	-0,119
-467,416	469,853	-0,010	0,017
-466,401	14,718	-0,133	-0,076
-465,386	790,758	-0,028	-0,056
-464,372	-200,000	0,027	0,093
-463,357	193,715	-0,087	-0,097
-462,343	153,366	0,083	0,084
-461,328	-131,178	-0,048	0,005
-460,313	-179,190	0,168	0,003
-459,299	-0,032	0,063	0,033
-458,284	543,340	-0,069	-0,121
-457,270	-85,952	-0,043	-0,010
-456,255	40,253	-0,064	-0,042
-455,241	800,000	0,010	-0,031
-454,226	800,000	-0,029	0,070
-453,211	-25,479	0,050	0,022
-452,197	-200,000	0,000	0,012
-451,182	0,803	-0,042	0,022
-450,168	150,850	-0,169	0,170
-449,153	-200,000	0,002	-0,040
-448,138	530,786	-0,081	-0,142
-447,124	-200,000	0,014	-0,135
-446,109	580,725	0,018	-0,032
-445,095	319,010	0,068	0,095
-444,080	0,024	0,106	0,055
-443,065	-200,000	-0,003	0,026
-442,051	723,512	-0,037	0,073
-441,036	-56,821	-0,071	0,023
-440,022	773,609	-0,019	-0,039
-439,007	59,266	-0,080	-0,058
-437,992	-56,578	0,079	0,026
-436,978	-89,169	0,061	0,013
-435,963	800,000	-0,041	0,099
-434,949	-2,384	0,067	0,035
-433,934	156,641	-0,079	0,080
-432,919	800,000	-0,006	-0,017
-431,905	-140,981	-0,049	0,004
-430,890	-200,000	-0,018	0,062
-429,876	800,000	0,041	0,110
-428,861	-200,000	-0,011	0,096
-427,846	78,536	0,097	-0,076
-426,832	-78,875	-0,087	0,022
-425,817	-83,548	0,105	0,025
-424,803	800,000	-0,056	-0,167
-423,788	30,131	0,034	0,021
-422,773	-130,282	0,107	0,011
-421,759	-200,000	-0,018	0,059
-420,744	-200,000	-0,015	-0,073
-419,730	-200,000	-0,040	-0,134
-418,715	81,956	-0,081	0,065
-417,701	-54,234	0,035	-0,012
-416,686	-92,516	-0,054	0,011
-415,671	-92,717	0,041	-0,008
-414,657	728,368	-0,069	-0,137
-413,642	281,031	-0,053	0,070
-412,628	24,957	0,135	-0,082
-411,613	47,492	0,031	-0,021
-410,598	-135,659	0,137	-0,012
-409,584	348,727	0,033	0,048
-408,569	559,000	-0,070	0,126
-407,555	-200,000	0,006	0,127
-406,540	40,007	0,079	0,052
-405,525	3,846	0,193	-0,103
-404,511	276,004	-0,078	0,102
-403,496	152,543	0,037	-0,038
-402,482	-27,971	-0,026	-0,011
-401,467	800,000	0,052	0,110
-400,452	62,067	-0,108	0,079
-399,438	-200,000	-0,025	-0,128
-398,423	-61,211	0,074	-0,023
-397,409	800,000	-0,016	-0,043
-396,394	-179,620	-0,136	0,002
-395,379	-200,000	-0,001	-0,136
-394,365	-200,000	0,018	-0,066
-393,350	-42,553	0,180	0,067
-392,336	-200,000	0,009	-0,073
-391,321	-89,194	0,110	0,024
-390,306	-135,907	0,064	-0,005
-389,292	457,429	-0,029	-0,047
-388,277	-70,619	0,090	0,025
-387,263	-23,733	-0,046	0,020
-386,248	-200,000	0,004	0,117
-385,233	33,678	-0,006	-0,004
-384,219	-107,707	-0,083	0,013
-383,204	637,257	-0,035	0,066
-382,190	-200,000	0,002	-0,108
-381,175	-200,000	-0,035	-0,149
-380,160	179,138	-0,070	-0,075
-379,146	-18,233	0,067	-0,031
-378,131	-133,337	-0,007	0,001
-377,117	351,361	-0,062	-0,091
-376,102	-200,000	-0,041	-0,139
-375,088	-119,828	0,055	0,007
-374,073	-159,516	0,055	-0,002
-373,058	800,000	0,037	0,092
-372,044	48,269	-0,067	0,046
-371,029	-200,000	-0,010	0,120
-370,015	-200,000	0,004	0,046
-369,000	468,206	-0,027	0,045
-367,985	0,573	0,035	0,018
-366,971	25,814	0,157	0,096
-365,956	-95,945	0,072	-0,014
-364,942	53,450	0,064	0,045
-363,927	166,282	-0,033	0,034
-362,912	-92,175	-0,064	-0,013
-361,898	11,653	-0,071	0,040
-360,883	-200,000	0,006	-0,060
-359,869	543,576	0,046	0,080
-358,854	800,000	0,029	-0,066
-357,839	62,718	0,035	0,026
-356,825	52,833	-0,017	-0,012
-355,810	125,654	-0,013	-0,012
-354,796	71,067	0,069	0,052
-353,781	77,358	-0,047	0,037
-352,766	264,802	0,046	-0,059
-351,752	241,338	0,043	0,053
-350,737	182,566	-0,059	0,064
-349,723	-200,000	0,025	0,099
-348,708	-200,000	-0,016	0,115
-347,693	-200,000	0,007	-0,154
-346,679	-174,252	0,072	0,002
-345,664	78,388	0,006	0,005
-344,650	-71,734	0,052	-0,014
-343,635	-25,236	-0,009	-0,004
-342,620	800,000	0,027	0,071
-341,606	800,000	-0,001	-0,002
-340,591	-200,000	0,015	-0,052
-339,577	-6,573	-0,188	0,094
-338,562	-19,699	-0,019	0,009
-337,548	-83,308	0,207	0,048
-336,533	14,928	0,080	-0,046
-335,518	-82,053	0,053	0,013
-334,504	566,523	-0,021	0,037
-333,489	-200,000	0,024	0,095
-332,475	-194,049	-0,093	-0,001
-331,460	-200,000	0,011	-0,068
-330,445	470,617	-0,022	-0,037
-329,431	800,000	0,042	0,127
-328,416	-200,000	0,032	0,305
-327,402	258,659	-0,020	-0,025
-326,387	800,000	-0,040	0,121
-325,372	296,068	0,062	0,083
-324,358	380,914	0,054	-0,082
-323,343	678,244	0,051	-0,098
-322,329	118,674	-0,059	-0,054
-321,314	263,313	-0,055	-0,070
-320,299	-124,232	0,077	-0,009
-319,285	599,919	0,017	0,030
-318,270	-165,919	0,031	0,001
-317,256	-160,357	-0,094	0,004
-316,241	99,428	-0,096	0,082
-315,226	-6,761	-0,101	0,050
-314,212	-46,003	0,132	0,047
-313,197	56,560	0,136	-0,097
-312,183	-200,000	-0,005	-0,019
-311,168	299,390	-0,056	-0,075
-310,153	-200,000	0,024	-0,232
-309,139	245,884	-0,080	-0,099
-308,124	-70,930	0,100	-0,027
-307,110	-200,000	0,008	-0,119
-306,095	-200,000	0,008	-0,038
-305,080	-200,000	-0,050	0,198
-304,066	170,254	0,030	-0,032
-303,051	-137,595	-0,060	-0,005
-302,037	-200,000	-0,009	-0,100
-301,022	-11,684	0,159	-0,076
-300,008	189,703	0,109	-0,120
-298,993	-46,830	0,067	-0,024
-297,978	494,691	-0,087	-0,147
-296,964	189,250	0,069	0,076
-295,949	201,094	-0,126	-0,142
-294,935	10,353	-0,050	0,028
-293,920	57,127	-0,052	-0,037
-292,905	194,280	0,021	-0,023
-291,891	-135,522	0,172	0,015
-290,876	-80,181	-0,176	0,043
-289,862	624,526	-0,025	-0,046
-288,847	-200,000	-0,015	0,060
-287,832	-200,000	0,016	-0,145
-286,818	265,836	-0,063	-0,080
-285,803	800,000	-0,035	-0,106
-284,789	-59,776	0,101	0,031
-283,774	-200,000	0,024	0,134
-282,759	-123,117	-0,088	-0,010
-281,745	-143,301	0,117	0,008
-280,730	800,000	-0,015	0,047
-279,716	445,730	-0,039	0,064
-278,701	111,411	0,148	-0,130
-277,686	800,000	0,018	-0,057
-276,672	12,281	0,080	0,045
-275,657	-200,000	-0,011	-0,043
-274,643	-12,766	-0,070	-0,033
-273,628	-63,056	-0,105	0,031
-272,613	63,488	0,103	-0,075
-271,599	-200,000	0,005	-0,075
-270,584	-109,901	0,089	0,013
-269,570	220,613	-0,049	0,058
-268,555	-34,936	0,053	-0,021
-267,540	-121,801	-0,063	0,008
-266,526	154,117	-0,057	-0,057
-265,511	-94,620	-0,025	0,005
-264,497	-68,881	0,061	-0,017
-263,482	-128,222	-0,040	0,004
-262,467	-200,000	0,004	-0,087
-261,453	-200,000	-0,013	0,090
-260,438	-200,000	-0,008	-0,063
-259,424	94,189	-0,161	-0,134
-258,409	-200,000	-0,007	-0,079
-257,395	22,104	-0,076	0,045
-256,380	612,643	-0,074	0,135
-255,365	-54,963	0,041	0,013
-254,351	800,000	-0,028	0,066
-253,336	-200,000	-0,009	-0,040
-252,322	800,000	-0,032	0,076
-251,307	740,046	0,037	0,074
-250,292	28,641	0,070	0,043
-249,278	-200,000	-0,059	0,244
-248,263	-200,000	0,002	-0,038
-247,249	800,000	0,019	0,059
-246,234	-23,777	-0,101	-0,044
-245,219	-171,937	-0,204	-0,005
-244,205	-86,142	-0,057	0,013
-243,190	-46,162	-0,093	-0,033
-242,176	-200,000	0,015	0,170
-241,161	150,756	0,060	0,060
-240,146	-53,274	0,033	-0,011
-239,132	-92,633	-0,132	-0,027
-238,117	-200,000	-0,042	-0,157
-237,103	800,000	0,029	-0,075
-236,088	-51,350	-0,115	0,039
-235,073	-200,000	-0,000	0,026
-234,059	72,431	0,045	-0,034
-233,044	-88,280	0,106	0,023
-232,030	438,176	-0,022	0,035
-231,015	800,000	-0,059	-0,132
-230,000	-49,535	0,068	0,023
-228,986	800,000	-0,021	-0,060
-227,971	-200,000	0,002	0,064
-226,957	-200,000	-0,023	-0,081
-225,942	244,209	0,038	0,047
-224,927	-31,055	-0,153	0,063
-223,913	800,000	0,017	-0,046
-222,898	800,000	0,026	-0,055
-221,884	-132,357	-0,049	-0,005
-220,869	-142,252	-0,023	0,002
-219,855	800,000	0,015	-0,035
-218,840	-62,617	0,150	0,045
-217,825	800,000	0,029	-0,086
-216,811	92,525	-0,039	0,032
-215,796	47,554	-0,073	0,050
-214,782	-174,314	0,136	-0,003
-213,767	-99,560	0,063	-0,011
-212,752	-200,000	-0,018	0,091
-211,738	-161,279	0,098	0,004
-210,723	411,625	-0,104	0,162
-209,709	70,824	0,033	-0,025
-208,694	262,498	-0,071	-0,090
-207,679	-176,717	-0,123	0,002
-206,665	246,415	-0,091	0,112
-205,650	33,492	0,137	-0,087
-204,636	-200,000	0,004	-0,037
-203,621	65,533	-0,033	-0,025
-202,606	-200,000	0,015	-0,133
-201,592	7,290	-0,109	-0,059
-200,577	-56,469	-0,050	0,016
-199,563	-125,153	0,040	0,004
-198,548	800,000	0,033	0,088
-197,533	-188,003	-0,078	0,001
-196,519	-96,506	0,141	0,027
-195,504	406,227	-0,059	-0,092
-194,490	-22,442	-0,124	-0,054
-193,475	800,000	-0,064	-0,155
-192,460	744,103	0,083	0,164
-191,446	41,511	0,102	-0,067
-190,431	-52,250	0,075	-0,025
-189,417	236,917	0,123	0,149
-188,402	-200,000	0,017	0,147
-187,387	800,000	0,013	0,040
-186,373	35,609	0,024	-0,015
-185,358	-200,000	0,007	-0,065
-184,344	78,377	0,105	-0,082
-183,329	524,076	-0,020	-0,034
-182,315	247,963	0,037	-0,045
-181,300	180,887	-0,047	0,051
-180,285	39,220	-0,145	-0,094
-179,271	-21,029	0,080	0,035
-178,256	406,261	-0,083	0,129
-177,242	-142,895	-0,092	-0,006
-176,227	310,320	-0,032	0,044
-175,212	744,026	0,046	0,090
-174,198	137,186	-0,041	-0,040
-173,183	665,593	-0,024	0,046
-172,169	96,134	-0,086	0,072
-171,154	-15,030	0,051	0,024
-170,139	46,457	-0,032	-0,022
-169,125	370,410	0,062	0,091
-168,110	280,674	0,036	-0,047
-167,096	113,990	-0,024	0,021
-166,081	-79,018	-0,101	0,025
-165,066	-132,079	-0,092	0,009
-164,052	-54,677	-0,072	-0,024
-163,037	159,647	0,054	0,054
-162,023	-127,121	0,122	0,013
-161,008	232,135	0,071	-0,084
-159,993	-65,680	-0,091	0,026
-158,979	157,007	0,111	-0,112
-157,964	800,000	-0,031	0,069
-156,950	-200,000	0,015	-0,050
-155,935	-177,016	-0,048	0,001
-154,920	336,445	-0,028	-0,040
-153,906	-200,000	-0,014	0,107
-152,891	-118,798	0,037	-0,005
-151,877	-103,812	-0,095	0,016
-150,862	-63,282	-0,128	-0,038
-149,847	-200,000	-0,005	-0,039
-148,833	66,105	0,089	0,066
-147,818	33,733	0,074	-0,047
-146,804	-200,000	-0,021	0,093
-145,789	123,215	0,037	0,034
-144,775	-14,520	0,036	-0,017
-143,760	680,610	0,022	-0,042
-142,745	37,196	-0,142	-0,092
-141,731	-200,000	-0,011	0,078
-140,716	-47,558	0,053	-0,019
-139,702	-200,000	0,019	0,091
-138,687	-136,770	0,143	0,012
-137,672	800,000	-0,017	-0,045
-136,658	-200,000	-0,017	-0,065
-135,643	124,955	0,126	0,115
-134,629	-135,651	0,116	0,010
-133,614	136,808	0,025	-0,023
-132,599	-117,418	0,213	-0,028
-131,585	800,000	-0,059	0,127
-130,570	5,175	0,168	-0,090
-129,556	326,271	-0,095	-0,133
-128,541	173,489	-0,082	0,086
-127,526	800,000	0,063	0,194
-126,512	800,000	0,082	0,165
-125,497	-200,000	-0,000	0,074
-124,483	186,140	-0,062	0,067
-123,468	191,015	-0,072	-0,079
-122,453	558,340	-0,044	-0,077
-121,439	-16,605	0,040	-0,018
-120,424	477,700	-0,055	-0,091
-119,410	-200,000	-0,011	0,062
-118,395	-85,874	0,118	-0,026
-117,380	36,974	0,102	-0,066
-116,366	800,000	0,014	-0,037
-115,351	7,322	-0,051	-0,028
-114,337	-68,386	-0,168	-0,047
-113,322	-10,639	-0,079	0,038
-112,307	800,000	-0,050	-0,146
-111,293	-200,000	-0,012	0,048
-110,278	800,000	-0,045	0,131
-109,264	175,374	0,058	0,062
-108,249	-134,076	-0,063	-0,006
-107,234	-200,000	-0,005	0,086
-106,220	-25,860	0,049	-0,021
-105,205	26,965	0,117	-0,071
-104,191	-200,000	0,002	-0,086
-103,176	45,425	0,027	0,018
-102,162	318,222	-0,038	0,052
-101,147	800,000	0,041	-0,084
-100,132	796,543	-0,036	-0,073
-99,118	36,608	0,091	0,058
-98,103	800,000	0,012	-0,036
-97,089	61,224	-0,041	-0,029
-96,074	-164,294	0,019	0,001
-95,059	9,968	0,040	0,022
-94,045	85,271	-0,062	-0,049
-93,030	-105,423	-0,178	0,029
-92,016	179,301	0,065	0,069
-91,001	443,263	-0,035	-0,056
-89,986	800,000	-0,042	0,114
-88,972	800,000	0,086	0,220
-87,957	-200,000	0,003	0,050
-86,943	427,100	-0,038	0,060
-85,928	220,184	-0,134	-0,156
-84,913	351,107	0,023	0,033
-83,899	22,948	0,033	0,020
-82,884	-162,567	0,040	0,001
-81,870	-13,883	0,067	-0,032
-80,855	-40,352	0,035	0,013
-79,840	-53,908	0,051	0,017
-78,826	50,495	-0,069	0,048
-77,811	243,393	-0,010	-0,013
-76,797	-155,443	0,058	0,003
-75,782	71,770	0,142	0,107
-74,767	152,079	-0,061	0,061
-73,753	78,110	0,141	0,109
-72,738	108,409	0,084	0,072
-71,724	112,545	-0,024	-0,021
-70,709	-44,657	-0,060	-0,021
-69,694	-200,000	-0,004	0,076
-68,680	13,492	0,091	0,051
-67,665	4,689	0,052	-0,028
-66,651	-200,000	0,002	0,079
-65,636	95,878	0,126	0,105
-64,622	-40,771	-0,072	-0,027
-63,607	162,321	-0,073	0,075
-62,592	800,000	0,016	-0,042
-61,578	207,439	-0,061	-0,069
-60,563	77,312	0,029	-0,022
-59,549	-200,000	-0,008	0,096
-58,534	-195,245	-1,245	0,007
-57,519	554,956	-0,847	-1,486
-56,505	-200,000	-0,887	-4,533
-55,490	3,215	0,604	-0,318
-54,476	800,000	4,991	11,868
-53,461	-200,000	13,533	253,234
-52,446	-200,000	689,531	2261,766
-51,432	592,638	1622,512	2920,467
-50,417	119,672	1635,320	1470,142
-49,403	73,408	1289,313	978,189
-48,388	38,140	1024,458	660,187
-47,373	24,392	981,934	587,569
-46,359	23,686	971,422	578,939
-45,344	22,655	967,359	573,124
-44,330	22,544	965,970	571,918
-43,315	22,423	964,626	570,704
-42,300	22,468	963,432	570,123
-41,286	22,455	962,503	569,508
-40,271	22,439	961,503	568,841
-39,257	22,405	960,789	568,285
-38,242	22,428	959,801	567,754
-37,227	22,376	958,969	567,070
-36,213	22,380	957,870	566,409
-35,198	22,403	957,183	566,056
-34,184	22,412	956,481	565,648
-33,169	22,391	955,485	564,969
-32,154	22,479	954,606	564,709
-31,140	22,471	953,607	564,071
-30,125	22,476	952,882	563,637
-29,111	22,477	952,079	563,143
-28,096	22,441	951,544	562,688
-27,082	22,511	950,669	562,373
-26,067	22,486	949,992	561,868
-25,052	22,418	949,347	561,248
-24,038	22,454	948,661	560,936
-23,023	22,460	948,049	560,569
-22,009	22,445	947,485	560,166
-20,994	22,491	946,730	559,846
-19,979	22,521	946,122	559,559
-18,965	22,437	945,701	559,019
-17,950	22,455	945,004	558,644
-16,936	22,402	944,253	558,006
-15,921	22,379	943,497	557,465
-14,906	22,374	942,627	556,913
-13,892	22,350	942,055	556,475
-12,877	22,311	941,557	556,036
-11,863	22,252	940,999	555,498
-10,848	22,326	940,422	555,371
-9,833	22,411	940,054	555,402
-8,819	22,404	939,405	554,971
-7,804	22,378	938,510	554,340
-6,790	22,326	938,065	553,891
-5,775	22,349	937,473	553,591
-4,760	22,378	936,849	553,291
-3,746	22,311	936,268	552,716
-2,731	22,140	935,581	551,748
-1,717	22,099	935,123	551,327
-0,702	22,198	934,126	551,029
0,313	21,984	933,613	550,883
1,327	24,947	931,618	558,975
2,342	34,453	796,090	502,985
3,356	32,370	451,284	281,967
4,371	1,649	293,257	152,626
5,386	-2,679	274,063	138,538
6,400	-4,200	268,205	134,157
7,415	-4,736	265,801	132,451
8,429	-4,468	264,615	132,092
9,444	-4,558	263,848	131,616
10,459	-4,385	263,108	131,392
11,473	-4,549	262,562	130,959
12,488	-4,594	261,968	130,611
13,502	-4,910	261,467	130,064
14,517	-4,834	261,062	129,919
15,531	-4,610	260,633	129,896
16,546	-4,587	260,317	129,748
17,561	-4,776	260,023	129,420
18,575	-4,491	259,672	129,488
19,590	-4,679	259,292	129,120
20,604	-4,710	259,180	129,025
21,619	-4,818	258,736	128,696
22,634	-4,655	258,395	128,660
23,648	-4,599	258,006	128,505
24,663	-4,876	257,801	128,145
25,677	-4,619	257,673	128,298
26,692	-4,690	257,403	128,090
27,707	-4,739	257,223	127,945
28,721	-4,719	256,672	127,677
29,736	-4,783	256,521	127,534
30,750	-4,722	256,300	127,467
31,765	-4,625	256,000	127,392
32,780	-4,718	255,791	127,195
33,794	-4,659	255,586	127,133
34,809	-4,749	255,369	126,935
35,823	-4,761	255,055	126,757
36,838	-4,743	254,700	126,585
37,853	-4,793	254,694	126,527
38,867	-4,733	254,370	126,407
39,882	-4,738	254,275	126,344
40,896	-4,796	253,882	126,087
41,911	-4,734	253,841	126,110
42,926	-4,682	253,452	125,950
43,940	-4,940	253,254	125,616
44,955	-4,827	253,164	125,659
45,969	-4,822	252,860	125,501
46,984	-5,196	252,592	125,031
47,999	-5,155	252,200	124,862
49,013	-5,390	252,118	124,606
50,028	-5,425	251,786	124,401
51,042	-5,796	251,607	123,980
52,057	-5,570	251,214	123,970
53,071	-5,368	251,095	124,075
54,086	-5,652	250,965	123,754
55,101	-5,311	250,797	123,955
56,115	-5,076	250,558	124,028
57,130	-4,774	250,625	124,310
58,144	-4,471	250,420	124,458
59,159	-4,598	250,346	124,301
60,174	-4,356	249,917	124,285
61,188	-4,584	249,844	124,042
62,203	-4,691	249,590	123,813
63,217	-4,587	249,429	123,811
64,232	-4,474	249,239	123,803
65,247	-4,520	248,936	123,602
66,261	-4,559	248,834	123,507
67,276	-4,762	248,536	123,175
68,290	-5,178	248,280	122,682
69,305	-5,052	247,797	122,540
70,320	-5,261	247,802	122,354
71,334	-4,792	247,644	122,663
72,349	-4,694	247,635	122,731
73,363	-4,719	247,495	122,630
74,378	-4,602	247,232	122,588
75,393	-4,617	246,780	122,340
76,407	-4,579	246,775	122,358
77,422	-4,654	246,517	122,157
78,436	-4,447	246,412	122,269
79,451	-4,661	246,154	121,949
80,466	-4,638	245,827	121,795
81,480	-4,940	245,636	121,436
82,495	-4,964	245,499	121,336
83,509	-4,861	245,352	121,340
84,524	-4,924	245,185	121,193
85,539	-5,091	244,917	120,910
86,553	-5,069	244,720	120,821
87,568	-5,059	244,557	120,737
88,582	-4,987	244,433	120,726
89,597	-4,981	244,125	120,568
90,611	-4,843	244,067	120,644
91,626	-4,588	243,797	120,713
92,641	-4,815	243,759	120,493
93,655	-4,871	243,589	120,352
94,670	-5,051	243,367	120,082
95,684	-4,985	243,177	120,032
96,699	-4,967	243,148	120,022
97,714	-4,964	242,837	119,860
98,728	-5,040	242,540	119,641
99,743	-5,198	242,527	119,492
100,757	-5,095	242,189	119,400
101,772	-5,209	241,915	119,160
102,787	-4,973	241,837	119,306
103,801	-4,943	241,654	119,230
104,816	-4,758	241,425	119,259
105,830	-4,770	241,307	119,181
106,845	-4,738	241,245	119,166
107,860	-4,745	241,007	119,032
108,874	-4,792	240,757	118,859
109,889	-4,966	240,586	118,620
110,903	-4,927	240,353	118,527
111,918	-4,851	240,246	118,526
112,933	-5,142	240,157	118,233
113,947	-4,907	240,006	118,341
114,962	-4,787	239,828	118,341
115,976	-4,697	239,459	118,222
116,991	-4,727	239,405	118,160
118,006	-4,828	239,239	117,985
119,020	-4,668	239,001	117,988
120,035	-4,818	239,023	117,866
121,049	-4,612	239,002	118,013
122,064	-4,740	238,680	117,739
123,079	-4,833	238,403	117,516
124,093	-4,901	238,406	117,452
125,108	-5,085	238,108	117,145
126,122	-5,193	237,780	116,885
127,137	-5,138	237,545	116,804
128,151	-5,215	237,390	116,655
129,166	-5,136	237,272	116,651
130,181	-4,980	237,033	116,649
131,195	-5,134	236,967	116,481
132,210	-4,778	236,778	116,666
133,224	-4,840	236,581	116,508
134,239	-4,770	236,423	116,477
135,254	-4,846	236,251	116,320
136,268	-4,921	236,123	116,187
137,283	-5,183	235,781	115,797
138,297	-5,300	235,496	115,553
139,312	-5,243	235,529	115,604
140,327	-4,937	235,443	115,797
141,341	-4,473	235,463	116,170
142,356	-4,545	235,219	115,981
143,370	-4,260	235,057	116,120
144,385	-4,521	235,022	115,883
145,400	-4,505	234,775	115,764
146,414	-4,440	234,553	115,696
147,429	-4,646	234,548	115,519
148,443	-4,479	234,232	115,485
149,458	-4,448	234,149	115,459
150,473	-4,516	233,826	115,236
151,487	-4,610	233,751	115,113
152,502	-4,422	233,630	115,194
153,516	-4,395	233,443	115,112
154,531	-4,431	233,068	114,889
155,546	-4,430	232,971	114,831
156,560	-4,563	232,939	114,699
157,575	-4,658	232,737	114,515
158,589	-4,572	232,473	114,442
159,604	-4,431	232,469	114,542
160,619	-4,301	232,222	114,513
161,633	-4,120	232,090	114,581
162,648	-3,975	231,925	114,603
163,662	-4,385	231,799	114,207
164,677	-4,567	231,706	114,009
165,692	-4,408	231,449	113,997
166,706	-4,277	231,408	114,070
167,721	-4,260	231,198	113,969
168,735	-4,231	231,100	113,934
169,750	-4,186	230,944	113,882
170,764	-4,351	230,820	113,681
171,779	-4,502	230,706	113,496
172,794	-4,224	230,444	113,575
173,808	-4,283	230,110	113,355
174,823	-4,958	229,870	112,698
175,837	-4,888	229,709	112,664
176,852	-4,748	229,613	112,715
177,867	-4,501	229,605	112,895
178,881	-4,478	229,439	112,821
179,896	-4,292	229,377	112,925
180,910	-4,278	229,079	112,779
181,925	-4,284	228,984	112,719
182,940	-4,238	228,909	112,707
183,954	-4,099	228,742	112,723
184,969	-4,206	228,715	112,616
185,983	-4,197	228,386	112,451
186,998	-4,265	228,345	112,368
188,013	-4,063	228,011	112,350
189,027	-4,159	227,939	112,230
190,042	-4,296	227,814	112,053
191,056	-4,040	227,694	112,182
192,071	-4,151	227,560	112,020
193,086	-4,067	227,223	111,909
194,100	-4,246	227,292	111,795
195,115	-4,476	226,857	111,393
196,129	-4,911	226,698	110,970
197,144	-2,308	227,382	113,304
198,159	1,171	228,545	116,567
199,173	3,791	229,218	118,929
200,188	4,268	229,179	119,268
201,202	4,303	229,106	119,247
202,217	4,439	228,948	119,258
203,232	4,504	228,799	119,220
204,246	4,818	228,639	119,369
205,261	4,710	228,438	119,169
206,275	5,061	228,481	119,452
207,290	5,006	228,213	119,259
208,304	4,988	228,239	119,248
209,319	4,947	227,915	119,036
210,334	4,972	227,641	118,902
211,348	4,615	227,525	118,557
212,363	4,291	227,253	118,156
213,377	4,214	227,015	117,963
214,392	3,867	227,007	117,683
215,407	4,120	226,691	117,702
216,421	4,330	226,565	117,787
217,436	4,062	226,475	117,525
218,450	4,150	226,082	117,377
219,465	3,899	225,815	117,038
220,480	3,840	225,953	117,053
221,494	3,851	225,895	117,021
222,509	4,016	225,853	117,114
223,523	4,068	225,515	116,969
224,538	3,863	225,364	116,724
225,553	3,961	225,244	116,725
226,567	4,170	225,132	116,816
227,582	4,194	225,077	116,795
228,596	4,243	224,974	116,768
229,611	4,186	224,629	116,535
230,626	3,854	224,518	116,217
231,640	3,966	224,278	116,166
232,655	4,327	224,296	116,438
233,669	4,554	224,292	116,597
234,684	4,622	224,272	116,627
235,699	4,597	224,013	116,464
236,713	4,259	223,865	116,121
237,728	3,951	223,521	115,701
238,742	3,951	223,279	115,565
239,757	4,057	223,211	115,600
240,772	4,045	223,123	115,535
241,786	4,010	222,843	115,354
242,801	4,439	222,784	115,634
243,815	4,664	222,660	115,728
244,830	4,448	222,556	115,502
245,844	4,078	222,373	115,120
246,859	4,047	222,322	115,060
247,874	4,340	222,201	115,206
248,888	4,475	222,059	115,223
249,903	4,086	221,891	114,836
250,917	4,155	221,799	114,829
251,932	4,159	221,563	114,700
252,947	4,050	221,301	114,472
253,961	3,974	221,254	114,381
254,976	3,959	221,132	114,297
255,990	4,294	220,945	114,439
257,005	4,269	220,957	114,417
258,020	4,129	220,797	114,220
259,034	4,509	220,756	114,470
260,049	4,305	220,447	114,149
261,063	4,310	220,186	114,007
262,078	4,354	220,210	114,041
263,093	4,395	220,081	113,995
264,107	4,292	220,000	113,867
265,122	4,450	219,756	113,847
266,136	4,548	219,609	113,833
267,151	4,539	219,625	113,824
268,166	4,198	219,268	113,378
269,180	3,899	218,954	112,986
270,195	3,808	218,996	112,930
271,209	3,957	218,743	112,899
272,224	4,124	218,536	112,905
273,239	3,987	218,510	112,781
274,253	4,143	218,400	112,829
275,268	3,870	218,210	112,521
276,282	3,700	218,004	112,280
277,297	3,913	217,766	112,303
278,312	4,044	217,794	112,403
279,326	4,030	217,652	112,310
280,341	4,224	217,539	112,383
281,355	4,004	217,472	112,178
282,370	4,056	217,232	112,082
283,384	4,026	217,043	111,952
284,399	3,923	216,825	111,755
285,414	3,793	216,745	111,609
286,428	3,955	216,763	111,726
287,443	4,115	216,643	111,770
288,457	4,320	216,494	111,833
289,472	4,214	216,265	111,628
290,487	3,642	215,982	111,058
291,501	3,645	215,834	110,974
292,516	4,080	215,666	111,192
293,530	3,703	215,619	110,886
294,545	3,620	215,618	110,815
295,560	3,743	215,516	110,841
296,574	4,158	215,308	111,024
297,589	4,114	215,102	110,876
298,603	4,277	215,116	110,991
299,618	4,097	214,955	110,768
300,633	4,074	214,911	110,719
301,647	4,179	214,787	110,721
302,662	4,446	214,594	110,803
303,676	4,398	214,519	110,720
304,691	4,100	214,338	110,403
305,706	4,241	214,156	110,400
306,720	4,385	214,021	110,424
307,735	4,077	213,762	110,061
308,749	3,793	213,752	109,842
309,764	4,079	213,720	110,021
310,779	4,247	213,577	110,057
311,793	4,355	213,232	109,947
312,808	4,276	213,083	109,804
313,822	4,206	213,021	109,712
314,837	4,121	212,949	109,605
315,852	3,662	212,754	109,168
316,866	4,054	212,510	109,312
317,881	4,274	212,461	109,433
318,895	4,357	212,463	109,483
319,910	4,243	212,033	109,171
320,925	3,857	212,044	108,894
321,939	3,693	211,850	108,668
322,954	3,616	211,707	108,531
323,968	4,081	211,754	108,874
324,983	4,075	211,575	108,768
325,997	4,223	211,428	108,787
327,012	4,423	211,188	108,795
328,027	4,137	211,183	108,581
329,041	4,543	211,168	108,850
330,056	4,576	210,996	108,775
331,070	3,992	210,809	108,258
332,085	3,925	210,536	108,061
333,100	4,007	210,424	108,051
334,114	4,198	210,278	108,101
335,129	4,050	210,306	108,001
336,143	3,966	210,064	107,809
337,158	3,653	209,970	107,532
338,173	3,987	209,814	107,676
339,187	3,940	209,601	107,524
340,202	3,758	209,475	107,323
341,216	3,675	209,275	107,153
342,231	3,915	209,194	107,269
343,246	3,780	209,107	107,121
344,260	3,774	208,962	107,033
345,275	4,058	208,850	107,164
346,289	4,114	208,783	107,159
347,304	4,197	208,587	107,106
348,319	3,954	208,477	106,872
349,333	4,032	208,301	106,826
350,348	4,173	208,303	106,915
351,362	4,198	208,172	106,856
352,377	4,337	207,958	106,833
353,392	4,193	207,797	106,641
354,406	4,116	207,672	106,514
355,421	194,070	1343,923	1433,037
356,435	154,835	1482,465	1433,149
