DTS Sentinel unit serial number:	SN410029Multiplexer serial number:	ORYXHardware model number:	OX2-SRSoftware version number:	ORYX F/W v4,00 Oryx Data Collector v3.7.2.0data status	okinstallation	B6 Nyhavnadifferential loss correction	single-endedforward channel	channel 2reverse channel	N/Adate	2023/12/11time	08:30:08forward acquisition time	300,00reverse acquisition time	0,00gamma	499,1914k internal	0,3130k external	0,3130temperature offset calibration	1,0000default loss term (dB/km)	0,3820temperature slope calibration	1,0000multiplexer offset coefficient	1,0000multiplexer slope coefficient	1,0000fibre end	0,00T internal ref (°C)	17,81T ext. ref 1 (°C)	0,09T ext. ref 2 (°C)	0,09length (m)	temperature (°C)	Stokes	anti-Stokes-744,400	-143,939	0,171	-0,012
-743,385	-188,780	-0,370	-0,003
-742,371	-140,502	0,089	-0,007
-741,356	20,229	-0,218	0,130
-740,342	-9,850	-0,032	0,016
-739,327	-54,007	-0,233	0,078
-738,312	-47,021	0,119	0,043
-737,298	-181,958	-0,285	-0,004
-736,283	274,007	0,064	-0,084
-735,269	7,690	-0,357	0,198
-734,254	25,744	0,151	0,093
-733,239	-39,012	-0,430	-0,167
-732,225	-107,181	0,246	0,040
-731,210	800,000	0,017	0,050
-730,196	314,631	0,020	-0,029
-729,181	-76,630	0,132	-0,034
-728,167	226,844	0,026	0,032
-727,152	264,165	-0,028	0,037
-726,137	-55,519	-0,226	-0,075
-725,123	-200,000	0,025	-0,137
-724,108	-102,910	-0,072	0,013
-723,094	119,540	-0,128	0,118
-722,079	351,814	0,019	0,028
-721,064	-23,961	0,068	-0,030
-720,050	80,177	-0,050	-0,040
-719,035	-200,000	0,007	0,072
-718,021	224,359	-0,011	-0,013
-717,006	-200,000	0,006	0,034
-715,991	-92,304	-0,131	0,027
-714,977	564,012	-0,039	-0,070
-713,962	800,000	-0,047	-0,121
-712,948	21,867	-0,102	-0,062
-711,933	-128,292	-0,068	0,007
-710,918	-200,000	-0,007	0,084
-709,904	-82,134	-0,101	-0,024
-708,889	-200,000	0,029	-0,097
-707,875	548,482	-0,112	-0,200
-706,860	-115,014	-0,043	0,006
-705,845	118,702	0,025	0,023
-704,831	-127,402	0,045	-0,005
-703,816	-83,977	0,029	-0,007
-702,802	-68,809	0,080	-0,023
-701,787	42,782	-0,191	-0,129
-700,772	137,843	0,082	0,080
-699,758	308,998	0,060	-0,083
-698,743	-43,809	0,143	0,053
-697,729	125,643	0,068	0,063
-696,714	32,835	-0,084	0,054
-695,699	-166,793	0,126	0,004
-694,685	50,836	-0,085	-0,060
-693,670	139,947	0,067	-0,066
-692,656	-200,000	0,017	-0,058
-691,641	-200,000	-0,001	0,018
-690,627	144,277	-0,109	-0,108
-689,612	74,615	0,099	-0,077
-688,597	191,467	-0,113	-0,126
-687,583	-84,955	-0,118	0,027
-686,568	587,438	0,057	-0,105
-685,554	-81,906	0,050	-0,012
-684,539	-74,919	-0,107	-0,028
-683,524	593,738	0,070	-0,129
-682,510	378,110	0,062	-0,095
-681,495	385,536	0,030	0,046
-680,481	-200,000	-0,016	-0,059
-679,466	12,772	-0,133	0,076
-678,451	73,959	0,013	0,010
-677,437	264,817	0,044	-0,056
-676,422	800,000	0,015	0,042
-675,408	45,206	-0,140	0,096
-674,393	-200,000	-0,016	0,079
-673,378	-3,379	-0,183	-0,094
-672,364	-12,065	-0,083	-0,040
-671,349	101,051	-0,115	-0,099
-670,335	-200,000	0,038	-0,129
-669,320	-168,278	0,135	-0,004
-668,305	72,441	-0,074	0,057
-667,291	-69,529	-0,070	0,020
-666,276	326,983	-0,027	0,038
-665,262	124,852	0,077	0,072
-664,247	615,083	-0,025	-0,047
-663,232	-47,547	-0,093	0,033
-662,218	800,000	-0,032	0,077
-661,203	3,238	-0,057	0,031
-660,189	-34,379	-0,043	-0,018
-659,174	49,518	-0,179	-0,125
-658,159	115,160	-0,087	-0,079
-657,145	-200,000	-0,006	0,046
-656,130	-7,866	0,058	0,029
-655,116	800,000	0,043	-0,089
-654,101	-112,166	0,055	0,008
-653,086	60,578	-0,057	0,042
-652,072	309,751	0,017	-0,024
-651,057	-81,422	0,156	0,038
-650,043	791,775	0,051	-0,104
-649,028	-120,325	-0,048	-0,006
-648,014	-115,132	-0,060	0,008
-646,999	-200,000	-0,005	0,059
-645,984	20,064	0,070	0,042
-644,970	97,413	-0,061	0,052
-643,955	-70,189	-0,038	-0,011
-642,941	376,603	-0,038	-0,058
-641,926	28,092	0,027	-0,017
-640,911	207,815	-0,064	-0,074
-639,897	-200,000	-0,024	0,101
-638,882	356,425	-0,054	-0,080
-637,868	-49,553	0,037	0,013
-636,853	-200,000	-0,031	-0,104
-635,838	204,846	0,012	-0,014
-634,824	-116,893	-0,037	0,005
-633,809	689,753	0,029	0,057
-632,795	162,781	0,077	-0,080
-631,780	45,675	0,056	-0,039
-630,765	312,668	-0,071	-0,098
-629,751	76,015	-0,049	-0,038
-628,736	416,809	-0,012	0,019
-627,722	32,546	0,114	0,073
-626,707	-200,000	-0,008	0,071
-625,692	-144,108	0,125	-0,009
-624,678	117,772	0,089	-0,081
-623,663	-76,983	-0,073	0,019
-622,649	117,103	0,072	0,065
-621,634	-56,126	-0,147	-0,048
-620,619	57,634	-0,097	0,070
-619,605	800,000	-0,006	0,018
-618,590	132,942	0,086	0,082
-617,576	-35,889	0,054	-0,022
-616,561	82,092	-0,030	-0,024
-615,546	720,866	-0,021	0,043
-614,532	-73,640	-0,082	0,022
-613,517	-200,000	0,014	-0,140
-612,503	-200,000	0,001	-0,006
-611,488	-78,782	0,118	-0,030
-610,474	60,417	0,041	0,030
-609,459	-200,000	-0,001	-0,036
-608,444	-49,513	-0,134	0,047
-607,430	-200,000	-0,019	0,136
-606,415	384,246	-0,042	-0,064
-605,401	110,704	0,063	-0,056
-604,386	-200,000	-0,001	0,134
-603,371	355,140	0,047	-0,070
-602,357	-200,000	0,002	-0,030
-601,342	-200,000	-0,018	-0,109
-600,328	155,214	-0,042	-0,042
-599,313	146,237	-0,054	0,054
-598,298	800,000	-0,024	-0,068
-597,284	-200,000	0,029	0,102
-596,269	39,996	-0,021	0,014
-595,255	237,514	0,110	-0,135
-594,240	800,000	0,057	0,138
-593,225	800,000	0,031	0,066
-592,211	99,853	-0,050	-0,042
-591,196	-107,267	-0,019	0,003
-590,182	-200,000	-0,000	0,011
-589,167	-8,750	0,077	-0,038
-588,152	-120,122	-0,079	-0,010
-587,138	328,196	0,071	-0,100
-586,123	800,000	-0,007	-0,021
-585,109	107,422	-0,055	0,048
-584,094	-168,585	0,082	-0,002
-583,079	90,234	-0,051	0,042
-582,065	162,204	0,126	0,130
-581,050	-200,000	-0,001	0,075
-580,036	181,521	0,013	-0,015
-579,021	-200,000	-0,016	-0,065
-578,006	-55,675	-0,024	0,008
-576,992	-98,595	-0,075	-0,014
-575,977	-200,000	-0,001	-0,076
-574,963	569,047	-0,069	0,124
-573,948	-59,649	-0,027	0,009
-572,934	800,000	0,022	0,051
-571,919	199,820	0,070	0,080
-570,904	-50,372	-0,108	0,037
-569,890	439,635	0,053	0,086
-568,875	800,000	0,044	0,098
-567,861	659,979	0,017	-0,032
-566,846	-45,476	-0,082	-0,030
-565,831	-200,000	-0,001	0,181
-564,817	754,155	-0,055	-0,109
-563,802	800,000	0,068	-0,170
-562,788	142,755	0,052	-0,051
-561,773	800,000	0,027	-0,062
-560,758	-200,000	-0,024	0,079
-559,744	569,984	0,055	-0,098
-558,729	-200,000	-0,016	-0,069
-557,715	-42,615	-0,043	0,016
-556,700	500,135	-0,047	0,080
-555,685	36,335	-0,061	-0,040
-554,671	-183,061	-0,019	-0,000
-553,656	23,544	-0,055	-0,033
-552,642	-82,957	-0,087	0,020
-551,627	274,654	0,049	-0,064
-550,612	343,090	-0,092	0,133
-549,598	-5,604	-0,110	-0,055
-548,583	-71,493	-0,166	-0,046
-547,569	-200,000	0,026	0,173
-546,554	-200,000	-0,012	0,061
-545,539	-53,622	-0,034	0,011
-544,525	133,459	0,040	-0,038
-543,510	-107,307	-0,036	0,006
-542,496	750,755	0,036	-0,072
-541,481	-200,000	-0,008	-0,204
-540,466	610,611	-0,062	0,116
-539,452	-200,000	0,023	0,079
-538,437	800,000	0,073	0,196
-537,423	800,000	0,019	-0,051
-536,408	111,576	-0,109	0,097
-535,393	800,000	0,079	-0,184
-534,379	-200,000	-0,025	-0,177
-533,364	-200,000	-0,017	0,060
-532,350	433,623	0,058	-0,094
-531,335	800,000	-0,018	-0,049
-530,321	-64,925	0,135	0,040
-529,306	223,905	0,025	-0,030
-528,291	128,518	-0,067	0,063
-527,277	800,000	-0,007	0,017
-526,262	-29,891	-0,038	-0,016
-525,248	-83,299	-0,080	0,019
-524,233	2,858	0,071	0,038
-523,218	-75,666	0,105	0,027
-522,204	787,092	-0,028	0,056
-521,189	171,977	-0,075	0,079
-520,175	-200,000	-0,011	-0,077
-519,160	800,000	-0,033	0,086
-518,145	-200,000	0,025	0,171
-517,131	800,000	0,027	-0,066
-516,116	-127,882	0,220	-0,023
-515,102	-200,000	-0,008	0,062
-514,087	800,000	0,059	0,154
-513,072	170,010	-0,080	0,085
-512,058	64,216	0,069	-0,051
-511,043	-200,000	-0,001	-0,087
-510,029	800,000	0,017	0,052
-509,014	149,500	0,107	0,107
-507,999	-200,000	-0,031	0,120
-506,985	-200,000	0,007	0,094
-505,970	-40,360	0,057	0,022
-504,956	800,000	-0,058	-0,172
-503,941	-68,446	-0,028	-0,008
-502,926	15,656	0,092	0,053
-501,912	-167,103	0,072	0,002
-500,897	277,820	-0,085	-0,111
-499,883	-177,688	-0,159	0,003
-498,868	-200,000	0,020	0,067
-497,853	-200,000	-0,022	-0,104
-496,839	-3,259	0,083	-0,043
-495,824	-98,846	-0,020	0,004
-494,810	-148,983	0,094	0,006
-493,795	166,108	0,076	0,079
-492,781	-200,000	-0,030	-0,155
-491,766	97,939	-0,067	-0,057
-490,751	-100,321	-0,157	-0,028
-489,737	260,261	-0,092	0,118
-488,722	353,911	0,048	0,070
-487,708	-200,000	-0,001	-0,007
-486,693	-88,699	0,044	-0,010
-485,678	387,089	-0,037	0,057
-484,664	-2,607	-0,110	0,057
-483,649	343,596	0,037	-0,054
-482,635	-200,000	0,012	-0,045
-481,620	-26,154	-0,019	0,008
-480,605	-162,490	-0,048	0,002
-479,591	-168,151	0,088	0,002
-478,576	-200,000	-0,036	-0,148
-477,562	56,557	-0,084	-0,060
-476,547	-60,876	0,095	-0,029
-475,532	-200,000	-0,002	-0,182
-474,518	-200,000	-0,003	0,014
-473,503	13,730	0,084	-0,048
-472,489	-69,794	0,161	-0,045
-471,474	-65,582	-0,117	0,034
-470,459	-200,000	0,010	0,064
-469,445	352,461	-0,068	-0,100
-468,430	-200,000	0,017	-0,070
-467,416	-200,000	-0,014	-0,051
-466,401	800,000	-0,004	-0,011
-465,386	180,019	0,138	0,149
-464,372	-200,000	0,006	-0,089
-463,357	-29,143	0,068	0,028
-462,343	-24,048	-0,222	-0,097
-461,328	-200,000	0,017	-0,081
-460,313	-200,000	0,031	0,156
-459,299	800,000	0,057	0,126
-458,284	508,296	-0,054	0,093
-457,270	142,078	0,051	0,049
-456,255	-3,200	-0,083	0,042
-455,241	2,015	-0,167	-0,088
-454,226	137,694	-0,097	-0,094
-453,211	3,392	0,074	0,039
-452,197	22,926	-0,166	0,100
-451,182	145,117	0,057	0,056
-450,168	-200,000	-0,014	-0,120
-449,153	65,324	-0,168	-0,125
-448,138	92,519	-0,092	0,076
-447,124	800,000	0,011	0,033
-446,109	15,712	0,076	0,044
-445,095	-87,453	0,069	0,015
-444,080	-200,000	0,068	0,231
-443,065	-89,400	0,038	-0,008
-442,051	-138,628	-0,090	0,007
-441,036	-200,000	-0,022	-0,162
-440,022	-55,168	0,063	0,021
-439,007	-15,962	-0,068	0,032
-437,992	-94,252	-0,092	0,018
-436,978	210,715	0,059	-0,068
-435,963	227,205	-0,136	-0,163
-434,949	63,562	-0,057	-0,042
-433,934	-19,540	-0,080	-0,036
-432,919	-200,000	0,004	-0,147
-431,905	800,000	-0,007	-0,017
-430,890	45,478	0,143	-0,097
-429,876	-151,897	0,031	0,002
-428,861	10,529	0,103	0,058
-427,846	800,000	-0,038	0,109
-426,832	-63,848	-0,144	0,043
-425,817	-25,070	-0,125	-0,054
-424,803	-144,170	-0,130	0,009
-423,788	6,793	0,090	-0,049
-422,773	27,642	0,017	-0,011
-421,759	669,513	-0,020	0,039
-420,744	-94,659	0,075	0,015
-419,730	-200,000	-0,011	-0,082
-418,715	-200,000	-0,011	0,060
-417,701	-107,127	-0,085	-0,014
-416,686	-86,602	0,056	-0,013
-415,671	34,267	-0,092	0,059
-414,657	-95,080	0,058	0,011
-413,642	62,255	-0,088	-0,064
-412,628	-29,144	0,109	0,046
-411,613	-200,000	-0,028	-0,114
-410,598	-27,234	0,166	-0,071
-409,584	-200,000	-0,016	0,164
-408,569	-81,646	0,107	0,026
-407,555	113,864	0,125	-0,112
-406,540	347,958	0,019	-0,028
-405,525	-200,000	-0,003	-0,024
-404,511	-144,257	-0,100	-0,007
-403,496	41,902	0,069	-0,046
-402,482	-42,494	-0,103	0,038
-401,467	90,311	0,016	-0,013
-400,452	626,041	0,068	-0,127
-399,438	-200,000	0,016	0,179
-398,423	-200,000	0,009	0,078
-397,409	149,410	-0,093	-0,093
-396,394	19,761	-0,116	-0,068
-395,379	-200,000	-0,018	-0,134
-394,365	-115,352	-0,058	-0,008
-393,350	-200,000	-0,006	0,041
-392,336	-99,737	0,067	0,012
-391,321	-200,000	-0,031	-0,115
-390,306	-200,000	0,031	-0,127
-389,292	-30,937	-0,062	0,026
-388,277	-200,000	0,015	0,140
-387,263	-101,732	0,071	-0,013
-386,248	19,248	0,079	0,047
-385,233	-200,000	0,001	0,032
-384,219	82,203	-0,124	-0,099
-383,204	-91,452	0,120	-0,025
-382,190	-68,579	-0,106	-0,030
-381,175	-69,469	-0,041	0,011
-380,160	-200,000	0,008	0,058
-379,146	303,117	0,011	-0,015
-378,131	462,976	-0,051	0,084
-377,117	276,939	0,102	-0,133
-376,102	517,451	-0,029	-0,050
-375,088	-200,000	-0,002	-0,040
-374,073	48,619	-0,040	-0,028
-373,058	-0,196	0,089	0,046
-372,044	-91,283	0,134	0,028
-371,029	172,039	0,116	0,123
-370,015	-83,104	0,098	-0,023
-369,000	264,836	-0,051	0,065
-367,985	636,691	-0,017	-0,032
-366,971	800,000	-0,067	0,161
-365,956	-4,401	0,049	-0,025
-364,942	-74,381	-0,058	0,015
-363,927	-125,546	0,141	0,016
-362,912	-69,867	0,184	-0,051
-361,898	-200,000	0,012	-0,048
-360,883	480,569	-0,127	-0,212
-359,869	-200,000	0,001	-0,037
-358,854	-200,000	0,021	0,072
-357,839	-200,000	-0,005	0,103
-356,825	92,589	0,099	-0,082
-355,810	-200,000	0,010	-0,038
-354,796	-200,000	0,021	-0,074
-353,781	800,000	-0,056	0,128
-352,766	800,000	-0,018	0,041
-351,752	-200,000	0,020	0,139
-350,737	-200,000	0,009	-0,055
-349,723	-200,000	0,008	-0,083
-348,708	-200,000	-0,006	0,026
-347,693	41,462	0,077	0,051
-346,679	-200,000	-0,007	-0,140
-345,664	75,438	-0,093	-0,072
-344,650	-200,000	0,013	0,117
-343,635	60,163	0,087	0,063
-342,620	-200,000	-0,005	-0,091
-341,606	-39,550	-0,056	-0,021
-340,591	-109,388	0,170	0,026
-339,577	800,000	0,055	-0,122
-338,562	4,831	-0,087	0,047
-337,548	257,745	0,029	-0,037
-336,533	-63,821	0,081	-0,024
-335,518	-41,063	-0,062	0,023
-334,504	86,563	0,031	-0,025
-333,489	-200,000	-0,005	-0,038
-332,475	-200,000	-0,004	-0,030
-331,460	549,137	0,061	0,108
-330,445	-69,777	0,021	-0,006
-329,431	-50,514	0,043	-0,015
-328,416	58,003	-0,065	0,047
-327,402	226,617	0,035	0,042
-326,387	381,857	0,019	0,029
-325,372	-93,304	0,173	0,035
-324,358	-200,000	-0,066	0,000
-323,343	800,000	-0,005	-0,014
-322,329	-200,000	0,005	0,019
-321,314	137,233	-0,061	0,059
-320,299	87,392	0,138	0,112
-319,285	-16,595	0,124	-0,057
-318,270	-200,000	0,010	-0,055
-317,256	286,767	-0,102	-0,135
-316,241	44,137	-0,096	-0,064
-315,226	93,222	-0,120	0,099
-314,212	-200,000	0,001	-0,100
-313,197	70,646	0,090	0,068
-312,183	45,771	0,051	0,034
-311,168	-200,000	-0,006	0,094
-310,153	100,542	-0,159	-0,135
-309,139	38,941	0,077	0,050
-308,124	-200,000	-0,016	0,113
-307,110	-200,000	0,004	0,177
-306,095	121,535	-0,138	0,126
-305,080	199,779	-0,036	0,041
-304,066	800,000	0,051	0,148
-303,051	26,020	-0,059	0,036
-302,037	-124,057	-0,058	-0,007
-301,022	222,845	0,032	0,038
-300,008	-58,659	0,076	0,024
-298,993	-163,737	0,034	0,001
-297,978	359,370	0,061	0,089
-296,964	-135,535	-0,071	-0,006
-295,949	93,321	0,080	-0,066
-294,935	68,375	-0,128	0,096
-293,920	-77,186	-0,063	-0,016
-292,905	202,164	-0,152	-0,171
-291,891	800,000	0,017	0,051
-290,876	-77,736	0,130	0,033
-289,862	769,994	0,028	0,056
-288,847	-73,599	0,098	-0,026
-287,832	20,587	-0,042	0,025
-286,818	-50,279	-0,095	-0,033
-285,803	-55,981	0,068	-0,022
-284,789	275,816	0,076	-0,099
-283,774	136,882	-0,100	0,096
-282,759	-32,560	-0,023	0,009
-281,745	356,457	-0,076	-0,111
-280,730	-200,000	-0,005	-0,030
-279,716	507,571	-0,052	-0,088
-278,701	55,882	0,096	0,068
-277,686	106,338	0,116	0,100
-276,672	-200,000	0,023	0,127
-275,657	-43,741	0,067	-0,025
-274,643	36,079	-0,092	-0,059
-273,628	609,060	0,028	-0,050
-272,613	698,574	-0,082	-0,158
-271,599	-115,939	-0,050	0,007
-270,584	-46,175	-0,058	0,021
-269,570	68,431	0,131	0,098
-268,555	332,505	0,028	-0,039
-267,540	-200,000	0,014	0,055
-266,526	364,784	-0,124	-0,183
-265,511	-200,000	-0,002	-0,142
-264,497	800,000	0,007	0,024
-263,482	189,717	0,090	0,098
-262,467	98,363	-0,081	0,068
-261,453	-200,000	-0,027	0,178
-260,438	-57,034	0,140	-0,045
-259,424	86,893	-0,056	-0,045
-258,409	183,862	0,127	-0,137
-257,395	64,888	-0,121	-0,089
-256,380	535,625	-0,072	-0,125
-255,365	126,310	-0,001	-0,001
-254,351	-76,380	-0,083	-0,021
-253,336	-200,000	-0,028	0,113
-252,322	800,000	0,044	-0,096
-251,307	547,324	-0,067	0,117
-250,292	336,308	0,052	0,074
-249,278	-137,031	0,109	-0,009
-248,263	-173,226	0,068	0,001
-247,249	619,168	-0,064	0,117
-246,234	704,591	0,021	0,041
-245,219	138,433	-0,030	-0,029
-244,205	729,379	-0,061	-0,119
-243,190	-38,384	0,101	0,039
-242,176	-13,733	-0,106	0,050
-241,161	-50,692	0,106	-0,036
-240,146	-200,000	-0,032	0,146
-239,132	617,908	0,061	0,112
-238,117	41,693	0,034	0,023
-237,103	-140,361	-0,063	-0,005
-236,088	-123,399	0,195	-0,022
-235,073	130,971	-0,039	-0,036
-234,059	332,424	-0,087	0,124
-233,044	800,000	-0,028	0,061
-232,030	800,000	0,023	-0,070
-231,015	321,579	0,024	0,034
-230,000	-46,440	0,080	0,028
-228,986	-65,603	0,105	0,031
-227,971	-200,000	0,006	0,028
-226,957	-40,865	0,055	-0,021
-225,942	800,000	0,051	-0,126
-224,927	-109,942	0,069	0,010
-223,913	800,000	-0,075	-0,158
-222,898	-200,000	0,020	-0,098
-221,884	800,000	-0,059	0,172
-220,869	510,904	0,038	-0,065
-219,855	66,334	-0,027	0,020
-218,840	-200,000	0,022	0,098
-217,825	258,707	-0,131	-0,165
-216,811	-119,248	0,186	0,023
-215,796	-103,777	0,044	0,007
-214,782	753,716	-0,060	-0,118
-213,767	73,256	0,079	-0,060
-212,752	502,243	0,015	-0,026
-211,738	-60,958	-0,140	-0,043
-210,723	-74,105	-0,110	0,029
-209,709	-200,000	-0,011	0,119
-208,694	-44,623	-0,020	-0,007
-207,679	300,026	0,065	-0,087
-206,665	800,000	0,007	0,016
-205,650	-200,000	0,002	0,052
-204,636	-200,000	0,004	0,068
-203,621	9,225	-0,101	-0,055
-202,606	-10,763	0,029	-0,014
-201,592	89,599	-0,024	0,019
-200,577	-68,039	-0,065	-0,018
-199,563	-200,000	0,003	-0,048
-198,548	180,030	0,052	-0,056
-197,533	-200,000	-0,013	-0,067
-196,519	347,905	0,036	0,051
-195,504	-95,326	-0,181	-0,035
-194,490	-121,794	0,125	-0,015
-193,475	-121,968	0,102	-0,012
-192,460	174,843	0,010	-0,010
-191,446	-200,000	-0,012	0,081
-190,431	-200,000	-0,020	-0,069
-189,417	-103,776	-0,096	-0,016
-188,402	800,000	0,063	-0,130
-187,387	266,152	-0,040	-0,051
-186,373	-170,283	0,232	0,006
-185,358	439,615	-0,045	-0,072
-184,344	131,247	0,065	-0,061
-183,329	98,351	0,054	0,045
-182,315	800,000	0,038	0,116
-181,300	-152,463	-0,087	-0,004
-180,285	-200,000	-0,019	-0,210
-179,271	-95,824	-0,070	0,013
-178,256	-200,000	-0,001	-0,030
-177,242	-200,000	0,010	0,069
-176,227	630,966	0,040	0,073
-175,212	-200,000	-0,004	0,049
-174,198	569,193	0,032	0,057
-173,183	489,000	0,030	0,050
-172,169	800,000	0,003	0,007
-171,154	-56,811	0,128	0,041
-170,139	371,017	-0,111	0,165
-169,125	-133,486	0,046	0,004
-168,110	-163,305	0,124	-0,004
-167,096	-15,800	-0,091	-0,042
-166,081	12,114	-0,051	-0,029
-165,066	-200,000	-0,035	-0,118
-164,052	52,588	-0,124	-0,086
-163,037	-200,000	0,002	-0,015
-162,023	165,349	-0,068	0,070
-161,008	184,279	-0,046	-0,050
-159,993	95,545	0,068	0,056
-158,979	116,943	-0,058	-0,052
-157,964	-188,175	-0,083	0,001
-156,950	-200,000	-0,005	0,030
-155,935	-100,802	0,117	0,021
-154,920	353,304	-0,050	0,073
-153,906	-200,000	0,012	0,071
-152,891	-1,403	0,079	0,040
-151,877	-2,571	0,142	0,072
-150,862	800,000	0,035	-0,085
-149,847	-200,000	-0,023	0,076
-148,833	-200,000	-0,002	0,027
-147,818	-200,000	-0,035	0,136
-146,804	-142,787	0,058	-0,004
-145,789	-34,547	-0,149	-0,059
-144,775	800,000	0,058	0,124
-143,760	37,292	-0,133	-0,085
-142,745	-24,419	-0,100	0,043
-141,731	-159,889	-0,099	0,004
-140,716	-99,396	-0,171	0,031
-139,702	800,000	0,049	-0,143
-138,687	-200,000	-0,003	-0,018
-137,672	-76,121	-0,036	-0,009
-136,658	-110,135	-0,071	-0,011
-135,643	-133,240	0,085	-0,008
-134,629	-119,477	0,158	0,020
-133,614	215,726	0,050	-0,058
-132,599	-6,049	0,045	-0,022
-131,585	431,539	0,073	0,115
-130,570	-200,000	0,002	-0,097
-129,556	-139,447	0,141	0,011
-128,541	-155,665	-0,098	0,005
-127,526	18,939	0,087	0,050
-126,512	-66,052	-0,050	0,014
-125,497	-57,051	-0,021	-0,007
-124,483	-200,000	-0,012	0,083
-123,468	-103,544	0,065	-0,011
-122,453	145,203	0,072	-0,070
-121,439	-158,699	-0,082	-0,003
-120,424	51,549	0,048	-0,033
-119,410	-108,529	-0,059	-0,009
-118,395	34,598	-0,131	0,083
-117,380	800,000	-0,057	0,132
-116,366	15,587	0,022	-0,012
-115,351	800,000	0,066	0,137
-114,337	143,335	-0,067	-0,065
-113,322	88,401	0,069	-0,056
-112,307	436,988	-0,043	-0,069
-111,293	256,189	0,112	-0,140
-110,278	138,965	-0,124	-0,119
-109,264	-200,000	0,028	0,102
-108,249	-200,000	0,025	-0,099
-107,234	-200,000	-0,011	-0,064
-106,220	109,843	-0,083	-0,072
-105,205	-8,919	0,025	0,012
-104,191	-200,000	-0,010	0,097
-103,176	385,722	0,099	0,148
-102,162	-102,129	-0,099	-0,017
-101,147	499,595	-0,051	0,086
-100,132	800,000	-0,015	-0,032
-99,118	-135,412	0,045	0,004
-98,103	-139,385	-0,102	0,008
-97,089	-77,194	0,084	-0,021
-96,074	300,358	0,072	0,097
-95,059	-85,751	0,100	0,022
-94,045	-15,492	-0,064	-0,029
-93,030	-53,259	0,137	-0,045
-92,016	-200,000	-0,030	-0,102
-91,001	120,407	0,024	0,022
-89,986	81,074	-0,032	0,025
-88,972	-200,000	0,027	0,123
-87,957	58,937	-0,117	0,084
-86,943	20,441	0,079	0,046
-85,928	102,621	0,109	0,093
-84,913	47,749	-0,150	-0,102
-83,899	-14,717	0,078	0,036
-82,884	-200,000	-0,029	-0,136
-81,870	125,540	0,071	-0,065
-80,855	800,000	-0,041	0,125
-79,840	55,385	-0,051	-0,036
-78,826	-157,516	-0,040	0,002
-77,811	796,412	-0,026	0,052
-76,797	-112,842	0,083	-0,012
-75,782	800,000	0,017	0,039
-74,767	4,376	-0,046	-0,024
-73,753	-200,000	0,008	0,054
-72,738	-141,827	0,065	0,005
-71,724	-200,000	0,010	-0,067
-70,709	-200,000	-0,026	0,103
-69,694	-96,124	0,008	-0,002
-68,680	691,324	0,059	0,112
-67,665	-200,000	0,019	0,100
-66,651	-95,432	0,033	-0,006
-65,636	45,188	-0,087	0,058
-64,622	192,985	0,046	0,050
-63,607	-11,896	0,061	-0,029
-62,592	244,300	0,041	0,050
-61,578	-200,000	-0,012	0,056
-60,563	-24,937	-0,067	-0,029
-59,549	65,874	-0,069	0,051
-58,534	-1,745	-1,776	-0,902
-57,519	800,000	-0,414	-1,148
-56,505	-200,000	-1,166	-4,969
-55,490	-55,644	0,677	0,218
-54,476	800,000	5,209	12,277
-53,461	-200,000	16,452	273,136
-52,446	800,000	708,794	2231,520
-51,432	570,044	1620,063	2864,911
-50,417	119,249	1618,221	1449,521
-49,403	82,863	1279,896	1006,647
-48,388	35,978	1027,089	653,030
-47,373	21,222	989,495	580,187
-46,359	20,018	978,003	569,445
-45,344	18,114	973,760	560,675
-44,330	18,313	972,397	560,526
-43,315	17,935	970,745	558,307
-42,300	17,831	969,722	557,355
-41,286	17,874	968,787	556,937
-40,271	17,871	967,746	556,308
-39,257	17,896	966,905	555,884
-38,242	17,860	966,064	555,259
-37,227	17,856	965,375	554,829
-36,213	17,825	964,548	554,228
-35,198	17,828	963,606	553,677
-34,184	17,927	962,685	553,448
-33,169	17,814	961,983	552,654
-32,154	17,866	961,024	552,250
-31,140	17,798	960,220	551,545
-30,125	17,886	959,238	551,245
-29,111	17,886	958,525	550,812
-28,096	17,878	957,709	550,298
-27,082	17,840	957,350	549,946
-26,067	17,885	956,327	549,483
-25,052	17,834	955,613	548,886
-24,038	17,879	954,937	548,620
-23,023	17,877	954,450	548,311
-22,009	17,826	953,753	547,725
-20,994	17,856	952,998	547,368
-19,979	17,828	952,399	546,912
-18,965	17,842	951,822	546,602
-17,950	17,803	951,295	546,154
-16,936	17,809	950,354	545,609
-15,921	17,768	949,584	545,016
-14,906	17,707	948,989	544,456
-13,892	17,706	948,369	544,075
-12,877	17,695	947,690	543,628
-11,863	17,694	947,063	543,244
-10,848	17,726	946,602	543,061
-9,833	17,772	946,108	542,904
-8,819	17,751	945,525	542,480
-7,804	17,722	944,773	541,934
-6,790	17,706	944,212	541,540
-5,775	17,821	943,650	541,562
-4,760	17,662	943,238	540,799
-3,746	17,683	942,507	540,425
-2,731	17,569	941,761	539,611
-1,717	17,527	941,221	539,146
-0,702	17,575	940,406	538,811
0,313	17,333	939,880	538,553
1,327	20,548	938,103	547,694
2,342	29,767	794,847	488,650
3,356	26,166	447,767	269,847
4,371	-4,971	294,646	146,296
5,386	-8,800	275,860	133,313
6,400	-10,271	269,932	129,065
7,415	-10,615	267,756	127,695
8,429	-10,347	266,588	127,374
9,444	-10,039	265,567	127,157
10,459	-9,851	265,087	127,088
11,473	-9,998	264,561	126,690
12,488	-10,006	263,955	126,382
13,502	-10,129	263,513	126,047
14,517	-9,886	263,191	126,102
15,531	-9,328	262,788	126,403
16,546	-9,211	262,736	126,474
17,561	-9,298	262,309	126,177
18,575	-9,271	262,104	126,092
19,590	-9,288	261,626	125,836
20,604	-9,351	261,352	125,636
21,619	-9,216	260,780	125,471
22,634	-9,162	260,606	125,425
23,648	-9,180	260,246	125,224
24,663	-9,281	260,058	125,032
25,677	-9,178	259,717	124,949
26,692	-9,473	259,602	124,619
27,707	-9,179	259,365	124,757
28,721	-9,344	259,111	124,476
29,736	-9,352	258,964	124,387
30,750	-9,367	258,425	124,104
31,765	-9,295	258,306	124,100
32,780	-9,174	258,052	124,074
33,794	-9,196	257,901	123,971
34,809	-9,287	257,610	123,739
35,823	-9,238	257,321	123,633
36,838	-9,079	256,995	123,605
37,853	-9,235	256,901	123,411
38,867	-9,277	256,640	123,238
39,882	-9,475	256,556	123,012
40,896	-9,280	256,315	123,057
41,911	-9,351	256,041	122,852
42,926	-9,274	255,818	122,802
43,940	-9,397	255,530	122,544
44,955	-9,361	255,380	122,493
45,969	-9,379	255,122	122,343
46,984	-9,422	254,890	122,183
47,999	-9,565	254,663	121,938
49,013	-9,585	254,519	121,841
50,028	-9,595	254,267	121,701
51,042	-9,646	253,895	121,467
52,057	-9,686	253,681	121,319
53,071	-9,723	253,559	121,218
54,086	-9,719	253,385	121,127
55,101	-9,528	253,156	121,173
56,115	-9,666	253,049	120,991
57,130	-9,314	252,882	121,207
58,144	-9,434	252,643	120,977
59,159	-9,340	252,304	120,885
60,174	-9,503	252,255	120,710
61,188	-9,558	252,012	120,535
62,203	-9,389	251,789	120,564
63,217	-9,281	251,602	120,557
64,232	-9,097	251,342	120,581
65,247	-9,409	251,015	120,144
66,261	-9,575	250,917	119,943
67,276	-9,307	250,646	120,033
68,290	-9,578	250,385	119,664
69,305	-9,740	250,197	119,425
70,320	-9,694	250,123	119,419
71,334	-9,451	249,875	119,499
72,349	-9,403	249,736	119,463
73,363	-9,480	249,462	119,254
74,378	-9,624	249,368	119,076
75,393	-9,551	249,065	118,983
76,407	-9,279	248,798	119,077
77,422	-9,313	248,654	118,969
78,436	-9,295	248,388	118,846
79,451	-9,398	248,122	118,620
80,466	-9,424	248,039	118,548
81,480	-9,608	247,730	118,233
82,495	-9,617	247,646	118,175
83,509	-9,274	247,387	118,331
84,524	-9,520	247,349	118,095
85,539	-9,520	247,020	117,927
86,553	-9,607	246,943	117,806
87,568	-9,633	246,679	117,648
88,582	-9,752	246,424	117,415
89,597	-9,614	246,258	117,442
90,611	-9,332	246,035	117,563
91,626	-9,536	246,040	117,383
92,641	-9,394	245,744	117,351
93,655	-9,313	245,528	117,305
94,670	-9,345	245,284	117,151
95,684	-9,373	245,234	117,093
96,699	-9,519	244,955	116,827
97,714	-9,432	244,751	116,792
98,728	-9,508	244,682	116,685
99,743	-9,481	244,400	116,563
100,757	-9,555	244,155	116,374
101,772	-9,563	244,008	116,287
102,787	-9,560	243,862	116,209
103,801	-9,493	243,541	116,102
104,816	-9,718	243,556	115,911
105,830	-9,529	243,310	115,941
106,845	-9,446	243,073	115,887
107,860	-9,546	242,935	115,727
108,874	-9,621	242,670	115,528
109,889	-9,657	242,498	115,407
110,903	-9,653	242,300	115,305
111,918	-9,925	242,154	115,000
112,933	-9,693	241,986	115,102
113,947	-9,626	241,782	115,050
114,962	-9,565	241,594	115,001
115,976	-9,601	241,574	114,952
116,991	-9,677	241,451	114,820
118,006	-9,651	241,141	114,684
119,020	-9,372	240,824	114,753
120,035	-9,463	240,881	114,695
121,049	-9,323	240,564	114,649
122,064	-9,670	240,376	114,264
123,079	-9,721	240,343	114,196
124,093	-9,803	240,249	114,074
125,108	-9,664	239,872	113,998
126,122	-9,616	239,784	113,986
127,137	-9,454	239,529	113,987
128,151	-9,648	239,383	113,749
129,166	-9,614	239,186	113,672
130,181	-9,574	238,982	113,598
131,195	-9,515	238,692	113,498
132,210	-9,609	238,715	113,422
133,224	-9,711	238,473	113,214
134,239	-9,668	238,147	113,084
135,254	-9,679	238,103	113,045
136,268	-9,692	237,900	112,928
137,283	-9,786	237,753	112,772
138,297	-9,638	237,495	112,759
139,312	-9,935	237,294	112,413
140,327	-9,733	237,145	112,496
141,341	-9,210	237,173	112,922
142,356	-9,522	236,928	112,543
143,370	-9,599	236,913	112,464
144,385	-9,425	236,653	112,471
145,400	-9,277	236,488	112,502
146,414	-9,180	236,290	112,476
147,429	-9,345	236,049	112,218
148,443	-9,431	235,892	112,064
149,458	-9,509	235,716	111,908
150,473	-9,284	235,429	111,943
151,487	-9,538	235,372	111,702
152,502	-9,321	235,086	111,730
153,516	-9,324	235,114	111,731
154,531	-9,444	234,944	111,544
155,546	-9,410	234,727	111,458
156,560	-9,595	234,592	111,237
157,575	-9,620	234,235	111,038
158,589	-9,549	234,118	111,029
159,604	-9,462	233,947	111,007
160,619	-9,192	233,996	111,235
161,633	-9,274	233,721	111,030
162,648	-9,276	233,604	110,962
163,662	-9,183	233,322	110,892
164,677	-9,378	233,117	110,630
165,692	-9,366	233,009	110,578
166,706	-9,202	232,955	110,673
167,721	-9,093	232,782	110,667
168,735	-9,065	232,559	110,574
169,750	-9,278	232,425	110,331
170,764	-9,573	232,404	110,079
171,779	-9,489	232,150	110,015
172,794	-9,329	232,007	110,063
173,808	-9,518	231,796	109,805
174,823	-9,633	231,672	109,646
175,837	-9,757	231,479	109,447
176,852	-9,646	231,424	109,499
177,867	-9,627	231,192	109,394
178,881	-9,746	231,108	109,251
179,896	-9,270	230,823	109,479
180,910	-9,293	230,537	109,317
181,925	-9,434	230,633	109,242
182,940	-9,312	230,439	109,236
183,954	-9,449	230,311	109,058
184,969	-9,119	230,120	109,216
185,983	-9,071	229,939	109,158
186,998	-8,901	229,818	109,223
188,013	-9,106	229,769	109,030
189,027	-9,293	229,598	108,793
190,042	-9,232	229,342	108,710
191,056	-9,346	229,164	108,528
192,071	-9,463	228,937	108,319
193,086	-9,640	228,686	108,053
194,100	-10,040	228,298	107,550
195,115	-11,414	227,703	106,197
196,129	-11,324	227,673	106,243
197,144	-7,213	229,412	110,247
198,159	-1,329	230,639	115,422
199,173	1,533	231,596	118,130
200,188	2,369	231,665	118,808
201,202	2,935	231,688	119,252
202,217	3,128	231,664	119,379
203,232	3,485	231,588	119,609
204,246	3,498	231,318	119,468
205,261	3,634	231,240	119,523
206,275	3,681	231,179	119,517
207,290	3,373	231,054	119,202
208,304	3,598	230,789	119,230
209,319	3,428	230,664	119,023
210,334	3,602	230,240	118,928
211,348	3,063	230,058	118,407
212,363	2,609	229,819	117,921
213,377	2,333	229,516	117,542
214,392	2,073	229,499	117,322
215,407	2,263	229,229	117,320
216,421	2,166	229,064	117,150
217,436	1,883	228,904	116,840
218,450	1,894	228,712	116,739
219,465	1,899	228,472	116,611
220,480	1,976	228,336	116,590
221,494	2,145	228,271	116,676
222,509	1,902	228,225	116,455
223,523	2,112	228,000	116,492
224,538	2,241	227,890	116,524
225,553	2,211	227,617	116,351
226,567	2,089	227,552	116,214
227,582	2,153	227,509	116,231
228,596	2,141	227,347	116,128
229,611	2,161	227,202	116,059
230,626	2,121	226,990	115,910
231,640	2,038	226,745	115,711
232,655	2,128	226,629	115,710
233,669	2,037	226,553	115,592
234,684	2,241	226,323	115,620
235,699	2,187	226,376	115,596
236,713	2,149	226,248	115,491
237,728	2,354	226,055	115,538
238,742	2,376	225,834	115,431
239,757	2,449	225,684	115,400
240,772	2,477	225,477	115,305
241,786	2,844	225,344	115,504
242,801	2,722	225,375	115,417
243,815	2,614	225,383	115,330
244,830	2,803	225,158	115,347
245,844	2,588	224,801	114,992
246,859	2,623	224,693	114,953
247,874	2,331	224,579	114,663
248,888	2,583	224,377	114,740
249,903	2,402	224,310	114,559
250,917	2,310	223,944	114,293
251,932	2,218	224,041	114,263
252,947	2,417	223,963	114,362
253,961	2,332	223,643	114,125
254,976	2,540	223,421	114,158
255,990	2,428	223,377	114,041
257,005	2,286	223,349	113,911
258,020	2,669	223,123	114,071
259,034	2,546	223,049	113,931
260,049	2,836	222,864	114,044
261,063	2,413	222,805	113,688
262,078	2,465	222,676	113,650
263,093	2,702	222,497	113,726
264,107	2,547	222,226	113,461
265,122	2,476	222,067	113,317
266,136	2,543	221,958	113,302
267,151	2,482	221,933	113,233
268,166	2,628	221,601	113,162
269,180	2,230	221,463	112,786
270,195	2,217	221,480	112,775
271,209	2,178	221,288	112,638
272,224	2,520	220,979	112,724
273,239	2,292	220,893	112,501
274,253	2,259	220,776	112,407
275,268	2,345	220,657	112,400
276,282	2,204	220,364	112,137
277,297	2,295	220,281	112,152
278,312	2,272	220,168	112,067
279,326	2,376	220,114	112,106
280,341	2,363	220,028	112,044
281,355	2,389	219,714	111,892
282,370	2,353	219,461	111,727
283,384	2,413	219,462	111,762
284,399	2,423	219,236	111,644
285,414	2,297	219,299	111,574
286,428	2,428	219,109	111,563
287,443	2,689	219,009	111,693
288,457	2,476	218,853	111,448
289,472	2,478	218,654	111,338
290,487	2,339	218,472	111,134
291,501	2,352	218,327	111,060
292,516	2,298	218,144	110,917
293,530	2,298	218,187	110,929
294,545	2,640	217,931	111,039
295,560	2,635	217,858	110,988
296,574	2,630	217,766	110,928
297,589	2,611	217,742	110,892
298,603	2,692	217,520	110,828
299,618	2,601	217,271	110,625
300,633	2,400	217,269	110,468
301,647	2,687	217,118	110,589
302,662	2,783	217,007	110,593
303,676	2,416	216,935	110,280
304,691	2,719	216,524	110,280
305,706	2,635	216,449	110,172
306,720	2,506	216,322	110,004
307,735	2,479	216,273	109,950
308,749	2,448	216,042	109,800
309,764	2,571	215,841	109,777
310,779	2,485	215,862	109,716
311,793	2,336	215,627	109,479
312,808	2,477	215,466	109,489
313,822	2,610	215,301	109,491
314,837	2,490	215,213	109,350
315,852	2,393	214,887	109,105
316,866	2,321	214,881	109,042
317,881	2,558	214,827	109,174
318,895	2,251	214,684	108,871
319,910	2,566	214,413	108,950
320,925	2,182	214,324	108,620
321,939	2,227	214,114	108,536
322,954	2,355	214,116	108,619
323,968	2,610	213,926	108,695
324,983	2,317	213,799	108,411
325,997	2,479	213,817	108,526
327,012	2,166	213,584	108,175
328,027	2,347	213,375	108,189
329,041	2,459	213,121	108,130
330,056	2,477	213,071	108,108
331,070	2,342	213,027	107,980
332,085	2,218	212,902	107,819
333,100	2,361	212,723	107,820
334,114	2,586	212,417	107,815
335,129	2,355	212,451	107,659
336,143	2,289	212,282	107,517
337,158	2,222	212,201	107,419
338,173	2,396	211,965	107,413
339,187	2,379	211,981	107,399
340,202	2,343	211,703	107,224
341,216	2,176	211,591	107,040
342,231	2,293	211,571	107,102
343,246	2,513	211,284	107,102
344,260	2,318	211,234	106,930
345,275	2,389	211,051	106,878
346,289	2,377	211,102	106,886
347,304	2,664	210,844	106,947
348,319	2,491	210,771	106,780
349,333	2,645	210,503	106,742
350,348	2,232	210,474	106,428
351,362	2,504	210,361	106,552
352,377	2,627	210,090	106,491
353,392	2,230	210,023	106,170
354,406	2,281	209,864	106,116
355,421	194,153	1342,381	1428,454
356,435	154,979	1480,383	1428,485
