DTS Sentinel unit serial number:	SN410029Multiplexer serial number:	ORYXHardware model number:	OX2-SRSoftware version number:	ORYX F/W v4,00 Oryx Data Collector v3.7.2.0data status	okinstallation	B6 Nyhavnadifferential loss correction	single-endedforward channel	channel 2reverse channel	N/Adate	2023/12/10time	20:25:08forward acquisition time	300,00reverse acquisition time	0,00gamma	499,1914k internal	0,3122k external	0,3122temperature offset calibration	1,0000default loss term (dB/km)	0,3820temperature slope calibration	1,0000multiplexer offset coefficient	1,0000multiplexer slope coefficient	1,0000fibre end	0,00T internal ref (°C)	22,27T ext. ref 1 (°C)	5,81T ext. ref 2 (°C)	5,85length (m)	temperature (°C)	Stokes	anti-Stokes-744,400	-200,000	-0,024	-0,159
-743,385	30,760	-0,111	0,070
-742,371	-200,000	-0,038	0,145
-741,356	42,086	-0,191	0,129
-740,342	-188,396	0,115	-0,001
-739,327	-20,104	-0,240	0,110
-738,312	9,075	-0,093	-0,052
-737,298	-172,637	-0,297	0,007
-736,283	-200,000	-0,002	-0,018
-735,269	-92,227	-0,065	-0,013
-734,254	-200,000	-0,001	-0,093
-733,239	-80,995	-0,383	-0,094
-732,225	10,960	0,111	-0,063
-731,210	163,141	-0,059	0,062
-730,196	79,808	0,024	-0,019
-729,181	40,067	0,041	-0,027
-728,167	737,189	0,035	0,071
-727,152	158,424	-0,019	-0,019
-726,137	-200,000	-0,018	-0,070
-725,123	-200,000	-0,011	-0,075
-724,108	243,886	-0,111	-0,139
-723,094	340,696	-0,095	-0,139
-722,079	800,000	-0,027	-0,076
-721,064	-34,964	-0,070	-0,028
-720,050	207,107	-0,058	0,068
-719,035	-107,407	-0,111	-0,018
-718,021	-87,930	-0,095	-0,021
-717,006	800,000	0,056	-0,155
-715,991	39,098	0,014	-0,009
-714,977	122,295	-0,036	-0,033
-713,962	-20,288	-0,031	0,014
-712,948	-134,015	-0,105	-0,010
-711,933	385,179	-0,082	0,126
-710,918	800,000	0,010	0,031
-709,904	800,000	0,030	0,075
-708,889	211,342	-0,052	-0,061
-707,875	98,445	-0,117	-0,101
-706,860	102,484	-0,085	-0,074
-705,845	-200,000	-0,025	-0,084
-704,831	-200,000	0,004	0,029
-703,816	2,822	-0,037	-0,020
-702,802	-145,200	-0,044	0,003
-701,787	35,811	-0,127	-0,083
-700,772	95,465	-0,098	-0,083
-699,758	800,000	0,033	0,070
-698,743	79,953	0,062	-0,049
-697,729	73,768	0,071	-0,055
-696,714	-82,331	-0,136	-0,033
-695,699	791,926	0,007	-0,015
-694,685	-200,000	-0,003	-0,082
-693,670	-200,000	0,025	-0,128
-692,656	-200,000	0,021	0,071
-691,641	800,000	0,054	0,132
-690,627	-18,000	0,117	0,054
-689,612	800,000	0,022	0,048
-688,597	-38,135	0,057	-0,022
-687,583	800,000	-0,018	-0,041
-686,568	-138,188	-0,093	0,008
-685,554	800,000	-0,049	-0,121
-684,539	-132,057	-0,063	-0,006
-683,524	-200,000	-0,002	0,100
-682,510	259,837	-0,026	-0,034
-681,495	800,000	-0,015	-0,047
-680,481	138,316	-0,066	0,065
-679,466	-70,743	0,096	0,027
-678,451	-200,000	0,017	0,000
-677,437	-200,000	0,001	0,123
-676,422	-200,000	0,003	-0,104
-675,408	233,623	-0,090	0,110
-674,393	800,000	-0,024	-0,074
-673,378	-0,103	-0,180	-0,095
-672,364	-200,000	-0,007	-0,028
-671,349	598,593	0,054	-0,100
-670,335	193,091	0,055	0,062
-669,320	-200,000	-0,039	-0,136
-668,305	85,292	0,049	-0,040
-667,291	345,693	-0,035	-0,052
-666,276	-70,830	-0,121	-0,034
-665,262	-199,932	-0,292	-0,001
-664,247	251,631	-0,056	0,071
-663,232	241,206	-0,032	-0,039
-662,218	-200,000	-0,012	-0,060
-661,203	800,000	0,026	0,062
-660,189	579,659	0,023	0,043
-659,174	-83,703	-0,064	0,015
-658,159	-136,093	0,050	0,004
-657,145	565,794	-0,032	0,058
-656,130	342,736	-0,030	0,044
-655,116	238,017	-0,022	-0,027
-654,101	-200,000	0,024	0,155
-653,086	48,190	0,081	0,056
-652,072	-200,000	-0,006	-0,133
-651,057	-96,514	-0,063	-0,012
-650,043	293,963	-0,078	-0,106
-649,028	-189,481	-0,055	0,000
-648,014	-109,698	0,064	0,010
-646,999	110,830	-0,096	0,086
-645,984	-13,128	-0,146	0,070
-644,970	-143,999	-0,141	-0,010
-643,955	-113,174	-0,107	-0,015
-642,941	117,911	-0,078	-0,071
-641,926	-47,556	0,092	0,033
-640,911	88,771	0,129	0,107
-639,897	177,911	-0,102	0,110
-638,882	693,048	-0,019	0,038
-637,868	130,013	0,020	0,019
-636,853	800,000	-0,049	-0,111
-635,838	-56,660	-0,090	0,029
-634,824	737,359	-0,028	0,055
-633,809	113,716	0,096	0,087
-632,795	-27,142	-0,085	0,037
-631,780	385,011	-0,066	0,101
-630,765	7,343	0,137	0,076
-629,751	-33,317	-0,176	-0,072
-628,736	126,529	-0,056	-0,053
-627,722	-28,550	-0,025	-0,011
-626,707	227,397	0,058	-0,070
-625,692	-200,000	0,010	-0,046
-624,678	-142,211	0,071	-0,005
-623,663	-54,007	-0,109	0,037
-622,649	-200,000	-0,011	0,059
-621,634	-200,000	-0,001	0,013
-620,619	-200,000	0,016	0,116
-619,605	-200,000	-0,016	0,102
-618,590	75,902	-0,056	0,044
-617,576	-200,000	-0,002	-0,027
-616,561	159,582	-0,086	-0,088
-615,546	800,000	-0,044	-0,142
-614,532	-135,743	0,015	0,001
-613,517	-200,000	-0,023	-0,124
-612,503	240,707	0,047	-0,058
-611,488	-200,000	0,002	-0,070
-610,474	732,937	0,039	-0,078
-609,459	263,080	0,096	0,125
-608,444	-200,000	-0,015	0,081
-607,430	6,658	-0,094	0,052
-606,415	475,786	-0,048	-0,080
-605,401	99,826	-0,041	0,035
-604,386	-137,752	0,023	-0,002
-603,371	-200,000	-0,005	0,060
-602,357	-28,750	0,129	0,055
-601,342	-0,983	0,094	0,049
-600,328	-114,747	-0,085	-0,012
-599,313	-3,578	0,088	-0,045
-598,298	800,000	-0,007	0,014
-597,284	37,159	-0,079	-0,051
-596,269	66,114	0,109	0,082
-595,255	-17,679	0,082	0,038
-594,240	401,873	-0,091	-0,142
-593,225	800,000	-0,037	0,079
-592,211	800,000	0,034	0,081
-591,196	403,138	-0,043	0,067
-590,182	800,000	-0,026	0,084
-589,167	-70,856	0,042	0,012
-588,152	-102,785	-0,113	0,020
-587,138	220,979	-0,055	-0,065
-586,123	-200,000	-0,037	-0,131
-585,109	-16,133	-0,114	-0,053
-584,094	39,664	-0,044	-0,029
-583,079	-200,000	-0,022	0,133
-582,065	555,860	-0,011	0,020
-581,050	-200,000	0,023	0,160
-580,036	-85,415	0,094	-0,022
-579,021	481,627	-0,077	-0,130
-578,006	-200,000	-0,016	-0,173
-576,992	237,346	-0,025	-0,031
-575,977	127,335	0,132	0,124
-574,963	8,252	0,069	0,038
-573,948	-200,000	-0,018	-0,094
-572,934	-125,936	0,034	0,004
-571,919	-61,824	0,083	0,026
-570,904	212,681	-0,094	0,110
-569,890	800,000	-0,057	0,181
-568,875	-79,225	0,056	0,014
-567,861	800,000	0,031	-0,085
-566,846	159,557	0,010	0,010
-565,831	-127,088	-0,100	-0,011
-564,817	-128,440	-0,042	0,004
-563,802	-200,000	0,022	-0,099
-562,788	-200,000	0,021	0,091
-561,773	-200,000	-0,003	0,106
-560,758	-92,347	-0,079	-0,016
-559,744	449,371	-0,061	0,100
-558,729	800,000	-0,043	0,119
-557,715	-200,000	0,020	-0,107
-556,700	-200,000	-0,010	-0,150
-555,685	800,000	-0,017	-0,043
-554,671	-100,385	0,079	0,014
-553,656	143,309	-0,051	0,050
-552,642	289,763	0,085	-0,115
-551,627	-62,107	-0,068	0,021
-550,612	398,107	0,029	-0,046
-549,598	375,754	0,030	-0,045
-548,583	11,353	-0,166	-0,094
-547,569	800,000	0,001	-0,003
-546,554	-64,188	0,141	0,042
-545,539	800,000	-0,022	0,053
-544,525	56,686	0,016	0,011
-543,510	507,125	-0,079	-0,135
-542,496	395,188	-0,076	-0,118
-541,481	-39,572	0,066	0,025
-540,466	420,751	0,013	-0,021
-539,452	209,277	0,084	0,097
-538,437	-36,457	0,096	-0,038
-537,423	-200,000	-0,003	0,192
-536,408	439,287	-0,061	0,099
-535,393	800,000	0,036	-0,104
-534,379	-77,862	-0,023	0,006
-533,364	-162,823	0,060	-0,002
-532,350	-100,473	0,109	0,020
-531,335	756,687	0,035	0,069
-530,321	642,198	-0,041	-0,077
-529,306	321,607	0,060	-0,085
-528,291	-92,494	-0,226	-0,047
-527,277	-84,622	-0,131	-0,030
-526,262	-181,005	0,098	0,001
-525,248	194,637	-0,027	-0,030
-524,233	-115,856	0,095	-0,013
-523,218	41,471	-0,020	0,014
-522,204	-60,512	0,052	-0,016
-521,189	135,345	0,041	0,040
-520,175	-200,000	0,039	-0,133
-519,160	-28,863	-0,101	-0,043
-518,145	800,000	0,045	0,129
-517,131	136,702	0,150	-0,145
-516,116	-62,526	0,049	0,015
-515,102	-87,623	0,116	-0,026
-514,087	-200,000	0,019	-0,151
-513,072	-200,000	-0,044	-0,172
-512,058	62,470	0,083	0,061
-511,043	-131,348	0,084	-0,008
-510,029	-200,000	-0,026	0,202
-509,014	212,899	0,155	0,181
-507,999	-36,816	0,075	0,029
-506,985	-200,000	0,003	-0,032
-505,970	-67,749	-0,185	-0,053
-504,956	-0,764	0,086	0,045
-503,941	-200,000	0,002	0,075
-502,926	116,137	0,121	0,109
-501,912	81,060	0,061	0,049
-500,897	-125,296	-0,193	0,022
-499,883	440,519	0,018	-0,028
-498,868	165,597	0,054	-0,057
-497,853	-200,000	-0,013	-0,130
-496,839	63,978	0,065	-0,048
-495,824	-145,878	-0,055	-0,004
-494,810	-200,000	-0,004	-0,088
-493,795	-200,000	-0,014	-0,053
-492,781	-102,954	0,013	0,002
-491,766	-7,483	-0,038	0,019
-490,751	800,000	-0,043	-0,104
-489,737	-103,191	0,139	0,024
-488,722	608,458	-0,037	-0,069
-487,708	800,000	-0,047	-0,112
-486,693	178,298	-0,039	0,042
-485,678	800,000	-0,023	-0,069
-484,664	-47,075	-0,026	0,009
-483,649	-200,000	-0,012	-0,077
-482,635	424,339	-0,016	-0,026
-481,620	768,321	0,022	0,045
-480,605	50,970	0,130	-0,091
-479,591	800,000	0,027	-0,081
-478,576	164,168	-0,038	0,039
-477,562	-200,000	0,011	0,049
-476,547	-200,000	0,012	-0,057
-475,532	527,601	-0,049	-0,086
-474,518	360,784	-0,048	-0,072
-473,503	-111,050	-0,118	-0,018
-472,489	800,000	0,036	0,101
-471,474	-24,880	-0,040	0,018
-470,459	-110,413	0,129	0,020
-469,445	-200,000	0,001	-0,056
-468,430	79,180	0,108	-0,085
-467,416	-200,000	-0,005	0,077
-466,401	123,031	0,061	-0,057
-465,386	-17,066	0,057	-0,027
-464,372	-143,843	0,078	-0,005
-463,357	389,771	0,042	-0,064
-462,343	800,000	-0,044	-0,102
-461,328	800,000	0,038	-0,082
-460,313	598,921	-0,054	0,098
-459,299	-25,450	0,105	0,045
-458,284	-200,000	0,007	-0,033
-457,270	32,528	0,097	-0,062
-456,255	-200,000	0,004	-0,079
-455,241	557,994	-0,090	0,160
-454,226	478,445	-0,084	-0,141
-453,211	-41,122	0,021	0,008
-452,197	-79,053	-0,106	-0,026
-451,182	60,728	-0,039	-0,028
-450,168	-38,601	-0,170	-0,066
-449,153	29,742	0,039	-0,024
-448,138	800,000	0,061	-0,177
-447,124	-200,000	0,019	-0,127
-446,109	800,000	0,018	-0,046
-445,095	265,187	0,047	0,060
-444,080	796,729	-0,031	-0,062
-443,065	87,281	-0,034	-0,028
-442,051	-200,000	-0,030	0,187
-441,036	-153,495	-0,122	-0,006
-440,022	800,000	-0,019	0,044
-439,007	398,125	0,049	-0,075
-437,992	-2,424	0,079	-0,041
-436,978	-200,000	-0,035	0,160
-435,963	-200,000	0,007	0,052
-434,949	-200,000	0,000	-0,031
-433,934	307,761	-0,033	-0,045
-432,919	-8,695	0,069	-0,034
-431,905	75,680	0,035	0,027
-430,890	-132,176	0,180	0,017
-429,876	-200,000	-0,019	0,087
-428,861	-73,433	0,082	-0,022
-427,846	316,656	0,047	0,065
-426,832	-91,792	0,106	-0,022
-425,817	45,388	0,031	0,021
-424,803	-49,031	-0,148	-0,052
-423,788	-119,065	0,127	0,016
-422,773	-200,000	0,008	0,131
-421,759	268,102	-0,062	0,081
-420,744	-92,889	0,126	0,026
-419,730	3,648	-0,104	0,056
-418,715	-56,710	-0,119	0,038
-417,701	195,348	-0,084	-0,094
-416,686	282,332	-0,038	-0,050
-415,671	274,575	0,033	0,043
-414,657	42,310	0,064	-0,042
-413,642	-4,820	0,052	-0,026
-412,628	92,924	0,074	0,062
-411,613	800,000	0,028	-0,066
-410,598	63,699	-0,081	-0,060
-409,584	755,808	-0,023	0,046
-408,569	123,290	0,091	0,084
-407,555	43,880	-0,069	-0,046
-406,540	-200,000	0,028	0,131
-405,525	-110,304	-0,076	0,012
-404,511	551,524	-0,034	-0,061
-403,496	-200,000	-0,004	0,013
-402,482	205,816	-0,059	0,067
-401,467	-25,399	0,099	0,043
-400,452	-14,611	0,042	-0,020
-399,438	-128,455	0,038	0,004
-398,423	800,000	-0,012	0,035
-397,409	-63,452	-0,068	-0,020
-396,394	800,000	-0,029	-0,069
-395,379	12,384	-0,072	-0,041
-394,365	800,000	0,030	-0,069
-393,350	779,472	-0,021	0,042
-392,336	-69,322	-0,049	-0,014
-391,321	92,147	-0,055	-0,045
-390,306	-93,914	-0,175	-0,035
-389,292	-200,000	0,038	0,125
-388,277	-200,000	0,011	0,070
-387,263	-141,183	0,038	-0,003
-386,248	146,849	0,060	0,060
-385,233	273,794	0,073	0,095
-384,219	378,393	0,071	0,107
-383,204	661,629	-0,039	0,074
-382,190	242,930	-0,012	0,015
-381,175	-200,000	0,013	-0,083
-380,160	371,901	0,006	0,009
-379,146	-200,000	-0,012	-0,092
-378,131	13,966	-0,016	0,009
-377,117	-200,000	-0,032	-0,142
-376,102	136,532	0,104	0,100
-375,088	300,086	0,052	0,071
-374,073	642,055	0,036	-0,067
-373,058	-200,000	0,008	-0,101
-372,044	29,835	-0,092	-0,057
-371,029	33,820	0,079	-0,051
-370,015	-200,000	0,026	0,119
-369,000	-26,131	0,056	-0,024
-367,985	-200,000	0,012	-0,057
-366,971	-200,000	0,024	-0,096
-365,956	-23,809	-0,085	-0,037
-364,942	149,228	-0,115	-0,114
-363,927	-55,684	0,074	0,024
-362,912	39,057	0,045	0,030
-361,898	800,000	0,003	0,008
-360,883	155,751	-0,039	-0,039
-359,869	-78,395	-0,151	-0,038
-358,854	-30,969	0,115	0,048
-357,839	-115,580	-0,048	0,006
-356,825	149,988	0,086	0,086
-355,810	537,120	0,023	0,041
-354,796	-200,000	0,003	0,073
-353,781	-200,000	-0,013	-0,053
-352,766	31,245	-0,065	-0,041
-351,752	345,338	-0,019	0,028
-350,737	-200,000	-0,005	0,123
-349,723	800,000	0,029	-0,072
-348,708	-12,027	0,066	0,032
-347,693	-200,000	-0,022	-0,111
-346,679	72,403	0,138	-0,106
-345,664	185,112	-0,018	0,020
-344,650	800,000	0,051	0,120
-343,635	800,000	-0,042	-0,095
-342,620	255,610	0,051	0,064
-341,606	-200,000	-0,006	-0,043
-340,591	315,398	0,040	-0,056
-339,577	144,150	-0,037	-0,036
-338,562	363,107	-0,063	-0,093
-337,548	165,451	-0,021	0,022
-336,533	-70,174	0,053	-0,015
-335,518	-200,000	-0,009	0,120
-334,504	-66,061	0,090	-0,026
-333,489	-147,490	0,075	0,005
-332,475	111,556	-0,102	-0,090
-331,460	143,045	0,125	-0,122
-330,445	-125,660	-0,168	0,018
-329,431	800,000	0,022	0,047
-328,416	-32,221	0,064	0,026
-327,402	-200,000	-0,006	0,104
-326,387	-57,507	-0,070	-0,022
-325,372	-12,617	0,107	0,051
-324,358	58,525	-0,152	0,109
-323,343	-75,928	0,037	0,009
-322,329	800,000	-0,023	-0,064
-321,314	-55,897	0,117	-0,038
-320,299	-43,803	-0,032	0,012
-319,285	409,812	0,039	0,061
-318,270	-200,000	0,003	-0,046
-317,256	800,000	0,010	0,027
-316,241	183,365	0,066	-0,072
-315,226	307,474	0,076	0,105
-314,212	55,765	0,100	0,071
-313,197	800,000	0,022	0,048
-312,183	-200,000	-0,020	0,115
-311,168	-21,935	-0,028	-0,012
-310,153	-2,665	-0,122	-0,062
-309,139	588,168	0,047	-0,084
-308,124	-200,000	0,036	0,156
-307,110	581,241	-0,111	0,200
-306,095	-200,000	0,016	0,089
-305,080	-18,829	0,057	-0,026
-304,066	800,000	0,036	0,089
-303,051	-143,498	0,064	-0,004
-302,037	-200,000	-0,009	0,038
-301,022	800,000	0,044	0,130
-300,008	-200,000	-0,024	0,164
-298,993	137,348	0,079	0,076
-297,978	-200,000	-0,022	0,129
-296,964	800,000	0,020	-0,058
-295,949	492,045	0,037	-0,062
-294,935	-200,000	0,018	0,079
-293,920	371,107	-0,022	-0,033
-292,905	-200,000	0,032	0,165
-291,891	-200,000	-0,006	0,024
-290,876	-200,000	0,021	-0,132
-289,862	-200,000	-0,000	0,005
-288,847	164,482	-0,056	0,058
-287,832	193,620	-0,095	0,106
-286,818	800,000	0,046	0,111
-285,803	225,039	0,059	-0,070
-284,789	-200,000	-0,004	-0,030
-283,774	-154,837	-0,098	0,005
-282,759	-128,547	-0,039	0,004
-281,745	428,431	0,028	-0,045
-280,730	76,369	0,018	-0,014
-279,716	-97,289	-0,131	0,025
-278,701	-30,534	0,088	0,036
-277,686	125,525	-0,092	-0,085
-276,672	144,655	0,021	0,020
-275,657	-7,484	-0,022	0,011
-274,643	753,510	0,058	-0,116
-273,628	198,810	0,029	-0,032
-272,613	344,605	-0,046	-0,066
-271,599	800,000	-0,024	0,077
-270,584	-108,137	-0,129	0,020
-269,570	627,398	0,047	0,087
-268,555	-26,075	-0,086	0,037
-267,540	-111,731	0,061	-0,009
-266,526	342,945	-0,093	-0,134
-265,511	-32,793	0,064	0,026
-264,497	-54,236	0,070	-0,023
-263,482	-166,942	0,087	-0,003
-262,467	-78,475	0,060	-0,015
-261,453	-200,000	-0,003	0,112
-260,438	800,000	0,029	0,070
-259,424	514,087	0,038	-0,065
-258,409	-200,000	0,012	-0,130
-257,395	7,306	0,054	-0,029
-256,380	711,712	-0,057	-0,111
-255,365	1,373	-0,055	0,029
-254,351	-200,000	-0,028	0,102
-253,336	129,993	-0,106	-0,099
-252,322	800,000	-0,066	-0,167
-251,307	-196,384	0,051	0,000
-250,292	800,000	-0,035	-0,085
-249,278	31,194	0,146	0,091
-248,263	-200,000	0,008	-0,025
-247,249	-58,745	-0,058	0,018
-246,234	402,735	0,013	-0,020
-245,219	800,000	-0,056	-0,115
-244,205	50,638	-0,093	-0,064
-243,190	11,270	-0,128	-0,072
-242,176	-155,854	0,184	-0,008
-241,161	800,000	-0,010	-0,027
-240,146	-200,000	0,032	0,190
-239,132	-200,000	0,001	-0,010
-238,117	273,569	-0,144	-0,187
-237,103	-200,000	0,006	-0,085
-236,088	800,000	-0,024	-0,057
-235,073	-200,000	-0,030	-0,135
-234,059	201,015	0,052	-0,058
-233,044	-200,000	-0,017	-0,086
-232,030	800,000	0,039	0,095
-231,015	385,895	0,028	0,043
-230,000	-130,736	-0,078	0,008
-228,986	-188,081	0,027	0,000
-227,971	95,460	0,172	-0,143
-226,957	91,101	-0,048	0,039
-225,942	-79,407	-0,100	-0,025
-224,927	50,324	0,041	0,028
-223,913	-17,668	0,132	0,060
-222,898	40,171	-0,018	0,011
-221,884	70,496	-0,128	0,097
-220,869	235,280	0,087	0,105
-219,855	100,459	-0,051	0,043
-218,840	-200,000	-0,016	0,094
-217,825	95,313	-0,028	-0,023
-216,811	777,263	-0,044	0,087
-215,796	-77,474	-0,045	-0,011
-214,782	39,960	0,103	0,068
-213,767	-172,629	0,121	0,003
-212,752	-64,780	0,149	0,044
-211,738	45,126	-0,068	-0,046
-210,723	15,943	0,144	-0,083
-209,709	304,540	-0,066	-0,089
-208,694	-158,550	-0,091	-0,004
-207,679	-200,000	0,005	-0,066
-206,665	-125,205	-0,042	0,005
-205,650	0,495	0,039	-0,020
-204,636	-43,848	0,035	0,013
-203,621	-200,000	-0,001	0,082
-202,606	2,556	-0,080	0,042
-201,592	-200,000	0,000	-0,236
-200,577	-173,260	-0,177	-0,004
-199,563	150,340	-0,102	-0,101
-198,548	687,012	-0,014	-0,026
-197,533	-42,872	-0,072	0,026
-196,519	-200,000	-0,002	0,131
-195,504	-128,114	-0,143	-0,015
-194,490	-36,977	-0,088	-0,034
-193,475	21,517	0,042	-0,025
-192,460	-8,678	0,029	-0,014
-191,446	69,017	-0,086	-0,065
-190,431	228,328	0,039	0,047
-189,417	280,853	-0,063	0,083
-188,402	166,896	-0,121	-0,126
-187,387	237,743	-0,045	0,054
-186,373	231,530	-0,067	0,080
-185,358	-51,587	-0,019	0,006
-184,344	800,000	0,008	-0,021
-183,329	388,584	0,039	0,059
-182,315	389,173	-0,076	0,116
-181,300	-47,776	0,111	-0,039
-180,285	436,768	0,025	-0,040
-179,271	-127,690	0,101	0,010
-178,256	27,105	-0,127	0,078
-177,242	-2,318	-0,042	0,021
-176,227	179,438	-0,043	-0,046
-175,212	-1,138	0,103	-0,053
-174,198	126,804	-0,041	0,038
-173,183	-93,692	0,074	-0,015
-172,169	261,189	0,060	-0,076
-171,154	-200,000	-0,001	0,060
-170,139	65,734	0,118	0,087
-169,125	794,574	0,043	0,086
-168,110	-33,078	0,077	0,031
-167,096	-130,861	-0,097	0,009
-166,081	-15,269	0,083	-0,039
-165,066	-120,378	-0,100	0,012
-164,052	-200,000	0,011	-0,099
-163,037	-200,000	-0,026	0,093
-162,023	-74,418	0,076	-0,020
-161,008	800,000	-0,020	-0,051
-159,993	-126,208	-0,083	0,009
-158,979	715,801	0,035	-0,068
-157,964	177,501	-0,019	0,020
-156,950	96,131	0,080	-0,066
-155,935	172,448	0,025	0,026
-154,920	260,640	0,043	0,054
-153,906	-200,000	0,003	0,012
-152,891	-200,000	0,012	0,106
-151,877	330,377	0,070	0,099
-150,862	-147,777	-0,153	-0,009
-149,847	-104,295	-0,103	0,017
-148,833	800,000	-0,027	-0,065
-147,818	-37,243	0,035	-0,014
-146,804	-51,514	0,142	0,048
-145,789	-56,905	-0,066	-0,021
-144,775	800,000	0,038	-0,078
-143,760	-200,000	0,005	-0,041
-142,745	76,728	-0,073	-0,057
-141,731	-31,811	0,019	-0,008
-140,716	-62,699	0,079	0,024
-139,702	219,810	-0,047	-0,055
-138,687	227,867	-0,088	-0,105
-137,672	301,055	0,026	-0,035
-136,658	111,757	-0,017	0,015
-135,643	104,490	-0,095	0,082
-134,629	800,000	-0,052	0,143
-133,614	-69,920	-0,160	0,044
-132,599	534,520	0,053	0,091
-131,585	-200,000	-0,010	-0,144
-130,570	-200,000	-0,002	-0,080
-129,556	-91,858	0,184	0,038
-128,541	504,714	-0,067	-0,113
-127,526	-200,000	0,001	0,061
-126,512	800,000	-0,029	0,066
-125,497	-200,000	0,028	-0,159
-124,483	86,441	-0,090	0,072
-123,468	-200,000	-0,001	-0,115
-122,453	-83,526	-0,090	0,021
-121,439	320,689	-0,070	0,097
-120,424	800,000	-0,019	0,058
-119,410	445,221	0,037	-0,060
-118,395	-200,000	-0,022	-0,078
-117,380	-116,273	0,139	-0,019
-116,366	-19,999	-0,068	0,030
-115,351	294,128	-0,021	0,028
-114,337	-200,000	0,054	-0,181
-113,322	462,893	0,066	0,107
-112,307	-104,481	0,135	-0,023
-111,293	-200,000	-0,034	0,116
-110,278	-55,934	0,090	0,029
-109,264	84,527	-0,052	0,041
-108,249	-200,000	0,030	0,000
-107,234	-146,179	0,006	-0,000
-106,220	-200,000	-0,029	-0,102
-105,205	-148,137	0,067	-0,004
-104,191	-200,000	0,002	0,045
-103,176	112,446	-0,148	0,130
-102,162	-25,566	0,052	0,022
-101,147	-200,000	-0,005	-0,063
-100,132	-91,662	-0,126	0,026
-99,118	-122,832	0,071	0,008
-98,103	100,682	-0,044	-0,037
-97,089	800,000	-0,028	0,074
-96,074	43,714	0,101	-0,067
-95,059	497,242	-0,050	0,085
-94,045	-95,590	0,050	0,010
-93,030	-71,469	-0,082	0,022
-92,016	767,868	0,038	-0,075
-91,001	-135,383	-0,063	0,005
-89,986	253,413	-0,044	-0,055
-88,972	94,776	0,067	-0,056
-87,957	168,653	-0,066	0,068
-86,943	800,000	0,043	0,102
-85,928	329,413	-0,022	0,031
-84,913	800,000	0,037	-0,098
-83,899	-200,000	0,019	-0,124
-82,884	45,799	0,133	0,089
-81,870	-102,683	-0,037	0,006
-80,855	800,000	0,016	-0,041
-79,840	50,195	-0,084	0,057
-78,826	79,120	-0,093	0,072
-77,811	-91,321	-0,101	0,021
-76,797	-200,000	-0,015	-0,134
-75,782	329,842	0,058	0,081
-74,767	26,486	0,037	0,023
-73,753	800,000	-0,043	0,097
-72,738	-200,000	-0,004	-0,030
-71,724	-200,000	-0,014	-0,070
-70,709	-200,000	0,010	0,037
-69,694	85,663	0,025	-0,020
-68,680	59,165	0,067	-0,047
-67,665	-39,637	0,085	0,032
-66,651	-200,000	-0,027	0,118
-65,636	-66,468	-0,117	0,033
-64,622	217,710	-0,005	0,006
-63,607	37,400	-0,101	-0,065
-62,592	-55,945	-0,079	-0,025
-61,578	-146,904	0,037	0,002
-60,563	-76,199	0,174	-0,044
-59,549	-200,000	0,009	0,103
-58,534	-118,557	-1,383	-0,176
-57,519	800,000	-0,712	-1,532
-56,505	-200,000	-0,976	-4,533
-55,490	-13,899	0,549	-0,256
-54,476	800,000	4,939	11,805
-53,461	-200,000	13,682	253,265
-52,446	-200,000	690,092	2256,683
-51,432	589,123	1622,324	2913,763
-50,417	118,895	1634,601	1466,047
-49,403	73,001	1288,747	976,269
-48,388	38,004	1023,837	659,433
-47,373	24,281	981,776	587,203
-46,359	23,506	971,294	578,370
-45,344	22,492	967,127	572,553
-44,330	22,450	965,562	571,464
-43,315	22,316	964,236	570,222
-42,300	22,281	963,266	569,511
-41,286	22,304	962,373	569,035
-40,271	22,303	961,093	568,253
-39,257	22,274	960,255	567,641
-38,242	22,291	959,321	567,120
-37,227	22,267	958,474	566,519
-36,213	22,236	957,701	565,940
-35,198	22,196	956,726	565,211
-34,184	22,332	956,208	565,324
-33,169	22,235	955,332	564,469
-32,154	22,324	954,465	564,222
-31,140	22,321	953,393	563,555
-30,125	22,311	952,746	563,119
-29,111	22,393	951,708	562,746
-28,096	22,333	951,086	562,165
-27,082	22,268	950,586	561,639
-26,067	22,332	949,609	561,243
-25,052	22,323	948,968	560,812
-24,038	22,266	948,473	560,316
-23,023	22,305	947,793	560,015
-22,009	22,319	947,230	559,706
-20,994	22,369	946,455	559,385
-19,979	22,358	945,849	558,971
-18,965	22,385	945,247	558,679
-17,950	22,365	944,594	558,207
-16,936	22,268	943,968	557,505
-15,921	22,222	943,270	556,925
-14,906	22,184	942,605	556,390
-13,892	22,203	941,896	556,008
-12,877	22,147	941,358	555,492
-11,863	22,117	940,734	555,006
-10,848	22,204	940,228	554,960
-9,833	22,335	939,576	554,970
-8,819	22,340	938,828	554,521
-7,804	22,239	938,287	553,862
-6,790	22,214	937,748	553,442
-5,775	22,239	937,099	553,116
-4,760	22,185	936,704	552,689
-3,746	22,215	935,846	552,255
-2,731	22,014	935,286	551,268
-1,717	22,017	934,612	550,858
-0,702	22,038	933,814	550,434
0,313	21,787	933,343	550,194
1,327	24,984	931,105	558,877
2,342	34,772	795,889	503,789
3,356	32,808	451,509	282,816
4,371	1,614	293,942	152,973
5,386	-2,936	274,952	138,766
6,400	-4,502	269,159	134,376
7,415	-4,982	266,618	132,654
8,429	-4,549	265,348	132,407
9,444	-4,714	264,693	131,917
10,459	-4,556	264,009	131,708
11,473	-4,763	263,433	131,221
12,488	-4,869	262,939	130,867
13,502	-4,994	262,420	130,484
14,517	-4,881	261,856	130,294
15,531	-4,769	261,616	130,264
16,546	-4,684	261,321	130,182
17,561	-4,662	260,886	129,974
18,575	-4,398	260,545	130,030
19,590	-4,829	260,213	129,465
20,604	-4,713	259,925	129,414
21,619	-4,652	259,608	129,300
22,634	-4,680	259,237	129,079
23,648	-4,646	258,798	128,879
24,663	-4,704	258,733	128,783
25,677	-4,813	258,510	128,564
26,692	-4,757	258,253	128,474
27,707	-4,687	257,948	128,373
28,721	-4,694	257,635	128,200
29,736	-4,728	257,432	128,057
30,750	-4,896	257,118	127,741
31,765	-4,791	256,909	127,719
32,780	-4,882	256,836	127,590
33,794	-4,853	256,513	127,444
34,809	-4,766	256,352	127,429
35,823	-4,784	256,073	127,264
36,838	-4,886	255,806	127,030
37,853	-4,870	255,452	126,857
38,867	-4,784	255,219	126,805
39,882	-4,903	255,083	126,622
40,896	-4,870	254,938	126,567
41,911	-4,806	254,565	126,427
42,926	-4,779	254,508	126,411
43,940	-4,943	254,288	126,147
44,955	-4,926	253,880	125,948
45,969	-4,924	253,785	125,891
46,984	-5,050	253,362	125,561
47,999	-5,394	253,240	125,189
49,013	-5,595	252,979	124,874
50,028	-5,405	252,678	124,880
51,042	-5,670	252,506	124,553
52,057	-5,800	252,250	124,303
53,071	-5,705	252,027	124,264
54,086	-5,587	251,868	124,277
55,101	-5,445	251,645	124,279
56,115	-5,050	251,453	124,514
57,130	-4,915	251,512	124,650
58,144	-4,508	251,381	124,925
59,159	-4,590	251,143	124,725
60,174	-4,735	250,905	124,471
61,188	-4,735	250,814	124,414
62,203	-4,631	250,447	124,311
63,217	-4,845	250,338	124,062
64,232	-4,743	250,063	124,002
65,247	-4,851	249,938	123,836
66,261	-4,610	249,657	123,893
67,276	-4,934	249,338	123,446
68,290	-5,083	249,138	123,208
69,305	-5,274	248,856	122,894
70,320	-5,267	248,658	122,792
71,334	-5,139	248,785	122,953
72,349	-4,728	248,383	123,093
73,363	-4,656	248,151	123,029
74,378	-4,657	248,130	123,007
75,393	-4,606	247,832	122,892
76,407	-4,822	247,819	122,690
77,422	-4,800	247,471	122,526
78,436	-4,726	247,255	122,471
79,451	-4,795	246,949	122,250
80,466	-4,845	246,747	122,097
81,480	-4,976	246,573	121,888
82,495	-5,084	246,442	121,722
83,509	-5,189	246,344	121,574
84,524	-5,022	245,928	121,499
85,539	-4,989	245,704	121,405
86,553	-5,031	245,522	121,269
87,568	-5,270	245,487	121,039
88,582	-4,983	245,082	121,070
89,597	-5,098	245,190	121,016
90,611	-5,001	244,945	120,966
91,626	-4,779	244,886	121,112
92,641	-4,899	244,654	120,886
93,655	-4,912	244,350	120,714
94,670	-5,026	244,184	120,526
95,684	-4,853	244,097	120,617
96,699	-4,987	243,904	120,399
97,714	-4,943	243,616	120,283
98,728	-5,018	243,514	120,159
99,743	-5,325	243,300	119,787
100,757	-5,396	243,024	119,581
101,772	-5,089	242,725	119,679
102,787	-5,067	242,663	119,656
103,801	-5,068	242,643	119,634
104,816	-4,960	242,401	119,594
105,830	-5,012	242,352	119,516
106,845	-4,823	242,143	119,559
107,860	-4,782	241,726	119,377
108,874	-4,917	241,607	119,195
109,889	-4,974	241,406	119,039
110,903	-4,895	241,257	119,019
111,918	-5,093	241,008	118,723
112,933	-5,003	240,827	118,698
113,947	-5,109	240,840	118,606
114,962	-4,822	240,661	118,743
115,976	-4,858	240,523	118,634
116,991	-4,731	240,135	118,537
118,006	-4,811	240,005	118,397
119,020	-4,942	239,825	118,190
120,035	-4,850	239,781	118,233
121,049	-4,914	239,735	118,148
122,064	-4,755	239,414	118,109
123,079	-5,058	239,310	117,799
124,093	-4,796	239,044	117,872
125,108	-5,122	238,737	117,444
126,122	-5,143	238,615	117,357
127,137	-5,344	238,473	117,112
128,151	-5,170	238,268	117,143
129,166	-5,033	238,087	117,155
130,181	-5,215	237,894	116,901
131,195	-5,223	237,659	116,769
132,210	-5,161	237,588	116,774
133,224	-5,103	237,468	116,752
134,239	-5,040	237,284	116,702
135,254	-4,846	237,104	116,760
136,268	-4,882	236,922	116,631
137,283	-5,309	236,574	116,104
138,297	-5,271	236,457	116,067
139,312	-5,336	236,263	115,909
140,327	-4,964	236,173	116,155
141,341	-4,666	236,329	116,461
142,356	-4,562	236,062	116,403
143,370	-4,533	235,921	116,347
144,385	-4,647	235,722	116,147
145,400	-4,410	235,506	116,220
146,414	-4,367	235,309	116,147
147,429	-4,529	235,157	115,931
148,443	-4,504	234,981	115,855
149,458	-4,519	234,733	115,710
150,473	-4,707	234,580	115,473
151,487	-4,634	234,397	115,432
152,502	-4,771	234,412	115,319
153,516	-4,622	234,144	115,296
154,531	-4,717	234,047	115,162
155,546	-4,528	233,814	115,188
156,560	-4,890	233,748	114,856
157,575	-4,821	233,278	114,671
158,589	-4,569	233,189	114,817
159,604	-4,539	233,152	114,812
160,619	-4,505	233,019	114,763
161,633	-4,255	232,867	114,877
162,648	-4,384	232,751	114,707
163,662	-4,588	232,585	114,453
164,677	-4,554	232,362	114,361
165,692	-4,528	232,207	114,294
166,706	-4,438	232,052	114,279
167,721	-4,406	231,995	114,266
168,735	-4,300	231,814	114,250
169,750	-4,656	231,721	113,913
170,764	-4,668	231,548	113,808
171,779	-4,477	231,363	113,858
172,794	-4,545	231,316	113,772
173,808	-4,722	230,911	113,423
174,823	-5,076	230,696	113,029
175,837	-5,216	230,422	112,775
176,852	-4,721	230,487	113,185
177,867	-4,692	230,430	113,170
178,881	-4,469	230,287	113,264
179,896	-4,511	230,159	113,158
180,910	-4,334	229,881	113,150
181,925	-4,335	229,837	113,117
182,940	-4,491	229,730	112,932
183,954	-4,221	229,473	113,007
184,969	-4,429	229,510	112,852
185,983	-4,336	229,397	112,860
186,998	-4,369	229,068	112,662
188,013	-4,484	228,986	112,522
189,027	-4,422	228,746	112,442
190,042	-4,292	228,568	112,446
191,056	-4,537	228,443	112,184
192,071	-4,418	228,260	112,176
193,086	-4,398	227,975	112,042
194,100	-4,414	227,969	112,017
195,115	-4,912	227,552	111,417
196,129	-5,419	227,336	110,910
197,144	-2,116	228,307	113,933
198,159	2,080	229,420	117,738
199,173	4,263	230,058	119,752
200,188	4,380	230,042	119,824
201,202	4,329	229,756	119,624
202,217	4,525	229,665	119,718
203,232	4,570	229,594	119,706
204,246	4,919	229,555	119,945
205,261	4,702	229,518	119,747
206,275	5,124	229,203	119,899
207,290	5,074	229,069	119,779
208,304	5,174	228,855	119,734
209,319	4,985	228,804	119,550
210,334	4,771	228,629	119,283
211,348	4,765	228,261	119,076
212,363	4,391	228,028	118,656
213,377	4,068	227,797	118,278
214,392	3,905	227,691	118,086
215,407	3,951	227,720	118,126
216,421	4,229	227,324	118,123
217,436	4,053	227,259	117,944
218,450	3,903	227,018	117,694
219,465	3,723	226,892	117,480
220,480	3,897	226,838	117,575
221,494	3,862	226,608	117,419
222,509	4,093	226,461	117,508
223,523	4,063	226,348	117,416
224,538	3,988	226,228	117,286
225,553	4,022	225,983	117,175
226,567	4,162	225,981	117,270
227,582	4,348	225,835	117,325
228,596	4,624	225,767	117,489
229,611	4,142	225,548	116,999
230,626	3,902	225,286	116,670
231,640	4,099	225,128	116,727
232,655	4,335	225,223	116,945
233,669	4,836	225,142	117,272
234,684	4,649	225,016	117,054
235,699	4,567	224,526	116,727
236,713	4,094	224,677	116,438
237,728	4,126	224,275	116,243
238,742	4,006	224,180	116,093
239,757	4,120	223,905	116,026
240,772	4,018	223,851	115,911
241,786	4,119	223,713	115,905
242,801	4,301	223,612	115,979
243,815	4,561	223,595	116,155
244,830	4,532	223,416	116,031
245,844	4,268	223,233	115,727
246,859	4,276	222,971	115,587
247,874	4,454	222,917	115,682
248,888	4,387	222,881	115,603
249,903	4,189	222,590	115,294
250,917	3,988	222,376	115,022
251,932	3,845	222,524	114,981
252,947	3,804	222,193	114,770
253,961	4,060	221,889	114,793
254,976	4,136	221,851	114,820
255,990	4,394	221,740	114,944
257,005	4,278	221,639	114,795
258,020	4,255	221,502	114,697
259,034	4,606	221,407	114,899
260,049	4,399	221,252	114,654
261,063	4,500	220,929	114,552
262,078	4,392	220,960	114,477
263,093	4,384	220,841	114,400
264,107	4,508	220,723	114,420
265,122	4,518	220,530	114,317
266,136	4,498	220,399	114,224
267,151	4,738	220,268	114,323
268,166	4,143	220,011	113,741
269,180	4,008	219,772	113,507
270,195	4,016	219,573	113,401
271,209	4,112	219,542	113,446
272,224	4,114	219,481	113,405
273,239	4,101	219,364	113,325
274,253	4,153	218,967	113,147
275,268	3,936	218,927	112,958
276,282	3,968	218,652	112,830
277,297	3,802	218,673	112,709
278,312	3,860	218,656	112,732
279,326	4,050	218,411	112,735
280,341	3,993	218,259	112,605
281,355	4,133	218,125	112,628
282,370	4,033	218,052	112,507
283,384	4,001	217,838	112,363
284,399	4,127	217,613	112,329
285,414	4,138	217,377	112,205
286,428	4,091	217,498	112,223
287,443	4,118	217,389	112,177
288,457	4,383	217,153	112,237
289,472	3,829	217,206	111,852
290,487	3,672	216,773	111,505
291,501	3,813	216,626	111,522
292,516	3,928	216,433	111,496
293,530	3,966	216,335	111,463
294,545	3,891	216,296	111,379
295,560	3,935	216,074	111,286
296,574	4,184	215,980	111,408
297,589	4,088	215,944	111,310
298,603	4,138	215,738	111,230
299,618	4,234	215,548	111,191
300,633	4,280	215,454	111,166
301,647	4,203	215,520	111,135
302,662	4,312	215,448	111,167
303,676	4,379	215,208	111,081
304,691	4,234	215,140	110,931
305,706	4,259	214,899	110,815
306,720	4,385	214,763	110,826
307,735	4,362	214,528	110,678
308,749	4,049	214,370	110,362
309,764	4,135	214,359	110,409
310,779	4,264	214,243	110,431
311,793	4,585	213,994	110,523
312,808	4,474	213,870	110,369
313,822	4,213	213,736	110,104
314,837	3,985	213,659	109,892
315,852	3,914	213,451	109,724
316,866	3,939	213,280	109,644
317,881	4,136	213,279	109,775
318,895	4,135	213,245	109,746
319,910	4,252	212,929	109,657
320,925	4,023	212,827	109,432
321,939	3,616	212,571	109,002
322,954	3,684	212,496	109,002
323,968	4,217	212,520	109,383
324,983	4,463	212,265	109,417
325,997	4,212	212,122	109,155
327,012	4,257	211,868	109,046
328,027	4,006	211,918	108,885
329,041	4,371	211,919	109,134
330,056	4,662	211,725	109,230
331,070	4,036	211,528	108,676
332,085	3,847	211,245	108,388
333,100	4,130	211,162	108,535
334,114	4,144	211,084	108,495
335,129	3,951	210,871	108,240
336,143	3,858	210,683	108,069
337,158	4,059	210,441	108,077
338,173	3,946	210,504	108,019
339,187	3,639	210,313	107,696
340,202	3,680	210,183	107,649
341,216	3,672	210,014	107,548
342,231	3,845	209,947	107,625
343,246	3,828	209,778	107,517
344,260	4,067	209,628	107,597
345,275	4,171	209,583	107,637
346,289	4,062	209,567	107,543
347,304	4,125	209,322	107,451
348,319	4,123	209,116	107,335
349,333	4,008	209,066	107,220
350,348	4,165	208,936	107,253
351,362	4,256	208,868	107,272
352,377	4,204	208,675	107,127
353,392	4,091	208,398	106,896
354,406	3,897	208,335	106,720
355,421	194,039	1343,881	1433,133
356,435	154,832	1482,331	1433,247
