DTS Sentinel unit serial number:	SN410029Multiplexer serial number:	ORYXHardware model number:	OX2-SRSoftware version number:	ORYX F/W v4,00 Oryx Data Collector v3.7.2.0data status	okinstallation	B6 Nyhavnadifferential loss correction	single-endedforward channel	channel 2reverse channel	N/Adate	2023/12/10time	12:40:08forward acquisition time	300,00reverse acquisition time	0,00gamma	499,1914k internal	0,3123k external	0,3123temperature offset calibration	1,0000default loss term (dB/km)	0,3820temperature slope calibration	1,0000multiplexer offset coefficient	1,0000multiplexer slope coefficient	1,0000fibre end	0,00T internal ref (°C)	22,80T ext. ref 1 (°C)	6,59T ext. ref 2 (°C)	6,61length (m)	temperature (°C)	Stokes	anti-Stokes-744,400	-200,000	0,008	-0,041
-743,385	-85,411	-0,257	0,059
-742,371	8,410	0,159	0,089
-741,356	94,868	-0,082	0,069
-740,342	9,475	0,038	-0,021
-739,327	-82,608	-0,203	0,049
-738,312	800,000	-0,050	-0,111
-737,298	-39,219	-0,278	0,108
-736,283	-9,165	0,119	-0,059
-735,269	-46,916	-0,300	0,109
-734,254	-187,742	0,063	-0,001
-733,239	-186,260	-0,330	0,003
-732,225	98,254	0,076	0,065
-731,210	211,913	-0,102	0,120
-730,196	-200,000	0,001	-0,171
-729,181	-200,000	-0,012	0,057
-728,167	-101,586	-0,063	-0,011
-727,152	-77,833	-0,115	0,029
-726,137	-200,000	-0,030	-0,186
-725,123	742,321	-0,035	0,071
-724,108	-98,334	-0,057	0,011
-723,094	-200,000	-0,009	-0,109
-722,079	800,000	0,039	-0,125
-721,064	91,114	0,020	-0,017
-720,050	549,366	-0,013	0,024
-719,035	-69,349	-0,080	0,023
-718,021	-28,583	-0,033	-0,014
-717,006	192,401	-0,126	-0,142
-715,991	-101,761	-0,066	-0,012
-714,977	233,426	0,007	0,009
-713,962	-46,601	-0,069	-0,025
-712,948	-130,020	0,044	0,004
-711,933	50,158	0,070	-0,049
-710,918	166,706	-0,049	0,051
-709,904	86,579	-0,093	-0,077
-708,889	32,577	-0,122	0,078
-707,875	73,807	-0,015	-0,011
-706,860	179,210	-0,059	0,065
-705,845	647,623	-0,031	-0,059
-704,831	800,000	-0,015	0,049
-703,816	47,042	0,081	0,056
-702,802	-120,787	0,049	0,006
-701,787	-200,000	-0,022	-0,080
-700,772	800,000	-0,010	-0,027
-699,758	-200,000	-0,028	0,176
-698,743	88,977	-0,087	0,072
-697,729	-50,792	-0,107	0,037
-696,714	-200,000	-0,008	-0,061
-695,699	-93,916	-0,098	0,020
-694,685	-200,000	-0,005	-0,065
-693,670	207,176	0,061	0,070
-692,656	294,605	-0,095	-0,130
-691,641	-9,533	0,063	-0,031
-690,627	-116,369	-0,042	0,006
-689,612	176,616	-0,106	0,115
-688,597	-182,607	0,088	-0,001
-687,583	-24,144	0,112	-0,050
-686,568	-200,000	0,009	-0,067
-685,554	800,000	-0,029	-0,071
-684,539	-9,860	0,095	0,047
-683,524	17,454	-0,073	0,043
-682,510	-200,000	0,037	-0,128
-681,495	-200,000	-0,021	-0,097
-680,481	-200,000	0,003	0,039
-679,466	330,547	0,108	-0,155
-678,451	132,378	-0,023	-0,022
-677,437	87,046	-0,036	0,030
-676,422	-200,000	-0,003	0,026
-675,408	189,812	-0,058	0,065
-674,393	-200,000	0,042	0,154
-673,378	2,593	-0,036	-0,019
-672,364	800,000	0,015	0,043
-671,349	258,829	-0,052	0,066
-670,335	184,033	0,106	0,117
-669,320	-121,502	0,153	0,019
-668,305	-86,881	0,145	-0,033
-667,291	-55,590	0,099	-0,033
-666,276	-200,000	-0,011	-0,159
-665,262	-200,000	-0,013	-0,074
-664,247	-112,617	0,064	0,009
-663,232	0,332	-0,063	-0,033
-662,218	-1,053	0,131	0,068
-661,203	221,110	-0,045	0,054
-660,189	-200,000	0,012	-0,117
-659,174	-200,000	-0,025	-0,090
-658,159	-64,120	-0,015	0,004
-657,145	-78,555	0,069	-0,017
-656,130	290,816	0,034	-0,046
-655,116	800,000	-0,049	-0,103
-654,101	347,043	0,056	0,083
-653,086	175,036	0,101	0,109
-652,072	-132,340	-0,029	0,003
-651,057	126,522	0,082	-0,077
-650,043	-200,000	0,001	-0,093
-649,028	625,550	0,043	-0,082
-648,014	-200,000	-0,004	-0,013
-646,999	65,198	0,046	0,035
-645,984	-200,000	0,018	0,097
-644,970	311,019	-0,018	-0,024
-643,955	-20,682	-0,224	0,102
-642,941	16,886	-0,064	0,038
-641,926	-200,000	0,000	0,146
-640,911	-200,000	0,001	-0,070
-639,897	-200,000	-0,007	0,061
-638,882	397,651	-0,060	0,093
-637,868	-98,200	-0,070	0,013
-636,853	-73,649	-0,106	0,028
-635,838	720,378	-0,054	-0,107
-634,824	469,976	0,056	-0,094
-633,809	-69,122	0,109	0,031
-632,795	8,498	-0,103	0,057
-631,780	-111,263	0,119	0,018
-630,765	-117,426	-0,044	-0,006
-629,751	-18,901	-0,092	-0,042
-628,736	-163,991	-0,094	-0,003
-627,722	800,000	-0,050	-0,110
-626,707	800,000	0,018	-0,056
-625,692	800,000	0,050	0,122
-624,678	56,523	-0,048	-0,035
-623,663	305,221	-0,040	-0,055
-622,649	197,751	-0,067	-0,076
-621,634	-82,458	0,111	-0,026
-620,619	245,829	-0,008	0,010
-619,605	-19,569	-0,039	0,018
-618,590	-129,943	0,083	0,008
-617,576	-200,000	0,029	0,103
-616,561	150,016	-0,051	-0,051
-615,546	-178,418	0,052	0,001
-614,532	708,294	-0,033	-0,064
-613,517	76,785	0,157	0,124
-612,503	-110,012	0,023	0,004
-611,488	-200,000	-0,037	0,148
-610,474	623,276	-0,046	-0,087
-609,459	108,633	0,190	0,168
-608,444	458,232	-0,025	-0,041
-607,430	800,000	0,047	-0,136
-606,415	-183,999	0,111	0,001
-605,401	141,652	-0,080	-0,078
-604,386	-19,162	-0,066	-0,030
-603,371	-49,078	0,145	0,051
-602,357	-37,665	0,093	0,036
-601,342	-114,815	-0,107	-0,015
-600,328	-58,849	-0,113	0,036
-599,313	-77,846	0,080	-0,020
-598,298	186,523	-0,036	-0,040
-597,284	506,280	0,002	0,004
-596,269	149,465	-0,097	0,098
-595,255	207,488	-0,053	0,061
-594,240	-54,513	-0,040	-0,013
-593,225	426,103	-0,095	-0,152
-592,211	380,340	0,061	-0,093
-591,196	60,989	-0,109	-0,080
-590,182	800,000	0,013	0,037
-589,167	-57,162	-0,117	-0,038
-588,152	-200,000	0,022	0,129
-587,138	41,346	-0,098	-0,066
-586,123	-91,287	0,117	0,025
-585,109	111,276	-0,133	-0,119
-584,094	800,000	0,019	-0,042
-583,079	-94,498	-0,035	0,007
-582,065	239,552	0,032	0,040
-581,050	107,602	0,059	0,052
-580,036	-133,217	-0,187	-0,017
-579,021	524,018	-0,035	-0,060
-578,006	-200,000	-0,012	-0,088
-576,992	123,996	-0,097	-0,091
-575,977	-200,000	0,015	-0,102
-574,963	71,828	0,028	-0,022
-573,948	-0,144	0,078	-0,041
-572,934	506,546	-0,004	-0,007
-571,919	-200,000	0,020	-0,128
-570,904	15,942	-0,134	-0,078
-569,890	-98,279	-0,094	0,018
-568,875	695,152	0,024	0,047
-567,861	-133,429	0,089	0,008
-566,846	28,765	0,170	0,106
-565,831	-200,000	0,009	0,114
-564,817	-22,961	-0,074	-0,033
-563,802	-124,915	0,028	-0,003
-562,788	-200,000	-0,019	-0,065
-561,773	404,315	0,087	0,137
-560,758	-200,000	0,002	0,049
-559,744	165,900	-0,047	0,049
-558,729	-89,263	0,064	-0,014
-557,715	-142,180	-0,099	-0,007
-556,700	-200,000	0,017	-0,069
-555,685	-200,000	-0,014	-0,073
-554,671	160,514	-0,043	-0,044
-553,656	88,800	0,038	0,031
-552,642	36,191	0,070	-0,046
-551,627	-130,769	-0,081	-0,008
-550,612	-89,909	-0,061	-0,013
-549,598	800,000	-0,040	-0,086
-548,583	68,317	-0,096	-0,073
-547,569	319,625	0,039	0,055
-546,554	-45,382	-0,068	0,025
-545,539	-200,000	0,014	-0,046
-544,525	800,000	0,060	-0,142
-543,510	-200,000	-0,048	0,159
-542,496	-28,419	-0,117	-0,050
-541,481	69,172	-0,053	-0,040
-540,466	28,090	-0,119	-0,074
-539,452	296,222	0,029	0,040
-538,437	351,452	-0,043	-0,063
-537,423	-119,036	-0,105	-0,013
-536,408	-200,000	0,003	-0,154
-535,393	-98,573	-0,046	-0,009
-534,379	181,632	-0,079	0,086
-533,364	67,957	0,105	-0,079
-532,350	47,431	0,165	0,114
-531,335	357,843	-0,068	0,101
-530,321	-200,000	-0,021	-0,076
-529,306	-111,814	-0,048	-0,007
-528,291	663,876	0,018	-0,034
-527,277	-200,000	0,060	-0,214
-526,262	-200,000	0,003	0,090
-525,248	-168,356	0,048	0,001
-524,233	270,453	-0,052	0,068
-523,218	-200,000	0,011	0,083
-522,204	800,000	0,017	0,041
-521,189	389,905	-0,048	-0,074
-520,175	-200,000	0,021	-0,111
-519,160	322,407	-0,093	-0,131
-518,145	-35,876	0,097	0,039
-517,131	-140,632	0,134	-0,010
-516,116	141,300	0,086	0,084
-515,102	-200,000	0,003	0,079
-514,087	48,765	0,052	0,036
-513,072	-200,000	0,011	-0,046
-512,058	-200,000	-0,011	-0,039
-511,043	-99,643	0,072	0,013
-510,029	-75,797	0,109	0,028
-509,014	-24,920	0,062	0,027
-507,999	-200,000	0,017	-0,092
-506,985	309,726	0,045	-0,062
-505,970	800,000	0,008	-0,020
-504,956	-200,000	0,035	-0,154
-503,941	665,150	0,082	-0,156
-502,926	800,000	0,038	0,087
-501,912	-200,000	0,019	-0,146
-500,897	-6,018	0,010	-0,005
-499,883	-200,000	-0,000	-0,140
-498,868	31,040	-0,163	-0,103
-497,853	-78,383	-0,170	0,043
-496,839	-161,988	0,114	-0,004
-495,824	141,406	-0,095	0,093
-494,810	350,641	-0,053	-0,078
-493,795	800,000	0,038	0,103
-492,781	-24,820	0,125	-0,054
-491,766	637,752	-0,067	-0,125
-490,751	20,041	0,101	0,060
-489,737	-200,000	0,012	-0,095
-488,722	39,262	0,034	0,023
-487,708	242,958	0,037	-0,046
-486,693	-131,912	0,080	0,008
-485,678	599,409	-0,042	-0,078
-484,664	271,442	0,057	0,074
-483,649	243,680	-0,030	-0,037
-482,635	58,545	0,087	-0,063
-481,620	-200,000	-0,004	0,114
-480,605	145,932	-0,095	-0,094
-479,591	287,004	0,122	0,163
-478,576	281,079	-0,068	0,090
-477,562	89,583	-0,031	0,025
-476,547	-200,000	-0,022	-0,097
-475,532	131,321	-0,108	-0,102
-474,518	-200,000	0,010	0,039
-473,503	-134,412	-0,069	-0,006
-472,489	19,769	-0,107	-0,064
-471,474	588,027	-0,048	-0,088
-470,459	164,147	-0,027	0,028
-469,445	-42,264	-0,127	-0,047
-468,430	274,560	-0,038	-0,050
-467,416	90,667	0,120	0,099
-466,401	-200,000	-0,003	-0,047
-465,386	-86,391	-0,071	-0,016
-464,372	800,000	0,021	0,046
-463,357	585,159	-0,034	0,061
-462,343	-151,343	-0,067	-0,004
-461,328	800,000	0,019	-0,049
-460,313	-142,966	0,118	-0,008
-459,299	800,000	0,018	-0,052
-458,284	800,000	0,059	0,125
-457,270	800,000	0,028	0,064
-456,255	-157,968	0,024	-0,001
-455,241	-39,847	-0,054	-0,020
-454,226	800,000	0,041	-0,086
-453,211	-99,631	-0,050	0,009
-452,197	557,624	0,057	-0,102
-451,182	-111,831	0,134	0,020
-450,168	166,486	0,133	0,139
-449,153	15,972	0,076	0,044
-448,138	-200,000	-0,005	-0,030
-447,124	-60,071	-0,062	-0,020
-446,109	-109,560	0,160	0,025
-445,095	141,461	0,061	-0,059
-444,080	25,252	-0,054	0,033
-443,065	108,453	-0,079	0,070
-442,051	110,884	0,081	0,072
-441,036	120,665	-0,064	-0,058
-440,022	-200,000	0,005	-0,039
-439,007	-10,801	0,046	-0,022
-437,992	-122,761	-0,061	0,007
-436,978	586,317	0,008	0,015
-435,963	800,000	0,057	-0,122
-434,949	443,797	0,046	0,075
-433,934	147,612	-0,104	-0,103
-432,919	-128,169	-0,071	0,007
-431,905	4,520	0,054	-0,029
-430,890	478,477	0,018	0,031
-429,876	-113,255	-0,017	0,002
-428,861	5,990	-0,014	-0,007
-427,846	131,975	0,015	0,014
-426,832	-200,000	-0,041	-0,173
-425,817	27,355	-0,008	0,005
-424,803	-2,269	0,025	0,013
-423,788	13,647	0,107	-0,061
-422,773	-77,469	0,114	-0,029
-421,759	658,540	0,049	0,094
-420,744	-200,000	0,002	0,056
-419,730	152,805	-0,111	0,112
-418,715	800,000	0,038	0,124
-417,701	214,405	-0,090	0,105
-416,686	135,123	0,016	0,015
-415,671	800,000	0,034	0,089
-414,657	196,134	-0,071	-0,080
-413,642	-200,000	0,005	0,130
-412,628	-153,042	0,111	0,006
-411,613	-200,000	-0,018	-0,064
-410,598	338,684	0,084	-0,121
-409,584	182,600	0,080	-0,087
-408,569	-200,000	0,024	-0,086
-407,555	-24,549	-0,066	0,029
-406,540	211,708	0,060	-0,070
-405,525	-150,310	-0,026	-0,001
-404,511	800,000	-0,028	-0,062
-403,496	800,000	-0,022	0,051
-402,482	3,733	0,028	-0,015
-401,467	189,546	-0,068	0,076
-400,452	-59,450	0,110	0,035
-399,438	800,000	0,037	-0,092
-398,423	-200,000	0,015	-0,104
-397,409	16,359	0,063	-0,036
-396,394	312,934	-0,044	0,061
-395,379	-200,000	-0,001	0,019
-394,365	-42,888	0,011	0,004
-393,350	492,458	0,074	0,125
-392,336	133,851	-0,092	0,087
-391,321	26,081	-0,021	0,013
-390,306	376,428	0,046	-0,069
-389,292	286,483	-0,024	-0,031
-388,277	-200,000	0,004	-0,041
-387,263	26,184	-0,017	0,010
-386,248	800,000	0,028	-0,086
-385,233	-200,000	-0,005	0,137
-384,219	-109,559	-0,031	0,005
-383,204	-60,894	-0,171	-0,053
-382,190	800,000	-0,042	0,106
-381,175	800,000	0,027	0,088
-380,160	3,141	0,030	-0,016
-379,146	106,700	0,069	0,060
-378,131	-174,345	-0,072	-0,001
-377,117	424,625	0,048	-0,077
-376,102	800,000	0,075	0,165
-375,088	477,425	-0,085	0,142
-374,073	-103,800	0,023	0,004
-373,058	-27,100	0,108	0,046
-372,044	800,000	0,006	0,014
-371,029	800,000	-0,042	0,089
-370,015	-200,000	-0,014	0,047
-369,000	774,106	0,073	-0,148
-367,985	-60,935	-0,083	0,026
-366,971	276,832	0,021	0,027
-365,956	4,518	0,106	0,057
-364,942	382,237	-0,055	0,084
-363,927	-172,595	0,114	-0,003
-362,912	27,454	0,039	-0,024
-361,898	-200,000	0,010	-0,063
-360,883	309,496	-0,084	-0,116
-359,869	733,717	0,024	0,048
-358,854	98,017	0,024	-0,021
-357,839	-200,000	-0,003	0,066
-356,825	-200,000	0,000	0,047
-355,810	-23,874	0,049	-0,021
-354,796	-10,964	0,014	-0,007
-353,781	186,154	-0,043	-0,047
-352,766	-50,189	-0,045	-0,016
-351,752	-200,000	-0,021	-0,098
-350,737	-200,000	0,008	0,110
-349,723	180,758	0,050	0,054
-348,708	535,333	0,034	0,059
-347,693	800,000	0,052	0,155
-346,679	210,453	0,022	0,025
-345,664	-200,000	-0,005	-0,111
-344,650	384,030	0,024	0,036
-343,635	479,459	-0,059	-0,098
-342,620	800,000	0,038	0,113
-341,606	800,000	-0,061	0,169
-340,591	-74,179	0,126	-0,033
-339,577	800,000	-0,015	-0,043
-338,562	-86,708	0,129	-0,029
-337,548	-144,589	-0,029	-0,002
-336,533	-200,000	0,007	0,085
-335,518	37,139	-0,039	-0,025
-334,504	20,977	0,187	-0,111
-333,489	-102,468	-0,151	-0,026
-332,475	16,037	0,030	-0,017
-331,460	-114,119	0,094	0,013
-330,445	-200,000	0,002	-0,101
-329,431	73,258	-0,081	0,062
-328,416	800,000	-0,044	-0,092
-327,402	129,146	-0,057	-0,054
-326,387	80,601	-0,131	0,104
-325,372	-200,000	0,005	0,098
-324,358	487,025	-0,039	-0,066
-323,343	-200,000	0,053	-0,190
-322,329	800,000	-0,037	0,108
-321,314	41,370	0,057	-0,038
-320,299	800,000	-0,040	0,121
-319,285	360,599	-0,039	0,057
-318,270	-0,919	-0,074	-0,038
-317,256	-21,023	-0,152	-0,068
-316,241	-200,000	-0,004	-0,036
-315,226	426,531	0,046	-0,072
-314,212	304,429	0,036	0,050
-313,197	800,000	0,043	-0,094
-312,183	-16,800	-0,102	-0,047
-311,168	-200,000	0,008	0,046
-310,153	95,338	-0,090	-0,075
-309,139	-43,667	-0,088	0,032
-308,124	220,494	-0,044	0,052
-307,110	225,352	-0,056	0,066
-306,095	800,000	-0,041	0,086
-305,080	396,451	-0,088	0,135
-304,066	-101,358	-0,021	-0,004
-303,051	800,000	-0,051	0,147
-302,037	18,919	-0,215	-0,126
-301,022	800,000	-0,041	-0,085
-300,008	450,548	0,068	0,110
-298,993	360,802	0,049	-0,072
-297,978	348,146	-0,016	0,023
-296,964	-167,380	0,053	0,002
-295,949	87,478	-0,110	-0,089
-294,935	-200,000	0,011	-0,136
-293,920	-200,000	0,002	-0,169
-292,905	-48,138	0,080	-0,028
-291,891	-134,753	0,090	0,008
-290,876	-200,000	0,004	-0,087
-289,862	-200,000	0,043	-0,178
-288,847	-130,801	-0,143	-0,014
-287,832	725,740	0,022	0,043
-286,818	72,410	-0,126	-0,096
-285,803	-190,536	-0,062	0,000
-284,789	218,650	-0,038	0,045
-283,774	-200,000	0,004	0,134
-282,759	707,346	-0,063	0,122
-281,745	-112,079	-0,068	-0,010
-280,730	-200,000	0,048	-0,158
-279,716	800,000	-0,039	-0,101
-278,701	134,434	0,108	0,102
-277,686	800,000	0,019	-0,061
-276,672	-200,000	0,016	-0,053
-275,657	217,283	0,049	0,057
-274,643	40,246	-0,059	-0,039
-273,628	249,563	-0,073	0,091
-272,613	800,000	-0,035	-0,086
-271,599	-200,000	0,014	-0,132
-270,584	111,414	0,027	0,024
-269,570	172,280	0,028	-0,030
-268,555	61,021	0,107	0,078
-267,540	663,348	0,038	-0,072
-266,526	11,583	-0,095	0,053
-265,511	-200,000	-0,047	-0,163
-264,497	29,216	0,041	0,025
-263,482	800,000	-0,047	0,105
-262,467	367,518	0,047	0,070
-261,453	54,411	0,112	0,079
-260,438	800,000	0,055	-0,111
-259,424	-200,000	0,012	-0,143
-258,409	373,845	-0,017	-0,025
-257,395	-11,473	-0,056	-0,027
-256,380	88,560	0,078	-0,063
-255,365	398,096	0,068	0,104
-254,351	800,000	-0,020	-0,045
-253,336	-200,000	0,004	-0,066
-252,322	146,296	0,056	0,055
-251,307	800,000	-0,037	-0,077
-250,292	276,398	0,047	0,061
-249,278	-200,000	-0,013	0,129
-248,263	-30,674	0,050	0,021
-247,249	-200,000	-0,003	0,143
-246,234	38,393	-0,061	0,040
-245,219	220,619	-0,024	0,028
-244,205	-200,000	0,001	0,056
-243,190	-101,137	0,019	0,003
-242,176	-200,000	0,022	0,083
-241,161	-200,000	0,036	0,152
-240,146	800,000	-0,066	0,138
-239,132	-200,000	0,017	-0,068
-238,117	800,000	0,054	-0,164
-237,103	275,745	-0,016	-0,021
-236,088	323,985	0,081	0,114
-235,073	18,444	-0,031	0,018
-234,059	-38,127	0,139	0,054
-233,044	58,333	-0,098	0,070
-232,030	429,253	-0,077	-0,121
-231,015	-200,000	0,010	-0,032
-230,000	800,000	0,034	-0,103
-228,986	-98,909	-0,095	-0,018
-227,971	-200,000	-0,008	0,040
-226,957	-153,376	0,165	0,008
-225,942	-3,523	0,083	0,042
-224,927	245,830	-0,080	0,099
-223,913	-200,000	0,006	0,166
-222,898	75,792	-0,102	0,078
-221,884	6,900	-0,087	0,047
-220,869	800,000	0,076	0,177
-219,855	-200,000	-0,019	0,074
-218,840	84,483	0,063	0,051
-217,825	-95,598	-0,045	0,009
-216,811	63,752	0,028	0,021
-215,796	-200,000	0,019	-0,104
-214,782	29,508	-0,039	0,024
-213,767	97,490	0,145	-0,121
-212,752	-200,000	0,031	-0,219
-211,738	-200,000	0,052	0,208
-210,723	55,881	-0,022	0,015
-209,709	399,350	0,020	-0,030
-208,694	-135,340	0,072	-0,006
-207,679	-117,679	0,048	0,006
-206,665	98,607	0,042	0,036
-205,650	47,736	0,044	0,030
-204,636	74,882	0,171	0,132
-203,621	-142,227	-0,051	-0,004
-202,606	-75,626	-0,074	0,019
-201,592	73,149	0,055	-0,042
-200,577	800,000	0,037	-0,093
-199,563	78,948	0,142	0,111
-198,548	65,302	0,070	0,052
-197,533	-200,000	-0,031	-0,213
-196,519	-200,000	0,009	0,106
-195,504	-147,486	-0,121	-0,007
-194,490	-200,000	-0,007	0,056
-193,475	169,867	0,060	-0,063
-192,460	-93,868	0,138	0,027
-191,446	179,130	0,117	0,125
-190,431	-141,464	-0,085	0,006
-189,417	31,219	0,039	0,024
-188,402	-79,516	0,095	-0,023
-187,387	105,008	-0,079	-0,068
-186,373	-138,770	-0,113	0,009
-185,358	-111,833	-0,068	-0,010
-184,344	-200,000	0,003	-0,040
-183,329	-4,273	0,195	0,098
-182,315	-200,000	0,004	0,055
-181,300	91,008	-0,079	0,065
-180,285	-200,000	0,016	-0,135
-179,271	181,169	-0,013	0,014
-178,256	-5,744	-0,030	-0,015
-177,242	352,663	-0,048	0,070
-176,227	800,000	0,007	-0,021
-175,212	-144,930	0,143	0,009
-174,198	-33,688	-0,080	-0,032
-173,183	800,000	0,040	0,108
-172,169	-165,519	-0,120	-0,004
-171,154	99,330	0,029	0,024
-170,139	301,043	0,030	-0,041
-169,125	-200,000	0,015	0,098
-168,110	-200,000	0,026	0,116
-167,096	800,000	-0,065	0,139
-166,081	800,000	-0,047	-0,098
-165,066	-145,496	-0,224	-0,014
-164,052	-32,669	0,051	-0,021
-163,037	-200,000	0,022	0,103
-162,023	154,320	-0,023	-0,023
-161,008	-147,751	0,077	-0,005
-159,993	17,616	0,060	0,035
-158,979	-41,557	-0,089	-0,033
-157,964	-152,395	-0,121	-0,006
-156,950	133,819	-0,051	-0,048
-155,935	64,962	0,094	-0,069
-154,920	129,958	0,122	0,113
-153,906	-200,000	-0,007	0,030
-152,891	800,000	-0,054	0,147
-151,877	51,032	-0,026	0,018
-150,862	34,599	-0,039	0,025
-149,847	-10,320	-0,071	0,034
-148,833	-83,029	-0,102	0,024
-147,818	360,903	0,081	0,119
-146,804	800,000	0,029	0,093
-145,789	-9,818	0,081	-0,039
-144,775	400,934	-0,017	0,026
-143,760	-200,000	0,024	-0,082
-142,745	123,530	0,083	-0,076
-141,731	392,094	-0,089	-0,136
-140,716	17,099	0,095	0,055
-139,702	112,663	0,081	0,072
-138,687	447,764	0,010	0,015
-137,672	800,000	-0,049	0,112
-136,658	800,000	0,043	0,112
-135,643	-44,455	-0,228	-0,082
-134,629	173,117	-0,091	-0,095
-133,614	-155,603	-0,015	0,001
-132,599	-115,693	0,192	-0,026
-131,585	429,605	-0,030	-0,047
-130,570	-179,579	-0,013	-0,000
-129,556	694,694	-0,069	-0,133
-128,541	283,905	-0,081	0,106
-127,526	31,925	0,030	0,019
-126,512	483,543	0,075	0,125
-125,497	-24,566	0,057	0,025
-124,483	298,832	0,076	-0,102
-123,468	256,548	0,065	0,081
-122,453	123,305	0,072	-0,066
-121,439	800,000	0,031	-0,070
-120,424	-103,785	0,071	0,012
-119,410	103,617	0,007	-0,006
-118,395	69,666	0,063	-0,047
-117,380	-200,000	0,028	-0,193
-116,366	92,762	-0,022	0,018
-115,351	-96,281	-0,092	0,018
-114,337	-111,638	-0,056	0,008
-113,322	-200,000	-0,022	-0,122
-112,307	800,000	0,037	-0,074
-111,293	-200,000	0,023	0,121
-110,278	-200,000	0,002	0,097
-109,264	-200,000	0,005	0,095
-108,249	800,000	0,016	-0,038
-107,234	5,633	-0,105	0,056
-106,220	-200,000	0,003	0,032
-105,205	97,420	0,114	-0,095
-104,191	-200,000	-0,023	0,091
-103,176	-131,006	0,124	0,012
-102,162	54,738	0,057	-0,040
-101,147	553,624	-0,084	-0,147
-100,132	367,710	-0,040	-0,059
-99,118	798,401	0,062	0,125
-98,103	-200,000	0,008	0,102
-97,089	72,968	0,065	0,049
-96,074	-5,303	0,088	-0,044
-95,059	-200,000	0,027	-0,136
-94,045	-200,000	-0,005	-0,081
-93,030	162,442	0,027	-0,027
-92,016	-73,032	-0,054	-0,014
-91,001	30,128	-0,131	-0,081
-89,986	35,262	0,039	0,025
-88,972	800,000	0,008	0,019
-87,957	77,883	0,093	0,072
-86,943	-200,000	-0,002	0,143
-85,928	695,857	-0,099	-0,189
-84,913	-81,710	0,020	0,005
-83,899	77,393	-0,047	-0,036
-82,884	549,057	0,047	-0,083
-81,870	155,452	0,106	0,106
-80,855	-89,391	0,075	0,016
-79,840	568,059	-0,021	0,038
-78,826	-200,000	-0,020	-0,092
-77,811	-97,451	-0,049	0,009
-76,797	131,741	0,033	0,031
-75,782	176,805	0,046	-0,049
-74,767	51,690	0,040	-0,028
-73,753	-200,000	-0,004	0,074
-72,738	156,042	-0,053	0,053
-71,724	-200,000	-0,008	-0,043
-70,709	800,000	-0,035	-0,111
-69,694	800,000	0,027	0,077
-68,680	152,001	-0,012	0,012
-67,665	-73,322	0,177	0,047
-66,651	664,746	0,005	-0,010
-65,636	100,735	-0,036	-0,030
-64,622	-200,000	0,008	0,069
-63,607	25,437	-0,071	-0,043
-62,592	-200,000	-0,016	0,078
-61,578	-200,000	0,026	-0,092
-60,563	-168,873	0,027	-0,001
-59,549	306,711	-0,123	0,167
-58,534	-106,416	-1,416	-0,227
-57,519	600,094	-0,894	-1,618
-56,505	-200,000	-0,931	-4,408
-55,490	83,962	0,598	-0,474
-54,476	800,000	4,934	11,919
-53,461	-200,000	13,157	252,114
-52,446	-200,000	688,064	2273,547
-51,432	599,566	1623,375	2935,281
-50,417	121,302	1637,546	1479,821
-49,403	73,367	1291,814	979,868
-48,388	38,516	1026,202	662,556
-47,373	24,690	983,365	589,383
-46,359	23,901	973,240	580,700
-45,344	23,024	969,026	575,295
-44,330	22,951	967,511	574,131
-43,315	22,872	966,205	573,078
-42,300	22,828	965,150	572,284
-41,286	22,820	964,275	571,718
-40,271	22,800	963,182	570,980
-39,257	22,805	962,284	570,444
-38,242	22,873	961,252	570,029
-37,227	22,811	960,470	569,343
-36,213	22,745	959,839	568,730
-35,198	22,782	958,856	568,246
-34,184	22,783	958,289	567,891
-33,169	22,774	957,141	567,158
-32,154	22,841	956,195	566,792
-31,140	22,877	955,356	566,387
-30,125	22,843	954,708	565,872
-29,111	22,842	953,937	565,389
-28,096	22,881	952,877	564,863
-27,082	22,843	952,480	564,485
-26,067	22,890	951,627	564,108
-25,052	22,830	951,088	563,572
-24,038	22,823	950,355	563,094
-23,023	22,831	949,714	562,718
-22,009	22,869	948,894	562,330
-20,994	22,849	948,322	561,904
-19,979	22,884	947,669	561,606
-18,965	22,859	947,243	561,255
-17,950	22,878	946,416	560,800
-16,936	22,720	945,977	560,013
-15,921	22,776	945,154	559,685
-14,906	22,711	944,442	559,032
-13,892	22,770	943,708	558,766
-12,877	22,726	943,024	558,197
-11,863	22,683	942,487	557,721
-10,848	22,710	942,018	557,505
-9,833	22,854	941,519	557,645
-8,819	22,786	940,874	557,028
-7,804	22,710	940,206	556,368
-6,790	22,767	939,542	556,133
-5,775	22,731	939,107	555,740
-4,760	22,727	938,469	555,327
-3,746	22,726	937,872	554,950
-2,731	22,628	937,094	554,158
-1,717	22,533	936,335	553,385
-0,702	22,500	935,759	552,920
0,313	22,304	935,120	552,758
1,327	25,540	933,159	561,739
2,342	35,427	797,880	506,678
3,356	33,820	451,907	284,530
4,371	2,367	292,898	153,154
5,386	-2,221	273,619	138,739
6,400	-3,803	267,806	134,318
7,415	-4,379	265,471	132,607
8,429	-3,915	264,044	132,305
9,444	-3,950	263,331	131,904
10,459	-4,190	262,653	131,336
11,473	-3,973	261,985	131,186
12,488	-4,190	261,521	130,747
13,502	-4,463	261,085	130,271
14,517	-4,203	260,461	130,181
15,531	-4,312	260,233	129,958
16,546	-4,167	259,865	129,892
17,561	-3,986	259,355	129,788
18,575	-4,033	259,212	129,662
19,590	-3,993	258,763	129,462
20,604	-4,177	258,641	129,225
21,619	-4,120	258,305	129,097
22,634	-4,131	257,810	128,828
23,648	-4,040	257,572	128,778
24,663	-4,129	257,380	128,593
25,677	-4,135	257,136	128,453
26,692	-4,164	256,921	128,308
27,707	-4,104	256,591	128,186
28,721	-4,293	256,406	127,915
29,736	-4,170	256,004	127,811
30,750	-4,182	255,819	127,697
31,765	-4,435	255,706	127,407
32,780	-4,172	255,361	127,455
33,794	-4,311	255,188	127,235
34,809	-4,195	255,003	127,233
35,823	-4,262	254,604	126,963
36,838	-4,276	254,509	126,893
37,853	-4,366	254,265	126,682
38,867	-4,549	254,054	126,405
39,882	-4,312	253,825	126,486
40,896	-4,148	253,515	126,463
41,911	-4,205	253,338	126,314
42,926	-4,390	253,160	126,053
43,940	-4,336	252,867	125,943
44,955	-4,373	252,604	125,769
45,969	-4,372	252,340	125,627
46,984	-4,557	252,108	125,340
47,999	-4,925	251,908	124,910
49,013	-5,027	251,785	124,750
50,028	-5,011	251,441	124,583
51,042	-5,046	250,996	124,320
52,057	-5,094	250,933	124,236
53,071	-5,206	250,681	124,004
54,086	-5,010	250,471	124,059
55,101	-4,913	250,490	124,140
56,115	-4,713	250,357	124,235
57,130	-4,431	250,221	124,400
58,144	-3,998	250,008	124,654
59,159	-4,065	249,793	124,478
60,174	-4,151	249,644	124,320
61,188	-4,161	249,499	124,227
62,203	-3,968	249,122	124,194
63,217	-4,178	249,050	123,967
64,232	-4,143	248,652	123,788
65,247	-3,945	248,557	123,898
66,261	-3,978	248,258	123,710
67,276	-4,359	247,985	123,239
68,290	-4,505	247,851	123,037
69,305	-4,720	247,562	122,700
70,320	-4,732	247,425	122,611
71,334	-4,554	247,223	122,650
72,349	-4,233	247,172	122,887
73,363	-4,034	246,974	122,946
74,378	-3,940	246,681	122,868
75,393	-4,143	246,596	122,644
76,407	-4,031	246,236	122,549
77,422	-4,168	246,163	122,385
78,436	-4,200	246,035	122,284
79,451	-4,195	245,801	122,161
80,466	-4,261	245,566	121,978
81,480	-4,324	245,265	121,765
82,495	-4,546	245,155	121,513
83,509	-4,334	244,791	121,499
84,524	-4,379	244,618	121,364
85,539	-4,670	244,428	121,015
86,553	-4,602	244,310	121,003
87,568	-4,531	244,168	120,982
88,582	-4,391	244,058	121,033
89,597	-4,336	243,859	120,969
90,611	-4,402	243,691	120,821
91,626	-4,314	243,648	120,862
92,641	-4,204	243,350	120,796
93,655	-4,475	243,092	120,431
94,670	-4,338	243,027	120,501
95,684	-4,345	242,594	120,270
96,699	-4,318	242,488	120,230
97,714	-4,410	242,268	120,033
98,728	-4,448	242,029	119,873
99,743	-4,623	241,967	119,687
100,757	-4,671	241,692	119,500
101,772	-4,524	241,460	119,496
102,787	-4,455	241,361	119,493
103,801	-4,431	241,365	119,505
104,816	-4,255	241,141	119,528
105,830	-4,314	240,982	119,391
106,845	-4,114	240,764	119,436
107,860	-4,165	240,461	119,234
108,874	-4,421	240,380	118,972
109,889	-4,380	240,205	118,909
110,903	-4,615	240,120	118,663
111,918	-4,473	239,833	118,627
112,933	-4,469	239,835	118,621
113,947	-4,331	239,442	118,528
114,962	-4,241	239,360	118,551
115,976	-4,403	239,151	118,305
116,991	-4,296	238,858	118,236
118,006	-4,459	238,867	118,098
119,020	-4,250	238,827	118,238
120,035	-4,211	238,657	118,174
121,049	-4,252	238,487	118,046
122,064	-4,038	238,227	118,081
123,079	-4,154	238,069	117,898
124,093	-4,424	237,748	117,509
125,108	-4,624	237,672	117,299
126,122	-4,573	237,397	117,195
127,137	-4,802	237,335	116,967
128,151	-4,620	237,059	116,969
129,166	-4,494	236,908	116,985
130,181	-4,486	236,653	116,856
131,195	-4,698	236,537	116,617
132,210	-4,597	236,436	116,638
133,224	-4,411	236,180	116,651
134,239	-4,225	235,988	116,696
135,254	-3,945	235,780	116,808
136,268	-4,413	235,733	116,398
137,283	-4,599	235,415	116,081
138,297	-4,719	235,343	115,939
139,312	-4,691	235,060	115,811
140,327	-4,453	234,885	115,906
141,341	-3,890	234,910	116,358
142,356	-3,681	234,660	116,392
143,370	-3,826	234,592	116,232
144,385	-4,044	234,475	115,989
145,400	-3,854	234,235	116,012
146,414	-3,906	234,045	115,866
147,429	-4,037	234,068	115,762
148,443	-4,008	233,762	115,624
149,458	-4,070	233,758	115,562
150,473	-3,931	233,519	115,544
151,487	-4,197	233,297	115,212
152,502	-4,254	233,098	115,059
153,516	-3,807	233,038	115,374
154,531	-4,155	233,045	115,091
155,546	-4,140	232,694	114,919
156,560	-3,975	232,446	114,917
157,575	-4,219	232,250	114,617
158,589	-4,233	232,110	114,527
159,604	-3,893	232,027	114,744
160,619	-3,874	231,807	114,640
161,633	-3,815	231,686	114,616
162,648	-3,825	231,463	114,488
163,662	-3,914	231,399	114,376
164,677	-4,200	231,298	114,091
165,692	-4,060	231,266	114,175
166,706	-3,970	231,094	114,151
167,721	-3,996	230,837	113,993
168,735	-3,696	230,640	114,121
169,750	-3,970	230,577	113,865
170,764	-4,011	230,245	113,658
171,779	-3,806	230,174	113,774
172,794	-3,780	230,049	113,722
173,808	-3,964	229,839	113,465
174,823	-4,470	229,470	112,877
175,837	-4,676	229,310	112,628
176,852	-4,220	229,283	112,960
177,867	-3,974	229,206	113,104
178,881	-3,866	229,202	113,176
179,896	-3,809	229,015	113,118
180,910	-3,779	228,841	113,045
181,925	-3,719	228,739	113,031
182,940	-3,730	228,473	112,881
183,954	-3,705	228,332	112,821
184,969	-3,915	228,308	112,636
185,983	-3,726	228,086	112,663
186,998	-3,834	228,039	112,546
188,013	-3,689	227,761	112,511
189,027	-3,834	227,576	112,298
190,042	-3,781	227,422	112,252
191,056	-3,710	227,250	112,213
192,071	-3,720	227,120	112,130
193,086	-3,649	226,909	112,071
194,100	-3,759	226,972	112,007
195,115	-4,013	226,489	111,564
196,129	-4,729	226,216	110,869
197,144	-1,723	227,298	113,708
198,159	2,333	228,415	117,393
199,173	4,097	228,563	118,820
200,188	4,417	228,535	119,041
201,202	4,297	228,355	118,845
202,217	4,535	228,233	118,954
203,232	4,736	228,112	119,035
204,246	4,756	228,047	119,005
205,261	4,829	227,973	119,013
206,275	4,885	227,944	119,030
207,290	5,051	227,695	119,017
208,304	4,985	227,609	118,911
209,319	4,810	227,355	118,633
210,334	4,566	227,198	118,354
211,348	4,539	227,032	118,237
212,363	4,345	226,754	117,932
213,377	4,090	226,402	117,544
214,392	3,931	226,408	117,415
215,407	3,919	226,364	117,373
216,421	4,210	226,050	117,421
217,436	4,133	225,854	117,251
218,450	3,855	225,705	116,951
219,465	3,831	225,596	116,866
220,480	3,801	225,314	116,686
221,494	3,713	225,352	116,630
222,509	3,827	225,285	116,671
223,523	3,734	225,063	116,475
224,538	3,837	224,865	116,440
225,553	4,190	224,779	116,652
226,567	4,176	224,698	116,590
227,582	4,405	224,547	116,674
228,596	4,697	224,435	116,826
229,611	4,130	224,208	116,269
230,626	4,152	223,937	116,135
231,640	4,076	223,759	115,975
232,655	4,203	223,818	116,091
233,669	4,376	223,807	116,205
234,684	4,697	223,726	116,394
235,699	4,544	223,417	116,108
236,713	4,252	223,280	115,807
237,728	3,873	223,021	115,378
238,742	4,044	222,859	115,413
239,757	3,909	222,685	115,211
240,772	4,101	222,410	115,202
241,786	3,991	222,265	115,034
242,801	4,248	222,271	115,219
243,815	4,376	222,390	115,367
244,830	4,394	222,079	115,208
245,844	4,324	221,855	115,030
246,859	4,229	221,696	114,866
247,874	4,287	221,601	114,849
248,888	4,359	221,546	114,865
249,903	4,297	221,357	114,711
250,917	4,014	221,094	114,354
251,932	3,956	220,933	114,217
252,947	4,074	220,772	114,211
253,961	3,826	220,621	113,939
254,976	3,926	220,642	114,014
255,990	3,968	220,568	113,996
257,005	4,258	220,405	114,117
258,020	4,049	220,200	113,846
259,034	4,635	220,023	114,177
260,049	4,292	219,994	113,898
261,063	4,250	219,772	113,742
262,078	4,439	219,699	113,834
263,093	4,568	219,577	113,855
264,107	4,224	219,251	113,423
265,122	4,340	219,277	113,512
266,136	4,492	219,169	113,558
267,151	4,475	219,060	113,479
268,166	4,217	218,688	113,087
269,180	3,680	218,564	112,618
270,195	3,969	218,449	112,762
271,209	3,960	218,246	112,639
272,224	3,893	218,133	112,522
273,239	4,177	217,823	112,560
274,253	3,857	217,798	112,303
275,268	3,620	217,775	112,108
276,282	3,783	217,449	112,049
277,297	3,875	217,254	112,006
278,312	3,716	217,334	111,922
279,326	3,919	217,205	111,993
280,341	3,862	217,053	111,863
281,355	4,245	216,820	112,011
282,370	4,117	216,644	111,817
283,384	3,792	216,543	111,519
284,399	3,812	216,298	111,398
285,414	3,782	216,136	111,283
286,428	3,970	216,105	111,393
287,443	4,262	216,015	111,548
288,457	4,138	215,926	111,402
289,472	4,097	215,764	111,279
290,487	3,644	215,408	110,758
291,501	3,596	215,332	110,675
292,516	3,926	215,272	110,872
293,530	3,910	215,112	110,769
294,545	3,804	214,983	110,616
295,560	3,729	215,147	110,636
296,574	3,919	214,762	110,565
297,589	4,071	214,502	110,530
298,603	4,236	214,338	110,554
299,618	4,236	214,404	110,579
300,633	3,892	214,428	110,334
301,647	4,403	214,356	110,654
302,662	4,274	214,047	110,392
303,676	4,191	214,007	110,303
304,691	4,198	213,811	110,196
305,706	4,186	213,734	110,139
306,720	4,491	213,462	110,206
307,735	4,028	213,358	109,812
308,749	3,782	213,200	109,546
309,764	4,156	213,003	109,701
310,779	4,090	213,094	109,692
311,793	4,415	212,806	109,764
312,808	4,165	212,735	109,540
313,822	3,932	212,503	109,246
314,837	4,071	212,438	109,301
315,852	3,938	212,193	109,071
316,866	4,038	212,003	109,034
317,881	4,245	211,942	109,139
318,895	4,056	211,867	108,957
319,910	4,107	211,691	108,894
320,925	3,596	211,499	108,424
321,939	3,481	211,236	108,198
322,954	3,471	211,248	108,188
323,968	4,055	211,161	108,545
324,983	4,144	210,955	108,493
325,997	4,395	210,819	108,590
327,012	4,126	210,677	108,318
328,027	4,361	210,508	108,386
329,041	4,470	210,514	108,457
330,056	4,522	210,373	108,410
331,070	3,996	210,183	107,934
332,085	3,909	210,008	107,773
333,100	3,929	209,878	107,711
334,114	4,008	209,736	107,684
335,129	4,068	209,525	107,608
336,143	3,734	209,383	107,292
337,158	3,877	209,341	107,361
338,173	4,114	209,185	107,437
339,187	3,861	208,988	107,150
340,202	3,798	208,890	107,046
341,216	3,610	208,752	106,835
342,231	3,842	208,633	106,925
343,246	3,815	208,415	106,786
344,260	3,766	208,347	106,707
345,275	3,943	208,303	106,798
346,289	4,119	208,261	106,889
347,304	4,105	208,100	106,787
348,319	4,104	207,873	106,661
349,333	4,083	207,783	106,590
350,348	4,131	207,660	106,551
351,362	4,396	207,568	106,677
352,377	4,194	207,483	106,485
353,392	4,049	207,200	106,230
354,406	4,469	207,206	106,514
355,421	193,237	1346,552	1433,032
356,435	154,115	1485,484	1433,179
