DTS Sentinel unit serial number:	SN410029Multiplexer serial number:	ORYXHardware model number:	OX2-SRSoftware version number:	ORYX F/W v4,00 Oryx Data Collector v3.7.2.0data status	okinstallation	B6 Nyhavnadifferential loss correction	single-endedforward channel	channel 2reverse channel	N/Adate	2023/12/08time	16:15:08forward acquisition time	300,00reverse acquisition time	0,00gamma	499,1914k internal	0,3160k external	0,3160temperature offset calibration	1,0000default loss term (dB/km)	0,3820temperature slope calibration	1,0000multiplexer offset coefficient	1,0000multiplexer slope coefficient	1,0000fibre end	0,00T internal ref (°C)	15,12T ext. ref 1 (°C)	-1,47T ext. ref 2 (°C)	-1,48length (m)	temperature (°C)	Stokes	anti-Stokes-744,400	42,660	0,150	0,101
-743,385	-24,930	-0,263	0,114
-742,371	-54,928	0,231	0,076
-741,356	-136,149	-0,354	0,030
-740,342	197,543	0,074	0,083
-739,327	-144,937	-0,323	-0,021
-738,312	234,922	0,107	-0,131
-737,298	-133,370	-0,287	0,026
-736,283	-174,327	0,159	-0,003
-735,269	-49,435	-0,294	0,103
-734,254	4,775	0,133	0,072
-733,239	-125,429	-0,486	-0,054
-732,225	-76,614	0,110	0,028
-731,210	37,409	-0,066	0,043
-730,196	-200,000	0,020	0,086
-729,181	-129,711	0,034	-0,003
-728,167	-142,604	-0,046	0,003
-727,152	-50,057	0,077	-0,027
-726,137	97,314	-0,103	-0,087
-725,123	54,452	-0,044	0,031
-724,108	751,216	0,054	-0,108
-723,094	273,833	-0,010	0,014
-722,079	-200,000	-0,014	-0,086
-721,064	17,418	0,093	-0,054
-720,050	-125,962	-0,027	0,003
-719,035	119,553	0,043	-0,039
-718,021	-41,807	-0,170	0,064
-717,006	55,320	-0,086	-0,061
-715,991	45,837	-0,043	-0,029
-714,977	-31,856	0,139	-0,057
-713,962	-42,252	-0,109	0,041
-712,948	-76,540	-0,080	0,021
-711,933	162,903	-0,080	-0,083
-710,918	-37,195	-0,045	0,018
-709,904	800,000	0,027	-0,073
-708,889	350,743	-0,020	-0,030
-707,875	568,706	-0,077	-0,139
-706,860	-101,003	-0,042	-0,008
-705,845	-200,000	-0,022	-0,110
-704,831	41,045	0,025	0,016
-703,816	-71,943	0,030	-0,008
-702,802	26,967	-0,083	-0,051
-701,787	279,500	-0,012	0,016
-700,772	595,007	0,028	-0,050
-699,758	542,525	0,035	-0,062
-698,743	415,606	-0,049	-0,077
-697,729	195,265	0,052	0,059
-696,714	-200,000	-0,011	-0,078
-695,699	131,514	-0,053	-0,050
-694,685	-74,139	0,100	0,026
-693,670	81,708	-0,074	0,059
-692,656	-43,990	0,021	0,008
-691,641	184,337	0,046	-0,050
-690,627	231,648	-0,010	0,012
-689,612	-200,000	0,001	0,035
-688,597	371,154	-0,030	-0,045
-687,583	-91,106	-0,133	-0,028
-686,568	-5,244	-0,049	-0,025
-685,554	20,007	-0,086	0,051
-684,539	-200,000	0,031	-0,123
-683,524	86,943	0,036	0,029
-682,510	-200,000	0,005	-0,094
-681,495	-94,046	-0,185	-0,037
-680,481	229,209	-0,071	-0,086
-679,466	646,950	-0,070	-0,133
-678,451	800,000	-0,045	-0,129
-677,437	-109,427	-0,049	0,007
-676,422	-8,262	0,154	0,076
-675,408	103,009	-0,025	-0,022
-674,393	-173,000	0,003	0,000
-673,378	-9,071	-0,059	-0,029
-672,364	-74,181	-0,147	-0,039
-671,349	-24,439	0,025	-0,011
-670,335	-37,632	0,105	-0,041
-669,320	-144,460	0,040	-0,003
-668,305	423,514	-0,018	-0,028
-667,291	316,687	-0,036	-0,050
-666,276	-2,682	0,025	0,013
-665,262	318,508	0,012	-0,017
-664,247	69,599	-0,045	0,034
-663,232	-18,912	-0,102	0,047
-662,218	86,199	0,209	-0,169
-661,203	-111,115	-0,103	0,015
-660,189	21,385	0,037	0,022
-659,174	247,575	-0,044	-0,055
-658,159	-32,681	-0,083	-0,034
-657,145	-200,000	0,019	-0,085
-656,130	-30,653	-0,050	-0,021
-655,116	-200,000	0,004	-0,094
-654,101	44,213	0,047	-0,031
-653,086	67,971	0,020	0,015
-652,072	-200,000	0,003	0,064
-651,057	-200,000	0,028	-0,094
-650,043	800,000	0,075	0,205
-649,028	69,324	0,161	0,122
-648,014	-80,279	-0,093	-0,023
-646,999	-200,000	-0,011	-0,122
-645,984	-200,000	0,008	0,041
-644,970	623,486	-0,023	-0,042
-643,955	-109,237	-0,032	0,005
-642,941	-9,207	0,161	0,079
-641,926	-200,000	-0,003	-0,108
-640,911	56,777	0,101	0,072
-639,897	-200,000	0,017	-0,062
-638,882	-131,244	-0,154	-0,015
-637,868	-17,943	-0,062	0,028
-636,853	800,000	-0,037	-0,083
-635,838	-172,863	-0,129	0,003
-634,824	452,460	0,045	-0,073
-633,809	1,049	-0,056	-0,029
-632,795	-56,728	-0,085	-0,027
-631,780	-11,016	-0,073	0,035
-630,765	3,442	-0,041	0,022
-629,751	388,833	-0,126	0,192
-628,736	251,734	-0,086	-0,108
-627,722	-10,384	-0,063	0,030
-626,707	800,000	-0,032	0,081
-625,692	130,742	0,101	-0,095
-624,678	-127,135	0,074	-0,008
-623,663	800,000	-0,081	0,194
-622,649	224,734	0,031	-0,037
-621,634	9,797	-0,117	0,065
-620,619	-29,883	-0,093	-0,039
-619,605	-200,000	-0,017	0,087
-618,590	-38,627	0,067	0,026
-617,576	134,139	0,099	-0,094
-616,561	-77,538	-0,160	-0,040
-615,546	34,917	-0,097	-0,062
-614,532	-112,058	-0,121	0,018
-613,517	-62,233	-0,077	-0,023
-612,503	-76,947	0,094	0,024
-611,488	-138,742	-0,058	-0,005
-610,474	174,189	0,109	0,115
-609,459	800,000	0,049	-0,110
-608,444	-20,561	-0,098	0,044
-607,430	800,000	0,024	0,073
-606,415	84,376	0,090	-0,072
-605,401	-69,056	0,024	-0,007
-604,386	138,703	-0,019	-0,019
-603,371	800,000	-0,052	-0,160
-602,357	-140,369	0,112	0,008
-601,342	800,000	0,041	-0,129
-600,328	743,423	-0,070	-0,138
-599,313	-200,000	-0,030	-0,103
-598,298	-100,798	-0,101	0,018
-597,284	-168,590	0,177	0,005
-596,269	63,996	-0,073	-0,054
-595,255	197,340	0,039	0,043
-594,240	-200,000	-0,001	0,078
-593,225	228,550	0,039	-0,047
-592,211	800,000	0,045	-0,112
-591,196	-109,782	-0,079	0,012
-590,182	209,652	-0,059	-0,067
-589,167	-55,697	0,190	-0,062
-588,152	-200,000	-0,029	0,102
-587,138	-84,398	0,030	-0,007
-586,123	282,261	-0,114	-0,150
-585,109	-55,241	-0,095	0,031
-584,094	-76,431	0,128	0,033
-583,079	43,562	-0,067	-0,045
-582,065	-19,201	0,217	0,098
-581,050	107,124	0,048	-0,042
-580,036	-200,000	0,032	-0,115
-579,021	186,040	-0,042	0,046
-578,006	93,160	-0,047	-0,039
-576,992	41,051	-0,127	-0,084
-575,977	800,000	0,007	-0,016
-574,963	42,472	0,112	0,075
-573,948	-167,302	0,072	0,002
-572,934	-190,803	0,220	-0,002
-571,919	-104,819	-0,092	0,015
-570,904	475,198	-0,064	-0,106
-569,890	48,045	-0,085	-0,058
-568,875	-25,249	0,017	-0,007
-567,861	-87,564	0,020	0,004
-566,846	-200,000	0,009	0,109
-565,831	9,096	-0,084	0,046
-564,817	25,397	0,114	-0,069
-563,802	13,211	-0,130	-0,074
-562,788	116,556	0,053	-0,048
-561,773	110,050	0,045	0,039
-560,758	-36,001	0,090	-0,036
-559,744	-51,760	0,074	0,025
-558,729	-54,901	-0,164	-0,054
-557,715	-200,000	-0,031	0,197
-556,700	214,413	-0,080	0,093
-555,685	127,532	-0,129	-0,120
-554,671	142,749	0,127	-0,123
-553,656	57,289	-0,042	-0,030
-552,642	117,497	0,133	-0,120
-551,627	688,659	-0,091	-0,175
-550,612	-200,000	-0,004	-0,038
-549,598	40,714	0,009	-0,006
-548,583	201,715	0,021	-0,023
-547,569	-36,192	0,145	0,057
-546,554	58,683	0,062	-0,044
-545,539	-200,000	0,023	-0,098
-544,525	374,202	-0,035	0,052
-543,510	34,469	-0,035	0,022
-542,496	-200,000	0,011	0,041
-541,481	800,000	-0,063	-0,161
-540,466	244,219	-0,088	0,108
-539,452	177,988	0,086	0,092
-538,437	-54,147	-0,122	0,040
-537,423	73,644	-0,093	0,071
-536,408	-200,000	-0,007	0,033
-535,393	-7,183	0,107	0,053
-534,379	466,146	-0,103	-0,168
-533,364	518,070	-0,078	0,134
-532,350	800,000	0,048	0,116
-531,335	44,044	-0,112	-0,075
-530,321	-162,385	-0,046	-0,002
-529,306	163,065	0,052	-0,053
-528,291	676,142	-0,029	0,055
-527,277	-200,000	0,007	0,066
-526,262	-95,215	-0,039	0,008
-525,248	-51,500	0,094	-0,032
-524,233	-200,000	0,005	-0,036
-523,218	296,424	0,063	0,085
-522,204	164,093	0,064	-0,066
-521,189	-53,340	0,036	-0,012
-520,175	-9,538	-0,065	-0,032
-519,160	-83,789	0,118	-0,027
-518,145	-200,000	-0,034	0,120
-517,131	39,492	-0,109	-0,071
-516,116	-194,411	-0,051	0,000
-515,102	61,203	-0,053	0,038
-514,087	76,093	-0,040	0,031
-513,072	44,230	-0,105	-0,070
-512,058	-113,318	-0,098	-0,014
-511,043	-168,177	-0,102	0,003
-510,029	55,440	0,052	-0,037
-509,014	30,456	0,052	0,032
-507,999	76,606	0,068	-0,053
-506,985	-66,701	-0,106	0,030
-505,970	800,000	0,071	0,145
-504,956	81,269	0,036	-0,028
-503,941	-200,000	-0,015	0,087
-502,926	-81,846	-0,127	-0,030
-501,912	230,780	0,105	-0,125
-500,897	-200,000	0,013	0,077
-499,883	-79,257	0,108	0,027
-498,868	-200,000	-0,010	0,055
-497,853	659,514	0,083	-0,157
-496,839	128,123	-0,081	-0,075
-495,824	-200,000	0,006	-0,092
-494,810	800,000	0,027	0,078
-493,795	-200,000	-0,011	0,072
-492,781	97,701	-0,061	-0,051
-491,766	-20,328	-0,140	-0,063
-490,751	477,250	-0,041	-0,067
-489,737	-68,360	0,033	-0,009
-488,722	-200,000	-0,020	-0,068
-487,708	-200,000	-0,018	-0,073
-486,693	-133,064	0,065	0,006
-485,678	183,455	0,087	0,094
-484,664	258,112	-0,080	0,101
-483,649	800,000	-0,038	0,094
-482,635	419,277	-0,063	-0,099
-481,620	-200,000	-0,031	0,133
-480,605	236,279	0,039	0,047
-479,591	-200,000	0,012	0,087
-478,576	-139,212	-0,089	-0,007
-477,562	112,263	0,066	-0,058
-476,547	-75,833	-0,110	-0,028
-475,532	-200,000	0,001	-0,097
-474,518	-200,000	0,009	0,139
-473,503	800,000	0,017	0,050
-472,489	-200,000	0,021	0,163
-471,474	268,276	0,049	0,063
-470,459	522,857	-0,023	0,040
-469,445	125,900	-0,044	-0,040
-468,430	-200,000	0,028	-0,171
-467,416	800,000	-0,016	-0,037
-466,401	158,267	0,006	0,006
-465,386	720,150	-0,089	0,174
-464,372	179,581	0,077	0,082
-463,357	169,029	0,021	0,022
-462,343	-16,859	-0,051	0,023
-461,328	800,000	-0,015	-0,033
-460,313	-63,354	0,056	-0,017
-459,299	-141,293	-0,060	-0,004
-458,284	-20,145	-0,046	-0,021
-457,270	-121,324	-0,046	-0,006
-456,255	707,244	0,018	0,034
-455,241	48,350	-0,092	-0,062
-454,226	39,613	0,133	-0,087
-453,211	-48,773	0,096	0,033
-452,197	-11,532	0,090	-0,043
-451,182	800,000	0,016	-0,034
-450,168	39,911	0,093	0,060
-449,153	-114,612	-0,121	-0,017
-448,138	96,380	0,071	0,059
-447,124	464,904	0,024	0,040
-446,109	-85,800	-0,111	0,025
-445,095	256,699	0,065	0,082
-444,080	-200,000	-0,008	0,110
-443,065	688,257	-0,038	-0,072
-442,051	800,000	0,013	0,028
-441,036	-143,734	-0,112	-0,008
-440,022	-200,000	0,008	-0,051
-439,007	428,267	0,053	0,083
-437,992	-200,000	0,004	0,172
-436,978	800,000	0,065	0,148
-435,963	120,673	-0,056	0,050
-434,949	800,000	0,017	-0,037
-433,934	-200,000	-0,011	-0,117
-432,919	135,234	-0,042	-0,040
-431,905	-33,693	0,039	-0,016
-430,890	528,433	0,008	0,015
-429,876	-200,000	-0,034	0,117
-428,861	408,394	0,022	-0,034
-427,846	-185,047	-0,026	-0,000
-426,832	-47,915	-0,029	0,010
-425,817	127,170	0,091	0,084
-424,803	-4,848	0,033	-0,017
-423,788	482,045	-0,042	0,070
-422,773	800,000	-0,048	0,108
-421,759	800,000	0,047	0,114
-420,744	-200,000	-0,025	-0,129
-419,730	-50,485	-0,079	0,027
-418,715	800,000	0,042	0,097
-417,701	800,000	-0,043	-0,120
-416,686	-46,776	-0,055	0,020
-415,671	800,000	-0,048	-0,104
-414,657	-79,562	0,118	-0,029
-413,642	800,000	0,075	0,177
-412,628	633,344	0,057	0,105
-411,613	-117,873	-0,073	-0,009
-410,598	-200,000	-0,007	0,043
-409,584	-0,161	-0,065	-0,034
-408,569	121,932	0,096	-0,087
-407,555	169,542	0,044	-0,046
-406,540	-61,000	0,089	0,027
-405,525	-200,000	-0,005	-0,035
-404,511	-90,432	-0,128	0,027
-403,496	-142,300	0,065	0,005
-402,482	800,000	-0,013	0,041
-401,467	-175,823	0,075	0,001
-400,452	263,448	0,109	0,138
-399,438	-200,000	0,026	0,085
-398,423	-200,000	0,019	-0,143
-397,409	-73,591	0,096	-0,025
-396,394	-200,000	-0,006	0,061
-395,379	153,913	-0,025	-0,025
-394,365	147,332	0,110	-0,108
-393,350	-200,000	-0,025	0,108
-392,336	247,131	-0,064	0,078
-391,321	146,112	0,024	0,023
-390,306	502,280	-0,014	-0,024
-389,292	458,472	-0,021	-0,035
-388,277	-58,529	-0,046	0,014
-387,263	-6,330	0,065	-0,032
-386,248	599,334	-0,051	0,093
-385,233	800,000	-0,031	-0,075
-384,219	24,186	0,040	0,024
-383,204	-153,628	0,138	-0,007
-382,190	190,766	0,036	-0,040
-381,175	529,668	0,022	-0,038
-380,160	-90,784	0,093	-0,019
-379,146	-200,000	-0,017	-0,078
-378,131	250,741	-0,102	0,126
-377,117	305,703	0,099	0,134
-376,102	203,795	0,085	-0,096
-375,088	-193,224	-0,030	-0,000
-374,073	290,012	0,030	-0,040
-373,058	-112,680	0,129	0,018
-372,044	11,289	0,153	-0,085
-371,029	-200,000	0,030	0,137
-370,015	800,000	0,022	0,060
-369,000	2,207	0,046	-0,024
-367,985	17,794	0,067	0,039
-366,971	205,058	-0,030	-0,034
-365,956	-200,000	-0,003	-0,062
-364,942	800,000	0,043	0,098
-363,927	800,000	0,025	0,058
-362,912	119,452	-0,014	0,013
-361,898	-200,000	-0,008	-0,096
-360,883	331,242	-0,067	-0,094
-359,869	-200,000	0,010	0,059
-358,854	54,100	0,129	-0,090
-357,839	-80,279	0,035	0,008
-356,825	40,209	-0,063	-0,041
-355,810	440,743	0,015	0,024
-354,796	-158,312	-0,040	0,002
-353,781	-96,406	-0,087	-0,017
-352,766	198,621	-0,032	-0,036
-351,752	-200,000	0,009	-0,105
-350,737	367,840	0,046	-0,068
-349,723	-200,000	0,033	0,145
-348,708	99,433	0,114	0,095
-347,693	-99,346	-0,238	0,043
-346,679	-200,000	0,001	-0,084
-345,664	-6,792	0,067	0,033
-344,650	530,596	0,042	-0,072
-343,635	3,650	-0,074	0,039
-342,620	-200,000	-0,040	0,193
-341,606	-173,453	-0,118	-0,003
-340,591	800,000	-0,037	-0,093
-339,577	-200,000	-0,009	-0,179
-338,562	-200,000	0,004	-0,059
-337,548	14,096	-0,058	-0,033
-336,533	50,764	0,138	0,094
-335,518	-5,425	0,089	0,044
-334,504	800,000	0,057	0,148
-333,489	-73,789	0,055	0,014
-332,475	800,000	-0,009	-0,020
-331,460	1,511	-0,074	-0,038
-330,445	800,000	0,033	0,073
-329,431	-9,154	0,071	-0,034
-328,416	4,840	0,036	0,019
-327,402	662,696	-0,036	0,068
-326,387	-150,486	-0,091	0,005
-325,372	65,299	0,100	-0,073
-324,358	204,747	0,129	-0,146
-323,343	-98,888	0,018	0,003
-322,329	238,133	0,066	0,080
-321,314	-53,965	0,123	-0,040
-320,299	620,665	-0,025	-0,046
-319,285	-104,787	0,028	0,005
-318,270	-63,896	-0,120	0,035
-317,256	358,508	-0,076	-0,111
-316,241	706,437	-0,037	0,070
-315,226	286,379	0,056	0,073
-314,212	48,162	0,071	0,048
-313,197	446,534	0,072	0,115
-312,183	75,036	0,083	0,064
-311,168	-98,543	-0,100	-0,018
-310,153	-200,000	0,006	-0,060
-309,139	50,200	-0,121	-0,083
-308,124	800,000	0,045	0,112
-307,110	187,368	-0,057	0,062
-306,095	-34,628	0,131	0,052
-305,080	-102,780	-0,087	0,015
-304,066	-3,264	-0,129	0,065
-303,051	240,802	-0,084	0,102
-302,037	566,025	0,078	-0,138
-301,022	-92,643	-0,073	-0,015
-300,008	-52,447	-0,027	-0,009
-298,993	206,796	-0,076	-0,085
-297,978	-111,925	-0,023	0,003
-296,964	263,511	0,056	0,071
-295,949	-37,124	-0,124	-0,048
-294,935	-112,255	-0,088	0,013
-293,920	-146,509	0,108	0,007
-292,905	529,804	-0,037	-0,064
-291,891	100,607	-0,102	-0,086
-290,876	-70,599	0,051	0,014
-289,862	279,667	0,077	-0,100
-288,847	-87,729	-0,214	-0,046
-287,832	800,000	0,028	-0,075
-286,818	-47,854	-0,108	0,038
-285,803	-157,458	-0,055	-0,002
-284,789	800,000	-0,029	0,085
-283,774	-200,000	-0,050	0,225
-282,759	-10,815	-0,071	-0,034
-281,745	49,064	0,198	-0,134
-280,730	-13,633	-0,010	0,005
-279,716	800,000	0,025	-0,076
-278,701	-200,000	-0,017	0,133
-277,686	-118,134	0,107	0,014
-276,672	220,104	0,077	0,089
-275,657	-59,975	-0,046	0,014
-274,643	-28,153	-0,137	-0,057
-273,628	-200,000	-0,036	-0,124
-272,613	174,644	-0,037	0,039
-271,599	-115,145	0,156	0,021
-270,584	195,012	0,059	-0,065
-269,570	-200,000	-0,004	-0,025
-268,555	-15,800	0,123	-0,056
-267,540	-200,000	-0,042	-0,150
-266,526	48,834	0,105	0,071
-265,511	109,441	0,071	0,062
-264,497	-159,160	0,067	0,003
-263,482	-200,000	-0,013	0,085
-262,467	-200,000	0,007	0,145
-261,453	143,356	0,042	0,040
-260,438	800,000	0,019	0,039
-259,424	-200,000	0,033	-0,167
-258,409	174,037	-0,098	-0,102
-257,395	-200,000	0,019	0,065
-256,380	-70,234	0,114	0,031
-255,365	800,000	0,070	-0,149
-254,351	-64,530	0,130	-0,038
-253,336	-149,412	-0,036	-0,002
-252,322	207,738	-0,072	-0,082
-251,307	52,079	-0,016	-0,011
-250,292	800,000	0,033	0,069
-249,278	115,429	-0,069	0,061
-248,263	-180,784	0,115	-0,002
-247,249	800,000	0,038	0,083
-246,234	800,000	0,040	0,115
-245,219	186,223	-0,165	-0,177
-244,205	399,542	0,064	-0,097
-243,190	-78,585	-0,103	0,025
-242,176	-125,327	0,064	0,007
-241,161	-158,400	0,057	-0,002
-240,146	-200,000	0,012	0,038
-239,132	27,064	-0,034	-0,020
-238,117	147,935	0,057	-0,056
-237,103	546,071	-0,080	-0,138
-236,088	-77,511	-0,040	-0,010
-235,073	-200,000	0,033	0,144
-234,059	374,185	0,104	-0,154
-233,044	51,949	0,039	0,027
-232,030	-200,000	-0,025	-0,082
-231,015	-179,230	-0,019	-0,000
-230,000	150,013	0,013	-0,013
-228,986	800,000	-0,019	0,038
-227,971	-109,652	0,108	-0,016
-226,957	-46,388	-0,079	-0,028
-225,942	250,662	0,078	-0,096
-224,927	102,568	0,074	-0,063
-223,913	-83,873	-0,111	-0,025
-222,898	-200,000	-0,021	-0,075
-221,884	156,450	0,015	-0,015
-220,869	43,224	-0,066	0,043
-219,855	212,680	0,035	0,040
-218,840	-200,000	-0,022	0,119
-217,825	134,205	0,122	-0,114
-216,811	-31,589	-0,065	0,026
-215,796	-94,060	-0,194	-0,038
-214,782	277,626	0,076	-0,097
-213,767	-150,630	0,111	0,006
-212,752	-200,000	-0,033	0,112
-211,738	102,690	0,133	0,112
-210,723	131,030	0,070	-0,065
-209,709	-113,472	-0,142	-0,020
-208,694	-200,000	0,010	-0,069
-207,679	-47,739	-0,019	0,007
-206,665	171,250	0,074	0,077
-205,650	-200,000	-0,006	0,151
-204,636	-35,573	-0,142	-0,055
-203,621	119,768	0,072	-0,064
-202,606	135,125	-0,017	-0,016
-201,592	800,000	-0,036	-0,100
-200,577	-82,240	-0,103	0,024
-199,563	-200,000	-0,001	0,009
-198,548	437,325	0,060	-0,095
-197,533	57,643	0,117	0,082
-196,519	-200,000	0,026	0,087
-195,504	800,000	-0,067	0,191
-194,490	268,430	-0,081	0,103
-193,475	55,187	-0,053	-0,037
-192,460	-200,000	0,014	-0,134
-191,446	-120,796	0,136	-0,016
-190,431	246,455	0,063	0,076
-189,417	800,000	0,016	0,048
-188,402	-101,525	0,074	-0,013
-187,387	114,027	-0,031	0,027
-186,373	145,783	-0,065	0,063
-185,358	-97,625	-0,077	0,014
-184,344	-200,000	0,011	-0,241
-183,329	22,899	0,047	0,028
-182,315	-200,000	-0,007	0,124
-181,300	123,592	-0,148	-0,134
-180,285	770,911	-0,108	-0,213
-179,271	-50,408	0,101	-0,034
-178,256	53,438	-0,064	-0,044
-177,242	-200,000	-0,013	0,091
-176,227	64,249	0,071	0,052
-175,212	-52,514	-0,088	0,029
-174,198	-23,983	-0,083	-0,036
-173,183	21,177	-0,100	0,058
-172,169	-200,000	-0,012	0,070
-171,154	-200,000	0,004	0,037
-170,139	60,949	0,109	0,078
-169,125	136,839	0,111	-0,105
-168,110	-95,752	0,215	0,041
-167,096	651,470	-0,095	-0,177
-166,081	42,658	-0,054	0,035
-165,066	277,238	0,077	-0,099
-164,052	-75,329	-0,144	0,037
-163,037	-47,115	0,122	0,043
-162,023	-135,906	-0,029	-0,002
-161,008	800,000	0,025	0,058
-159,993	130,275	-0,070	0,064
-158,979	343,807	-0,085	-0,121
-157,964	-4,146	-0,071	0,035
-156,950	-200,000	-0,004	0,042
-155,935	-91,581	0,115	-0,023
-154,920	800,000	-0,066	0,137
-153,906	48,792	-0,131	0,088
-152,891	-200,000	-0,001	-0,010
-151,877	-16,938	0,098	-0,044
-150,862	-199,963	-0,084	0,000
-149,847	-200,000	-0,029	-0,211
-148,833	50,214	-0,031	0,021
-147,818	346,330	0,059	0,084
-146,804	-1,511	0,063	-0,032
-145,789	418,851	-0,068	0,105
-144,775	800,000	0,020	0,060
-143,760	740,665	-0,011	-0,022
-142,745	65,534	0,112	0,082
-141,731	-200,000	-0,004	-0,029
-140,716	-34,398	0,059	0,023
-139,702	226,378	-0,096	0,112
-138,687	97,096	-0,123	0,102
-137,672	-15,247	0,077	-0,035
-136,658	800,000	0,073	-0,172
-135,643	-200,000	-0,015	-0,201
-134,629	48,836	-0,051	-0,034
-133,614	800,000	-0,023	-0,056
-132,599	1,612	0,055	0,028
-131,585	800,000	0,025	-0,064
-130,570	-125,276	-0,045	-0,005
-129,556	-200,000	-0,008	-0,039
-128,541	-200,000	0,001	-0,088
-127,526	-57,686	0,106	0,033
-126,512	-116,766	-0,151	-0,020
-125,497	-200,000	0,025	-0,089
-124,483	800,000	0,027	0,076
-123,468	-168,709	-0,064	-0,002
-122,453	-200,000	-0,027	-0,166
-121,439	311,254	-0,039	-0,053
-120,424	-200,000	-0,006	0,021
-119,410	800,000	0,025	0,061
-118,395	404,922	0,104	0,157
-117,380	-200,000	-0,042	-0,135
-116,366	800,000	-0,057	0,117
-115,351	454,373	-0,033	0,053
-114,337	356,420	0,124	-0,179
-113,322	-200,000	-0,009	-0,109
-112,307	-102,151	-0,127	0,022
-111,293	800,000	0,006	0,016
-110,278	800,000	-0,033	-0,069
-109,264	64,618	0,080	-0,058
-108,249	-1,165	-0,207	-0,105
-107,234	-113,085	-0,045	0,006
-106,220	-12,653	-0,097	-0,045
-105,205	-125,642	0,157	0,017
-104,191	-80,070	0,110	-0,026
-103,176	170,970	-0,052	0,053
-102,162	71,609	0,091	0,068
-101,147	800,000	0,033	0,083
-100,132	800,000	0,050	-0,115
-99,118	-76,189	0,141	-0,035
-98,103	-138,714	-0,172	-0,013
-97,089	-200,000	0,027	0,186
-96,074	-200,000	0,015	0,074
-95,059	175,183	-0,036	0,038
-94,045	64,622	-0,015	0,011
-93,030	800,000	0,036	0,086
-92,016	800,000	-0,029	-0,072
-91,001	316,733	0,052	-0,071
-89,986	-200,000	-0,011	0,052
-88,972	-98,802	-0,020	0,004
-87,957	3,206	0,056	0,029
-86,943	94,245	-0,013	-0,011
-85,928	154,184	-0,058	0,058
-84,913	135,435	-0,087	0,082
-83,899	-127,175	-0,118	-0,012
-82,884	800,000	0,024	0,051
-81,870	275,176	0,027	0,034
-80,855	800,000	0,041	0,124
-79,840	123,535	-0,056	0,051
-78,826	-200,000	-0,005	0,078
-77,811	38,284	-0,098	-0,062
-76,797	269,080	-0,011	0,015
-75,782	-200,000	-0,013	-0,095
-74,767	177,289	0,039	0,041
-73,753	165,832	0,105	0,107
-72,738	-15,871	-0,147	-0,067
-71,724	800,000	-0,025	-0,071
-70,709	37,520	-0,057	0,037
-69,694	335,697	0,032	-0,044
-68,680	-47,737	0,038	0,013
-67,665	293,176	-0,074	-0,097
-66,651	-3,487	0,069	0,034
-65,636	-31,746	-0,130	0,052
-64,622	-30,075	-0,070	0,029
-63,607	328,539	-0,091	-0,126
-62,592	-54,870	-0,041	-0,013
-61,578	-118,760	0,018	-0,002
-60,563	-96,037	-0,036	0,007
-59,549	-200,000	0,000	-0,019
-58,534	10,784	-2,126	-1,161
-57,519	-200,000	-0,181	-0,816
-56,505	-200,000	-1,413	-4,945
-55,490	121,349	0,782	0,698
-54,476	800,000	5,142	11,444
-53,461	-200,000	18,002	290,007
-52,446	800,000	728,189	2225,029
-51,432	533,281	1640,654	2797,368
-50,417	108,886	1629,690	1396,944
-49,403	72,704	1283,111	959,298
-48,388	31,311	1025,824	630,265
-47,373	19,882	988,193	569,512
-46,359	18,233	975,974	557,049
-45,344	15,440	972,013	545,644
-44,330	15,666	970,667	545,606
-43,315	15,199	968,791	543,008
-42,300	15,096	967,927	542,167
-41,286	15,180	966,726	541,745
-40,271	15,176	965,543	541,050
-39,257	15,147	964,921	540,585
-38,242	15,187	964,039	540,197
-37,227	15,131	963,165	539,504
-36,213	15,130	962,174	538,925
-35,198	15,082	961,617	538,436
-34,184	15,149	960,673	538,103
-33,169	15,089	959,975	537,496
-32,154	15,165	958,998	537,176
-31,140	15,238	957,876	536,760
-30,125	15,178	957,239	536,189
-29,111	15,139	956,402	535,574
-28,096	15,140	955,886	535,264
-27,082	15,151	955,131	534,856
-26,067	15,218	954,315	534,594
-25,052	15,198	953,600	534,109
-24,038	15,133	952,982	533,532
-23,023	15,125	952,278	533,090
-22,009	15,131	951,904	532,881
-20,994	15,184	950,937	532,487
-19,979	15,148	950,458	532,083
-18,965	15,154	949,708	531,659
-17,950	15,189	949,102	531,412
-16,936	15,158	948,643	531,035
-15,921	15,096	947,769	530,326
-14,906	14,976	947,194	529,601
-13,892	15,134	946,213	529,536
-12,877	15,025	945,714	528,887
-11,863	15,020	945,256	528,595
-10,848	15,044	944,550	528,255
-9,833	15,145	944,162	528,337
-8,819	15,071	943,491	527,707
-7,804	15,030	943,042	527,305
-6,790	15,002	942,430	526,852
-5,775	15,091	941,729	526,722
-4,760	15,097	941,021	526,323
-3,746	15,017	940,706	525,874
-2,731	14,958	939,864	525,197
-1,717	14,907	939,128	524,602
-0,702	14,860	938,571	524,125
0,313	14,717	937,822	524,046
1,327	18,176	935,662	533,667
2,342	27,459	789,416	474,679
3,356	23,920	444,403	261,963
4,371	-5,682	295,239	144,487
5,386	-9,463	277,007	131,973
6,400	-10,873	271,541	128,047
7,415	-11,089	269,231	126,748
8,429	-11,173	267,765	125,969
9,444	-11,191	266,932	125,550
10,459	-11,073	266,199	125,302
11,473	-11,051	265,552	125,006
12,488	-11,301	265,024	124,520
13,502	-11,530	264,527	124,068
14,517	-11,275	264,047	124,062
15,531	-11,363	263,736	123,825
16,546	-11,257	263,319	123,714
17,561	-11,117	262,842	123,605
18,575	-11,171	262,662	123,461
19,590	-11,452	262,193	122,977
20,604	-11,255	261,978	123,042
21,619	-11,308	261,683	122,845
22,634	-11,258	261,286	122,692
23,648	-11,268	260,884	122,484
24,663	-11,264	260,687	122,383
25,677	-11,320	260,486	122,228
26,692	-11,213	260,134	122,148
27,707	-11,266	259,834	121,949
28,721	-11,447	259,625	121,679
29,736	-11,374	259,424	121,639
30,750	-11,597	259,070	121,264
31,765	-11,300	258,858	121,417
32,780	-11,502	258,629	121,121
33,794	-11,485	258,578	121,101
34,809	-11,252	258,231	121,133
35,823	-11,355	257,889	120,872
36,838	-11,429	257,590	120,656
37,853	-11,693	257,560	120,398
38,867	-11,596	257,165	120,289
39,882	-11,453	257,054	120,351
40,896	-11,657	256,737	120,013
41,911	-11,523	256,508	120,012
42,926	-11,470	256,274	119,938
43,940	-11,422	255,855	119,774
44,955	-11,540	255,651	119,565
45,969	-11,707	255,557	119,365
46,984	-11,787	255,396	119,209
47,999	-12,006	255,025	118,835
49,013	-12,093	254,697	118,596
50,028	-12,038	254,448	118,517
51,042	-12,430	254,284	118,090
52,057	-12,210	253,878	118,081
53,071	-12,319	253,964	118,016
54,086	-12,184	253,640	117,972
55,101	-12,206	253,637	117,941
56,115	-11,932	253,335	118,027
57,130	-11,593	253,304	118,295
58,144	-11,070	253,041	118,612
59,159	-11,198	252,936	118,442
60,174	-11,175	252,765	118,371
61,188	-11,184	252,506	118,232
62,203	-11,302	252,365	118,054
63,217	-11,468	252,236	117,840
64,232	-11,167	251,765	117,868
65,247	-11,306	251,747	117,730
66,261	-11,294	251,515	117,621
67,276	-11,634	251,298	117,218
68,290	-11,900	250,888	116,789
69,305	-11,837	250,658	116,725
70,320	-11,856	250,303	116,533
71,334	-11,530	250,493	116,889
72,349	-11,255	250,217	116,985
73,363	-11,054	250,061	117,072
74,378	-11,370	249,799	116,671
75,393	-11,317	249,563	116,594
76,407	-11,235	249,303	116,532
77,422	-11,261	249,159	116,433
78,436	-11,330	248,930	116,257
79,451	-11,230	248,669	116,209
80,466	-11,382	248,372	115,931
81,480	-11,780	248,300	115,551
82,495	-11,919	247,970	115,271
83,509	-11,526	247,711	115,471
84,524	-11,560	247,483	115,326
85,539	-11,631	247,448	115,239
86,553	-11,697	247,165	115,042
87,568	-11,554	247,024	115,086
88,582	-11,699	246,806	114,852
89,597	-11,773	246,674	114,719
90,611	-11,439	246,555	114,933
91,626	-11,334	246,309	114,896
92,641	-11,371	246,142	114,777
93,655	-11,616	246,032	114,511
94,670	-11,738	245,651	114,221
95,684	-11,610	245,676	114,329
96,699	-11,704	245,475	114,147
97,714	-11,663	245,075	113,985
98,728	-11,979	245,057	113,704
99,743	-11,870	244,892	113,708
100,757	-11,938	244,537	113,476
101,772	-11,892	244,273	113,381
102,787	-11,850	244,225	113,384
103,801	-11,431	243,988	113,611
104,816	-11,290	243,838	113,648
105,830	-11,676	243,878	113,337
106,845	-11,418	243,687	113,451
107,860	-11,505	243,347	113,211
108,874	-11,474	243,014	113,071
109,889	-11,595	242,956	112,935
110,903	-11,672	242,680	112,733
111,918	-11,881	242,546	112,489
112,933	-11,465	242,220	112,669
113,947	-11,662	242,179	112,478
114,962	-11,623	242,105	112,466
115,976	-11,656	241,889	112,329
116,991	-11,479	241,752	112,400
118,006	-11,532	241,480	112,221
119,020	-11,480	241,563	112,292
120,035	-11,605	241,380	112,094
121,049	-11,177	241,081	112,295
122,064	-11,497	240,906	111,942
123,079	-11,521	240,660	111,798
124,093	-11,670	240,567	111,624
125,108	-11,752	240,183	111,369
126,122	-11,968	239,975	111,087
127,137	-12,165	239,835	110,852
128,151	-11,917	239,632	110,950
129,166	-11,876	239,468	110,897
130,181	-11,748	239,219	110,876
131,195	-11,724	239,095	110,828
132,210	-11,604	238,794	110,776
133,224	-11,493	238,735	110,828
134,239	-11,687	238,682	110,637
135,254	-11,297	238,478	110,847
136,268	-11,468	238,235	110,586
137,283	-11,868	238,033	110,160
138,297	-12,001	237,817	109,943
139,312	-12,055	237,671	109,823
140,327	-11,809	237,627	109,991
141,341	-11,188	237,570	110,453
142,356	-11,071	237,298	110,411
143,370	-11,293	237,319	110,233
144,385	-11,354	237,097	110,071
145,400	-11,203	236,845	110,065
146,414	-11,221	236,871	110,052
147,429	-11,195	236,341	109,818
148,443	-11,200	236,285	109,778
149,458	-11,240	236,253	109,721
150,473	-11,079	235,987	109,716
151,487	-11,177	235,639	109,467
152,502	-11,175	235,667	109,472
153,516	-10,910	235,396	109,546
154,531	-11,107	235,241	109,308
155,546	-11,124	235,079	109,210
156,560	-11,401	234,880	108,888
157,575	-11,391	234,697	108,800
158,589	-11,442	234,587	108,700
159,604	-11,130	234,428	108,864
160,619	-11,149	234,296	108,778
161,633	-10,977	234,241	108,878
162,648	-10,762	233,928	108,893
163,662	-11,019	233,898	108,667
164,677	-11,298	233,762	108,373
165,692	-11,193	233,537	108,342
166,706	-10,949	233,243	108,388
167,721	-10,918	233,324	108,441
168,735	-11,088	233,150	108,216
169,750	-11,065	232,946	108,129
170,764	-11,176	232,780	107,956
171,779	-11,164	232,535	107,842
172,794	-11,203	232,593	107,828
173,808	-11,403	232,418	107,582
174,823	-11,692	231,816	107,067
175,837	-11,786	231,741	106,949
176,852	-11,369	231,697	107,245
177,867	-11,128	231,689	107,421
178,881	-10,982	231,538	107,455
179,896	-11,042	231,236	107,259
180,910	-10,887	231,201	107,353
181,925	-11,061	231,086	107,155
182,940	-10,970	230,837	107,101
183,954	-11,028	230,816	107,036
184,969	-10,838	230,608	107,078
185,983	-10,697	230,446	107,103
186,998	-10,899	230,366	106,899
188,013	-10,937	230,098	106,736
189,027	-10,815	229,971	106,762
190,042	-10,938	229,810	106,582
191,056	-10,855	229,682	106,578
192,071	-10,938	229,510	106,424
193,086	-11,043	229,335	106,253
194,100	-10,774	229,142	106,361
195,115	-11,199	228,860	105,894
196,129	-11,514	228,762	105,596
197,144	-5,918	230,476	110,714
198,159	-0,296	232,241	115,929
199,173	2,742	233,135	118,733
200,188	3,187	233,129	119,066
201,202	3,222	232,970	119,001
202,217	3,476	232,654	119,026
203,232	3,621	232,669	119,135
204,246	3,685	232,471	119,074
205,261	3,824	232,416	119,142
206,275	3,874	232,398	119,161
207,290	3,932	232,249	119,119
208,304	3,985	232,005	119,024
209,319	3,937	231,843	118,894
210,334	3,881	231,609	118,720
211,348	3,542	231,445	118,364
212,363	3,262	231,120	117,971
213,377	3,124	230,907	117,745
214,392	3,135	230,691	117,634
215,407	3,378	230,544	117,735
216,421	3,177	230,668	117,633
217,436	2,942	230,378	117,294
218,450	2,924	230,121	117,139
219,465	2,972	229,964	117,085
220,480	2,927	229,837	116,976
221,494	2,789	229,821	116,852
222,509	3,094	229,697	117,011
223,523	3,222	229,435	116,965
224,538	2,994	229,226	116,674
225,553	3,132	229,232	116,773
226,567	3,263	229,054	116,772
227,582	3,411	229,127	116,911
228,596	3,672	228,861	116,964
229,611	3,256	228,608	116,508
230,626	3,073	228,448	116,277
231,640	2,817	228,351	116,022
232,655	3,513	228,130	116,428
233,669	3,445	228,169	116,386
234,684	3,485	228,045	116,342
235,699	3,418	227,840	116,177
236,713	3,170	227,556	115,834
237,728	3,108	227,415	115,705
238,742	2,968	227,270	115,514
239,757	3,376	226,966	115,658
240,772	3,246	226,837	115,484
241,786	3,113	226,822	115,366
242,801	3,346	226,666	115,451
243,815	3,427	226,640	115,489
244,830	3,558	226,399	115,455
245,844	3,231	226,251	115,123
246,859	3,316	226,019	115,058
247,874	3,348	226,078	115,102
248,888	3,522	225,770	115,066
249,903	3,323	225,675	114,858
250,917	3,363	225,387	114,731
251,932	3,201	225,353	114,582
252,947	3,040	225,117	114,331
253,961	3,175	225,029	114,378
254,976	2,972	224,873	114,136
255,990	3,246	224,767	114,277
257,005	3,329	224,661	114,275
258,020	3,212	224,508	114,100
259,034	3,519	224,474	114,301
260,049	3,308	224,299	114,045
261,063	3,485	224,101	114,066
262,078	3,514	224,054	114,053
263,093	3,520	223,898	113,967
264,107	3,541	223,652	113,848
265,122	3,361	223,530	113,642
266,136	3,663	223,616	113,900
267,151	3,651	223,218	113,678
268,166	3,098	222,988	113,141
269,180	2,744	222,863	112,806
270,195	2,922	222,693	112,842
271,209	2,863	222,494	112,687
272,224	3,066	222,548	112,855
273,239	3,295	222,271	112,873
274,253	3,005	222,159	112,592
275,268	2,955	221,938	112,434
276,282	2,842	221,726	112,233
277,297	2,883	221,501	112,138
278,312	2,939	221,600	112,220
279,326	3,393	221,393	112,439
280,341	3,262	221,408	112,340
281,355	3,272	221,237	112,250
282,370	3,127	221,066	112,047
283,384	2,757	220,737	111,600
284,399	3,132	220,493	111,741
285,414	3,090	220,461	111,684
286,428	3,324	220,398	111,813
287,443	3,297	220,370	111,770
288,457	3,337	220,351	111,779
289,472	3,098	219,998	111,415
290,487	2,514	219,745	110,852
291,501	2,600	219,693	110,879
292,516	2,977	219,439	111,015
293,530	2,986	219,323	110,953
294,545	2,720	219,440	110,808
295,560	2,840	219,216	110,772
296,574	3,281	219,041	110,995
297,589	3,405	218,861	110,983
298,603	3,071	218,917	110,760
299,618	3,060	218,812	110,689
300,633	3,185	218,570	110,647
301,647	3,404	218,361	110,689
302,662	3,408	218,367	110,685
303,676	3,225	218,153	110,435
304,691	3,518	218,021	110,569
305,706	3,459	217,838	110,425
306,720	3,505	217,796	110,426
307,735	2,983	217,571	109,927
308,749	2,841	217,344	109,701
309,764	3,165	217,325	109,914
310,779	3,484	217,191	110,065
311,793	3,164	217,142	109,801
312,808	3,118	216,910	109,641
313,822	3,089	216,725	109,517
314,837	2,976	216,562	109,344
315,852	2,967	216,247	109,169
316,866	3,067	216,238	109,225
317,881	3,525	216,236	109,542
318,895	3,275	216,113	109,292
319,910	3,007	215,875	108,970
320,925	2,854	215,584	108,704
321,939	2,820	215,458	108,607
322,954	2,887	215,345	108,588
323,968	3,292	215,267	108,828
324,983	3,302	215,186	108,784
325,997	3,545	215,168	108,937
327,012	3,264	214,829	108,557
328,027	3,247	214,837	108,539
329,041	3,272	214,823	108,540
330,056	3,533	214,609	108,607
331,070	3,009	214,297	108,069
332,085	2,612	214,101	107,680
333,100	2,991	213,998	107,886
334,114	3,189	213,928	107,981
335,129	3,282	213,787	107,966
336,143	3,143	213,666	107,797
337,158	3,201	213,523	107,756
338,173	3,371	213,487	107,848
339,187	2,940	213,313	107,447
340,202	2,885	213,106	107,295
341,216	2,782	212,898	107,109
342,231	3,075	212,729	107,219
343,246	2,955	212,657	107,089
344,260	3,261	212,501	107,216
345,275	3,106	212,420	107,057
346,289	3,505	212,288	107,259
347,304	3,306	212,308	107,121
348,319	3,058	212,086	106,826
349,333	3,110	211,919	106,769
350,348	3,302	211,793	106,830
351,362	3,337	211,899	106,898
352,377	3,399	211,598	106,779
353,392	3,306	211,408	106,609
354,406	3,114	211,363	106,444
355,421	195,846	1340,088	1417,990
356,435	156,454	1477,577	1417,964
