DTS Sentinel unit serial number:	SN410029Multiplexer serial number:	ORYXHardware model number:	OX2-SRSoftware version number:	ORYX F/W v4,00 Oryx Data Collector v3.7.2.0data status	okinstallation	B6 Nyhavnadifferential loss correction	single-endedforward channel	channel 2reverse channel	N/Adate	2023/12/09time	22:00:08forward acquisition time	300,00reverse acquisition time	0,00gamma	499,1914k internal	0,3127k external	0,3127temperature offset calibration	1,0000default loss term (dB/km)	0,3820temperature slope calibration	1,0000multiplexer offset coefficient	1,0000multiplexer slope coefficient	1,0000fibre end	0,00T internal ref (°C)	21,63T ext. ref 1 (°C)	5,43T ext. ref 2 (°C)	5,42length (m)	temperature (°C)	Stokes	anti-Stokes-744,400	800,000	-0,020	-0,058
-743,385	127,712	-0,165	0,156
-742,371	800,000	0,027	-0,073
-741,356	-29,877	-0,320	0,135
-740,342	392,626	0,065	0,102
-739,327	-126,338	-0,266	0,029
-738,312	-200,000	0,018	-0,138
-737,298	11,614	-0,202	0,115
-736,283	800,000	0,045	0,117
-735,269	-109,250	-0,244	0,038
-734,254	68,823	0,091	-0,069
-733,239	-148,910	-0,551	0,033
-732,225	-128,519	0,119	-0,012
-731,210	-100,478	-0,196	0,036
-730,196	458,545	-0,101	-0,168
-729,181	800,000	0,043	-0,095
-728,167	-25,044	-0,081	-0,035
-727,152	-107,350	0,072	-0,012
-726,137	-160,362	0,067	-0,003
-725,123	264,310	-0,042	-0,055
-724,108	-200,000	0,006	0,081
-723,094	96,037	-0,128	-0,109
-722,079	-25,853	-0,064	0,028
-721,064	-4,659	-0,075	0,038
-720,050	800,000	-0,028	0,086
-719,035	-130,657	-0,136	0,013
-718,021	220,100	-0,075	-0,090
-717,006	-70,136	-0,183	-0,051
-715,991	29,288	-0,181	-0,114
-714,977	113,684	-0,081	-0,073
-713,962	-63,950	-0,075	-0,023
-712,948	-2,519	-0,026	0,014
-711,933	-200,000	0,031	-0,112
-710,918	-107,766	0,087	0,014
-709,904	321,982	-0,056	0,079
-708,889	202,569	-0,109	-0,126
-707,875	-200,000	-0,002	-0,107
-706,860	-200,000	-0,022	-0,130
-705,845	-200,000	0,014	-0,098
-704,831	121,844	-0,054	-0,050
-703,816	58,465	-0,058	-0,043
-702,802	800,000	-0,063	-0,140
-701,787	-200,000	0,016	-0,194
-700,772	157,089	-0,067	-0,069
-699,758	-200,000	0,011	0,154
-698,743	-69,567	-0,138	0,039
-697,729	-61,448	-0,062	-0,019
-696,714	-200,000	0,001	0,007
-695,699	2,713	-0,034	-0,018
-694,685	382,423	-0,033	0,050
-693,670	-91,036	0,053	-0,011
-692,656	-94,225	-0,106	-0,021
-691,641	100,967	-0,060	-0,052
-690,627	-145,883	0,026	-0,002
-689,612	-200,000	-0,001	0,024
-688,597	171,742	0,127	-0,136
-687,583	-200,000	-0,003	-0,053
-686,568	-31,235	-0,190	-0,079
-685,554	67,996	0,052	0,039
-684,539	176,096	0,045	0,049
-683,524	-200,000	0,004	-0,079
-682,510	406,269	-0,016	0,025
-681,495	-157,795	-0,117	0,005
-680,481	-174,485	0,086	0,002
-679,466	-200,000	0,000	-0,164
-678,451	158,099	-0,098	-0,101
-677,437	800,000	0,042	-0,125
-676,422	-200,000	-0,035	-0,197
-675,408	-69,353	-0,061	0,017
-674,393	341,702	-0,135	-0,196
-673,378	5,496	-0,078	-0,043
-672,364	-200,000	-0,054	-0,189
-671,349	-125,527	-0,046	0,005
-670,335	-124,359	0,064	0,007
-669,320	-44,388	-0,037	-0,014
-668,305	200,091	-0,054	0,062
-667,291	-200,000	-0,023	0,114
-666,276	-131,401	0,051	0,005
-665,262	319,530	-0,109	-0,154
-664,247	135,155	-0,094	-0,090
-663,232	-125,803	-0,109	0,012
-662,218	115,471	0,088	0,080
-661,203	735,360	-0,032	0,065
-660,189	-75,781	-0,140	0,037
-659,174	323,603	-0,079	-0,111
-658,159	-200,000	-0,036	-0,226
-657,145	57,519	0,057	-0,041
-656,130	-200,000	0,022	-0,126
-655,116	-86,764	0,164	0,037
-654,101	5,304	0,211	0,115
-653,086	800,000	0,009	0,028
-652,072	45,638	-0,033	0,022
-651,057	800,000	0,005	-0,015
-650,043	-7,530	-0,115	0,057
-649,028	-200,000	0,001	0,047
-648,014	234,914	0,072	0,088
-646,999	-115,634	-0,146	0,020
-645,984	-166,406	0,129	0,004
-644,970	-43,270	0,081	-0,030
-643,955	800,000	-0,056	-0,153
-642,941	-150,288	0,018	-0,001
-641,926	-35,417	0,132	0,053
-640,911	159,061	-0,063	0,065
-639,897	-57,856	0,064	-0,021
-638,882	800,000	-0,047	-0,117
-637,868	800,000	0,017	0,042
-636,853	800,000	-0,025	0,057
-635,838	4,446	0,067	0,036
-634,824	-50,001	0,143	0,050
-633,809	-6,654	0,073	0,037
-632,795	-200,000	-0,012	0,066
-631,780	115,868	-0,011	-0,010
-630,765	-48,672	0,125	-0,044
-629,751	800,000	-0,060	-0,144
-628,736	800,000	-0,024	-0,051
-627,722	220,739	-0,042	0,050
-626,707	582,504	-0,018	0,033
-625,692	73,235	-0,028	0,022
-624,678	78,356	-0,160	0,127
-623,663	800,000	-0,039	0,099
-622,649	-139,769	-0,128	0,010
-621,634	-200,000	-0,016	-0,080
-620,619	-25,838	-0,039	-0,017
-619,605	62,534	0,073	-0,054
-618,590	-200,000	0,042	-0,151
-617,576	-38,327	0,074	-0,029
-616,561	-5,786	-0,099	-0,050
-615,546	-200,000	0,005	-0,024
-614,532	550,514	-0,123	-0,219
-613,517	-43,284	-0,131	0,049
-612,503	229,410	-0,041	0,049
-611,488	-129,086	0,136	-0,014
-610,474	214,819	-0,068	-0,079
-609,459	397,729	0,029	-0,046
-608,444	800,000	-0,085	-0,262
-607,430	210,251	-0,094	0,110
-606,415	-200,000	-0,005	-0,021
-605,401	155,967	-0,078	0,080
-604,386	210,090	0,049	0,057
-603,371	-200,000	0,010	-0,146
-602,357	-127,747	0,024	0,003
-601,342	38,237	-0,121	-0,080
-600,328	102,311	-0,076	-0,066
-599,313	800,000	-0,055	0,142
-598,298	359,610	0,021	0,031
-597,284	800,000	0,037	-0,084
-596,269	-200,000	0,012	-0,072
-595,255	-200,000	-0,007	0,077
-594,240	-88,468	0,111	0,024
-593,225	-200,000	-0,010	0,039
-592,211	-200,000	-0,010	0,068
-591,196	-10,826	0,039	-0,019
-590,182	48,739	-0,064	0,044
-589,167	-200,000	-0,001	0,018
-588,152	714,011	0,038	-0,074
-587,138	119,490	0,055	-0,050
-586,123	-200,000	-0,049	-0,190
-585,109	78,875	-0,070	0,056
-584,094	122,963	0,094	0,087
-583,079	132,249	0,122	0,117
-582,065	-200,000	-0,012	0,079
-581,050	-142,846	-0,057	-0,004
-580,036	-200,000	-0,020	0,157
-579,021	-200,000	0,020	-0,210
-578,006	-200,000	-0,003	-0,108
-576,992	340,452	0,127	-0,183
-575,977	-132,148	-0,236	-0,022
-574,963	34,814	0,224	-0,145
-573,948	-200,000	-0,010	0,125
-572,934	-90,096	-0,057	0,012
-571,919	27,053	0,088	-0,055
-570,904	6,861	-0,101	0,056
-569,890	-137,092	-0,080	0,007
-568,875	236,238	0,058	-0,071
-567,861	316,778	-0,049	-0,068
-566,846	-156,419	0,118	0,005
-565,831	138,449	-0,090	0,088
-564,817	-136,015	0,089	0,008
-563,802	186,375	-0,066	0,073
-562,788	324,533	0,055	0,078
-561,773	800,000	0,033	-0,078
-560,758	-117,147	0,220	0,029
-559,744	181,152	0,058	-0,064
-558,729	800,000	-0,016	0,050
-557,715	85,916	-0,055	-0,045
-556,700	72,062	-0,098	-0,075
-555,685	-200,000	-0,010	-0,036
-554,671	-200,000	-0,020	-0,151
-553,656	724,448	-0,044	0,086
-552,642	-43,083	0,039	-0,014
-551,627	-75,534	-0,074	-0,019
-550,612	360,165	0,002	-0,003
-549,598	256,030	-0,067	-0,085
-548,583	-158,138	-0,032	0,001
-547,569	-19,754	-0,021	-0,010
-546,554	-25,811	0,062	-0,027
-545,539	-113,056	0,035	0,005
-544,525	-121,965	0,059	-0,007
-543,510	-42,955	0,049	0,018
-542,496	800,000	-0,020	-0,046
-541,481	562,373	0,037	-0,066
-540,466	4,586	-0,053	-0,029
-539,452	-72,831	-0,088	0,024
-538,437	-200,000	-0,014	0,128
-537,423	31,930	0,063	-0,040
-536,408	4,062	-0,069	0,037
-535,393	800,000	0,030	0,066
-534,379	125,093	0,031	0,029
-533,364	314,936	0,022	-0,031
-532,350	203,802	-0,025	0,029
-531,335	-113,224	0,091	0,013
-530,321	-32,068	0,059	0,024
-529,306	-143,873	-0,141	0,010
-528,291	800,000	0,040	-0,121
-527,277	800,000	0,070	0,176
-526,262	143,459	-0,068	-0,067
-525,248	-124,747	0,048	-0,005
-524,233	84,403	-0,143	0,116
-523,218	-158,628	-0,017	0,001
-522,204	-200,000	-0,016	0,064
-521,189	140,010	-0,085	-0,083
-520,175	-200,000	0,007	-0,122
-519,160	-44,580	-0,042	-0,016
-518,145	347,257	0,036	-0,053
-517,131	-5,993	0,089	-0,045
-516,116	-200,000	-0,005	-0,133
-515,102	-5,413	0,117	0,059
-514,087	-200,000	0,025	0,115
-513,072	-54,638	-0,181	0,060
-512,058	185,060	-0,039	0,043
-511,043	-90,713	-0,119	0,025
-510,029	205,266	-0,024	0,027
-509,014	114,065	0,105	0,094
-507,999	-200,000	0,024	0,129
-506,985	-200,000	-0,005	0,046
-505,970	800,000	-0,041	0,093
-504,956	-200,000	0,001	-0,031
-503,941	-200,000	-0,009	-0,131
-502,926	-19,284	0,126	0,058
-501,912	-200,000	0,036	0,173
-500,897	407,750	0,050	0,079
-499,883	173,091	-0,067	-0,071
-498,868	-200,000	0,011	0,043
-497,853	320,693	0,037	-0,052
-496,839	67,354	0,171	-0,129
-495,824	375,534	-0,031	0,046
-494,810	800,000	0,032	0,085
-493,795	-5,541	-0,070	0,035
-492,781	7,717	0,127	0,070
-491,766	-180,798	-0,048	0,001
-490,751	166,346	-0,022	-0,022
-489,737	-147,081	0,121	-0,007
-488,722	-200,000	-0,033	-0,122
-487,708	238,847	0,039	-0,047
-486,693	576,172	-0,030	-0,054
-485,678	105,178	0,057	0,050
-484,664	84,625	0,029	-0,023
-483,649	357,241	-0,037	-0,054
-482,635	-200,000	-0,014	-0,079
-481,620	218,810	0,069	-0,082
-480,605	571,774	0,078	0,141
-479,591	-200,000	-0,001	-0,035
-478,576	-100,159	0,112	-0,020
-477,562	-200,000	-0,005	-0,179
-476,547	37,693	-0,174	-0,114
-475,532	-200,000	0,012	0,119
-474,518	800,000	0,054	0,158
-473,503	-200,000	0,020	-0,203
-472,489	800,000	-0,003	0,010
-471,474	54,061	0,075	-0,053
-470,459	130,405	0,028	-0,026
-469,445	646,413	0,042	-0,079
-468,430	106,586	-0,129	-0,113
-467,416	13,582	-0,112	0,064
-466,401	-200,000	0,006	0,078
-465,386	-200,000	-0,021	-0,091
-464,372	513,674	-0,014	0,025
-463,357	-63,217	0,054	0,016
-462,343	5,727	-0,062	0,034
-461,328	731,833	-0,046	0,091
-460,313	203,185	0,038	-0,044
-459,299	246,965	-0,033	0,041
-458,284	265,244	0,032	-0,041
-457,270	-137,273	0,082	-0,007
-456,255	-200,000	-0,008	-0,075
-455,241	229,794	-0,084	-0,101
-454,226	106,270	0,055	-0,048
-453,211	-36,884	-0,043	0,017
-452,197	239,415	0,089	0,109
-451,182	184,131	0,042	0,046
-450,168	-200,000	0,030	0,119
-449,153	607,685	0,014	0,027
-448,138	-200,000	-0,005	-0,084
-447,124	21,730	-0,083	-0,049
-446,109	-200,000	-0,013	-0,057
-445,095	-4,985	-0,097	-0,049
-444,080	475,099	-0,035	-0,059
-443,065	800,000	-0,051	-0,142
-442,051	800,000	0,022	-0,051
-441,036	265,571	-0,070	-0,090
-440,022	-20,114	-0,078	-0,035
-439,007	-200,000	0,011	-0,176
-437,992	-200,000	0,000	0,087
-436,978	-148,871	0,045	-0,003
-435,963	800,000	0,062	0,146
-434,949	-200,000	0,021	0,102
-433,934	-200,000	-0,003	-0,082
-432,919	800,000	0,043	-0,090
-431,905	-135,364	-0,101	-0,009
-430,890	-55,055	-0,091	-0,030
-429,876	800,000	0,041	0,098
-428,861	48,685	0,055	0,038
-427,846	302,037	-0,039	0,053
-426,832	254,802	-0,068	-0,086
-425,817	346,165	-0,050	-0,072
-424,803	154,015	-0,067	-0,068
-423,788	94,068	0,067	0,056
-422,773	-200,000	-0,012	0,125
-421,759	133,121	0,002	0,002
-420,744	525,239	0,042	0,073
-419,730	-200,000	0,015	-0,115
-418,715	-200,000	-0,013	-0,104
-417,701	-200,000	-0,007	0,049
-416,686	-200,000	0,008	-0,054
-415,671	800,000	-0,011	0,032
-414,657	-46,980	-0,045	0,016
-413,642	153,752	0,109	0,110
-412,628	3,818	0,098	-0,052
-411,613	579,249	-0,024	-0,043
-410,598	25,277	-0,069	0,042
-409,584	348,195	0,045	0,065
-408,569	800,000	0,033	0,068
-407,555	99,957	0,057	0,048
-406,540	-200,000	0,020	0,075
-405,525	-200,000	0,008	0,057
-404,511	23,330	-0,109	-0,065
-403,496	-96,879	-0,017	-0,003
-402,482	53,686	-0,121	-0,085
-401,467	-200,000	0,003	-0,102
-400,452	800,000	0,049	0,121
-399,438	356,673	-0,061	-0,090
-398,423	-200,000	-0,000	0,045
-397,409	246,398	0,054	-0,068
-396,394	-119,700	-0,093	0,012
-395,379	647,677	-0,041	-0,077
-394,365	800,000	0,070	0,149
-393,350	800,000	0,039	0,096
-392,336	123,857	0,090	0,083
-391,321	-200,000	0,014	-0,065
-390,306	-200,000	0,007	0,030
-389,292	397,944	-0,033	0,050
-388,277	-200,000	0,025	0,103
-387,263	-200,000	-0,002	0,019
-386,248	800,000	0,067	0,190
-385,233	672,691	-0,025	-0,048
-384,219	-45,050	-0,139	0,050
-383,204	-200,000	0,014	0,087
-382,190	-200,000	-0,012	-0,094
-381,175	-200,000	0,004	0,040
-380,160	-108,451	0,159	-0,025
-379,146	492,939	0,029	0,050
-378,131	800,000	0,067	0,142
-377,117	89,126	-0,080	-0,065
-376,102	-200,000	0,002	-0,101
-375,088	51,706	-0,077	0,054
-374,073	800,000	0,021	-0,068
-373,058	104,038	0,087	0,075
-372,044	-200,000	-0,006	0,077
-371,029	189,843	0,058	0,064
-370,015	197,647	-0,138	0,155
-369,000	15,597	-0,125	-0,072
-367,985	-83,546	-0,006	-0,001
-366,971	-50,928	0,121	0,042
-365,956	-51,554	0,153	0,052
-364,942	800,000	-0,031	-0,079
-363,927	133,426	0,149	0,141
-362,912	-200,000	-0,004	-0,065
-361,898	-32,750	-0,142	-0,058
-360,883	350,380	-0,030	-0,043
-359,869	-200,000	0,014	-0,078
-358,854	-175,295	-0,031	0,001
-357,839	-200,000	-0,013	0,084
-356,825	3,896	0,085	0,045
-355,810	-87,890	0,060	-0,013
-354,796	-200,000	0,021	0,107
-353,781	-200,000	0,012	-0,120
-352,766	441,055	0,051	-0,083
-351,752	-200,000	-0,019	-0,106
-350,737	-200,000	0,012	0,124
-349,723	460,584	0,039	0,063
-348,708	168,503	-0,019	-0,020
-347,693	800,000	-0,013	0,028
-346,679	-84,834	0,013	-0,003
-345,664	-72,831	-0,061	-0,016
-344,650	12,439	-0,129	0,073
-343,635	800,000	0,038	0,084
-342,620	124,960	0,111	-0,102
-341,606	-200,000	-0,006	-0,061
-340,591	146,292	0,024	-0,024
-339,577	-200,000	0,065	0,000
-338,562	672,568	-0,045	0,085
-337,548	194,610	0,023	-0,026
-336,533	534,834	0,044	0,077
-335,518	21,772	-0,056	0,033
-334,504	19,789	-0,040	-0,024
-333,489	4,669	-0,082	0,044
-332,475	158,357	-0,088	-0,089
-331,460	-23,839	-0,040	0,017
-330,445	-51,826	0,095	-0,032
-329,431	94,100	0,120	-0,099
-328,416	18,316	-0,073	-0,043
-327,402	-200,000	-0,011	-0,065
-326,387	252,662	0,023	-0,029
-325,372	-69,216	-0,057	-0,016
-324,358	264,921	-0,032	-0,041
-323,343	-53,588	-0,180	0,060
-322,329	196,314	0,046	-0,051
-321,314	800,000	-0,039	-0,095
-320,299	325,433	-0,035	0,049
-319,285	-126,873	-0,139	0,015
-318,270	780,030	-0,019	0,039
-317,256	800,000	0,049	-0,100
-316,241	-106,628	0,108	-0,017
-315,226	189,996	-0,010	0,012
-314,212	-200,000	-0,014	0,049
-313,197	-35,154	0,041	-0,016
-312,183	800,000	0,007	-0,018
-311,168	800,000	-0,022	-0,069
-310,153	6,687	-0,041	-0,022
-309,139	800,000	-0,023	0,071
-308,124	-97,797	0,044	0,008
-307,110	-200,000	-0,001	-0,020
-306,095	-112,587	0,069	0,010
-305,080	20,865	0,061	0,036
-304,066	481,706	-0,076	-0,127
-303,051	-200,000	0,023	0,108
-302,037	-200,000	-0,033	-0,207
-301,022	-141,397	-0,077	-0,006
-300,008	-110,096	-0,055	0,008
-298,993	-200,000	0,037	0,164
-297,978	551,021	-0,028	0,049
-296,964	-136,765	0,064	-0,005
-295,949	-200,000	0,023	-0,113
-294,935	-200,000	-0,021	-0,106
-293,920	-15,802	-0,191	-0,089
-292,905	540,141	0,128	0,224
-291,891	-78,970	0,114	-0,028
-290,876	-68,713	-0,060	-0,017
-289,862	-200,000	0,008	0,046
-288,847	-164,453	-0,028	-0,001
-287,832	-200,000	0,006	0,023
-286,818	-200,000	-0,007	-0,143
-285,803	266,493	0,008	-0,011
-284,789	-200,000	0,018	0,127
-283,774	800,000	-0,019	-0,043
-282,759	-167,616	-0,138	-0,004
-281,745	450,572	0,003	0,005
-280,730	58,243	-0,063	-0,045
-279,716	-200,000	0,010	-0,059
-278,701	-130,356	-0,113	-0,011
-277,686	-160,259	-0,040	-0,002
-276,672	-200,000	-0,010	0,155
-275,657	800,000	-0,071	0,147
-274,643	118,689	0,127	-0,115
-273,628	6,063	-0,075	-0,040
-272,613	140,492	-0,039	-0,037
-271,599	-200,000	0,003	-0,035
-270,584	-91,521	0,075	-0,016
-269,570	91,966	0,020	-0,016
-268,555	73,195	0,023	-0,017
-267,540	-74,264	-0,090	0,024
-266,526	-33,163	-0,049	0,020
-265,511	800,000	-0,041	-0,089
-264,497	159,651	0,133	0,136
-263,482	77,167	0,090	0,070
-262,467	-200,000	0,006	-0,059
-261,453	259,575	-0,062	-0,079
-260,438	148,362	-0,044	-0,044
-259,424	800,000	-0,017	-0,047
-258,409	44,484	-0,021	0,014
-257,395	-200,000	0,003	0,053
-256,380	800,000	-0,021	0,055
-255,365	-104,515	0,067	0,011
-254,351	-200,000	0,029	-0,118
-253,336	71,676	0,140	0,106
-252,322	336,499	0,052	-0,074
-251,307	-59,986	-0,093	0,029
-250,292	111,124	0,059	0,052
-249,278	-200,000	-0,028	0,118
-248,263	95,185	0,029	-0,024
-247,249	-149,311	0,050	0,003
-246,234	257,323	-0,037	0,046
-245,219	-200,000	0,016	0,090
-244,205	-200,000	-0,036	0,136
-243,190	-200,000	-0,020	0,080
-242,176	-44,615	-0,039	-0,014
-241,161	175,209	-0,003	0,003
-240,146	69,405	0,061	-0,046
-239,132	-146,981	-0,086	-0,005
-238,117	78,264	0,043	-0,033
-237,103	-114,359	-0,096	0,013
-236,088	-200,000	-0,002	0,047
-235,073	684,651	-0,008	0,016
-234,059	800,000	-0,038	0,078
-233,044	414,454	-0,055	0,085
-232,030	800,000	0,030	-0,092
-231,015	342,715	-0,056	-0,080
-230,000	-58,914	-0,038	0,012
-228,986	175,318	0,054	-0,058
-227,971	292,803	-0,041	0,055
-226,957	-48,920	0,099	0,034
-225,942	-200,000	0,019	0,126
-224,927	800,000	0,027	0,055
-223,913	800,000	-0,043	-0,138
-222,898	272,584	0,007	-0,009
-221,884	282,314	-0,058	0,076
-220,869	278,817	0,140	0,182
-219,855	-200,000	0,036	-0,122
-218,840	-200,000	0,035	0,199
-217,825	-200,000	0,027	0,174
-216,811	800,000	0,009	0,025
-215,796	800,000	-0,049	-0,113
-214,782	655,879	0,048	-0,090
-213,767	800,000	0,037	-0,090
-212,752	524,635	0,055	0,094
-211,738	415,896	-0,079	-0,124
-210,723	17,697	0,105	-0,061
-209,709	225,966	-0,063	0,075
-208,694	800,000	0,051	-0,144
-207,679	39,008	-0,056	0,036
-206,665	-69,677	0,037	0,010
-205,650	12,355	0,059	0,033
-204,636	-172,212	0,119	-0,003
-203,621	800,000	-0,071	0,169
-202,606	800,000	0,041	0,083
-201,592	99,198	-0,060	-0,051
-200,577	-200,000	-0,013	-0,052
-199,563	-117,221	-0,057	0,008
-198,548	-152,036	0,039	0,002
-197,533	101,923	0,059	0,050
-196,519	56,010	-0,118	0,083
-195,504	-38,892	0,085	-0,033
-194,490	800,000	0,053	-0,162
-193,475	-136,834	-0,069	0,006
-192,460	-200,000	0,022	-0,095
-191,446	25,854	0,040	-0,024
-190,431	-57,361	-0,096	-0,031
-189,417	800,000	0,011	0,028
-188,402	-74,928	0,176	-0,046
-187,387	-200,000	-0,008	0,027
-186,373	-140,097	0,078	0,006
-185,358	-82,087	-0,085	0,020
-184,344	-152,319	-0,017	-0,001
-183,329	800,000	-0,053	0,124
-182,315	102,193	0,100	0,085
-181,300	58,188	0,069	-0,049
-180,285	-7,949	-0,019	-0,009
-179,271	-200,000	0,009	-0,047
-178,256	-200,000	0,010	0,161
-177,242	413,832	-0,025	0,039
-176,227	-200,000	0,002	-0,081
-175,212	-196,060	-0,186	0,001
-174,198	-149,611	-0,085	-0,005
-173,183	-46,324	-0,138	0,049
-172,169	-108,777	-0,086	-0,013
-171,154	800,000	0,012	-0,036
-170,139	-80,384	0,086	0,021
-169,125	134,279	0,057	0,054
-168,110	-200,000	0,018	0,133
-167,096	-78,779	-0,066	0,016
-166,081	-69,120	-0,047	-0,013
-165,066	-122,255	0,110	-0,013
-164,052	-200,000	0,006	-0,041
-163,037	-55,844	0,108	-0,035
-162,023	92,986	0,048	-0,039
-161,008	205,349	-0,057	0,065
-159,993	203,645	-0,071	0,080
-158,979	295,972	0,065	-0,086
-157,964	-200,000	-0,002	-0,042
-156,950	99,572	0,036	-0,030
-155,935	49,661	0,085	0,058
-154,920	800,000	0,020	-0,061
-153,906	382,503	0,059	-0,089
-152,891	-200,000	-0,005	0,130
-151,877	13,438	-0,062	-0,035
-150,862	-200,000	0,006	0,023
-149,847	800,000	-0,009	0,024
-148,833	413,444	-0,070	0,108
-147,818	-92,307	0,107	0,022
-146,804	120,387	-0,033	0,030
-145,789	-1,289	0,080	0,041
-144,775	-200,000	-0,028	0,114
-143,760	-46,367	-0,150	-0,053
-142,745	-200,000	-0,026	-0,136
-141,731	148,752	-0,056	0,055
-140,716	232,039	-0,106	0,127
-139,702	569,163	0,029	0,051
-138,687	-175,402	0,030	-0,001
-137,672	-200,000	-0,017	-0,102
-136,658	226,395	0,021	-0,025
-135,643	34,328	-0,135	0,086
-134,629	463,805	0,043	-0,070
-133,614	123,261	-0,099	0,090
-132,599	-200,000	0,010	-0,044
-131,585	800,000	-0,010	-0,028
-130,570	162,895	0,102	-0,104
-129,556	151,046	-0,050	-0,050
-128,541	-141,802	-0,111	0,008
-127,526	-86,334	0,132	0,029
-126,512	262,784	-0,035	-0,045
-125,497	-47,917	0,044	-0,015
-124,483	-33,156	0,136	0,054
-123,468	238,956	0,031	-0,037
-122,453	-158,872	-0,155	-0,006
-121,439	-29,712	-0,029	0,012
-120,424	351,064	0,025	0,037
-119,410	800,000	0,102	-0,208
-118,395	-200,000	0,004	0,073
-117,380	704,544	-0,030	0,058
-116,366	66,391	0,080	-0,059
-115,351	-200,000	-0,013	-0,059
-114,337	800,000	-0,031	-0,081
-113,322	233,209	0,026	0,031
-112,307	94,072	-0,062	-0,051
-111,293	-5,705	0,111	-0,055
-110,278	316,657	0,030	0,041
-109,264	-127,868	-0,100	0,010
-108,249	800,000	-0,039	0,104
-107,234	-200,000	-0,012	-0,100
-106,220	301,764	0,029	-0,038
-105,205	20,699	0,105	-0,061
-104,191	473,819	0,024	-0,039
-103,176	-59,367	0,055	-0,017
-102,162	-10,764	-0,079	-0,038
-101,147	82,315	-0,136	0,107
-100,132	-200,000	-0,004	0,071
-99,118	362,702	0,058	0,085
-98,103	800,000	-0,044	0,095
-97,089	67,860	0,102	-0,076
-96,074	149,480	0,071	-0,070
-95,059	-200,000	0,000	-0,078
-94,045	181,017	-0,087	0,093
-93,030	754,371	-0,046	-0,091
-92,016	-166,252	-0,052	0,002
-91,001	-137,657	-0,068	0,005
-89,986	166,882	0,058	-0,059
-88,972	800,000	0,043	-0,104
-87,957	-200,000	-0,035	0,204
-86,943	-41,889	-0,057	0,021
-85,928	-62,107	-0,087	-0,026
-84,913	-54,213	-0,110	-0,036
-83,899	-78,862	0,134	0,033
-82,884	129,588	-0,086	0,079
-81,870	800,000	0,018	0,041
-80,855	33,235	0,049	0,031
-79,840	458,883	-0,046	0,075
-78,826	800,000	0,040	0,110
-77,811	-138,697	0,012	0,001
-76,797	-192,848	-0,123	-0,001
-75,782	-200,000	0,008	-0,080
-74,767	-200,000	-0,013	0,083
-73,753	-200,000	0,000	-0,043
-72,738	5,626	-0,169	-0,090
-71,724	332,334	-0,064	0,090
-70,709	-105,416	-0,217	0,035
-69,694	429,025	0,110	0,172
-68,680	-200,000	0,005	-0,048
-67,665	800,000	0,030	0,061
-66,651	-200,000	0,028	-0,120
-65,636	-166,965	-0,084	0,002
-64,622	108,209	-0,092	0,080
-63,607	-130,941	0,029	-0,003
-62,592	333,698	-0,042	0,059
-61,578	126,392	0,095	0,087
-60,563	800,000	-0,054	0,113
-59,549	61,207	0,017	-0,012
-58,534	-65,039	-1,535	-0,446
-57,519	633,951	-0,814	-1,502
-56,505	-200,000	-1,014	-4,606
-55,490	-21,987	0,729	-0,320
-54,476	800,000	4,888	11,687
-53,461	-200,000	14,178	252,753
-52,446	-200,000	695,419	2229,354
-51,432	567,464	1624,211	2869,590
-50,417	116,919	1631,032	1451,225
-49,403	72,871	1284,746	971,229
-48,388	37,376	1022,200	655,250
-47,373	23,676	980,542	583,572
-46,359	22,897	970,108	574,791
-45,344	21,840	965,897	568,827
-44,330	21,789	964,357	567,731
-43,315	21,694	962,889	566,536
-42,300	21,729	961,678	565,915
-41,286	21,693	960,923	565,332
-40,271	21,651	959,854	564,544
-39,257	21,665	958,841	563,969
-38,242	21,705	957,957	563,559
-37,227	21,659	957,160	562,918
-36,213	21,630	956,128	562,196
-35,198	21,601	955,485	561,700
-34,184	21,646	954,871	561,463
-33,169	21,547	954,167	560,708
-32,154	21,677	952,966	560,396
-31,140	21,705	952,142	559,980
-30,125	21,640	951,412	559,321
-29,111	21,629	950,592	558,780
-28,096	21,700	949,827	558,536
-27,082	21,726	949,048	558,140
-26,067	21,666	948,308	557,488
-25,052	21,698	947,555	557,129
-24,038	21,657	947,099	556,708
-23,023	21,642	946,454	556,255
-22,009	21,698	945,688	555,963
-20,994	21,724	945,001	555,620
-19,979	21,641	944,415	554,989
-18,965	21,699	943,894	554,846
-17,950	21,690	943,147	554,357
-16,936	21,642	942,464	553,780
-15,921	21,548	941,813	553,076
-14,906	21,568	941,192	552,755
-13,892	21,590	940,497	552,393
-12,877	21,531	940,111	551,957
-11,863	21,546	939,303	551,507
-10,848	21,561	938,883	551,287
-9,833	21,624	938,357	551,157
-8,819	21,671	937,602	550,839
-7,804	21,557	937,168	550,203
-6,790	21,521	936,413	549,624
-5,775	21,625	935,731	549,530
-4,760	21,562	935,124	548,954
-3,746	21,519	934,665	548,527
-2,731	21,434	933,977	547,834
-1,717	21,419	933,121	547,261
-0,702	21,384	932,643	546,850
0,313	21,175	931,865	546,560
1,327	24,077	929,789	554,401
2,342	33,055	793,674	497,081
3,356	30,474	451,183	278,664
4,371	0,551	295,256	152,344
5,386	-3,479	276,260	138,698
6,400	-5,036	270,719	134,451
7,415	-5,265	268,248	133,000
8,429	-4,913	267,031	132,709
9,444	-4,918	266,059	132,209
10,459	-4,747	265,453	132,053
11,473	-5,130	265,045	131,488
12,488	-5,128	264,538	131,226
13,502	-5,330	263,964	130,746
14,517	-5,119	263,384	130,639
15,531	-5,245	263,385	130,513
16,546	-5,059	262,658	130,310
17,561	-5,101	262,278	130,072
18,575	-4,985	262,062	130,057
19,590	-5,178	261,778	129,731
20,604	-5,198	261,449	129,539
21,619	-5,057	261,071	129,467
22,634	-5,249	260,999	129,247
23,648	-5,256	260,560	129,011
24,663	-5,227	260,260	128,877
25,677	-5,150	259,992	128,803
26,692	-5,249	259,802	128,609
27,707	-5,113	259,419	128,529
28,721	-5,343	259,243	128,225
29,736	-5,280	259,123	128,210
30,750	-5,236	258,647	128,002
31,765	-5,337	258,530	127,843
32,780	-5,242	258,131	127,719
33,794	-5,437	258,045	127,492
34,809	-5,302	257,655	127,407
35,823	-5,361	257,637	127,335
36,838	-5,399	257,327	127,136
37,853	-5,237	256,923	127,069
38,867	-5,343	256,708	126,858
39,882	-5,310	256,574	126,809
40,896	-5,378	256,299	126,602
41,911	-5,355	256,217	126,571
42,926	-5,403	255,972	126,396
43,940	-5,430	255,692	126,223
44,955	-5,332	255,500	126,203
45,969	-5,583	255,290	125,867
46,984	-5,580	255,042	125,737
47,999	-5,762	254,728	125,411
49,013	-5,838	254,414	125,179
50,028	-5,869	254,158	125,015
51,042	-6,008	254,040	124,824
52,057	-6,017	253,687	124,632
53,071	-6,056	253,641	124,564
54,086	-6,030	253,498	124,506
55,101	-5,705	253,236	124,648
56,115	-5,530	253,097	124,721
57,130	-5,313	253,025	124,863
58,144	-4,853	252,783	125,132
59,159	-4,993	252,563	124,890
60,174	-5,130	252,295	124,628
61,188	-5,198	252,045	124,435
62,203	-5,320	251,990	124,290
63,217	-5,102	251,742	124,346
64,232	-4,919	251,464	124,355
65,247	-5,112	251,294	124,094
66,261	-5,153	251,146	123,974
67,276	-5,300	250,852	123,692
68,290	-5,623	250,705	123,330
69,305	-5,813	250,432	123,021
70,320	-5,498	250,110	123,122
71,334	-5,484	250,145	123,141
72,349	-5,036	249,853	123,370
73,363	-5,167	249,691	123,167
74,378	-5,271	249,608	123,026
75,393	-5,068	249,246	123,010
76,407	-5,237	249,257	122,860
77,422	-5,099	248,937	122,809
78,436	-5,072	248,674	122,691
79,451	-5,121	248,458	122,532
80,466	-5,262	248,101	122,226
81,480	-5,423	247,911	121,984
82,495	-5,456	247,826	121,903
83,509	-5,174	247,643	122,042
84,524	-5,284	247,332	121,784
85,539	-5,606	247,159	121,416
86,553	-5,430	247,027	121,489
87,568	-5,567	246,878	121,289
88,582	-5,573	246,755	121,212
89,597	-5,541	246,499	121,103
90,611	-5,299	246,321	121,209
91,626	-5,091	246,267	121,347
92,641	-5,330	246,100	121,053
93,655	-5,433	245,827	120,820
94,670	-5,339	245,747	120,850
95,684	-5,398	245,331	120,585
96,699	-5,384	245,269	120,555
97,714	-5,493	245,072	120,356
98,728	-5,448	244,725	120,213
99,743	-5,458	244,534	120,100
100,757	-5,683	244,412	119,841
101,772	-5,550	244,144	119,810
102,787	-5,369	244,058	119,909
103,801	-5,407	243,930	119,803
104,816	-5,746	243,836	119,464
105,830	-5,348	243,633	119,685
106,845	-5,237	243,571	119,736
107,860	-5,196	243,234	119,595
108,874	-5,272	242,983	119,397
109,889	-5,360	242,797	119,222
110,903	-5,453	242,661	119,067
111,918	-5,455	242,351	118,903
112,933	-5,209	242,202	119,023
113,947	-5,379	242,224	118,882
114,962	-5,241	241,941	118,847
115,976	-5,241	241,897	118,815
116,991	-5,239	241,685	118,701
118,006	-5,286	241,530	118,576
119,020	-5,385	241,406	118,423
120,035	-5,155	241,117	118,460
121,049	-5,105	241,056	118,461
122,064	-5,289	240,863	118,204
123,079	-5,137	240,579	118,179
124,093	-5,538	240,535	117,817
125,108	-5,507	240,268	117,702
126,122	-5,635	240,019	117,464
127,137	-5,549	239,700	117,368
128,151	-5,770	239,677	117,166
129,166	-5,605	239,602	117,253
130,181	-5,611	239,291	117,085
131,195	-5,641	239,215	117,014
132,210	-5,457	238,969	117,033
133,224	-5,336	238,934	117,104
134,239	-5,387	238,725	116,949
135,254	-5,233	238,487	116,947
136,268	-5,146	238,239	116,886
137,283	-5,401	238,092	116,596
138,297	-5,630	237,815	116,265
139,312	-5,697	237,777	116,182
140,327	-5,359	237,625	116,371
141,341	-4,742	237,539	116,818
142,356	-5,065	237,339	116,448
143,370	-4,875	237,288	116,567
144,385	-4,895	237,013	116,405
145,400	-4,957	236,856	116,267
146,414	-5,023	236,741	116,147
147,429	-4,966	236,468	116,048
148,443	-4,904	236,415	116,062
149,458	-4,965	236,316	115,954
150,473	-5,044	236,124	115,786
151,487	-5,190	235,921	115,559
152,502	-5,069	235,764	115,569
153,516	-4,842	235,591	115,656
154,531	-4,982	235,434	115,456
155,546	-4,901	235,084	115,339
156,560	-5,030	234,940	115,155
157,575	-5,256	234,801	114,896
158,589	-5,269	234,595	114,775
159,604	-4,989	234,511	114,946
160,619	-4,877	234,378	114,961
161,633	-4,860	234,168	114,861
162,648	-4,850	233,891	114,723
163,662	-5,097	233,976	114,558
164,677	-5,100	233,725	114,422
165,692	-4,877	233,620	114,538
166,706	-4,950	233,549	114,434
167,721	-5,018	233,336	114,266
168,735	-4,947	233,199	114,245
169,750	-4,992	233,080	114,141
170,764	-5,049	232,977	114,035
171,779	-4,845	232,682	114,042
172,794	-5,116	232,556	113,756
173,808	-5,007	232,271	113,692
174,823	-5,531	232,063	113,167
175,837	-5,354	231,810	113,173
176,852	-5,195	231,729	113,249
177,867	-4,865	231,733	113,500
178,881	-4,830	231,660	113,482
179,896	-4,909	231,514	113,338
180,910	-4,824	231,285	113,283
181,925	-5,033	231,193	113,064
182,940	-4,816	230,933	113,096
183,954	-4,741	230,669	113,016
184,969	-4,875	230,681	112,907
185,983	-4,958	230,590	112,787
186,998	-4,744	230,339	112,821
188,013	-4,741	230,358	112,823
189,027	-4,894	230,093	112,564
190,042	-4,764	229,842	112,532
191,056	-4,750	229,705	112,466
192,071	-4,828	229,553	112,321
193,086	-4,762	229,431	112,303
194,100	-5,006	229,205	111,992
195,115	-5,011	228,839	111,799
196,129	-5,573	228,677	111,275
197,144	-2,759	229,773	113,990
198,159	1,791	230,944	118,114
199,173	3,754	231,348	119,844
200,188	3,754	231,303	119,810
201,202	3,881	231,120	119,803
202,217	4,124	230,951	119,893
203,232	4,370	230,866	120,031
204,246	4,443	230,768	120,025
205,261	4,618	230,486	120,004
206,275	4,596	230,538	120,003
207,290	4,406	230,478	119,814
208,304	4,699	230,199	119,885
209,319	4,348	230,150	119,577
210,334	4,545	229,961	119,621
211,348	4,460	229,573	119,343
212,363	3,909	229,385	118,809
213,377	3,711	229,190	118,544
214,392	3,691	228,990	118,414
215,407	3,659	228,919	118,343
216,421	3,730	228,833	118,343
217,436	3,652	228,624	118,164
218,450	3,538	228,336	117,917
219,465	3,479	228,264	117,823
220,480	3,555	228,081	117,777
221,494	3,414	227,909	117,570
222,509	3,680	227,775	117,693
223,523	3,535	227,672	117,519
224,538	3,543	227,525	117,438
225,553	3,601	227,441	117,429
226,567	3,828	227,279	117,509
227,582	4,111	227,223	117,685
228,596	3,990	227,224	117,583
229,611	3,851	226,909	117,304
230,626	3,537	226,693	116,942
231,640	3,499	226,417	116,761
232,655	4,012	226,270	117,064
233,669	4,297	226,364	117,319
234,684	4,489	226,224	117,382
235,699	4,172	226,079	117,056
236,713	3,949	225,749	116,705
237,728	3,541	225,576	116,296
238,742	3,804	225,401	116,395
239,757	3,879	225,285	116,382
240,772	3,581	225,202	116,103
241,786	3,709	224,921	116,044
242,801	3,809	224,976	116,138
243,815	4,199	224,722	116,291
244,830	4,042	224,657	116,128
245,844	3,749	224,582	115,858
246,859	3,870	224,312	115,799
247,874	3,813	224,324	115,752
248,888	4,094	224,090	115,833
249,903	3,771	223,998	115,532
250,917	3,599	223,877	115,330
251,932	3,678	223,625	115,249
252,947	3,692	223,390	115,129
253,961	3,570	223,360	115,011
254,976	3,508	223,146	114,844
255,990	3,885	223,039	115,061
257,005	4,044	222,897	115,096
258,020	3,939	222,802	114,959
259,034	4,186	222,693	115,077
260,049	4,067	222,541	114,899
261,063	3,786	222,286	114,548
262,078	3,851	222,206	114,545
263,093	4,279	222,063	114,780
264,107	4,162	221,841	114,567
265,122	4,005	221,902	114,472
266,136	4,059	221,770	114,434
267,151	4,288	221,605	114,509
268,166	3,901	221,358	114,084
269,180	3,649	221,039	113,723
270,195	3,596	220,985	113,645
271,209	3,547	220,845	113,527
272,224	3,725	220,753	113,601
273,239	3,765	220,577	113,530
274,253	3,687	220,433	113,388
275,268	3,291	220,268	113,000
276,282	3,364	220,017	112,916
277,297	3,447	220,046	112,982
278,312	3,521	219,697	112,847
279,326	3,598	219,785	112,939
280,341	3,866	219,401	112,928
281,355	3,823	219,413	112,893
282,370	3,957	219,327	112,937
283,384	3,318	219,061	112,321
284,399	3,296	218,887	112,206
285,414	3,318	218,797	112,165
286,428	3,758	218,660	112,408
287,443	3,889	218,454	112,387
288,457	3,940	218,414	112,395
289,472	3,660	218,284	112,112
290,487	3,227	218,142	111,714
291,501	3,108	217,953	111,520
292,516	3,210	217,784	111,498
293,530	3,432	217,648	111,580
294,545	3,360	217,651	111,519
295,560	3,524	217,541	111,572
296,574	3,532	217,384	111,488
297,589	3,528	217,065	111,311
298,603	3,832	217,101	111,541
299,618	3,912	216,943	111,507
300,633	3,690	216,928	111,328
301,647	4,020	216,762	111,472
302,662	4,008	216,654	111,398
303,676	4,237	216,414	111,431
304,691	4,047	216,139	111,142
305,706	3,943	216,286	111,132
306,720	4,074	215,983	111,062
307,735	3,657	215,860	110,688
308,749	3,629	215,625	110,537
309,764	3,553	215,649	110,485
310,779	3,858	215,482	110,609
311,793	3,967	215,146	110,504
312,808	3,817	215,206	110,418
313,822	3,915	215,081	110,414
314,837	3,584	214,836	110,041
315,852	3,473	214,726	109,896
316,866	3,695	214,549	109,954
317,881	3,954	214,444	110,076
318,895	3,710	214,464	109,902
319,910	3,850	214,101	109,806
320,925	3,576	213,873	109,484
321,939	3,274	213,789	109,215
322,954	3,029	213,689	108,980
323,968	3,782	213,612	109,467
324,983	3,948	213,507	109,523
325,997	4,079	213,498	109,601
327,012	3,711	213,242	109,198
328,027	3,897	213,095	109,246
329,041	4,058	213,076	109,340
330,056	4,076	213,064	109,337
331,070	3,798	212,737	108,963
332,085	3,729	212,488	108,777
333,100	3,730	212,302	108,672
334,114	3,841	212,244	108,712
335,129	3,626	212,136	108,494
336,143	3,375	211,920	108,197
337,158	3,640	211,991	108,410
338,173	3,717	211,742	108,328
339,187	3,520	211,601	108,108
340,202	3,557	211,425	108,034
341,216	3,411	211,249	107,832
342,231	3,441	211,114	107,774
343,246	3,488	210,965	107,722
344,260	3,550	210,965	107,755
345,275	3,680	210,788	107,746
346,289	3,786	210,704	107,768
347,304	3,900	210,551	107,760
348,319	3,565	210,424	107,451
349,333	3,484	210,267	107,305
350,348	3,733	210,135	107,402
351,362	3,680	210,191	107,384
352,377	3,910	209,944	107,409
353,392	3,672	209,799	107,159
354,406	3,783	209,715	107,184
355,421	193,796	1345,962	1432,370
356,435	154,660	1484,490	1432,479
