DTS Sentinel unit serial number:	SN410029Multiplexer serial number:	ORYXHardware model number:	OX2-SRSoftware version number:	ORYX F/W v4,00 Oryx Data Collector v3.7.2.0data status	okinstallation	B6 Nyhavnadifferential loss correction	single-endedforward channel	channel 2reverse channel	N/Adate	2023/12/10time	20:15:08forward acquisition time	300,00reverse acquisition time	0,00gamma	499,1914k internal	0,3122k external	0,3122temperature offset calibration	1,0000default loss term (dB/km)	0,3820temperature slope calibration	1,0000multiplexer offset coefficient	1,0000multiplexer slope coefficient	1,0000fibre end	0,00T internal ref (°C)	22,28T ext. ref 1 (°C)	5,89T ext. ref 2 (°C)	5,92length (m)	temperature (°C)	Stokes	anti-Stokes-744,400	776,005	-0,018	0,036
-743,385	19,859	-0,085	0,051
-742,371	-3,331	0,099	0,051
-741,356	27,991	-0,275	0,172
-740,342	294,210	0,014	-0,019
-739,327	147,322	-0,186	0,187
-738,312	-107,518	0,082	0,013
-737,298	-56,648	-0,209	0,069
-736,283	-66,811	-0,047	-0,014
-735,269	-33,431	-0,188	0,077
-734,254	504,736	0,021	-0,037
-733,239	-94,431	-0,462	-0,093
-732,225	-126,442	0,100	0,011
-731,210	-54,584	-0,125	0,042
-730,196	-200,000	0,004	-0,085
-729,181	-54,957	-0,135	-0,045
-728,167	-36,933	-0,082	-0,033
-727,152	-200,000	-0,044	-0,146
-726,137	199,460	-0,004	-0,004
-725,123	40,730	-0,156	0,105
-724,108	370,988	0,028	-0,042
-723,094	686,527	-0,097	-0,189
-722,079	274,896	-0,168	-0,222
-721,064	77,138	0,081	0,064
-720,050	-66,054	0,123	0,036
-719,035	145,605	0,008	-0,008
-718,021	-93,335	0,125	0,026
-717,006	-200,000	-0,047	-0,156
-715,991	800,000	-0,074	-0,205
-714,977	237,939	-0,046	-0,057
-713,962	-4,335	0,026	-0,013
-712,948	133,516	-0,084	-0,081
-711,933	-129,026	-0,081	0,008
-710,918	-138,151	-0,094	-0,008
-709,904	800,000	0,053	-0,140
-708,889	-95,829	-0,055	0,011
-707,875	800,000	-0,048	-0,125
-706,860	-41,777	-0,038	-0,014
-705,845	207,751	-0,047	-0,054
-704,831	-152,606	0,101	0,005
-703,816	-55,621	-0,088	-0,029
-702,802	800,000	-0,032	-0,089
-701,787	530,031	-0,040	0,071
-700,772	14,523	-0,100	0,058
-699,758	123,745	-0,023	-0,022
-698,743	542,436	-0,027	-0,048
-697,729	22,225	-0,139	0,085
-696,714	-105,594	0,253	0,042
-695,699	88,852	-0,031	-0,025
-694,685	-45,710	-0,027	-0,010
-693,670	-200,000	0,013	-0,181
-692,656	-112,062	0,071	-0,011
-691,641	-52,079	-0,067	-0,023
-690,627	-200,000	0,004	-0,085
-689,612	-200,000	-0,006	-0,035
-688,597	-200,000	0,005	-0,030
-687,583	12,672	-0,073	0,042
-686,568	51,723	-0,072	0,051
-685,554	72,491	0,057	0,044
-684,539	317,927	0,074	0,104
-683,524	83,255	-0,027	0,022
-682,510	115,849	-0,046	0,041
-681,495	393,290	-0,082	-0,128
-680,481	-95,548	-0,044	0,009
-679,466	153,358	0,082	0,083
-678,451	8,136	0,036	-0,020
-677,437	800,000	0,051	0,127
-676,422	800,000	0,027	-0,068
-675,408	17,701	-0,073	-0,043
-674,393	-54,638	-0,059	0,020
-673,378	295,189	0,044	-0,060
-672,364	71,801	-0,036	0,028
-671,349	-200,000	-0,208	0,000
-670,335	-200,000	-0,007	-0,056
-669,320	337,501	0,085	-0,124
-668,305	-61,968	0,144	0,044
-667,291	-125,391	-0,165	0,018
-666,276	-72,778	0,033	-0,009
-665,262	-200,000	-0,013	0,068
-664,247	-58,841	-0,070	-0,022
-663,232	-72,413	-0,078	-0,021
-662,218	13,339	-0,065	-0,037
-661,203	-200,000	-0,004	0,029
-660,189	800,000	0,033	-0,086
-659,174	3,774	-0,063	-0,034
-658,159	20,014	-0,101	-0,060
-657,145	-200,000	0,010	0,061
-656,130	352,303	-0,050	0,074
-655,116	-68,411	-0,063	0,018
-654,101	504,425	-0,045	-0,078
-653,086	-93,787	0,135	0,027
-652,072	128,793	0,071	0,067
-651,057	-200,000	0,013	0,083
-650,043	-81,783	-0,139	-0,034
-649,028	-200,000	-0,004	0,065
-648,014	-46,236	0,161	0,059
-646,999	-14,361	-0,125	0,060
-645,984	-200,000	0,015	0,113
-644,970	-9,409	-0,120	-0,059
-643,955	36,821	-0,227	-0,149
-642,941	288,334	-0,028	-0,037
-641,926	-200,000	0,021	0,143
-640,911	599,183	-0,020	-0,037
-639,897	-46,317	0,037	0,014
-638,882	-200,000	0,013	-0,112
-637,868	175,835	0,040	0,044
-636,853	-200,000	0,016	-0,125
-635,838	331,825	-0,009	-0,013
-634,824	103,402	-0,067	0,058
-633,809	-200,000	-0,020	0,099
-632,795	-200,000	0,070	0,000
-631,780	-200,000	0,020	-0,080
-630,765	-200,000	0,009	-0,108
-629,751	489,677	-0,078	-0,133
-628,736	-200,000	0,015	-0,072
-627,722	494,771	-0,025	-0,043
-626,707	201,290	-0,014	-0,016
-625,692	-200,000	-0,009	0,048
-624,678	225,557	0,067	0,081
-623,663	-200,000	-0,005	-0,160
-622,649	800,000	-0,031	-0,071
-621,634	104,169	-0,008	0,007
-620,619	196,317	0,109	-0,123
-619,605	-187,881	-0,060	-0,001
-618,590	-88,199	0,103	-0,023
-617,576	56,834	0,033	-0,024
-616,561	315,880	-0,110	-0,155
-615,546	168,989	0,021	0,022
-614,532	525,089	0,064	-0,112
-613,517	216,863	0,080	-0,095
-612,503	-2,344	-0,193	-0,100
-611,488	201,915	0,042	0,048
-610,474	167,403	-0,065	-0,068
-609,459	-200,000	-0,006	0,124
-608,444	130,906	0,011	0,010
-607,430	12,246	-0,027	0,015
-606,415	800,000	0,048	-0,141
-605,401	141,419	-0,087	-0,085
-604,386	-200,000	0,021	0,103
-603,371	343,215	-0,019	0,028
-602,357	-33,374	-0,032	0,013
-601,342	-200,000	-0,013	-0,081
-600,328	800,000	-0,033	0,076
-599,313	-89,545	-0,095	-0,020
-598,298	-125,458	-0,079	-0,009
-597,284	-130,595	0,071	-0,007
-596,269	-200,000	-0,001	0,050
-595,255	-200,000	0,022	0,166
-594,240	171,069	-0,106	-0,113
-593,225	-200,000	-0,031	-0,132
-592,211	246,559	-0,010	-0,013
-591,196	800,000	-0,057	-0,139
-590,182	130,594	0,047	-0,045
-589,167	-132,157	0,107	-0,010
-588,152	-200,000	-0,014	-0,058
-587,138	-126,668	-0,101	-0,011
-586,123	88,536	0,104	0,086
-585,109	741,141	-0,064	-0,129
-584,094	336,110	-0,096	0,139
-583,079	43,931	0,062	-0,042
-582,065	-81,263	0,071	-0,017
-581,050	800,000	-0,058	0,144
-580,036	41,132	-0,064	-0,043
-579,021	181,382	-0,165	-0,180
-578,006	-200,000	-0,009	-0,087
-576,992	-90,798	0,040	-0,009
-575,977	800,000	0,027	-0,063
-574,963	370,487	0,087	0,132
-573,948	-200,000	0,009	0,086
-572,934	-200,000	0,003	0,134
-571,919	-71,860	-0,182	-0,050
-570,904	-55,180	-0,045	-0,015
-569,890	-91,193	-0,087	-0,018
-568,875	800,000	0,052	-0,129
-567,861	-200,000	-0,001	0,103
-566,846	-61,467	0,074	-0,023
-565,831	800,000	-0,023	0,060
-564,817	-52,287	0,097	0,033
-563,802	-70,177	-0,088	0,025
-562,788	-27,338	-0,188	-0,081
-561,773	482,801	0,016	0,028
-560,758	-41,066	0,150	-0,057
-559,744	-200,000	-0,015	-0,213
-558,729	-70,033	-0,175	0,049
-557,715	-200,000	-0,013	-0,087
-556,700	576,826	0,012	0,022
-555,685	80,900	-0,197	0,157
-554,671	39,521	-0,117	0,077
-553,656	-188,452	0,047	0,000
-552,642	-200,000	-0,012	0,058
-551,627	-107,976	0,093	0,015
-550,612	216,560	0,047	-0,055
-549,598	555,131	-0,068	-0,122
-548,583	-4,949	-0,155	0,079
-547,569	-161,858	-0,032	-0,001
-546,554	307,896	0,047	0,065
-545,539	-200,000	-0,004	0,088
-544,525	71,342	-0,118	0,091
-543,510	800,000	0,062	-0,194
-542,496	93,203	0,127	-0,106
-541,481	316,542	0,056	-0,079
-540,466	-58,266	0,080	-0,026
-539,452	446,354	0,067	0,109
-538,437	23,299	0,097	-0,059
-537,423	-173,783	-0,146	-0,003
-536,408	800,000	-0,033	-0,105
-535,393	800,000	0,036	-0,082
-534,379	-200,000	-0,019	0,077
-533,364	1,317	0,057	-0,030
-532,350	-200,000	0,003	0,035
-531,335	385,158	-0,019	-0,029
-530,321	-28,285	0,037	-0,016
-529,306	-68,960	-0,117	-0,033
-528,291	-200,000	0,002	0,033
-527,277	-200,000	0,000	-0,106
-526,262	-200,000	-0,002	-0,048
-525,248	800,000	-0,041	-0,090
-524,233	-134,329	0,095	0,009
-523,218	800,000	0,054	-0,123
-522,204	-200,000	0,012	0,121
-521,189	153,798	-0,117	-0,118
-520,175	11,811	0,088	-0,050
-519,160	3,781	-0,058	-0,031
-518,145	-97,499	0,105	-0,020
-517,131	-200,000	0,000	-0,010
-516,116	139,644	0,031	0,030
-515,102	-133,484	0,050	-0,005
-514,087	-200,000	0,018	-0,069
-513,072	-23,749	-0,112	0,049
-512,058	-43,155	0,091	-0,034
-511,043	-200,000	-0,005	-0,108
-510,029	-200,000	-0,011	-0,044
-509,014	800,000	-0,018	0,044
-507,999	334,685	-0,021	-0,030
-506,985	23,230	0,125	0,075
-505,970	-57,954	-0,109	0,035
-504,956	507,273	0,075	-0,130
-503,941	-59,641	-0,115	0,036
-502,926	-200,000	0,043	0,144
-501,912	-100,940	-0,105	0,019
-500,897	-154,392	0,113	-0,006
-499,883	-200,000	0,012	0,045
-498,868	800,000	-0,018	-0,056
-497,853	84,616	-0,079	-0,064
-496,839	800,000	0,005	0,015
-495,824	31,326	-0,056	-0,035
-494,810	-200,000	-0,029	0,153
-493,795	305,022	0,008	0,010
-492,781	342,176	-0,065	0,094
-491,766	209,459	-0,088	0,102
-490,751	-200,000	0,027	-0,096
-489,737	35,163	-0,063	0,041
-488,722	-200,000	-0,009	0,041
-487,708	-73,872	-0,052	0,014
-486,693	191,917	0,013	-0,014
-485,678	-200,000	-0,017	0,111
-484,664	-200,000	-0,007	-0,081
-483,649	-126,624	-0,062	0,007
-482,635	-53,873	-0,050	0,017
-481,620	-200,000	0,023	0,098
-480,605	-200,000	0,010	-0,032
-479,591	23,853	0,106	-0,064
-478,576	-200,000	-0,033	0,149
-477,562	-47,428	0,137	-0,049
-476,547	65,011	-0,138	-0,103
-475,532	800,000	0,040	0,087
-474,518	-128,195	0,125	-0,013
-473,503	186,506	0,090	0,099
-472,489	-15,982	0,086	-0,040
-471,474	219,808	-0,086	0,102
-470,459	-57,232	0,059	-0,019
-469,445	-29,735	0,033	-0,014
-468,430	800,000	0,041	-0,086
-467,416	-200,000	0,022	0,129
-466,401	-200,000	-0,004	0,111
-465,386	31,594	0,067	-0,042
-464,372	-200,000	0,006	0,087
-463,357	-200,000	0,019	-0,097
-462,343	-200,000	-0,142	-0,000
-461,328	2,755	0,107	0,057
-460,313	-181,756	0,102	-0,001
-459,299	9,450	0,098	0,054
-458,284	454,795	0,057	0,094
-457,270	-200,000	-0,025	0,087
-456,255	-65,721	-0,165	-0,048
-455,241	0,776	-0,053	-0,028
-454,226	155,690	-0,038	0,038
-453,211	-106,787	0,091	-0,015
-452,197	592,193	-0,005	-0,010
-451,182	-91,840	0,017	-0,004
-450,168	6,648	0,123	0,067
-449,153	137,285	-0,089	-0,086
-448,138	125,721	-0,018	-0,016
-447,124	69,272	-0,033	0,025
-446,109	-138,460	0,088	-0,007
-445,095	282,737	-0,045	-0,060
-444,080	310,644	0,029	-0,040
-443,065	409,992	0,079	0,123
-442,051	-66,195	0,034	0,010
-441,036	800,000	0,023	-0,065
-440,022	408,847	-0,010	-0,016
-439,007	362,375	-0,030	0,044
-437,992	-106,121	-0,094	-0,015
-436,978	-106,808	0,129	0,021
-435,963	776,187	-0,012	0,025
-434,949	-200,000	0,002	-0,018
-433,934	195,013	-0,051	-0,057
-432,919	146,293	-0,084	-0,083
-431,905	37,902	0,096	-0,063
-430,890	101,757	0,019	0,016
-429,876	92,242	-0,096	0,080
-428,861	800,000	-0,028	0,069
-427,846	-106,474	0,074	-0,012
-426,832	-149,968	0,096	-0,005
-425,817	77,574	0,084	-0,065
-424,803	-200,000	0,007	0,055
-423,788	-79,869	0,043	0,011
-422,773	35,145	0,039	0,025
-421,759	28,690	-0,017	0,010
-420,744	-200,000	-0,023	-0,102
-419,730	92,393	0,058	0,048
-418,715	-145,614	-0,075	-0,005
-417,701	429,365	-0,025	0,040
-416,686	-138,464	0,094	-0,007
-415,671	490,059	0,051	-0,086
-414,657	-45,534	0,096	0,035
-413,642	205,270	0,080	0,092
-412,628	800,000	0,107	-0,240
-411,613	-33,602	-0,063	-0,025
-410,598	800,000	0,036	-0,083
-409,584	153,222	0,059	0,060
-408,569	155,044	-0,044	0,044
-407,555	800,000	-0,044	0,129
-406,540	686,370	-0,036	-0,070
-405,525	210,678	0,070	0,081
-404,511	-57,671	-0,128	0,041
-403,496	33,162	-0,079	0,050
-402,482	-117,342	-0,126	0,017
-401,467	-200,000	-0,012	0,110
-400,452	-41,869	0,127	0,048
-399,438	116,324	0,042	-0,038
-398,423	-79,741	-0,043	0,011
-397,409	-90,259	-0,133	0,028
-396,394	147,985	-0,035	-0,034
-395,379	-200,000	-0,029	0,100
-394,365	-200,000	0,010	0,248
-393,350	-200,000	0,007	0,206
-392,336	800,000	-0,018	0,047
-391,321	147,457	0,020	-0,020
-390,306	485,738	0,047	-0,080
-389,292	-24,019	0,020	-0,009
-388,277	138,682	-0,039	-0,038
-387,263	800,000	0,045	0,130
-386,248	42,488	0,018	0,012
-385,233	-108,007	-0,078	0,012
-384,219	268,031	0,047	-0,060
-383,204	-24,677	0,144	-0,063
-382,190	754,244	-0,065	-0,129
-381,175	-200,000	0,017	-0,082
-380,160	-49,806	-0,131	0,046
-379,146	-200,000	0,019	-0,106
-378,131	21,925	0,062	0,037
-377,117	-133,791	-0,041	-0,004
-376,102	322,652	-0,068	0,095
-375,088	-200,000	0,008	0,111
-374,073	-200,000	-0,003	0,175
-373,058	112,730	0,066	0,059
-372,044	-200,000	-0,010	-0,061
-371,029	55,126	0,075	0,053
-370,015	300,828	0,030	0,041
-369,000	108,642	-0,014	0,013
-367,985	-35,734	-0,108	-0,043
-366,971	-34,462	0,073	0,029
-365,956	800,000	-0,050	0,124
-364,942	-22,655	0,059	-0,026
-363,927	475,602	0,039	0,066
-362,912	266,779	0,049	0,063
-361,898	-200,000	-0,027	0,098
-360,883	714,196	-0,043	0,085
-359,869	-9,334	-0,068	-0,033
-358,854	-86,363	0,040	0,009
-357,839	800,000	0,054	-0,111
-356,825	6,185	0,115	0,062
-355,810	409,617	0,072	0,113
-354,796	800,000	-0,051	0,152
-353,781	276,581	-0,104	-0,137
-352,766	800,000	0,052	0,151
-351,752	-14,387	0,076	-0,036
-350,737	191,876	0,027	-0,030
-349,723	-200,000	0,013	-0,060
-348,708	-200,000	0,013	0,087
-347,693	-184,035	-0,079	0,001
-346,679	169,118	-0,080	0,083
-345,664	-200,000	-0,017	-0,097
-344,650	794,764	0,023	-0,047
-343,635	800,000	0,030	0,093
-342,620	-200,000	0,017	0,090
-341,606	-200,000	-0,010	0,037
-340,591	-200,000	-0,007	-0,122
-339,577	25,175	-0,037	0,023
-338,562	-14,445	-0,013	-0,006
-337,548	-200,000	-0,020	0,110
-336,533	29,295	0,102	-0,063
-335,518	188,607	-0,075	0,083
-334,504	800,000	-0,011	0,027
-333,489	-24,989	-0,129	0,056
-332,475	-200,000	0,018	-0,076
-331,460	800,000	-0,029	-0,089
-330,445	-162,101	-0,054	0,002
-329,431	-200,000	0,022	-0,088
-328,416	-65,976	0,092	-0,027
-327,402	101,319	0,063	0,054
-326,387	140,972	0,093	-0,090
-325,372	783,354	0,094	-0,189
-324,358	354,271	-0,077	-0,112
-323,343	130,558	0,066	0,062
-322,329	800,000	-0,021	-0,065
-321,314	-113,093	0,023	-0,003
-320,299	800,000	0,065	0,191
-319,285	129,559	0,077	0,072
-318,270	-122,481	-0,168	-0,020
-317,256	292,562	-0,081	-0,109
-316,241	254,717	-0,041	0,052
-315,226	-57,140	0,091	0,029
-314,212	-200,000	0,016	0,059
-313,197	716,788	0,017	0,033
-312,183	800,000	-0,066	-0,170
-311,168	-200,000	0,024	-0,094
-310,153	778,927	0,035	0,070
-309,139	14,819	0,058	-0,033
-308,124	-111,784	0,098	-0,014
-307,110	355,621	0,116	0,170
-306,095	800,000	-0,012	-0,027
-305,080	10,345	-0,077	0,043
-304,066	800,000	0,022	0,054
-303,051	73,651	-0,062	-0,047
-302,037	-23,371	-0,028	0,012
-301,022	189,806	-0,026	-0,029
-300,008	245,771	0,107	0,132
-298,993	800,000	0,034	0,100
-297,978	221,221	0,094	0,111
-296,964	-155,538	0,088	0,004
-295,949	-200,000	-0,014	-0,075
-294,935	72,138	-0,059	-0,045
-293,920	800,000	-0,012	0,035
-292,905	-127,949	-0,036	-0,004
-291,891	734,764	0,110	-0,216
-290,876	166,711	-0,064	-0,067
-289,862	-19,442	-0,043	-0,019
-288,847	-200,000	-0,020	0,068
-287,832	-200,000	-0,004	-0,060
-286,818	-200,000	0,012	-0,097
-285,803	798,110	-0,035	-0,072
-284,789	177,107	-0,042	0,045
-283,774	76,771	0,032	-0,025
-282,759	187,849	0,053	-0,058
-281,745	800,000	0,054	0,129
-280,730	-200,000	0,018	0,139
-279,716	-55,613	-0,039	-0,013
-278,701	-200,000	0,030	-0,118
-277,686	-67,301	0,224	0,064
-276,672	-1,952	-0,078	0,040
-275,657	-50,882	0,074	0,025
-274,643	353,316	-0,078	-0,114
-273,628	-200,000	-0,015	-0,056
-272,613	-25,326	-0,053	-0,023
-271,599	187,627	-0,103	-0,113
-270,584	324,877	0,036	0,050
-269,570	-43,341	-0,148	0,055
-268,555	-200,000	-0,022	-0,094
-267,540	51,374	0,069	0,048
-266,526	-200,000	-0,010	-0,057
-265,511	-89,690	-0,040	0,009
-264,497	-200,000	0,003	0,039
-263,482	-8,224	0,110	-0,054
-262,467	474,052	0,019	0,032
-261,453	-200,000	0,000	-0,076
-260,438	-200,000	-0,009	0,076
-259,424	800,000	0,007	-0,017
-258,409	19,323	0,025	-0,014
-257,395	46,771	0,071	0,048
-256,380	-29,895	-0,104	0,043
-255,365	152,516	-0,103	0,103
-254,351	-120,742	0,109	0,013
-253,336	-141,502	-0,033	0,002
-252,322	-200,000	0,008	-0,059
-251,307	106,244	-0,064	0,055
-250,292	-156,991	0,071	0,003
-249,278	-31,611	0,111	0,045
-248,263	131,336	0,064	0,060
-247,249	341,111	0,012	-0,017
-246,234	-16,079	-0,088	-0,041
-245,219	708,098	0,028	-0,055
-244,205	-200,000	-0,019	-0,089
-243,190	272,016	-0,105	0,136
-242,176	287,873	0,112	0,149
-241,161	800,000	0,041	0,096
-240,146	97,461	-0,076	0,064
-239,132	-200,000	-0,153	0,000
-238,117	316,501	-0,035	0,049
-237,103	450,380	0,024	-0,040
-236,088	800,000	0,062	0,135
-235,073	-101,534	0,129	0,023
-234,059	800,000	0,007	-0,021
-233,044	-200,000	0,026	0,106
-232,030	-86,576	0,149	0,033
-231,015	192,263	-0,074	-0,081
-230,000	-200,000	0,004	-0,125
-228,986	-200,000	0,015	0,127
-227,971	201,552	-0,057	0,064
-226,957	800,000	0,038	0,083
-225,942	267,952	0,044	-0,056
-224,927	11,060	0,133	0,074
-223,913	274,922	-0,110	0,143
-222,898	-200,000	0,004	0,035
-221,884	-200,000	-0,008	-0,035
-220,869	-200,000	-0,007	0,068
-219,855	302,362	0,017	-0,023
-218,840	161,827	0,015	-0,016
-217,825	75,183	-0,163	-0,125
-216,811	-73,960	0,149	-0,039
-215,796	-200,000	-0,014	-0,062
-214,782	-121,280	-0,119	-0,014
-213,767	299,882	0,067	0,090
-212,752	374,564	0,049	0,072
-211,738	316,141	-0,038	0,053
-210,723	711,289	0,021	-0,041
-209,709	800,000	-0,029	-0,074
-208,694	-21,506	-0,079	-0,035
-207,679	-173,581	-0,094	0,002
-206,665	-32,986	0,067	0,027
-205,650	800,000	-0,025	-0,063
-204,636	439,080	0,032	0,052
-203,621	800,000	0,018	0,051
-202,606	-53,399	0,063	-0,021
-201,592	-71,628	-0,087	-0,023
-200,577	625,633	-0,048	-0,088
-199,563	377,309	0,061	-0,091
-198,548	-200,000	0,026	0,166
-197,533	800,000	-0,015	-0,036
-196,519	-62,226	-0,115	0,035
-195,504	-200,000	0,012	0,063
-194,490	-20,152	-0,098	-0,044
-193,475	42,139	-0,159	0,105
-192,460	-45,715	-0,044	-0,016
-191,446	-100,593	0,056	-0,010
-190,431	-200,000	-0,013	0,151
-189,417	129,680	0,081	-0,075
-188,402	190,948	0,141	0,155
-187,387	458,617	-0,040	-0,065
-186,373	800,000	0,033	-0,088
-185,358	-200,000	-0,007	-0,099
-184,344	-38,508	0,082	-0,032
-183,329	-165,810	0,201	-0,006
-182,315	23,405	-0,123	0,074
-181,300	-200,000	-0,027	-0,126
-180,285	800,000	-0,032	-0,069
-179,271	-200,000	-0,017	-0,128
-178,256	119,707	-0,098	-0,088
-177,242	78,639	0,142	0,111
-176,227	-38,598	-0,060	-0,023
-175,212	290,715	0,016	0,022
-174,198	3,111	-0,085	0,045
-173,183	70,063	-0,107	-0,081
-172,169	168,659	0,041	-0,043
-171,154	-20,436	0,074	-0,033
-170,139	800,000	0,031	-0,075
-169,125	-164,244	-0,007	-0,000
-168,110	307,766	-0,020	-0,027
-167,096	-200,000	0,001	0,128
-166,081	800,000	-0,046	0,116
-165,066	-102,935	-0,118	0,020
-164,052	-24,987	-0,093	0,040
-163,037	800,000	0,037	-0,075
-162,023	130,966	0,080	-0,075
-161,008	-22,051	0,139	-0,061
-159,993	-200,000	-0,012	-0,106
-158,979	103,856	-0,022	0,019
-157,964	217,698	-0,117	-0,136
-156,950	-200,000	-0,019	0,098
-155,935	217,898	0,061	-0,071
-154,920	394,875	0,065	-0,098
-153,906	51,507	-0,055	-0,038
-152,891	16,806	0,149	-0,086
-151,877	-200,000	0,012	-0,129
-150,862	-90,384	-0,092	-0,019
-149,847	-130,711	0,092	-0,009
-148,833	-200,000	0,033	0,133
-147,818	25,532	-0,046	0,028
-146,804	-176,002	-0,042	-0,001
-145,789	800,000	0,025	0,066
-144,775	58,330	-0,107	0,076
-143,760	-36,465	0,085	0,033
-142,745	-200,000	-0,008	-0,039
-141,731	-10,713	0,055	-0,027
-140,716	61,586	0,125	0,091
-139,702	136,484	0,096	0,091
-138,687	63,902	0,036	-0,026
-137,672	267,525	-0,039	-0,050
-136,658	-200,000	0,020	-0,092
-135,643	-157,638	-0,071	-0,003
-134,629	313,130	-0,061	-0,083
-133,614	263,076	0,022	0,028
-132,599	61,107	0,022	-0,016
-131,585	125,309	0,054	-0,049
-130,570	16,394	-0,023	0,013
-129,556	-91,645	-0,038	0,008
-128,541	800,000	0,013	0,032
-127,526	-37,122	0,090	-0,035
-126,512	800,000	-0,033	-0,103
-125,497	-200,000	-0,022	0,094
-124,483	-200,000	-0,056	0,187
-123,468	-200,000	-0,023	0,103
-122,453	0,282	-0,082	-0,043
-121,439	121,148	-0,013	0,012
-120,424	727,692	-0,035	-0,069
-119,410	-200,000	0,016	0,098
-118,395	344,292	0,049	0,070
-117,380	-101,417	-0,075	-0,013
-116,366	-200,000	0,009	-0,116
-115,351	-200,000	-0,036	-0,119
-114,337	147,425	0,028	-0,027
-113,322	-200,000	-0,004	0,020
-112,307	800,000	0,015	0,044
-111,293	675,542	0,060	0,113
-110,278	-50,852	0,127	-0,043
-109,264	219,002	-0,048	-0,056
-108,249	-114,449	0,114	0,016
-107,234	547,001	0,031	0,054
-106,220	800,000	0,009	0,023
-105,205	-200,000	0,017	0,196
-104,191	-200,000	-0,014	0,075
-103,176	48,386	0,121	-0,082
-102,162	-57,390	0,065	-0,021
-101,147	704,405	-0,026	0,050
-100,132	-200,000	0,001	0,083
-99,118	800,000	0,028	0,085
-98,103	800,000	0,070	-0,145
-97,089	693,491	-0,005	0,009
-96,074	56,527	0,137	0,096
-95,059	463,311	0,074	0,121
-94,045	-200,000	-0,029	-0,128
-93,030	38,821	0,039	-0,025
-92,016	-38,982	-0,131	-0,050
-91,001	10,863	-0,049	0,027
-89,986	31,401	0,040	0,025
-88,972	-67,871	0,099	0,028
-87,957	-24,047	-0,044	0,019
-86,943	86,024	-0,054	-0,043
-85,928	-200,000	-0,008	0,056
-84,913	-200,000	0,000	0,048
-83,899	20,807	-0,023	-0,013
-82,884	-173,113	-0,035	-0,001
-81,870	536,041	0,069	0,119
-80,855	-69,003	-0,047	-0,013
-79,840	174,349	0,027	-0,029
-78,826	-107,495	-0,134	0,021
-77,811	-200,000	0,007	-0,064
-76,797	-200,000	-0,009	-0,066
-75,782	-106,887	0,097	-0,015
-74,767	-200,000	0,001	0,111
-73,753	-200,000	-0,012	-0,118
-72,738	-200,000	0,001	-0,041
-71,724	7,155	-0,153	0,082
-70,709	391,654	-0,034	-0,051
-69,694	-22,621	-0,089	-0,039
-68,680	378,557	0,059	0,087
-67,665	11,071	0,059	-0,032
-66,651	-200,000	0,010	0,145
-65,636	-85,119	-0,081	0,018
-64,622	-73,911	-0,029	0,008
-63,607	-200,000	0,001	-0,083
-62,592	-17,193	-0,031	-0,014
-61,578	-166,984	0,157	-0,005
-60,563	45,680	0,099	0,067
-59,549	-161,808	-0,041	0,001
-58,534	-129,687	-1,304	-0,129
-57,519	538,409	-0,849	-1,470
-56,505	-200,000	-0,934	-4,449
-55,490	95,271	0,574	-0,474
-54,476	800,000	4,966	11,898
-53,461	-200,000	13,760	253,604
-52,446	-200,000	690,318	2257,098
-51,432	589,478	1622,207	2913,949
-50,417	118,953	1634,774	1466,324
-49,403	72,995	1288,803	976,184
-48,388	37,909	1024,012	659,156
-47,373	24,284	981,830	587,187
-46,359	23,490	971,478	578,368
-45,344	22,557	967,100	572,690
-44,330	22,447	965,684	571,469
-43,315	22,275	964,252	570,038
-42,300	22,303	963,412	569,611
-41,286	22,325	962,292	568,997
-40,271	22,272	961,406	568,279
-39,257	22,265	960,437	567,661
-38,242	22,256	959,583	567,102
-37,227	22,270	958,493	566,484
-36,213	22,246	957,641	565,879
-35,198	22,247	956,896	565,419
-34,184	22,320	956,221	565,233
-33,169	22,242	955,347	564,444
-32,154	22,321	954,405	564,119
-31,140	22,300	953,638	563,576
-30,125	22,359	952,783	563,238
-29,111	22,320	951,839	562,531
-28,096	22,400	951,047	562,299
-27,082	22,321	950,493	561,694
-26,067	22,400	949,841	561,540
-25,052	22,291	949,009	560,678
-24,038	22,333	948,475	560,474
-23,023	22,329	947,934	560,119
-22,009	22,319	947,284	559,681
-20,994	22,382	946,411	559,343
-19,979	22,364	945,923	558,975
-18,965	22,352	945,310	558,554
-17,950	22,349	944,526	558,060
-16,936	22,347	943,931	557,679
-15,921	22,186	943,477	556,875
-14,906	22,232	942,549	556,452
-13,892	22,243	941,992	556,135
-12,877	22,214	941,273	555,597
-11,863	22,182	940,636	555,096
-10,848	22,233	940,023	554,874
-9,833	22,313	939,526	554,815
-8,819	22,230	939,193	554,331
-7,804	22,264	938,250	553,860
-6,790	22,206	937,853	553,422
-5,775	22,195	937,189	552,972
-4,760	22,213	936,646	552,688
-3,746	22,183	935,998	552,188
-2,731	22,085	935,220	551,398
-1,717	22,022	934,550	550,783
-0,702	21,998	934,042	550,385
0,313	21,783	933,255	550,075
1,327	24,951	931,326	558,851
2,342	34,747	795,758	503,588
3,356	32,693	451,604	282,672
4,371	1,531	294,132	152,972
5,386	-2,799	274,807	138,809
6,400	-4,394	269,200	134,483
7,415	-4,890	266,712	132,772
8,429	-4,516	265,591	132,544
9,444	-4,482	264,521	132,030
10,459	-4,556	264,043	131,712
11,473	-4,872	263,460	131,123
12,488	-4,676	262,816	130,967
13,502	-4,819	262,310	130,575
14,517	-4,901	261,968	130,318
15,531	-4,784	261,541	130,200
16,546	-4,724	261,209	130,077
17,561	-4,522	260,688	129,988
18,575	-4,573	260,476	129,824
19,590	-4,706	260,206	129,559
20,604	-4,712	260,036	129,457
21,619	-4,815	259,663	129,168
22,634	-4,672	259,169	129,039
23,648	-4,855	258,988	128,773
24,663	-4,713	258,799	128,794
25,677	-4,490	258,437	128,802
26,692	-4,662	258,296	128,567
27,707	-4,587	257,942	128,446
28,721	-4,743	257,704	128,178
29,736	-4,789	257,494	128,021
30,750	-4,885	257,260	127,808
31,765	-4,959	257,029	127,616
32,780	-4,660	256,771	127,742
33,794	-5,001	256,660	127,373
34,809	-4,851	256,194	127,263
35,823	-4,808	255,870	127,128
36,838	-4,718	255,726	127,125
37,853	-5,070	255,655	126,768
38,867	-4,942	255,350	126,718
39,882	-4,877	255,031	126,606
40,896	-4,793	254,966	126,636
41,911	-4,871	254,561	126,355
42,926	-4,845	254,349	126,262
43,940	-5,021	254,172	126,009
44,955	-4,953	253,947	125,945
45,969	-4,907	253,719	125,861
46,984	-4,932	253,259	125,600
47,999	-5,528	253,350	125,114
49,013	-5,454	252,840	124,916
50,028	-5,681	252,616	124,596
51,042	-5,531	252,363	124,590
52,057	-5,713	252,251	124,366
53,071	-5,661	252,054	124,303
54,086	-5,531	251,880	124,319
55,101	-5,333	251,702	124,391
56,115	-5,264	251,585	124,382
57,130	-4,767	251,420	124,719
58,144	-4,614	251,363	124,812
59,159	-4,613	251,136	124,689
60,174	-4,584	250,830	124,551
61,188	-4,397	250,494	124,534
62,203	-4,590	250,450	124,335
63,217	-4,610	250,116	124,140
64,232	-4,660	250,173	124,115
65,247	-4,672	249,757	123,887
66,261	-4,653	249,707	123,868
67,276	-4,891	249,331	123,467
68,290	-5,116	248,998	123,098
69,305	-5,234	248,841	122,908
70,320	-5,273	248,733	122,811
71,334	-4,856	248,500	123,041
72,349	-4,742	248,538	123,146
73,363	-4,471	248,187	123,192
74,378	-4,598	248,133	123,046
75,393	-4,817	247,813	122,690
76,407	-4,803	247,779	122,674
77,422	-4,693	247,447	122,592
78,436	-4,668	247,334	122,547
79,451	-4,655	247,038	122,399
80,466	-4,552	246,607	122,262
81,480	-4,939	246,577	121,910
82,495	-5,018	246,367	121,728
83,509	-4,812	246,181	121,799
84,524	-4,994	246,110	121,600
85,539	-4,848	245,643	121,481
86,553	-5,049	245,500	121,231
87,568	-4,956	245,446	121,271
88,582	-5,043	245,321	121,125
89,597	-5,123	245,057	120,917
90,611	-4,935	244,984	121,028
91,626	-4,830	244,879	121,054
92,641	-4,948	244,634	120,823
93,655	-4,926	244,388	120,708
94,670	-5,062	244,237	120,510
95,684	-4,842	243,994	120,563
96,699	-5,032	243,770	120,282
97,714	-5,139	243,620	120,109
98,728	-5,170	243,556	120,040
99,743	-5,046	243,055	119,887
100,757	-5,161	242,943	119,725
101,772	-5,095	242,779	119,688
102,787	-5,172	242,717	119,583
103,801	-4,949	242,669	119,734
104,816	-4,763	242,384	119,737
105,830	-4,939	242,243	119,511
106,845	-4,895	242,062	119,447
107,860	-4,859	241,824	119,349
108,874	-5,066	241,733	119,122
109,889	-4,970	241,423	119,038
110,903	-4,933	241,198	118,947
111,918	-5,031	241,008	118,762
112,933	-5,003	240,915	118,728
113,947	-5,029	240,814	118,646
114,962	-4,963	240,773	118,670
115,976	-4,770	240,456	118,662
116,991	-4,875	240,157	118,417
118,006	-4,838	240,062	118,391
119,020	-4,876	239,903	118,270
120,035	-4,948	239,944	118,221
121,049	-4,732	239,693	118,264
122,064	-4,644	239,500	118,230
123,079	-4,735	239,329	118,061
124,093	-4,879	239,078	117,809
125,108	-5,098	238,811	117,488
126,122	-5,241	238,670	117,292
127,137	-5,190	238,356	117,168
128,151	-5,289	238,378	117,088
129,166	-4,965	238,056	117,183
130,181	-5,229	237,989	116,924
131,195	-5,252	237,792	116,799
132,210	-5,015	237,700	116,936
133,224	-4,821	237,460	116,964
134,239	-4,917	237,264	116,780
135,254	-5,076	237,290	116,653
136,268	-5,002	236,913	116,518
137,283	-5,177	236,581	116,203
138,297	-5,364	236,480	115,992
139,312	-5,206	236,204	115,973
140,327	-4,923	236,329	116,253
141,341	-4,720	236,360	116,421
142,356	-4,514	236,156	116,476
143,370	-4,464	235,930	116,394
144,385	-4,461	235,668	116,258
145,400	-4,419	235,536	116,216
146,414	-4,443	235,446	116,141
147,429	-4,656	235,133	115,806
148,443	-4,521	235,033	115,854
149,458	-4,692	234,971	115,677
150,473	-4,673	234,642	115,520
151,487	-4,732	234,503	115,393
152,502	-4,593	234,332	115,410
153,516	-4,542	234,183	115,367
154,531	-4,587	233,963	115,213
155,546	-4,645	233,902	115,126
156,560	-4,721	233,644	114,929
157,575	-4,749	233,397	114,774
158,589	-4,872	233,244	114,592
159,604	-4,714	233,320	114,744
160,619	-4,505	233,027	114,756
161,633	-4,453	233,017	114,782
162,648	-4,601	232,890	114,591
163,662	-4,454	232,600	114,556
164,677	-4,533	232,398	114,383
165,692	-4,533	232,298	114,323
166,706	-4,508	232,222	114,295
167,721	-4,334	231,826	114,228
168,735	-4,444	231,857	114,146
169,750	-4,503	231,696	114,010
170,764	-4,501	231,537	113,923
171,779	-4,248	231,341	114,015
172,794	-4,570	231,276	113,720
173,808	-4,562	231,090	113,625
174,823	-5,137	230,567	112,907
175,837	-5,098	230,442	112,866
176,852	-4,850	230,407	113,033
177,867	-4,560	230,424	113,258
178,881	-4,519	230,333	113,236
179,896	-4,417	230,242	113,261
180,910	-4,527	229,945	113,018
181,925	-4,373	229,783	113,050
182,940	-4,513	229,707	112,893
183,954	-4,406	229,443	112,836
184,969	-4,309	229,219	112,791
185,983	-4,539	229,241	112,613
186,998	-4,310	228,978	112,652
188,013	-4,367	228,992	112,604
189,027	-4,367	228,726	112,464
190,042	-4,452	228,658	112,354
191,056	-4,149	228,499	112,501
192,071	-4,388	228,167	112,142
193,086	-4,444	228,190	112,100
194,100	-4,259	228,015	112,147
195,115	-4,644	227,487	111,581
196,129	-5,581	227,500	110,854
197,144	-2,243	228,323	113,831
198,159	1,940	229,575	117,697
199,173	4,271	230,102	119,769
200,188	4,475	230,034	119,882
201,202	4,324	229,839	119,652
202,217	4,643	229,690	119,811
203,232	4,765	229,599	119,847
204,246	4,894	229,550	119,911
205,261	4,964	229,338	119,844
206,275	5,021	229,281	119,847
207,290	5,170	229,054	119,833
208,304	4,898	229,054	119,612
209,319	4,966	228,837	119,540
210,334	4,818	228,551	119,266
211,348	4,427	228,278	118,813
212,363	4,226	227,997	118,502
213,377	3,761	227,957	118,112
214,392	4,024	227,687	118,164
215,407	4,120	227,510	118,135
216,421	4,235	227,361	118,135
217,436	4,148	227,249	117,999
218,450	3,867	227,067	117,679
219,465	3,813	226,851	117,516
220,480	3,935	226,812	117,579
221,494	3,798	226,727	117,420
222,509	4,078	226,508	117,510
223,523	4,043	226,353	117,392
224,538	4,009	226,197	117,274
225,553	4,145	226,046	117,289
226,567	4,244	226,136	117,401
227,582	4,295	225,839	117,275
228,596	4,492	225,650	117,316
229,611	4,383	225,532	117,161
230,626	3,957	225,289	116,702
231,640	3,781	225,218	116,521
232,655	4,139	225,164	116,753
233,669	4,734	225,084	117,152
234,684	4,853	224,910	117,142
235,699	4,557	224,738	116,817
236,713	4,215	224,543	116,447
237,728	3,915	224,471	116,173
238,742	3,856	224,335	116,049
239,757	4,105	223,905	116,003
240,772	4,257	223,765	116,035
241,786	4,158	223,807	115,971
242,801	4,255	223,744	116,001
243,815	4,409	223,601	116,032
244,830	4,211	223,510	115,827
245,844	4,266	223,271	115,733
246,859	4,407	222,937	115,656
247,874	4,435	222,862	115,627
248,888	4,543	222,785	115,658
249,903	4,194	222,657	115,320
250,917	3,934	222,555	115,062
251,932	4,168	222,334	115,113
252,947	4,093	222,111	114,931
253,961	4,130	221,951	114,866
254,976	3,908	221,853	114,639
255,990	4,583	221,697	115,051
257,005	4,340	221,611	114,815
258,020	3,983	221,642	114,555
259,034	4,500	221,473	114,842
260,049	4,534	221,242	114,737
261,063	4,297	221,198	114,528
262,078	4,491	221,056	114,589
263,093	4,515	220,809	114,468
264,107	4,411	220,549	114,246
265,122	4,177	220,699	114,140
266,136	4,579	220,416	114,281
267,151	4,484	220,250	114,115
268,166	4,430	219,927	113,898
269,180	3,957	219,854	113,500
270,195	3,952	219,693	113,404
271,209	3,917	219,630	113,335
272,224	4,221	219,487	113,475
273,239	4,362	219,231	113,436
274,253	4,011	219,167	113,135
275,268	3,770	219,102	112,915
276,282	3,835	218,820	112,807
277,297	3,849	218,614	112,701
278,312	3,873	218,476	112,637
279,326	4,033	218,481	112,746
280,341	3,999	218,340	112,639
281,355	4,004	218,283	112,604
282,370	4,067	217,989	112,487
283,384	3,903	217,882	112,303
284,399	3,859	217,763	112,199
285,414	3,777	217,615	112,053
286,428	4,028	217,506	112,170
287,443	4,340	217,408	112,337
288,457	4,302	217,272	112,229
289,472	4,169	217,061	112,013
290,487	3,797	216,750	111,572
291,501	3,578	216,645	111,350
292,516	3,674	216,573	111,372
293,530	3,681	216,494	111,327
294,545	3,731	216,386	111,297
295,560	3,909	216,231	111,336
296,574	4,107	216,044	111,373
297,589	4,173	215,905	111,340
298,603	4,210	215,771	111,288
299,618	4,185	215,624	111,184
300,633	4,097	215,555	111,075
301,647	4,266	215,492	111,154
302,662	4,309	215,327	111,090
303,676	4,176	215,275	110,957
304,691	4,296	215,110	110,950
305,706	4,514	214,912	110,993
306,720	4,536	214,837	110,961
307,735	4,125	214,653	110,561
308,749	3,931	214,435	110,300
309,764	4,077	214,367	110,359
310,779	4,272	214,364	110,488
311,793	4,286	213,971	110,286
312,808	4,310	213,939	110,276
313,822	4,343	213,796	110,216
314,837	3,990	213,513	109,809
315,852	3,877	213,462	109,693
316,866	3,964	213,388	109,706
317,881	4,281	213,230	109,842
318,895	4,363	213,075	109,810
319,910	4,218	212,875	109,594
320,925	3,828	212,797	109,266
321,939	3,688	212,512	109,011
322,954	3,755	212,500	109,043
323,968	4,101	212,395	109,225
324,983	3,959	212,378	109,106
325,997	4,300	212,188	109,240
327,012	4,054	212,154	109,038
328,027	4,038	212,047	108,962
329,041	4,351	211,908	109,103
330,056	4,590	211,767	109,189
331,070	4,427	211,356	108,852
332,085	3,908	211,152	108,373
333,100	4,175	211,085	108,516
334,114	4,161	211,101	108,505
335,129	4,193	210,843	108,385
336,143	3,975	210,691	108,144
337,158	3,677	210,667	107,913
338,173	4,103	210,418	108,075
339,187	3,813	210,246	107,773
340,202	3,663	210,163	107,616
341,216	3,874	210,032	107,687
342,231	3,886	209,915	107,626
343,246	3,770	209,816	107,484
344,260	3,803	209,634	107,405
345,275	4,030	209,625	107,549
346,289	4,279	209,509	107,654
347,304	4,130	209,300	107,433
348,319	4,150	209,245	107,409
349,333	4,016	209,069	107,216
350,348	4,156	208,973	107,254
351,362	4,253	208,766	107,206
352,377	4,160	208,663	107,079
353,392	3,843	208,559	106,796
354,406	4,208	208,347	106,931
355,421	193,853	1344,395	1432,925
356,435	154,670	1482,920	1433,039
