DTS Sentinel unit serial number:	SN410029Multiplexer serial number:	ORYXHardware model number:	OX2-SRSoftware version number:	ORYX F/W v4,00 Oryx Data Collector v3.7.2.0data status	okinstallation	B6 Nyhavnadifferential loss correction	single-endedforward channel	channel 2reverse channel	N/Adate	2023/12/09time	16:35:08forward acquisition time	300,00reverse acquisition time	0,00gamma	499,1914k internal	0,3132k external	0,3132temperature offset calibration	1,0000default loss term (dB/km)	0,3820temperature slope calibration	1,0000multiplexer offset coefficient	1,0000multiplexer slope coefficient	1,0000fibre end	0,00T internal ref (°C)	20,89T ext. ref 1 (°C)	4,69T ext. ref 2 (°C)	4,68length (m)	temperature (°C)	Stokes	anti-Stokes-744,400	449,192	0,086	-0,142
-743,385	-15,683	-0,217	0,103
-742,371	-1,244	0,196	0,103
-741,356	-3,676	-0,187	0,096
-740,342	151,934	0,040	-0,040
-739,327	-156,241	-0,310	0,014
-738,312	340,396	0,116	-0,168
-737,298	-126,779	-0,425	-0,046
-736,283	375,120	0,077	-0,118
-735,269	-15,718	-0,229	0,108
-734,254	-100,873	0,022	-0,004
-733,239	-126,456	-0,432	-0,047
-732,225	221,090	0,062	0,074
-731,210	125,407	-0,013	-0,012
-730,196	800,000	-0,071	-0,216
-729,181	-147,609	-0,210	0,013
-728,167	-157,000	0,014	0,001
-727,152	800,000	-0,063	-0,155
-726,137	-200,000	0,000	0,079
-725,123	434,418	-0,042	-0,068
-724,108	-71,948	-0,074	-0,020
-723,094	9,485	0,011	-0,006
-722,079	-6,173	-0,088	-0,044
-721,064	-121,874	-0,124	-0,015
-720,050	-200,000	-0,018	-0,076
-719,035	95,788	-0,102	0,086
-718,021	255,291	-0,018	-0,023
-717,006	-200,000	-0,129	0,000
-715,991	88,463	-0,167	-0,137
-714,977	800,000	0,017	-0,050
-713,962	-200,000	-0,017	0,118
-712,948	-177,574	0,060	0,001
-711,933	-200,000	-0,017	-0,075
-710,918	-66,220	-0,045	-0,013
-709,904	-82,412	0,026	0,006
-708,889	378,440	-0,077	-0,117
-707,875	72,920	-0,147	-0,114
-706,860	-200,000	-0,038	-0,129
-705,845	-200,000	0,008	0,050
-704,831	323,062	0,035	0,050
-703,816	-109,005	-0,021	0,003
-702,802	50,772	-0,080	0,056
-701,787	137,597	-0,054	-0,053
-700,772	-145,113	0,032	0,002
-699,758	465,987	0,052	0,086
-698,743	412,178	-0,036	0,056
-697,729	235,037	0,065	0,079
-696,714	373,442	-0,045	-0,069
-695,699	-156,564	-0,093	-0,004
-694,685	550,458	-0,037	0,066
-693,670	258,722	-0,021	0,026
-692,656	10,485	0,027	0,015
-691,641	-49,526	0,021	-0,007
-690,627	103,032	0,078	0,068
-689,612	-128,028	0,060	-0,006
-688,597	-200,000	0,013	0,144
-687,583	262,893	-0,094	-0,121
-686,568	-11,017	-0,054	-0,026
-685,554	1,137	-0,114	0,061
-684,539	129,721	-0,055	-0,052
-683,524	25,765	0,033	-0,020
-682,510	-98,530	0,022	0,004
-681,495	-147,209	-0,149	-0,009
-680,481	-200,000	-0,038	0,000
-679,466	-29,923	-0,095	-0,040
-678,451	-200,000	-0,009	-0,042
-677,437	800,000	0,026	-0,077
-676,422	-33,352	-0,091	-0,037
-675,408	-73,154	-0,068	-0,018
-674,393	45,381	-0,107	-0,073
-673,378	-200,000	0,036	-0,149
-672,364	-200,000	0,033	-0,138
-671,349	153,713	-0,051	0,052
-670,335	11,011	-0,061	0,034
-669,320	-200,000	0,041	-0,192
-668,305	-131,230	0,066	-0,006
-667,291	112,926	0,060	0,054
-666,276	-90,511	0,033	-0,007
-665,262	-113,553	-0,102	0,015
-664,247	-17,329	-0,140	-0,065
-663,232	12,713	-0,085	0,049
-662,218	50,499	-0,052	-0,036
-661,203	670,250	-0,054	0,104
-660,189	-186,618	-0,114	0,001
-659,174	800,000	-0,062	-0,183
-658,159	-200,000	-0,014	-0,052
-657,145	56,229	-0,067	-0,048
-656,130	-200,000	0,011	0,065
-655,116	-50,233	0,057	0,020
-654,101	39,789	0,085	0,056
-653,086	800,000	0,034	-0,091
-652,072	165,510	-0,046	-0,048
-651,057	800,000	0,036	-0,110
-650,043	-106,385	-0,075	-0,012
-649,028	61,858	0,105	0,077
-648,014	-53,373	-0,062	-0,021
-646,999	37,973	0,114	0,075
-645,984	-200,000	-0,021	-0,073
-644,970	-7,883	0,100	-0,050
-643,955	0,248	-0,122	0,064
-642,941	-171,491	-0,098	0,002
-641,926	208,837	0,104	-0,121
-640,911	44,999	-0,181	-0,123
-639,897	61,060	0,074	-0,054
-638,882	-200,000	-0,022	-0,134
-637,868	431,584	-0,043	0,070
-636,853	48,601	-0,037	-0,026
-635,838	800,000	-0,032	-0,100
-634,824	800,000	-0,021	0,045
-633,809	-132,061	-0,071	-0,007
-632,795	800,000	-0,018	-0,041
-631,780	800,000	0,032	-0,082
-630,765	-61,274	0,074	-0,023
-629,751	800,000	-0,070	0,211
-628,736	-70,069	0,129	-0,036
-627,722	-17,234	0,117	-0,055
-626,707	-21,552	0,112	-0,051
-625,692	-200,000	-0,020	-0,115
-624,678	120,185	0,059	0,055
-623,663	800,000	0,079	0,174
-622,649	119,485	-0,009	-0,008
-621,634	-200,000	-0,011	0,146
-620,619	170,922	-0,079	-0,084
-619,605	-1,138	-0,089	0,046
-618,590	-45,417	0,023	0,008
-617,576	174,866	0,048	-0,051
-616,561	339,426	-0,082	-0,118
-615,546	-200,000	0,002	0,021
-614,532	-179,015	0,093	0,002
-613,517	285,290	-0,091	-0,122
-612,503	237,725	0,038	0,047
-611,488	-117,391	0,078	0,010
-610,474	53,046	-0,140	-0,099
-609,459	78,955	0,088	0,069
-608,444	800,000	0,064	-0,132
-607,430	-64,256	-0,113	-0,034
-606,415	-200,000	0,008	0,057
-605,401	63,709	0,049	0,036
-604,386	-200,000	0,039	0,138
-603,371	-200,000	-0,008	-0,153
-602,357	-200,000	-0,005	0,089
-601,342	-200,000	-0,009	-0,085
-600,328	73,987	-0,123	-0,095
-599,313	-166,887	-0,081	-0,002
-598,298	-200,000	0,000	0,068
-597,284	800,000	0,009	0,028
-596,269	-200,000	-0,014	0,077
-595,255	49,003	-0,126	0,088
-594,240	525,588	-0,069	-0,121
-593,225	393,621	-0,042	-0,065
-592,211	566,139	-0,113	-0,203
-591,196	-117,690	0,118	0,016
-590,182	-185,241	0,049	-0,001
-589,167	800,000	0,051	0,121
-588,152	-44,965	0,075	0,027
-587,138	-98,027	0,097	0,018
-586,123	220,033	-0,048	-0,057
-585,109	-200,000	-0,029	-0,193
-584,094	800,000	-0,049	-0,105
-583,079	800,000	-0,033	0,081
-582,065	244,418	0,058	0,072
-581,050	215,385	-0,057	0,066
-580,036	391,382	-0,054	-0,083
-579,021	152,637	0,097	-0,098
-578,006	52,856	0,022	-0,015
-576,992	-133,796	0,112	-0,010
-575,977	-8,388	0,039	-0,019
-574,963	85,594	0,147	-0,119
-573,948	800,000	-0,030	-0,078
-572,934	-200,000	-0,012	0,057
-571,919	374,326	0,017	-0,026
-570,904	-95,990	-0,060	0,012
-569,890	800,000	0,030	-0,095
-568,875	-200,000	-0,040	-0,206
-567,861	800,000	0,045	0,118
-566,846	101,884	0,081	0,070
-565,831	453,699	-0,031	0,051
-564,817	-200,000	0,011	-0,108
-563,802	-200,000	0,005	-0,035
-562,788	-77,183	-0,048	-0,012
-561,773	-200,000	-0,017	0,122
-560,758	-200,000	0,005	-0,079
-559,744	-92,403	0,138	-0,028
-558,729	800,000	0,052	0,115
-557,715	258,809	0,008	-0,010
-556,700	274,092	-0,074	0,097
-555,685	-26,897	-0,086	-0,037
-554,671	87,493	-0,107	-0,087
-553,656	-44,877	0,066	-0,024
-552,642	800,000	0,020	0,042
-551,627	-200,000	0,029	0,112
-550,612	-38,328	-0,090	0,035
-549,598	-200,000	0,010	-0,128
-548,583	103,158	0,044	-0,038
-547,569	-65,562	-0,082	-0,024
-546,554	-200,000	0,017	-0,117
-545,539	-74,792	-0,051	0,013
-544,525	356,684	0,020	0,030
-543,510	-159,018	0,084	0,003
-542,496	62,939	-0,088	-0,065
-541,481	379,797	-0,053	-0,081
-540,466	-183,278	-0,076	0,001
-539,452	-20,029	0,161	-0,073
-538,437	-200,000	-0,000	0,157
-537,423	0,869	-0,123	0,065
-536,408	56,766	-0,053	-0,038
-535,393	23,850	-0,072	-0,044
-534,379	-200,000	0,007	0,038
-533,364	-200,000	0,026	-0,133
-532,350	-102,894	0,052	0,009
-531,335	-107,011	-0,015	0,002
-530,321	-200,000	0,021	-0,090
-529,306	509,638	0,069	-0,118
-528,291	-200,000	-0,003	0,024
-527,277	12,286	-0,150	-0,085
-526,262	190,200	0,102	-0,113
-525,248	445,499	0,093	0,151
-524,233	800,000	0,010	-0,021
-523,218	-60,882	-0,057	0,018
-522,204	-35,266	-0,072	0,029
-521,189	800,000	0,023	0,050
-520,175	-87,364	-0,080	-0,018
-519,160	-130,273	0,062	0,006
-518,145	-27,738	0,074	0,031
-517,131	-120,947	-0,045	-0,006
-516,116	141,359	-0,011	-0,010
-515,102	-200,000	0,001	0,061
-514,087	778,403	-0,046	-0,093
-513,072	-5,066	-0,092	-0,046
-512,058	-141,751	-0,103	0,008
-511,043	-98,425	-0,016	0,003
-510,029	-200,000	-0,018	-0,115
-509,014	800,000	0,034	0,103
-507,999	157,804	-0,034	-0,034
-506,985	-14,389	-0,083	0,039
-505,970	1,211	-0,065	-0,034
-504,956	232,384	-0,118	0,143
-503,941	800,000	-0,018	-0,043
-502,926	-53,238	0,144	-0,048
-501,912	226,295	0,074	0,089
-500,897	-86,334	0,141	-0,032
-499,883	-20,069	-0,120	-0,054
-498,868	74,075	-0,138	-0,107
-497,853	-200,000	0,002	-0,089
-496,839	-153,655	0,089	-0,004
-495,824	26,530	0,084	-0,052
-494,810	668,353	-0,046	0,088
-493,795	-78,299	-0,143	-0,036
-492,781	-200,000	0,015	-0,056
-491,766	-120,579	-0,072	-0,009
-490,751	800,000	0,026	-0,058
-489,737	-200,000	-0,017	-0,155
-488,722	-138,142	0,067	0,005
-487,708	316,810	0,034	-0,047
-486,693	-131,315	0,025	0,002
-485,678	127,253	0,056	-0,052
-484,664	-106,314	-0,147	0,024
-483,649	-155,943	-0,129	0,006
-482,635	-108,410	-0,072	-0,011
-481,620	795,642	-0,042	-0,085
-480,605	-95,376	0,087	0,017
-479,591	-200,000	-0,008	0,120
-478,576	-199,985	-0,150	0,001
-477,562	-200,000	-0,043	-0,141
-476,547	-91,873	-0,109	0,022
-475,532	227,145	-0,091	-0,109
-474,518	800,000	-0,038	-0,099
-473,503	689,515	-0,031	0,061
-472,489	-200,000	-0,017	0,087
-471,474	800,000	0,009	-0,025
-470,459	-200,000	-0,002	-0,100
-469,445	-135,476	-0,169	-0,015
-468,430	-200,000	0,001	-0,049
-467,416	31,086	0,160	-0,101
-466,401	430,086	0,022	-0,035
-465,386	179,137	-0,065	0,070
-464,372	376,058	-0,031	-0,047
-463,357	800,000	-0,035	-0,078
-462,343	-200,000	-0,001	-0,122
-461,328	-200,000	0,000	-0,146
-460,313	215,561	0,070	-0,082
-459,299	300,472	0,031	-0,043
-458,284	208,829	-0,059	-0,068
-457,270	-200,000	-0,002	0,036
-456,255	71,326	-0,047	-0,036
-455,241	-138,804	-0,164	-0,013
-454,226	187,675	-0,041	-0,044
-453,211	463,255	0,050	-0,082
-452,197	280,925	-0,016	0,021
-451,182	2,112	0,100	0,053
-450,168	-200,000	0,016	0,078
-449,153	-164,390	0,055	0,002
-448,138	800,000	0,015	-0,036
-447,124	53,262	-0,079	-0,055
-446,109	280,895	0,096	0,126
-445,095	348,550	0,038	-0,055
-444,080	-3,874	0,055	-0,028
-443,065	-111,722	0,052	-0,008
-442,051	110,134	0,091	-0,080
-441,036	-200,000	0,009	0,071
-440,022	800,000	-0,044	0,107
-439,007	-200,000	0,018	0,113
-437,992	-6,954	0,053	-0,026
-436,978	800,000	0,039	0,099
-435,963	800,000	0,058	0,128
-434,949	15,149	-0,148	-0,085
-433,934	185,189	-0,045	-0,049
-432,919	-41,935	0,075	-0,028
-431,905	-200,000	0,030	0,099
-430,890	89,407	0,048	-0,039
-429,876	800,000	0,045	0,094
-428,861	800,000	0,033	0,102
-427,846	52,805	-0,027	0,019
-426,832	-200,000	-0,016	0,058
-425,817	-156,050	0,071	-0,003
-424,803	288,367	0,008	0,011
-423,788	203,319	0,146	-0,166
-422,773	-200,000	0,011	0,125
-421,759	38,816	-0,077	0,050
-420,744	751,679	0,045	-0,090
-419,730	-154,274	0,049	-0,002
-418,715	-25,234	0,137	0,059
-417,701	-200,000	0,000	0,085
-416,686	-129,346	0,012	0,001
-415,671	-119,842	0,155	0,019
-414,657	-42,889	0,056	0,021
-413,642	-200,000	-0,007	0,078
-412,628	-37,522	-0,080	0,031
-411,613	-33,628	0,053	-0,021
-410,598	-99,265	-0,119	-0,022
-409,584	49,639	0,072	-0,049
-408,569	772,579	0,066	0,133
-407,555	109,945	-0,033	-0,029
-406,540	-88,040	0,017	0,004
-405,525	-200,000	-0,004	0,057
-404,511	-66,513	-0,130	0,038
-403,496	-200,000	-0,003	-0,091
-402,482	-200,000	0,025	-0,108
-401,467	-134,377	0,195	-0,017
-400,452	7,580	0,039	-0,021
-399,438	-60,063	-0,067	0,021
-398,423	-200,000	-0,002	0,027
-397,409	280,504	-0,155	0,204
-396,394	-111,840	-0,025	0,004
-395,379	230,740	0,040	-0,048
-394,365	-142,116	-0,072	0,005
-393,350	15,942	0,151	0,087
-392,336	800,000	-0,021	-0,046
-391,321	800,000	-0,036	-0,085
-390,306	-43,240	-0,081	-0,030
-389,292	168,717	-0,065	0,068
-388,277	-200,000	0,015	-0,121
-387,263	224,718	0,067	-0,080
-386,248	101,705	0,076	0,065
-385,233	-120,115	-0,048	-0,006
-384,219	-200,000	0,001	0,082
-383,204	-13,622	0,008	0,004
-382,190	800,000	-0,019	0,039
-381,175	800,000	-0,032	0,078
-380,160	-149,829	-0,103	0,006
-379,146	800,000	-0,012	0,028
-378,131	-7,850	-0,068	0,034
-377,117	257,213	0,095	0,120
-376,102	243,812	0,069	-0,085
-375,088	800,000	-0,018	-0,050
-374,073	800,000	-0,035	0,096
-373,058	73,672	-0,096	0,074
-372,044	-61,715	-0,058	0,018
-371,029	182,146	0,113	0,122
-370,015	-107,936	-0,067	-0,010
-369,000	84,374	-0,040	0,032
-367,985	-42,812	0,077	0,028
-366,971	-88,855	-0,069	-0,015
-365,956	-67,860	0,163	-0,046
-364,942	272,559	0,018	-0,024
-363,927	800,000	0,057	0,131
-362,912	-200,000	0,002	0,068
-361,898	107,801	-0,064	0,056
-360,883	-200,000	0,006	0,030
-359,869	800,000	-0,019	0,058
-358,854	-13,821	0,040	0,019
-357,839	144,508	-0,029	0,028
-356,825	124,733	0,055	0,051
-355,810	231,017	-0,032	0,038
-354,796	178,893	0,062	-0,067
-353,781	5,294	0,015	-0,008
-352,766	-49,212	-0,148	0,051
-351,752	800,000	0,015	0,036
-350,737	-50,428	-0,051	0,018
-349,723	29,302	0,049	0,030
-348,708	-200,000	-0,001	0,112
-347,693	-171,734	0,095	0,002
-346,679	-69,931	-0,184	-0,051
-345,664	-12,298	0,055	0,026
-344,650	279,211	0,030	0,040
-343,635	-7,887	0,076	-0,037
-342,620	-4,645	0,020	-0,010
-341,606	-145,176	-0,235	-0,015
-340,591	194,815	0,049	-0,055
-339,577	455,264	-0,066	-0,107
-338,562	-200,000	-0,002	-0,118
-337,548	800,000	0,029	-0,076
-336,533	-200,000	0,070	0,234
-335,518	352,141	0,105	0,152
-334,504	-98,970	-0,088	-0,016
-333,489	204,215	-0,074	0,084
-332,475	337,528	-0,043	-0,062
-331,460	322,245	0,030	0,041
-330,445	800,000	0,039	-0,083
-329,431	-103,734	0,163	-0,028
-328,416	-17,158	-0,051	-0,023
-327,402	122,062	-0,078	0,071
-326,387	510,751	0,072	-0,123
-325,372	439,914	-0,014	-0,023
-324,358	-200,000	-0,007	0,046
-323,343	387,802	-0,031	0,047
-322,329	-130,998	0,058	0,006
-321,314	-200,000	0,013	0,111
-320,299	5,821	-0,069	-0,037
-319,285	-200,000	0,020	0,102
-318,270	-115,138	-0,105	0,014
-317,256	-200,000	-0,007	-0,027
-316,241	-200,000	0,013	0,099
-315,226	-26,834	-0,036	-0,015
-314,212	-82,192	-0,127	0,030
-313,197	-7,744	0,100	0,049
-312,183	-98,476	-0,167	0,031
-311,168	800,000	0,017	-0,054
-310,153	-68,698	-0,113	0,032
-309,139	-76,803	-0,039	0,010
-308,124	45,578	0,060	0,041
-307,110	-7,131	0,189	0,093
-306,095	43,655	0,070	-0,047
-305,080	-200,000	-0,006	-0,096
-304,066	800,000	0,052	0,122
-303,051	-65,130	0,066	0,019
-302,037	13,252	0,083	0,047
-301,022	-200,000	-0,013	-0,115
-300,008	87,997	-0,036	0,029
-298,993	-200,000	-0,016	0,167
-297,978	-200,000	0,004	0,032
-296,964	-200,000	0,025	-0,081
-295,949	17,139	0,015	-0,009
-294,935	102,146	-0,026	-0,022
-293,920	701,650	-0,042	0,081
-292,905	-200,000	0,004	0,056
-291,891	593,557	-0,032	-0,059
-290,876	-20,132	0,043	-0,019
-289,862	196,172	-0,064	-0,071
-288,847	-105,803	-0,036	0,006
-287,832	800,000	0,024	0,060
-286,818	800,000	-0,013	0,030
-285,803	-85,684	-0,064	0,014
-284,789	-66,411	-0,087	-0,025
-283,774	-200,000	0,008	0,040
-282,759	179,707	0,050	0,053
-281,745	-108,664	0,045	-0,007
-280,730	-200,000	-0,022	-0,108
-279,716	800,000	-0,014	0,031
-278,701	-8,305	0,118	-0,058
-277,686	800,000	0,024	-0,052
-276,672	-200,000	0,014	0,078
-275,657	-200,000	0,011	0,090
-274,643	436,320	0,037	-0,058
-273,628	-98,332	-0,112	-0,021
-272,613	-111,314	0,037	-0,005
-271,599	200,678	0,059	-0,066
-270,584	-18,240	-0,155	-0,070
-269,570	-200,000	-0,009	0,042
-268,555	-200,000	0,014	-0,135
-267,540	-200,000	0,017	0,150
-266,526	-115,280	0,119	0,016
-265,511	-80,012	0,058	0,014
-264,497	-110,644	0,203	0,030
-263,482	395,324	0,015	0,023
-262,467	-134,526	-0,130	0,011
-261,453	67,116	0,100	0,074
-260,438	-200,000	-0,018	0,091
-259,424	20,050	-0,064	-0,038
-258,409	-16,086	0,025	0,012
-257,395	800,000	0,026	0,063
-256,380	-25,550	-0,031	-0,013
-255,365	-85,715	0,172	0,039
-254,351	-188,240	0,014	-0,000
-253,336	416,067	0,010	0,016
-252,322	286,619	-0,045	-0,059
-251,307	94,670	-0,078	-0,065
-250,292	-34,689	0,075	-0,030
-249,278	444,077	0,067	0,107
-248,263	800,000	0,053	0,154
-247,249	-200,000	-0,021	0,080
-246,234	300,980	-0,012	0,016
-245,219	-200,000	0,001	-0,047
-244,205	-200,000	0,010	0,100
-243,190	-109,394	0,026	0,004
-242,176	-200,000	0,029	-0,100
-241,161	-200,000	0,004	-0,013
-240,146	800,000	0,042	0,119
-239,132	544,647	-0,052	0,090
-238,117	-143,323	-0,062	0,004
-237,103	120,299	-0,033	-0,030
-236,088	10,253	0,042	0,023
-235,073	175,015	0,098	-0,104
-234,059	800,000	0,031	0,082
-233,044	-51,657	-0,077	0,026
-232,030	8,108	0,036	-0,019
-231,015	-19,989	-0,068	-0,031
-230,000	-200,000	-0,019	0,073
-228,986	-9,444	-0,045	-0,022
-227,971	-200,000	0,000	-0,004
-226,957	171,193	-0,063	0,066
-225,942	7,246	-0,127	0,069
-224,927	57,392	-0,020	0,014
-223,913	135,515	-0,049	0,047
-222,898	261,421	0,061	-0,078
-221,884	364,191	0,144	-0,212
-220,869	51,691	-0,090	0,062
-219,855	-200,000	0,041	0,151
-218,840	-157,908	-0,038	0,002
-217,825	6,584	0,131	0,070
-216,811	500,996	-0,029	-0,049
-215,796	-200,000	0,008	0,044
-214,782	-200,000	0,005	0,046
-213,767	800,000	0,078	0,203
-212,752	258,023	0,024	0,030
-211,738	-200,000	-0,005	0,051
-210,723	-132,321	0,082	-0,008
-209,709	5,653	0,022	-0,012
-208,694	-110,548	-0,101	0,015
-207,679	16,373	-0,049	0,028
-206,665	-200,000	-0,005	0,048
-205,650	239,201	0,104	0,126
-204,636	-191,485	0,077	-0,001
-203,621	111,370	-0,059	-0,052
-202,606	800,000	0,040	-0,082
-201,592	635,728	-0,054	-0,100
-200,577	600,705	-0,064	-0,117
-199,563	-81,293	0,043	-0,010
-198,548	-186,869	-0,056	-0,001
-197,533	-200,000	0,010	0,065
-196,519	-158,745	0,105	0,004
-195,504	-200,000	0,020	-0,081
-194,490	220,070	0,048	-0,056
-193,475	177,752	-0,052	-0,055
-192,460	-173,739	0,081	0,002
-191,446	-200,000	0,024	-0,089
-190,431	98,210	0,053	0,044
-189,417	78,730	-0,054	0,042
-188,402	-126,731	-0,224	0,024
-187,387	35,804	-0,082	0,052
-186,373	155,472	-0,049	-0,050
-185,358	163,678	0,011	0,011
-184,344	90,916	0,074	0,060
-183,329	800,000	0,038	0,076
-182,315	800,000	0,033	-0,082
-181,300	73,725	0,068	-0,051
-180,285	540,430	0,055	-0,095
-179,271	135,867	0,024	0,023
-178,256	-35,222	-0,141	-0,056
-177,242	167,062	-0,063	0,065
-176,227	-200,000	0,005	0,053
-175,212	800,000	0,020	-0,047
-174,198	-200,000	0,007	-0,041
-173,183	-102,007	0,112	0,019
-172,169	800,000	0,038	-0,084
-171,154	189,839	0,081	-0,088
-170,139	-200,000	0,025	-0,088
-169,125	-106,458	0,055	-0,009
-168,110	65,908	-0,052	0,038
-167,096	-33,844	-0,191	-0,076
-166,081	800,000	-0,033	0,080
-165,066	-66,299	-0,041	-0,012
-164,052	336,347	-0,044	-0,062
-163,037	-200,000	0,000	-0,169
-162,023	-66,482	0,136	0,039
-161,008	800,000	0,059	0,140
-159,993	-57,980	0,053	-0,017
-158,979	168,551	-0,096	0,100
-157,964	-106,142	0,057	-0,009
-156,950	-200,000	0,002	0,042
-155,935	-96,275	0,039	-0,007
-154,920	632,206	0,008	0,014
-153,906	348,909	-0,095	0,136
-152,891	-200,000	-0,001	0,063
-151,877	256,140	0,048	-0,060
-150,862	-64,664	-0,082	0,024
-149,847	-200,000	0,017	0,066
-148,833	-30,066	-0,089	-0,037
-147,818	459,895	0,044	0,071
-146,804	-200,000	-0,037	-0,178
-145,789	112,585	0,103	0,091
-144,775	-200,000	-0,002	0,154
-143,760	-114,515	0,154	-0,021
-142,745	800,000	-0,053	-0,154
-141,731	-18,838	0,145	-0,065
-140,716	61,754	0,142	0,103
-139,702	-20,510	0,040	0,018
-138,687	-130,923	0,017	-0,002
-137,672	800,000	0,027	0,060
-136,658	-142,322	-0,147	-0,010
-135,643	-12,604	-0,089	0,042
-134,629	-44,635	0,117	-0,042
-133,614	-200,000	-0,006	0,118
-132,599	121,813	-0,048	-0,044
-131,585	-122,156	0,153	0,018
-130,570	720,725	0,059	0,114
-129,556	-10,687	0,060	0,029
-128,541	89,501	-0,118	-0,095
-127,526	152,590	-0,136	0,135
-126,512	185,378	-0,094	-0,102
-125,497	-80,602	0,145	0,035
-124,483	-56,662	-0,121	0,039
-123,468	93,331	0,040	0,033
-122,453	36,182	-0,006	-0,004
-121,439	-103,729	-0,141	0,024
-120,424	-200,000	-0,010	0,110
-119,410	800,000	0,021	-0,044
-118,395	768,601	-0,061	0,121
-117,380	369,669	0,032	0,047
-116,366	-200,000	-0,004	0,049
-115,351	598,783	-0,018	0,033
-114,337	33,409	-0,088	0,055
-113,322	-200,000	-0,001	0,053
-112,307	55,875	-0,089	0,063
-111,293	-55,219	0,090	0,029
-110,278	-115,496	-0,013	0,002
-109,264	-76,996	-0,055	0,014
-108,249	800,000	0,030	-0,063
-107,234	-61,730	0,087	0,026
-106,220	-3,907	-0,083	0,042
-105,205	507,843	0,096	0,162
-104,191	-105,736	-0,027	-0,004
-103,176	469,673	0,100	0,163
-102,162	-125,369	-0,044	-0,005
-101,147	-200,000	-0,006	0,072
-100,132	-53,654	-0,141	-0,047
-99,118	305,447	0,029	-0,039
-98,103	373,356	0,049	0,073
-97,089	-110,976	0,088	-0,013
-96,074	-200,000	-0,000	0,106
-95,059	197,189	0,022	0,025
-94,045	88,205	-0,093	-0,075
-93,030	-53,160	-0,077	0,026
-92,016	-200,000	0,014	-0,069
-91,001	92,277	-0,012	-0,010
-89,986	596,188	-0,021	-0,038
-88,972	156,595	-0,067	0,067
-87,957	-200,000	0,004	0,079
-86,943	-100,363	0,052	0,009
-85,928	467,865	-0,014	0,022
-84,913	162,179	0,048	-0,049
-83,899	-200,000	-0,010	-0,073
-82,884	-128,142	0,173	-0,018
-81,870	-200,000	-0,025	0,117
-80,855	-93,162	0,184	-0,037
-79,840	113,780	0,033	-0,029
-78,826	800,000	-0,026	-0,054
-77,811	-200,000	0,022	-0,184
-76,797	-92,632	0,091	-0,018
-75,782	159,610	-0,039	0,039
-74,767	-39,405	0,037	0,014
-73,753	254,385	-0,066	0,082
-72,738	-28,983	0,023	0,010
-71,724	-200,000	-0,012	-0,046
-70,709	24,901	0,097	0,058
-69,694	459,655	-0,046	-0,074
-68,680	-200,000	-0,014	-0,090
-67,665	-157,280	0,083	-0,004
-66,651	205,641	-0,031	0,035
-65,636	-110,967	-0,064	0,009
-64,622	800,000	-0,068	-0,202
-63,607	162,488	-0,071	-0,072
-62,592	800,000	-0,020	0,057
-61,578	156,637	-0,075	0,075
-60,563	-71,359	0,082	-0,022
-59,549	680,154	0,004	0,008
-58,534	-114,698	-1,465	-0,201
-57,519	678,970	-0,715	-1,353
-56,505	-200,000	-1,003	-4,530
-55,490	-53,044	0,668	-0,221
-54,476	800,000	5,128	11,838
-53,461	-200,000	14,664	259,757
-52,446	-200,000	696,100	2234,955
-51,432	565,809	1621,764	2857,420
-50,417	118,056	1629,580	1453,057
-49,403	75,139	1283,853	978,179
-48,388	37,463	1022,304	654,580
-47,373	23,164	981,639	581,618
-46,359	22,307	971,246	572,630
-45,344	21,148	966,758	566,184
-44,330	21,079	965,418	565,150
-43,315	20,977	963,838	563,872
-42,300	20,947	963,021	563,272
-41,286	20,916	961,883	562,486
-40,271	20,896	960,801	561,764
-39,257	20,887	960,081	561,291
-38,242	20,921	959,028	560,764
-37,227	20,848	958,200	560,021
-36,213	20,861	957,348	559,546
-35,198	20,868	956,498	559,049
-34,184	20,927	955,680	558,737
-33,169	20,842	954,777	557,913
-32,154	20,900	954,124	557,696
-31,140	20,917	953,147	557,158
-30,125	20,986	952,388	556,915
-29,111	20,947	951,374	556,174
-28,096	20,931	950,677	555,694
-27,082	20,914	950,167	555,320
-26,067	20,887	949,283	554,694
-25,052	20,950	948,443	554,383
-24,038	20,969	947,909	554,107
-23,023	20,925	947,413	553,655
-22,009	20,924	946,622	553,169
-20,994	20,922	946,005	552,779
-19,979	20,961	945,460	552,565
-18,965	20,908	944,986	552,096
-17,950	21,015	943,948	551,810
-16,936	20,870	943,700	551,178
-15,921	20,899	942,773	550,709
-14,906	20,824	942,076	550,042
-13,892	20,787	941,566	549,604
-12,877	20,850	940,783	549,326
-11,863	20,776	940,327	548,802
-10,848	20,799	939,775	548,531
-9,833	20,916	939,365	548,641
-8,819	20,910	938,760	548,247
-7,804	20,851	937,941	547,559
-6,790	20,813	937,635	547,240
-5,775	20,835	936,872	546,843
-4,760	20,878	936,247	546,592
-3,746	20,838	935,660	546,102
-2,731	20,691	934,933	545,191
-1,717	20,669	934,227	544,690
-0,702	20,643	933,466	544,142
0,313	20,441	933,065	544,093
1,327	23,507	931,004	552,469
2,342	32,658	793,896	495,392
3,356	29,988	450,759	277,233
4,371	0,103	294,774	151,404
5,386	-4,266	275,810	137,508
6,400	-5,429	270,118	133,576
7,415	-5,990	267,724	131,863
8,429	-5,661	266,415	131,509
9,444	-5,614	265,620	131,147
10,459	-5,585	265,013	130,863
11,473	-5,752	264,481	130,436
12,488	-5,757	263,901	130,134
13,502	-5,781	263,369	129,838
14,517	-5,948	263,087	129,536
15,531	-5,840	262,613	129,389
16,546	-5,964	262,186	129,055
17,561	-5,957	261,970	128,943
18,575	-6,053	261,699	128,712
19,590	-6,111	261,168	128,387
20,604	-5,911	260,868	128,408
21,619	-6,053	260,494	128,085
22,634	-6,002	260,277	128,013
23,648	-6,149	259,967	127,718
24,663	-6,056	259,706	127,661
25,677	-5,991	259,325	127,521
26,692	-6,062	259,168	127,369
27,707	-5,944	258,809	127,286
28,721	-5,976	258,648	127,167
29,736	-6,121	258,328	126,869
30,750	-5,960	258,097	126,887
31,765	-6,089	257,753	126,593
32,780	-6,089	257,721	126,566
33,794	-5,961	257,388	126,504
34,809	-6,117	257,084	126,205
35,823	-6,050	256,825	126,126
36,838	-6,191	256,659	125,909
37,853	-6,148	256,345	125,782
38,867	-5,974	256,127	125,817
39,882	-5,922	255,857	125,718
40,896	-6,230	255,795	125,406
41,911	-6,061	255,475	125,387
42,926	-6,238	255,296	125,132
43,940	-6,129	255,045	125,093
44,955	-6,034	254,634	124,963
45,969	-6,464	254,754	124,635
46,984	-6,481	254,301	124,388
47,999	-6,706	254,116	124,090
49,013	-6,609	253,725	123,972
50,028	-6,639	253,426	123,789
51,042	-6,853	253,276	123,519
52,057	-6,950	253,054	123,315
53,071	-6,901	252,849	123,246
54,086	-6,736	252,616	123,266
55,101	-6,521	252,522	123,395
56,115	-6,357	252,411	123,471
57,130	-6,011	252,390	123,750
58,144	-5,929	252,196	123,715
59,159	-5,823	251,921	123,660
60,174	-5,813	251,734	123,566
61,188	-5,890	251,625	123,435
62,203	-5,924	251,299	123,235
63,217	-5,909	251,121	123,149
64,232	-5,933	250,902	123,011
65,247	-5,927	250,695	122,903
66,261	-6,070	250,525	122,686
67,276	-6,072	250,115	122,473
68,290	-6,199	249,652	122,127
69,305	-6,489	249,670	121,876
70,320	-6,382	249,565	121,906
71,334	-6,204	249,627	122,077
72,349	-5,876	249,326	122,200
73,363	-5,898	249,096	122,057
74,378	-5,887	248,905	121,962
75,393	-5,868	248,592	121,814
76,407	-6,102	248,468	121,544
77,422	-6,029	248,224	121,475
78,436	-5,987	248,072	121,425
79,451	-5,817	247,849	121,450
80,466	-6,101	247,649	121,100
81,480	-6,230	247,310	120,814
82,495	-6,261	247,185	120,716
83,509	-6,194	247,060	120,701
84,524	-6,107	246,802	120,638
85,539	-6,468	246,485	120,168
86,553	-6,262	246,223	120,202
87,568	-6,362	246,266	120,128
88,582	-6,421	246,136	120,005
89,597	-6,423	245,931	119,892
90,611	-6,242	245,746	119,944
91,626	-6,070	245,494	119,954
92,641	-6,035	245,402	119,928
93,655	-5,965	245,049	119,804
94,670	-6,122	244,936	119,606
95,684	-6,201	244,753	119,440
96,699	-6,045	244,543	119,458
97,714	-6,216	244,483	119,274
98,728	-6,471	244,291	118,957
99,743	-6,562	243,961	118,710
100,757	-6,413	243,706	118,699
101,772	-6,346	243,480	118,635
102,787	-6,343	243,319	118,548
103,801	-6,039	243,212	118,738
104,816	-6,267	243,193	118,528
105,830	-6,056	242,961	118,581
106,845	-6,006	242,840	118,552
107,860	-6,129	242,598	118,321
108,874	-6,121	242,348	118,195
109,889	-6,087	242,144	118,114
110,903	-6,243	242,054	117,930
111,918	-6,115	241,816	117,909
112,933	-6,088	241,561	117,797
113,947	-6,112	241,518	117,746
114,962	-6,123	241,398	117,667
115,976	-6,205	241,185	117,486
116,991	-6,073	240,869	117,429
118,006	-6,012	240,745	117,409
119,020	-6,045	240,623	117,312
120,035	-5,980	240,611	117,349
121,049	-6,057	240,378	117,162
122,064	-5,889	240,162	117,184
123,079	-5,907	239,966	117,063
124,093	-6,052	239,719	116,813
125,108	-6,300	239,553	116,519
126,122	-6,481	239,374	116,274
127,137	-6,503	239,069	116,098
128,151	-6,538	239,009	116,030
129,166	-6,286	238,889	116,166
130,181	-6,235	238,521	116,019
131,195	-6,433	238,419	115,797
132,210	-6,383	238,279	115,760
133,224	-5,951	238,096	116,011
134,239	-6,219	238,014	115,744
135,254	-6,116	237,808	115,717
136,268	-6,230	237,536	115,481
137,283	-6,379	237,271	115,222
138,297	-6,600	237,175	114,987
139,312	-6,446	237,090	115,059
140,327	-6,204	236,916	115,160
141,341	-5,809	236,837	115,430
142,356	-5,849	236,752	115,346
143,370	-5,707	236,648	115,399
144,385	-5,614	236,405	115,345
145,400	-5,741	236,269	115,166
146,414	-5,692	235,968	115,050
147,429	-5,730	235,896	114,973
148,443	-5,888	235,630	114,707
149,458	-5,703	235,518	114,790
150,473	-5,528	235,309	114,818
151,487	-5,994	235,175	114,370
152,502	-5,851	235,077	114,426
153,516	-5,723	234,898	114,431
154,531	-6,007	234,560	114,030
155,546	-5,850	234,577	114,153
156,560	-5,800	234,383	114,088
157,575	-5,893	234,076	113,855
158,589	-6,057	234,029	113,691
159,604	-5,825	233,722	113,716
160,619	-5,535	233,605	113,879
161,633	-5,581	233,551	113,806
162,648	-5,595	233,400	113,712
163,662	-5,476	233,266	113,731
164,677	-5,819	233,063	113,350
165,692	-5,760	232,906	113,309
166,706	-5,395	232,679	113,478
167,721	-5,685	232,666	113,233
168,735	-5,685	232,639	113,209
169,750	-5,644	232,411	113,120
170,764	-5,745	232,215	112,936
171,779	-5,559	232,047	112,990
172,794	-5,691	231,968	112,838
173,808	-5,558	231,532	112,720
174,823	-6,363	231,374	112,000
175,837	-6,299	231,128	111,922
176,852	-5,925	231,120	112,201
177,867	-5,659	231,066	112,374
178,881	-5,653	230,976	112,325
179,896	-5,666	230,849	112,242
180,910	-5,737	230,696	112,103
181,925	-5,635	230,477	112,066
182,940	-5,730	230,261	111,877
183,954	-5,431	230,070	112,008
184,969	-5,718	230,104	111,790
185,983	-5,615	229,869	111,746
186,998	-5,629	229,780	111,682
188,013	-5,388	229,518	111,732
189,027	-5,483	229,383	111,583
190,042	-5,504	229,291	111,512
191,056	-5,679	229,007	111,228
192,071	-5,698	229,068	111,233
193,086	-5,375	228,622	111,257
194,100	-5,513	228,500	111,080
195,115	-5,789	228,331	110,775
196,129	-5,999	228,097	110,489
197,144	-3,153	229,088	113,166
198,159	1,091	230,180	116,995
199,173	3,353	230,870	119,096
200,188	4,023	230,900	119,622
201,202	3,593	230,771	119,211
202,217	4,071	230,529	119,446
203,232	4,127	230,470	119,448
204,246	4,385	230,266	119,532
205,261	4,387	230,181	119,478
206,275	4,428	230,088	119,451
207,290	4,478	230,020	119,444
208,304	4,694	229,749	119,459
209,319	4,565	229,829	119,390
210,334	4,403	229,310	118,985
211,348	4,160	229,272	118,768
212,363	4,005	228,932	118,461
213,377	3,755	228,596	118,085
214,392	3,510	228,700	117,940
215,407	3,958	228,384	118,110
216,421	3,915	228,321	118,034
217,436	3,760	228,157	117,820
218,450	3,361	227,900	117,371
219,465	3,354	227,745	117,276
220,480	3,404	227,684	117,272
221,494	3,462	227,538	117,230
222,509	3,572	227,318	117,191
223,523	3,598	227,234	117,157
224,538	3,372	227,035	116,872
225,553	3,464	227,110	116,970
226,567	3,811	226,844	117,087
227,582	4,078	226,667	117,188
228,596	4,011	226,668	117,127
229,611	3,737	226,385	116,762
230,626	3,542	226,004	116,408
231,640	3,632	225,937	116,431
232,655	3,987	225,949	116,696
233,669	4,268	225,863	116,854
234,684	4,460	225,781	116,947
235,699	4,141	225,556	116,578
236,713	3,766	225,269	116,136
237,728	3,650	225,171	115,988
238,742	3,439	225,073	115,767
239,757	3,399	224,907	115,642
240,772	3,624	224,694	115,691
241,786	3,469	224,588	115,510
242,801	3,717	224,468	115,624
243,815	3,993	224,485	115,831
244,830	4,200	224,178	115,817
245,844	3,630	224,089	115,333
246,859	3,734	223,823	115,264
247,874	3,719	223,781	115,221
248,888	4,031	223,593	115,348
249,903	3,866	223,441	115,135
250,917	3,540	223,361	114,840
251,932	3,695	223,187	114,856
252,947	3,561	222,954	114,626
253,961	3,840	222,770	114,729
254,976	3,636	222,630	114,495
255,990	3,775	222,575	114,559
257,005	3,859	222,440	114,542
258,020	3,781	222,449	114,478
259,034	4,082	222,344	114,638
260,049	4,034	222,059	114,446
261,063	4,001	221,820	114,288
262,078	3,859	221,845	114,184
263,093	4,014	221,760	114,246
264,107	3,981	221,648	114,154
265,122	4,041	221,456	114,090
266,136	4,144	221,343	114,097
267,151	3,915	221,129	113,808
268,166	3,715	220,927	113,545
269,180	3,554	220,669	113,283
270,195	3,466	220,579	113,162
271,209	3,483	220,415	113,080
272,224	3,592	220,246	113,064
273,239	3,465	220,263	112,969
274,253	3,680	219,928	112,945
275,268	3,537	219,748	112,738
276,282	3,528	219,537	112,613
277,297	3,322	219,364	112,363
278,312	3,492	219,373	112,482
279,326	3,631	219,357	112,566
280,341	3,750	219,164	112,544
281,355	3,718	218,904	112,377
282,370	3,693	218,840	112,316
283,384	3,626	218,503	112,084
284,399	3,436	218,261	111,811
285,414	3,407	218,257	111,778
286,428	3,436	218,402	111,863
287,443	3,729	218,241	111,985
288,457	3,652	218,077	111,835
289,472	3,839	217,671	111,753
290,487	3,277	217,625	111,310
291,501	3,170	217,487	111,152
292,516	3,151	217,417	111,092
293,530	3,279	217,126	111,027
294,545	3,309	217,043	110,996
295,560	3,595	216,970	111,156
296,574	3,487	216,973	111,069
297,589	3,670	216,816	111,112
298,603	3,684	216,756	111,081
299,618	3,826	216,583	111,086
300,633	3,739	216,514	110,977
301,647	3,895	216,331	110,986
302,662	3,725	216,170	110,771
303,676	3,914	216,019	110,820
304,691	3,616	215,735	110,450
305,706	3,810	215,649	110,536
306,720	3,982	215,637	110,644
307,735	3,885	215,370	110,426
308,749	3,583	215,154	110,090
309,764	3,711	215,121	110,154
310,779	3,766	215,069	110,158
311,793	3,658	214,967	110,018
312,808	3,860	214,642	109,987
313,822	3,821	214,518	109,885
314,837	3,685	214,287	109,660
315,852	3,535	214,109	109,452
316,866	3,572	214,093	109,460
317,881	3,931	214,053	109,686
318,895	4,023	213,877	109,652
319,910	3,658	213,710	109,297
320,925	3,521	213,525	109,095
321,939	3,074	213,319	108,662
322,954	3,138	213,441	108,760
323,968	3,815	213,283	109,151
324,983	3,697	213,190	109,010
325,997	3,580	213,070	108,856
327,012	3,541	212,893	108,728
328,027	3,528	212,775	108,649
329,041	3,693	212,739	108,737
330,056	4,177	212,511	108,953
331,070	3,550	212,341	108,414
332,085	3,358	212,036	108,113
333,100	3,360	211,930	108,051
334,114	3,793	211,751	108,255
335,129	3,793	211,747	108,243
336,143	3,544	211,600	107,983
337,158	3,701	211,409	107,986
338,173	3,681	211,359	107,937
339,187	3,226	211,148	107,500
340,202	3,348	211,035	107,518
341,216	3,396	210,737	107,390
342,231	3,441	210,631	107,359
343,246	3,561	210,492	107,362
344,260	3,362	210,511	107,223
345,275	3,616	210,490	107,380
346,289	3,866	210,151	107,373
347,304	3,965	210,133	107,423
348,319	3,841	209,886	107,200
349,333	3,755	209,856	107,116
350,348	3,475	209,749	106,856
351,362	3,706	209,817	107,043
352,377	3,819	209,556	106,978
353,392	3,838	209,340	106,872
354,406	3,719	209,214	106,715
355,421	195,167	1343,713	1432,211
356,435	155,807	1482,002	1432,296
