DTS Sentinel unit serial number:	SN410029Multiplexer serial number:	ORYXHardware model number:	OX2-SRSoftware version number:	ORYX F/W v4,00 Oryx Data Collector v3.7.2.0data status	okinstallation	B6 Nyhavnadifferential loss correction	single-endedforward channel	channel 2reverse channel	N/Adate	2023/12/10time	11:00:08forward acquisition time	300,00reverse acquisition time	0,00gamma	499,1914k internal	0,3123k external	0,3123temperature offset calibration	1,0000default loss term (dB/km)	0,3820temperature slope calibration	1,0000multiplexer offset coefficient	1,0000multiplexer slope coefficient	1,0000fibre end	0,00T internal ref (°C)	22,62T ext. ref 1 (°C)	6,49T ext. ref 2 (°C)	6,49length (m)	temperature (°C)	Stokes	anti-Stokes-744,400	-112,499	-0,110	0,016
-743,385	170,359	-0,213	0,227
-742,371	-200,000	0,009	0,036
-741,356	446,954	-0,182	0,300
-740,342	75,564	0,094	0,074
-739,327	-91,685	-0,242	0,051
-738,312	-108,833	0,064	0,010
-737,298	-15,155	-0,315	0,150
-736,283	-200,000	-0,003	0,042
-735,269	310,695	-0,120	0,167
-734,254	-166,655	0,072	0,002
-733,239	-45,579	-0,472	-0,173
-732,225	-73,926	0,025	0,007
-731,210	-200,000	-0,004	-0,042
-730,196	-106,220	0,037	0,006
-729,181	254,810	-0,085	-0,108
-728,167	800,000	-0,022	-0,055
-727,152	223,824	-0,073	0,088
-726,137	343,857	0,072	-0,105
-725,123	302,482	-0,031	-0,042
-724,108	-134,081	-0,157	0,014
-723,094	800,000	-0,022	0,049
-722,079	-200,000	-0,017	0,090
-721,064	-7,374	-0,055	0,027
-720,050	-200,000	0,000	0,022
-719,035	800,000	-0,072	-0,183
-718,021	800,000	0,023	0,060
-717,006	236,462	-0,107	-0,132
-715,991	-114,143	-0,066	0,009
-714,977	105,264	-0,067	-0,059
-713,962	-151,746	0,026	0,001
-712,948	594,918	-0,041	-0,075
-711,933	116,816	-0,065	-0,059
-710,918	78,748	0,078	0,062
-709,904	-200,000	0,023	-0,102
-708,889	7,624	-0,222	-0,123
-707,875	36,196	0,036	0,024
-706,860	579,177	0,063	0,115
-705,845	-200,000	0,030	-0,182
-704,831	-200,000	-0,008	-0,036
-703,816	133,120	0,015	-0,015
-702,802	-200,000	-0,025	0,149
-701,787	-85,712	-0,122	-0,028
-700,772	-200,000	0,001	0,071
-699,758	326,812	0,052	0,074
-698,743	800,000	-0,069	0,168
-697,729	34,305	0,125	0,081
-696,714	12,040	0,079	-0,045
-695,699	-200,000	0,001	0,003
-694,685	190,182	-0,058	-0,065
-693,670	48,012	-0,134	-0,093
-692,656	-25,907	0,051	-0,022
-691,641	800,000	-0,021	0,044
-690,627	-20,720	0,184	0,084
-689,612	307,545	-0,030	-0,042
-688,597	174,405	0,016	0,018
-687,583	45,070	-0,079	-0,054
-686,568	-195,016	-0,172	0,001
-685,554	275,909	-0,071	0,094
-684,539	-80,499	0,083	-0,021
-683,524	-200,000	0,020	-0,150
-682,510	-4,084	0,081	0,042
-681,495	87,662	-0,123	0,101
-680,481	800,000	-0,010	0,030
-679,466	800,000	0,011	-0,027
-678,451	196,661	-0,018	0,020
-677,437	-111,917	-0,148	0,022
-676,422	-200,000	0,012	-0,129
-675,408	-125,849	0,213	-0,024
-674,393	-200,000	-0,019	0,184
-673,378	-178,105	-0,070	0,001
-672,364	80,538	-0,046	0,037
-671,349	-154,607	0,062	0,003
-670,335	-200,000	0,018	0,063
-669,320	800,000	-0,046	0,135
-668,305	-200,000	-0,008	0,032
-667,291	86,122	-0,086	-0,070
-666,276	92,615	-0,078	-0,066
-665,262	-50,110	-0,149	-0,052
-664,247	800,000	0,012	0,029
-663,232	241,371	-0,026	0,032
-662,218	-200,000	-0,006	-0,062
-661,203	-92,971	0,080	0,016
-660,189	289,402	-0,032	-0,043
-659,174	440,402	-0,034	-0,055
-658,159	99,795	-0,046	0,040
-657,145	-76,742	-0,084	-0,022
-656,130	0,913	-0,131	-0,070
-655,116	122,132	0,053	0,049
-654,101	752,797	-0,043	-0,087
-653,086	-48,167	-0,108	0,038
-652,072	-200,000	-0,042	-0,000
-651,057	-114,920	-0,031	0,004
-650,043	629,627	-0,051	0,097
-649,028	230,738	-0,122	-0,148
-648,014	53,718	0,122	-0,087
-646,999	64,048	0,132	-0,098
-645,984	-200,000	0,033	0,121
-644,970	-200,000	-0,025	-0,092
-643,955	-179,044	0,018	0,000
-642,941	733,303	0,013	0,026
-641,926	-200,000	0,004	0,061
-640,911	119,964	0,032	0,029
-639,897	599,716	-0,058	0,107
-638,882	79,657	-0,026	-0,021
-637,868	176,292	0,044	-0,047
-636,853	800,000	0,019	0,046
-635,838	577,103	0,025	-0,046
-634,824	-8,560	-0,015	-0,008
-633,809	365,895	-0,089	-0,133
-632,795	-48,644	0,099	-0,035
-631,780	-105,601	0,112	-0,019
-630,765	176,412	0,076	-0,082
-629,751	-61,065	-0,052	0,016
-628,736	-200,000	0,006	-0,025
-627,722	-25,184	0,104	-0,046
-626,707	-200,000	-0,019	0,125
-625,692	-11,205	0,045	-0,022
-624,678	496,725	-0,016	-0,028
-623,663	6,126	0,064	-0,035
-622,649	-17,127	0,087	-0,040
-621,634	-200,000	-0,037	0,176
-620,619	-200,000	-0,023	0,105
-619,605	-200,000	0,000	-0,055
-618,590	-200,000	0,031	0,111
-617,576	-42,140	0,129	-0,049
-616,561	-107,241	0,092	-0,015
-615,546	-200,000	-0,004	0,163
-614,532	800,000	-0,023	0,065
-613,517	189,436	-0,054	-0,060
-612,503	-200,000	-0,004	0,039
-611,488	717,608	0,035	-0,069
-610,474	-200,000	-0,018	-0,123
-609,459	691,767	0,031	-0,061
-608,444	-9,452	0,043	-0,021
-607,430	0,666	-0,161	0,085
-606,415	-200,000	0,038	-0,126
-605,401	-58,292	0,061	-0,019
-604,386	32,100	-0,050	0,032
-603,371	17,528	0,074	-0,044
-602,357	-59,437	0,100	-0,032
-601,342	241,348	-0,046	0,057
-600,328	-83,659	0,110	0,026
-599,313	800,000	-0,063	-0,141
-598,298	244,857	0,103	0,129
-597,284	27,162	-0,049	0,030
-596,269	800,000	0,006	-0,016
-595,255	-134,630	-0,055	0,005
-594,240	124,342	-0,100	-0,093
-593,225	800,000	-0,028	-0,089
-592,211	-25,910	-0,074	-0,032
-591,196	-109,308	-0,111	0,017
-590,182	732,017	-0,064	0,128
-589,167	-200,000	0,019	0,150
-588,152	365,532	0,012	0,018
-587,138	-120,838	-0,057	0,007
-586,123	-200,000	0,011	-0,190
-585,109	-5,100	0,010	0,005
-584,094	-14,407	-0,145	-0,069
-583,079	799,192	0,046	0,094
-582,065	344,523	-0,024	0,035
-581,050	800,000	-0,053	-0,112
-580,036	223,979	0,012	-0,015
-579,021	238,631	-0,019	0,024
-578,006	86,571	-0,040	-0,033
-576,992	476,395	-0,042	-0,070
-575,977	-43,414	-0,041	0,015
-574,963	-15,420	-0,052	-0,024
-573,948	-5,548	-0,178	0,090
-572,934	-131,802	0,044	-0,004
-571,919	800,000	-0,051	-0,129
-570,904	800,000	0,044	-0,091
-569,890	-84,766	-0,098	-0,023
-568,875	800,000	0,035	-0,097
-567,861	194,590	-0,033	0,037
-566,846	543,690	0,079	0,140
-565,831	42,872	-0,081	-0,054
-564,817	266,411	-0,030	-0,039
-563,802	-2,136	0,108	0,056
-562,788	-200,000	0,006	-0,112
-561,773	380,628	-0,013	-0,020
-560,758	504,214	0,048	0,083
-559,744	-173,283	0,040	0,001
-558,729	-200,000	-0,090	-0,000
-557,715	-200,000	-0,003	0,062
-556,700	-4,315	-0,114	-0,058
-555,685	800,000	0,089	-0,186
-554,671	-36,081	0,119	-0,047
-553,656	36,257	0,078	0,051
-552,642	-66,444	-0,121	-0,035
-551,627	130,607	0,112	0,106
-550,612	-200,000	-0,042	0,178
-549,598	-82,963	0,012	0,003
-548,583	594,512	-0,014	0,026
-547,569	-200,000	-0,009	-0,030
-546,554	-5,003	0,095	0,048
-545,539	337,890	-0,024	-0,035
-544,525	-126,724	0,077	-0,008
-543,510	173,890	0,037	-0,040
-542,496	429,225	-0,067	-0,107
-541,481	1,206	-0,089	-0,047
-540,466	-200,000	-0,004	-0,106
-539,452	-120,268	0,151	0,019
-538,437	-200,000	0,027	0,125
-537,423	800,000	0,015	-0,050
-536,408	-200,000	0,001	0,028
-535,393	641,071	-0,067	0,126
-534,379	-200,000	-0,017	-0,060
-533,364	800,000	0,031	-0,077
-532,350	-200,000	0,004	0,143
-531,335	-200,000	-0,003	0,016
-530,321	-200,000	0,017	0,071
-529,306	43,874	-0,060	-0,040
-528,291	-7,659	-0,135	0,067
-527,277	20,854	-0,039	-0,024
-526,262	290,545	-0,017	0,022
-525,248	87,583	0,095	-0,078
-524,233	-1,084	0,112	-0,058
-523,218	-82,059	0,162	0,039
-522,204	800,000	-0,059	-0,126
-521,189	-200,000	0,035	-0,132
-520,175	-59,452	0,080	-0,025
-519,160	483,302	-0,037	-0,062
-518,145	318,863	0,068	-0,096
-517,131	-200,000	0,013	0,047
-516,116	800,000	0,034	0,105
-515,102	92,528	0,034	0,029
-514,087	30,658	0,050	-0,031
-513,072	-148,106	-0,081	-0,005
-512,058	-200,000	0,005	-0,058
-511,043	117,977	0,011	-0,010
-510,029	51,938	0,040	-0,028
-509,014	-36,997	-0,049	0,019
-507,999	-146,391	0,101	-0,006
-506,985	175,685	0,030	0,032
-505,970	-200,000	0,010	-0,087
-504,956	-140,953	-0,039	0,003
-503,941	222,864	-0,058	-0,069
-502,926	800,000	0,028	0,063
-501,912	-132,298	-0,067	0,006
-500,897	-200,000	-0,030	-0,102
-499,883	-111,852	-0,025	-0,004
-498,868	800,000	-0,046	-0,105
-497,853	-200,000	-0,017	-0,129
-496,839	84,902	-0,017	0,014
-495,824	-17,338	0,049	-0,023
-494,810	378,059	0,020	0,031
-493,795	-200,000	0,011	0,039
-492,781	-71,425	-0,081	0,022
-491,766	-12,520	-0,061	-0,029
-490,751	-200,000	0,037	-0,195
-489,737	-200,000	-0,017	-0,141
-488,722	67,757	0,076	-0,057
-487,708	223,477	0,037	0,045
-486,693	-200,000	0,026	-0,111
-485,678	800,000	0,044	-0,134
-484,664	334,706	-0,030	-0,043
-483,649	-120,805	-0,132	0,016
-482,635	-91,743	-0,081	-0,017
-481,620	-126,897	-0,129	0,014
-480,605	92,191	0,132	0,109
-479,591	183,327	0,024	0,027
-478,576	124,137	-0,032	-0,030
-477,562	-200,000	-0,007	-0,054
-476,547	-2,580	-0,060	0,031
-475,532	-16,498	0,025	0,011
-474,518	-200,000	0,017	-0,105
-473,503	-113,094	0,048	-0,007
-472,489	800,000	-0,040	0,084
-471,474	800,000	-0,017	0,038
-470,459	-200,000	0,013	0,126
-469,445	-17,093	-0,094	0,043
-468,430	87,098	-0,017	0,014
-467,416	-200,000	-0,008	0,047
-466,401	337,599	0,040	0,058
-465,386	-66,945	-0,077	0,022
-464,372	6,994	-0,066	0,036
-463,357	208,886	-0,009	0,010
-462,343	193,477	0,026	0,029
-461,328	-200,000	0,023	-0,139
-460,313	269,712	0,045	0,059
-459,299	-200,000	-0,036	0,000
-458,284	-200,000	-0,011	0,112
-457,270	-68,718	-0,049	-0,014
-456,255	-30,190	-0,105	-0,044
-455,241	-0,596	-0,029	-0,015
-454,226	-97,860	0,057	-0,011
-453,211	403,233	0,062	-0,097
-452,197	179,674	-0,063	-0,068
-451,182	-200,000	-0,021	0,088
-450,168	-200,000	0,026	-0,100
-449,153	-151,494	-0,142	0,008
-448,138	-200,000	0,020	-0,192
-447,124	800,000	-0,017	-0,052
-446,109	-200,000	0,066	-0,234
-445,095	-172,807	0,100	0,002
-444,080	-144,923	0,155	0,010
-443,065	-60,430	-0,041	-0,013
-442,051	800,000	-0,059	-0,177
-441,036	-200,000	-0,006	-0,045
-440,022	0,415	0,103	-0,054
-439,007	235,529	-0,065	0,079
-437,992	-200,000	-0,032	0,158
-436,978	-45,498	0,099	0,036
-435,963	800,000	-0,022	0,054
-434,949	-22,865	0,052	-0,023
-433,934	477,625	-0,019	-0,032
-432,919	414,127	-0,114	-0,179
-431,905	75,980	-0,049	0,038
-430,890	800,000	-0,016	-0,042
-429,876	-44,982	-0,059	-0,021
-428,861	11,199	0,043	-0,024
-427,846	800,000	0,034	-0,069
-426,832	602,432	-0,026	-0,047
-425,817	-58,188	-0,144	0,046
-424,803	345,685	0,051	0,075
-423,788	106,504	-0,050	0,043
-422,773	637,177	-0,051	0,095
-421,759	-34,103	0,048	-0,019
-420,744	58,387	-0,021	-0,015
-419,730	-123,655	-0,151	0,017
-418,715	-200,000	-0,003	-0,070
-417,701	-110,269	-0,095	0,014
-416,686	130,903	-0,084	0,079
-415,671	-103,314	0,084	0,014
-414,657	34,983	0,045	0,029
-413,642	-200,000	0,023	0,091
-412,628	-200,000	0,025	-0,106
-411,613	800,000	0,043	-0,118
-410,598	-52,174	-0,087	0,029
-409,584	-118,164	0,118	-0,015
-408,569	-3,705	-0,141	-0,072
-407,555	800,000	0,017	-0,042
-406,540	-88,897	-0,076	-0,016
-405,525	389,917	-0,019	-0,029
-404,511	195,398	0,049	0,054
-403,496	469,655	-0,041	0,068
-402,482	-131,618	0,135	-0,013
-401,467	-200,000	-0,007	-0,055
-400,452	-81,456	0,097	0,023
-399,438	210,287	-0,018	0,021
-398,423	-92,477	-0,124	-0,026
-397,409	-124,305	-0,032	-0,004
-396,394	273,012	-0,095	-0,124
-395,379	-200,000	0,001	-0,069
-394,365	-200,000	-0,052	0,203
-393,350	-200,000	0,014	0,185
-392,336	406,147	0,020	0,031
-391,321	-47,308	0,126	0,045
-390,306	161,082	-0,101	-0,104
-389,292	185,180	-0,068	0,075
-388,277	-200,000	0,002	-0,035
-387,263	271,824	-0,012	0,016
-386,248	-27,014	-0,063	0,027
-385,233	-47,899	0,114	0,040
-384,219	165,338	-0,097	-0,100
-383,204	-137,425	-0,081	-0,007
-382,190	-61,593	0,039	0,012
-381,175	-200,000	0,010	0,076
-380,160	60,160	0,084	0,061
-379,146	33,697	-0,057	0,037
-378,131	162,757	-0,035	-0,036
-377,117	369,223	0,010	0,015
-376,102	-200,000	-0,009	0,098
-375,088	800,000	0,031	-0,087
-374,073	-200,000	-0,002	-0,064
-373,058	603,767	0,046	-0,085
-372,044	-149,680	0,017	0,001
-371,029	800,000	-0,013	0,030
-370,015	135,607	0,036	0,034
-369,000	40,324	0,046	-0,030
-367,985	800,000	-0,021	-0,064
-366,971	174,198	-0,037	-0,039
-365,956	-23,291	0,107	-0,047
-364,942	-38,020	0,130	0,051
-363,927	-200,000	-0,011	0,088
-362,912	316,750	0,040	0,056
-361,898	800,000	-0,016	0,043
-360,883	-200,000	-0,013	-0,045
-359,869	-84,884	-0,087	0,020
-358,854	102,916	0,031	0,027
-357,839	-107,881	0,023	-0,004
-356,825	-130,402	0,067	-0,007
-355,810	800,000	-0,016	-0,037
-354,796	-200,000	0,000	-0,013
-353,781	185,727	0,087	-0,095
-352,766	-133,431	0,068	-0,006
-351,752	800,000	0,088	0,196
-350,737	-27,746	0,120	-0,051
-349,723	800,000	-0,054	0,165
-348,708	-200,000	-0,017	0,124
-347,693	-72,585	0,031	-0,008
-346,679	134,900	-0,058	-0,055
-345,664	-200,000	-0,016	0,085
-344,650	31,279	-0,088	0,056
-343,635	-77,111	0,159	0,040
-342,620	28,813	0,060	-0,037
-341,606	-200,000	-0,003	0,165
-340,591	800,000	-0,022	0,069
-339,577	-66,181	-0,092	-0,027
-338,562	545,697	0,014	-0,025
-337,548	300,356	0,048	0,065
-336,533	-200,000	-0,003	-0,094
-335,518	-200,000	-0,003	-0,046
-334,504	-200,000	0,010	-0,041
-333,489	97,577	-0,094	-0,079
-332,475	12,294	-0,070	0,040
-331,460	800,000	0,016	-0,047
-330,445	312,062	0,112	-0,154
-329,431	-32,651	-0,017	0,007
-328,416	-146,285	0,045	0,003
-327,402	-200,000	0,010	-0,114
-326,387	800,000	-0,081	0,204
-325,372	5,684	0,081	-0,044
-324,358	-200,000	0,025	-0,103
-323,343	234,543	-0,044	0,053
-322,329	-200,000	0,012	0,069
-321,314	-200,000	-0,019	0,085
-320,299	-86,179	-0,033	0,007
-319,285	-200,000	-0,016	0,099
-318,270	-200,000	0,015	-0,127
-317,256	64,449	-0,108	-0,079
-316,241	37,139	0,109	0,071
-315,226	42,753	0,126	-0,084
-314,212	732,346	0,035	-0,068
-313,197	-186,322	-0,092	0,001
-312,183	140,348	0,047	0,046
-311,168	-154,224	0,130	0,006
-310,153	-200,000	-0,007	-0,042
-309,139	-41,041	0,121	0,045
-308,124	175,885	-0,034	0,036
-307,110	-25,014	0,114	0,050
-306,095	335,086	-0,052	0,074
-305,080	168,780	0,132	0,138
-304,066	720,725	-0,050	-0,098
-303,051	800,000	0,049	-0,112
-302,037	-86,308	0,056	-0,013
-301,022	-200,000	-0,005	0,072
-300,008	-200,000	0,003	0,075
-298,993	34,814	0,071	-0,045
-297,978	365,073	-0,050	0,074
-296,964	-200,000	-0,030	-0,132
-295,949	-58,507	-0,036	0,011
-294,935	-189,537	-0,029	-0,000
-293,920	64,268	0,107	-0,079
-292,905	568,626	0,047	0,085
-291,891	-200,000	0,018	0,102
-290,876	2,376	0,114	-0,060
-289,862	-200,000	0,012	-0,099
-288,847	800,000	-0,033	-0,107
-287,832	-34,273	0,075	0,030
-286,818	248,452	-0,033	-0,041
-285,803	-148,948	-0,141	-0,008
-284,789	800,000	0,085	0,236
-283,774	518,282	0,091	0,156
-282,759	800,000	-0,026	-0,071
-281,745	73,998	0,113	0,087
-280,730	102,212	0,065	0,056
-279,716	-124,199	-0,030	-0,003
-278,701	52,827	-0,013	0,009
-277,686	-20,331	-0,128	0,057
-276,672	-30,025	0,079	0,033
-275,657	38,097	0,106	0,069
-274,643	706,278	-0,027	0,053
-273,628	-153,633	0,056	-0,003
-272,613	-28,112	-0,096	-0,040
-271,599	661,615	-0,038	-0,073
-270,584	-200,000	-0,012	0,164
-269,570	310,104	-0,056	0,077
-268,555	-174,300	0,126	-0,003
-267,540	-145,173	-0,094	0,006
-266,526	305,950	0,009	0,012
-265,511	284,770	0,010	0,014
-264,497	124,157	-0,071	-0,065
-263,482	16,523	0,078	0,045
-262,467	-200,000	-0,009	-0,084
-261,453	800,000	0,017	-0,055
-260,438	21,320	-0,077	-0,045
-259,424	163,555	-0,081	-0,083
-258,409	10,052	0,046	-0,026
-257,395	-17,987	0,058	-0,026
-256,380	133,143	0,024	0,023
-255,365	207,082	0,070	0,080
-254,351	-75,867	-0,103	0,027
-253,336	32,859	-0,011	-0,007
-252,322	-31,344	-0,103	0,042
-251,307	18,525	0,055	0,032
-250,292	11,612	-0,018	0,010
-249,278	-200,000	0,027	0,152
-248,263	655,839	-0,051	-0,096
-247,249	123,986	0,020	-0,019
-246,234	-51,680	-0,107	0,036
-245,219	197,853	-0,141	0,157
-244,205	92,216	-0,039	0,032
-243,190	118,944	-0,032	0,029
-242,176	-132,832	0,048	-0,004
-241,161	84,135	0,040	0,032
-240,146	-22,284	0,123	-0,054
-239,132	164,381	-0,056	-0,058
-238,117	-112,208	0,132	0,019
-237,103	234,709	0,037	0,045
-236,088	108,345	-0,060	0,052
-235,073	23,833	0,185	-0,111
-234,059	-200,000	-0,007	0,050
-233,044	-157,373	-0,033	0,001
-232,030	26,211	0,076	-0,046
-231,015	89,848	-0,034	0,028
-230,000	129,039	-0,087	-0,081
-228,986	-63,471	-0,123	0,037
-227,971	58,012	0,106	0,075
-226,957	262,929	0,033	0,042
-225,942	441,657	-0,046	0,073
-224,927	310,039	-0,012	0,017
-223,913	366,077	-0,075	0,111
-222,898	29,596	0,056	0,035
-221,884	-200,000	-0,004	0,036
-220,869	-76,931	-0,178	0,045
-219,855	800,000	-0,015	-0,047
-218,840	-200,000	0,035	0,174
-217,825	800,000	-0,030	0,085
-216,811	57,098	-0,126	0,090
-215,796	-200,000	0,013	-0,082
-214,782	60,209	-0,046	-0,033
-213,767	8,664	-0,092	0,051
-212,752	-200,000	-0,021	0,072
-211,738	298,034	0,042	0,057
-210,723	800,000	-0,028	0,075
-209,709	-200,000	-0,002	0,079
-208,694	331,232	-0,135	-0,191
-207,679	-200,000	0,013	-0,099
-206,665	-144,268	-0,144	0,010
-205,650	-200,000	0,016	-0,102
-204,636	-71,055	0,097	0,026
-203,621	-78,408	0,144	-0,036
-202,606	-42,905	-0,089	-0,033
-201,592	-92,323	-0,130	0,027
-200,577	-46,096	0,026	-0,009
-199,563	-200,000	-0,017	0,099
-198,548	510,882	0,057	0,097
-197,533	-200,000	-0,028	0,137
-196,519	800,000	-0,021	0,064
-195,504	278,285	-0,133	-0,173
-194,490	-154,052	-0,062	0,003
-193,475	-200,000	0,023	0,102
-192,460	-82,705	0,073	0,017
-191,446	-119,256	0,054	-0,007
-190,431	-66,520	-0,018	0,005
-189,417	-200,000	0,004	0,016
-188,402	-200,000	0,037	0,145
-187,387	196,976	0,046	-0,051
-186,373	20,728	-0,100	0,059
-185,358	-200,000	-0,001	0,142
-184,344	121,072	0,119	0,108
-183,329	-200,000	-0,002	0,112
-182,315	-200,000	-0,024	0,085
-181,300	155,876	0,002	-0,002
-180,285	800,000	-0,042	0,131
-179,271	-131,670	0,135	-0,013
-178,256	-200,000	0,022	-0,197
-177,242	-61,145	-0,021	0,007
-176,227	800,000	-0,055	0,127
-175,212	-200,000	0,030	0,131
-174,198	324,545	-0,067	0,093
-173,183	-109,159	0,053	0,008
-172,169	-200,000	-0,011	0,115
-171,154	-140,913	0,049	-0,004
-170,139	109,720	0,091	-0,079
-169,125	-38,184	0,232	0,089
-168,110	800,000	-0,057	-0,147
-167,096	548,858	-0,050	-0,088
-166,081	414,842	-0,105	-0,163
-165,066	-200,000	-0,010	-0,059
-164,052	-112,277	-0,052	-0,008
-163,037	280,037	-0,038	0,050
-162,023	230,876	-0,038	0,045
-161,008	171,593	0,051	-0,053
-159,993	65,628	-0,103	-0,076
-158,979	800,000	-0,066	-0,174
-157,964	94,913	0,085	-0,070
-156,950	657,269	-0,018	-0,033
-155,935	14,273	0,087	-0,050
-154,920	722,351	-0,035	0,069
-153,906	-200,000	-0,035	-0,144
-152,891	10,530	-0,048	0,027
-151,877	-129,018	-0,108	-0,011
-150,862	-90,430	-0,116	0,024
-149,847	23,348	-0,133	-0,080
-148,833	331,683	-0,057	0,080
-147,818	-200,000	-0,016	-0,072
-146,804	-71,535	0,090	0,024
-145,789	-108,147	-0,087	-0,014
-144,775	288,334	-0,089	0,117
-143,760	-122,199	0,133	0,016
-142,745	-79,133	-0,085	0,021
-141,731	47,437	0,034	-0,023
-140,716	347,734	-0,046	0,066
-139,702	31,265	0,074	0,046
-138,687	-120,368	-0,059	-0,007
-137,672	128,454	-0,044	0,041
-136,658	360,200	-0,053	-0,078
-135,643	800,000	0,021	0,051
-134,629	64,085	-0,126	-0,092
-133,614	-200,000	0,024	0,103
-132,599	37,342	0,072	0,047
-131,585	-48,324	0,144	0,050
-130,570	188,473	-0,055	0,060
-129,556	-200,000	0,003	0,155
-128,541	528,522	-0,020	0,034
-127,526	-200,000	0,007	-0,051
-126,512	-7,883	0,038	0,019
-125,497	109,492	0,088	-0,076
-124,483	-58,030	0,091	0,029
-123,468	800,000	0,060	-0,141
-122,453	-75,426	-0,037	-0,010
-121,439	170,839	-0,070	-0,073
-120,424	494,550	0,019	-0,031
-119,410	-200,000	0,006	0,231
-118,395	-53,074	-0,045	-0,015
-117,380	-200,000	0,013	-0,049
-116,366	454,453	-0,038	0,061
-115,351	139,661	-0,031	-0,029
-114,337	800,000	-0,019	-0,048
-113,322	10,726	0,071	0,039
-112,307	538,381	-0,063	-0,109
-111,293	15,714	0,195	0,111
-110,278	-54,806	0,023	-0,007
-109,264	-200,000	-0,001	0,117
-108,249	-26,643	-0,163	0,069
-107,234	295,373	-0,078	-0,104
-106,220	-200,000	-0,014	-0,165
-105,205	744,558	-0,042	0,082
-104,191	208,741	-0,011	0,012
-103,176	-135,825	-0,023	0,002
-102,162	60,884	0,037	-0,026
-101,147	-112,773	-0,077	-0,011
-100,132	-200,000	0,014	0,099
-99,118	-200,000	0,000	0,003
-98,103	800,000	-0,035	0,077
-97,089	-200,000	-0,003	0,030
-96,074	-142,612	0,028	-0,002
-95,059	295,665	0,029	-0,038
-94,045	800,000	-0,007	0,022
-93,030	23,467	-0,050	0,030
-92,016	800,000	0,020	-0,047
-91,001	285,104	-0,009	0,012
-89,986	-12,221	0,236	-0,112
-88,972	-40,181	0,052	-0,020
-87,957	800,000	-0,036	0,109
-86,943	800,000	-0,051	0,114
-85,928	-126,636	0,117	-0,012
-84,913	292,645	-0,074	-0,098
-83,899	800,000	-0,017	-0,037
-82,884	221,928	0,124	0,145
-81,870	-200,000	0,022	0,089
-80,855	-200,000	-0,007	0,076
-79,840	-200,000	0,002	-0,066
-78,826	277,619	-0,059	0,076
-77,811	51,683	-0,062	0,043
-76,797	800,000	-0,069	0,161
-75,782	-96,943	0,013	-0,003
-74,767	621,956	0,074	-0,136
-73,753	226,414	0,086	-0,102
-72,738	339,523	0,022	0,031
-71,724	29,027	-0,071	0,043
-70,709	-200,000	0,038	-0,127
-69,694	-200,000	-0,001	-0,053
-68,680	-56,246	0,083	-0,027
-67,665	-20,415	-0,116	0,051
-66,651	-98,357	0,168	0,031
-65,636	-1,954	0,096	0,049
-64,622	209,339	-0,119	-0,136
-63,607	-200,000	-0,009	-0,169
-62,592	519,527	0,100	-0,170
-61,578	-97,112	0,054	-0,010
-60,563	-200,000	0,017	0,070
-59,549	-52,815	0,121	0,040
-58,534	-135,594	-1,277	-0,109
-57,519	467,663	-0,909	-1,485
-56,505	-200,000	-0,966	-4,425
-55,490	43,261	0,527	-0,348
-54,476	800,000	4,922	11,805
-53,461	-200,000	13,410	253,147
-52,446	-200,000	688,343	2269,739
-51,432	597,462	1622,509	2929,287
-50,417	121,004	1636,429	1477,210
-49,403	73,659	1290,597	980,008
-48,388	38,464	1025,342	661,741
-47,373	24,611	982,557	588,561
-46,359	23,783	972,357	579,711
-45,344	22,816	968,319	574,120
-44,330	22,802	966,567	573,011
-43,315	22,702	965,305	571,915
-42,300	22,693	964,157	571,182
-41,286	22,648	963,212	570,453
-40,271	22,651	962,323	569,913
-39,257	22,669	961,432	569,422
-38,242	22,589	960,488	568,582
-37,227	22,683	959,548	568,305
-36,213	22,658	958,740	567,726
-35,198	22,536	957,988	566,863
-34,184	22,600	957,391	566,694
-33,169	22,637	956,349	566,172
-32,154	22,629	955,535	565,643
-31,140	22,707	954,431	565,219
-30,125	22,684	953,719	564,700
-29,111	22,660	952,948	564,144
-28,096	22,694	952,111	563,737
-27,082	22,665	951,619	563,329
-26,067	22,673	950,763	562,826
-25,052	22,645	950,162	562,357
-24,038	22,666	949,484	562,001
-23,023	22,640	948,962	561,589
-22,009	22,731	948,104	561,349
-20,994	22,721	947,419	560,889
-19,979	22,689	946,942	560,481
-18,965	22,689	946,450	560,168
-17,950	22,674	945,609	559,601
-16,936	22,603	945,176	559,096
-15,921	22,585	944,427	558,571
-14,906	22,541	943,580	557,910
-13,892	22,599	942,878	557,657
-12,877	22,523	942,259	557,028
-11,863	22,517	941,763	556,691
-10,848	22,578	941,111	556,480
-9,833	22,608	940,789	556,361
-8,819	22,606	940,101	555,927
-7,804	22,574	939,370	555,371
-6,790	22,588	938,884	555,105
-5,775	22,557	938,240	554,605
-4,760	22,593	937,548	554,288
-3,746	22,576	937,148	553,976
-2,731	22,421	936,368	553,002
-1,717	22,370	935,632	552,386
-0,702	22,397	934,963	552,053
0,313	22,184	934,241	551,788
1,327	25,240	932,139	560,109
2,342	34,846	796,955	504,484
3,356	32,906	452,122	283,249
4,371	2,082	293,911	153,377
5,386	-2,434	274,816	139,125
6,400	-3,732	268,933	134,932
7,415	-4,353	266,496	133,126
8,429	-4,070	265,345	132,798
9,444	-4,063	264,217	132,228
10,459	-4,274	263,717	131,775
11,473	-4,280	263,261	131,528
12,488	-4,058	262,581	131,378
13,502	-4,458	262,169	130,799
14,517	-4,425	261,670	130,568
15,531	-4,311	261,366	130,508
16,546	-4,224	260,987	130,385
17,561	-4,260	260,552	130,124
18,575	-4,263	260,284	129,975
19,590	-4,245	259,811	129,744
20,604	-4,217	259,848	129,776
21,619	-4,302	259,300	129,415
22,634	-4,258	259,013	129,299
23,648	-4,494	258,821	128,981
24,663	-4,221	258,311	128,959
25,677	-4,370	258,239	128,778
26,692	-4,243	257,979	128,751
27,707	-4,338	257,695	128,513
28,721	-4,547	257,426	128,181
29,736	-4,483	257,174	128,101
30,750	-4,341	256,883	128,071
31,765	-4,323	256,629	127,949
32,780	-4,387	256,604	127,868
33,794	-4,443	256,255	127,634
34,809	-4,283	256,089	127,680
35,823	-4,296	255,841	127,534
36,838	-4,375	255,538	127,302
37,853	-4,485	255,248	127,049
38,867	-4,245	255,104	127,177
39,882	-4,519	254,881	126,815
40,896	-4,468	254,810	126,813
41,911	-4,607	254,507	126,529
42,926	-4,383	254,009	126,466
43,940	-4,588	253,905	126,224
44,955	-4,590	253,832	126,174
45,969	-4,594	253,487	125,988
46,984	-4,634	253,179	125,789
47,999	-4,784	252,895	125,506
49,013	-5,095	252,806	125,180
50,028	-5,224	252,478	124,895
51,042	-5,231	252,244	124,762
52,057	-5,480	252,050	124,439
53,071	-5,220	251,798	124,529
54,086	-5,323	251,819	124,439
55,101	-4,920	251,573	124,654
56,115	-4,845	251,348	124,597
57,130	-4,369	251,355	125,000
58,144	-4,072	251,133	125,135
59,159	-4,047	250,822	124,991
60,174	-4,231	250,724	124,772
61,188	-4,154	250,484	124,708
62,203	-4,274	250,299	124,502
63,217	-4,264	250,030	124,365
64,232	-4,396	249,902	124,177
65,247	-4,323	249,764	124,160
66,261	-4,260	249,610	124,126
67,276	-4,530	249,160	123,661
68,290	-4,726	248,860	123,333
69,305	-4,836	248,785	123,191
70,320	-4,624	248,503	123,221
71,334	-4,626	248,586	123,249
72,349	-4,186	248,323	123,483
73,363	-4,268	248,117	123,300
74,378	-4,304	247,924	123,163
75,393	-4,362	247,733	123,007
76,407	-4,305	247,342	122,851
77,422	-4,392	247,245	122,717
78,436	-4,288	247,179	122,762
79,451	-4,209	246,912	122,685
80,466	-4,632	246,707	122,214
81,480	-4,421	246,353	122,206
82,495	-4,595	246,214	121,980
83,509	-4,490	246,022	121,963
84,524	-4,548	245,868	121,826
85,539	-4,584	245,606	121,655
86,553	-4,545	245,419	121,584
87,568	-4,565	245,244	121,471
88,582	-4,789	245,152	121,226
89,597	-4,427	244,849	121,369
90,611	-4,677	244,868	121,158
91,626	-4,510	244,807	121,257
92,641	-4,377	244,425	121,168
93,655	-4,435	244,259	121,027
94,670	-4,403	243,884	120,856
95,684	-4,479	243,865	120,773
96,699	-4,444	243,615	120,667
97,714	-4,594	243,643	120,545
98,728	-4,839	243,235	120,128
99,743	-4,755	243,118	120,130
100,757	-4,968	242,846	119,808
101,772	-4,657	242,668	119,968
102,787	-4,695	242,450	119,818
103,801	-4,465	242,415	119,981
104,816	-4,452	242,335	119,941
105,830	-4,353	242,160	119,926
106,845	-4,231	241,955	119,915
107,860	-4,270	241,668	119,730
108,874	-4,457	241,546	119,504
109,889	-4,528	241,381	119,353
110,903	-4,553	241,078	119,172
111,918	-4,590	241,035	119,110
112,933	-4,640	240,845	118,964
113,947	-4,543	240,691	118,957
114,962	-4,359	240,408	118,958
115,976	-4,493	240,277	118,772
116,991	-4,324	240,032	118,780
118,006	-4,459	239,972	118,628
119,020	-4,475	240,018	118,627
120,035	-4,388	239,809	118,585
121,049	-4,248	239,440	118,506
122,064	-4,366	239,283	118,322
123,079	-4,213	239,054	118,322
124,093	-4,465	238,954	118,057
125,108	-4,636	238,670	117,767
126,122	-4,968	238,435	117,370
127,137	-4,946	238,240	117,281
128,151	-4,792	238,117	117,336
129,166	-4,430	238,004	117,564
130,181	-4,746	237,835	117,213
131,195	-4,760	237,561	117,057
132,210	-4,766	237,469	116,995
133,224	-4,333	237,298	117,252
134,239	-4,537	237,228	117,041
135,254	-4,409	236,991	117,018
136,268	-4,576	236,721	116,739
137,283	-4,721	236,413	116,459
138,297	-4,891	236,386	116,299
139,312	-4,941	236,187	116,150
140,327	-4,660	236,094	116,320
141,341	-4,343	236,063	116,551
142,356	-4,200	235,964	116,605
143,370	-4,000	235,727	116,639
144,385	-4,237	235,798	116,473
145,400	-4,119	235,360	116,341
146,414	-4,232	235,369	116,244
147,429	-4,128	234,986	116,129
148,443	-4,333	234,936	115,929
149,458	-4,037	234,768	116,073
150,473	-4,070	234,541	115,924
151,487	-4,216	234,297	115,676
152,502	-4,317	234,382	115,628
153,516	-3,836	233,910	115,767
154,531	-3,910	233,933	115,709
155,546	-4,090	233,526	115,355
156,560	-4,180	233,515	115,267
157,575	-4,312	233,303	115,048
158,589	-4,366	233,136	114,912
159,604	-4,029	232,945	115,075
160,619	-3,894	232,911	115,155
161,633	-4,052	232,750	114,940
162,648	-4,112	232,583	114,800
163,662	-4,026	232,489	114,811
164,677	-4,113	232,339	114,658
165,692	-4,215	232,116	114,457
166,706	-3,913	231,926	114,591
167,721	-3,889	231,800	114,538
168,735	-3,846	231,634	114,480
169,750	-3,964	231,509	114,315
170,764	-4,048	231,540	114,254
171,779	-3,854	231,233	114,245
172,794	-3,915	231,047	114,095
173,808	-4,075	230,844	113,859
174,823	-4,698	230,589	113,234
175,837	-4,696	230,351	113,109
176,852	-4,276	230,402	113,453
177,867	-4,084	230,311	113,548
178,881	-4,061	230,049	113,427
179,896	-4,129	229,971	113,325
180,910	-3,977	229,901	113,399
181,925	-3,915	229,622	113,300
182,940	-3,900	229,471	113,227
183,954	-3,974	229,322	113,086
184,969	-4,065	229,224	112,956
185,983	-4,173	229,171	112,836
186,998	-4,002	229,015	112,882
188,013	-3,829	228,747	112,875
189,027	-3,962	228,651	112,714
190,042	-3,916	228,349	112,590
191,056	-3,905	228,253	112,542
192,071	-3,674	228,180	112,675
193,086	-3,968	228,038	112,367
194,100	-3,953	227,956	112,328
195,115	-3,885	227,526	112,159
196,129	-4,822	227,324	111,326
197,144	-1,385	228,575	114,593
198,159	2,781	229,507	118,286
199,173	4,162	229,654	119,423
200,188	4,127	229,693	119,404
201,202	4,141	229,494	119,302
202,217	4,494	229,376	119,502
203,232	4,704	229,161	119,542
204,246	4,952	229,146	119,716
205,261	4,695	229,143	119,505
206,275	4,885	228,953	119,541
207,290	4,998	228,773	119,524
208,304	5,048	228,549	119,434
209,319	4,796	228,504	119,206
210,334	4,676	228,355	119,026
211,348	4,571	227,891	118,693
212,363	4,337	227,677	118,391
213,377	3,853	227,525	117,930
214,392	4,038	227,353	117,972
215,407	4,216	227,211	118,025
216,421	4,269	227,319	118,111
217,436	4,322	226,909	117,928
218,450	3,828	226,744	117,453
219,465	3,723	226,662	117,320
220,480	3,744	226,534	117,260
221,494	3,640	226,338	117,069
222,509	3,960	226,190	117,226
223,523	4,100	225,892	117,167
224,538	3,961	225,914	117,062
225,553	4,089	225,709	117,043
226,567	4,245	225,614	117,102
227,582	4,406	225,624	117,219
228,596	4,356	225,512	117,113
229,611	4,140	225,268	116,811
230,626	3,753	225,007	116,372
231,640	4,184	224,642	116,500
232,655	4,093	224,777	116,490
233,669	4,533	224,843	116,847
234,684	4,731	224,643	116,882
235,699	4,398	224,513	116,553
236,713	4,030	224,263	116,135
237,728	4,043	224,051	116,024
238,742	3,964	223,855	115,853
239,757	4,068	223,563	115,769
240,772	3,887	223,455	115,567
241,786	3,854	223,340	115,473
242,801	4,303	223,210	115,732
243,815	4,235	223,180	115,655
244,830	4,324	223,151	115,697
245,844	4,217	222,756	115,402
246,859	4,061	222,676	115,233
247,874	4,196	222,573	115,270
248,888	4,037	222,434	115,069
249,903	4,075	222,411	115,076
250,917	4,083	222,202	114,963
251,932	3,920	222,008	114,731
252,947	4,023	221,711	114,644
253,961	3,990	221,583	114,543
254,976	4,211	221,445	114,626
255,990	4,276	221,530	114,708
257,005	4,178	221,293	114,502
258,020	4,230	221,267	114,517
259,034	4,322	221,238	114,560
260,049	4,331	221,084	114,477
261,063	4,184	220,845	114,235
262,078	4,380	220,746	114,319
263,093	4,503	220,557	114,301
264,107	4,311	220,425	114,081
265,122	4,314	220,312	114,014
266,136	4,424	220,264	114,060
267,151	4,645	219,927	114,039
268,166	4,334	219,633	113,647
269,180	4,076	219,404	113,328
270,195	3,847	219,378	113,137
271,209	3,774	219,128	112,944
272,224	3,847	219,167	113,008
273,239	4,235	218,990	113,191
274,253	4,139	218,783	113,003
275,268	3,986	218,502	112,736
276,282	3,825	218,391	112,551
277,297	3,765	218,318	112,459
278,312	3,877	218,187	112,464
279,326	4,063	218,112	112,551
280,341	4,054	217,981	112,466
281,355	4,045	217,806	112,360
282,370	4,080	217,661	112,301
283,384	3,826	217,486	112,015
284,399	3,702	217,314	111,827
285,414	3,646	217,210	111,722
286,428	3,702	217,220	111,758
287,443	3,867	217,130	111,822
288,457	4,033	216,967	111,848
289,472	4,037	216,755	111,732
290,487	3,505	216,501	111,205
291,501	3,484	216,301	111,078
292,516	3,760	216,120	111,175
293,530	3,901	216,111	111,262
294,545	3,554	216,127	111,009
295,560	3,834	215,910	111,090
296,574	3,937	215,790	111,093
297,589	4,159	215,642	111,167
298,603	4,282	215,556	111,202
299,618	3,910	215,423	110,855
300,633	4,012	215,255	110,832
301,647	4,178	215,156	110,891
302,662	4,285	215,030	110,893
303,676	4,204	214,941	110,779
304,691	4,109	214,685	110,569
305,706	4,326	214,478	110,608
306,720	4,018	214,491	110,383
307,735	3,835	214,161	110,073
308,749	3,847	214,117	110,050
309,764	4,099	213,893	110,105
310,779	4,473	213,925	110,378
311,793	4,300	213,714	110,136
312,808	4,256	213,606	110,040
313,822	4,213	213,426	109,906
314,837	3,912	213,323	109,628
315,852	3,964	213,107	109,545
316,866	3,888	212,952	109,401
317,881	4,178	213,012	109,629
318,895	4,087	212,730	109,409
319,910	4,243	212,547	109,417
320,925	3,923	212,332	109,069
321,939	3,718	212,193	108,842
322,954	3,601	212,019	108,661
323,968	3,931	212,121	108,937
324,983	4,272	211,956	109,084
325,997	4,248	211,847	109,001
327,012	4,150	211,595	108,793
328,027	4,044	211,637	108,730
329,041	4,197	211,550	108,783
330,056	4,675	211,299	108,981
331,070	4,149	211,175	108,537
332,085	3,646	210,952	108,059
333,100	4,021	210,786	108,227
334,114	4,161	210,685	108,265
335,129	3,964	210,490	108,017
336,143	3,821	210,276	107,797
337,158	3,871	210,263	107,816
338,173	3,931	210,134	107,781
339,187	4,037	209,894	107,723
340,202	3,636	209,872	107,422
341,216	3,501	209,649	107,203
342,231	4,075	209,607	107,574
343,246	3,722	209,437	107,230
344,260	3,767	209,254	107,159
345,275	3,847	209,271	107,213
346,289	4,229	209,135	107,400
347,304	4,120	209,015	107,253
348,319	4,288	208,770	107,236
349,333	3,901	208,653	106,896
350,348	3,981	208,500	106,864
351,362	4,039	208,535	106,913
352,377	4,168	208,422	106,935
353,392	4,033	208,251	106,744
354,406	4,060	208,244	106,749
355,421	193,499	1347,015	1434,204
356,435	154,362	1485,860	1434,323
