DTS Sentinel unit serial number:	SN410029Multiplexer serial number:	ORYXHardware model number:	OX2-SRSoftware version number:	ORYX F/W v4,00 Oryx Data Collector v3.7.2.0data status	okinstallation	B6 Nyhavnadifferential loss correction	single-endedforward channel	channel 2reverse channel	N/Adate	2023/12/08time	19:40:08forward acquisition time	300,00reverse acquisition time	0,00gamma	499,1914k internal	0,3158k external	0,3158temperature offset calibration	1,0000default loss term (dB/km)	0,3820temperature slope calibration	1,0000multiplexer offset coefficient	1,0000multiplexer slope coefficient	1,0000fibre end	0,00T internal ref (°C)	15,24T ext. ref 1 (°C)	-1,43T ext. ref 2 (°C)	-1,43length (m)	temperature (°C)	Stokes	anti-Stokes-744,400	480,157	-0,018	0,030
-743,385	-47,948	-0,195	-0,069
-742,371	322,100	0,060	0,084
-741,356	-198,031	-0,425	0,002
-740,342	-79,467	0,161	0,040
-739,327	53,786	-0,291	-0,206
-738,312	-200,000	-0,004	0,133
-737,298	-162,973	-0,386	-0,014
-736,283	-139,647	0,151	-0,012
-735,269	-157,218	-0,254	-0,011
-734,254	-12,367	0,109	0,052
-733,239	-74,004	-0,553	-0,147
-732,225	-17,568	0,158	0,073
-731,210	528,856	0,009	-0,015
-730,196	-66,194	0,073	0,021
-729,181	205,549	-0,106	0,122
-728,167	-200,000	-0,026	-0,099
-727,152	-52,697	-0,168	0,057
-726,137	123,537	0,015	-0,014
-725,123	410,526	-0,092	-0,144
-724,108	223,159	0,043	-0,051
-723,094	-200,000	-0,003	-0,064
-722,079	76,491	-0,159	-0,124
-721,064	800,000	-0,019	0,047
-720,050	634,200	0,008	0,015
-719,035	-189,899	0,085	-0,001
-718,021	-165,425	-0,213	-0,007
-717,006	-200,000	-0,014	-0,067
-715,991	-200,000	-0,025	-0,120
-714,977	-2,893	-0,057	-0,029
-713,962	58,686	-0,085	0,061
-712,948	-200,000	-0,007	0,090
-711,933	-200,000	-0,096	0,000
-710,918	3,259	0,079	-0,042
-709,904	282,353	0,052	0,069
-708,889	16,211	0,019	0,011
-707,875	-44,787	0,044	-0,016
-706,860	-107,919	-0,110	0,017
-705,845	-165,721	-0,096	0,003
-704,831	800,000	0,042	-0,089
-703,816	-12,038	0,087	-0,042
-702,802	-200,000	0,013	0,043
-701,787	-54,060	-0,107	-0,036
-700,772	-102,869	0,131	0,023
-699,758	126,778	0,045	-0,042
-698,743	-49,737	0,028	-0,010
-697,729	-16,543	-0,156	0,072
-696,714	34,018	-0,051	0,033
-695,699	800,000	0,029	0,090
-694,685	-55,888	-0,028	0,009
-693,670	-43,024	-0,118	-0,044
-692,656	10,769	-0,043	0,024
-691,641	524,476	0,077	-0,134
-690,627	-62,914	-0,128	-0,039
-689,612	454,748	-0,019	0,032
-688,597	194,470	0,040	0,045
-687,583	800,000	0,023	-0,065
-686,568	-107,459	-0,170	-0,027
-685,554	189,877	-0,075	0,083
-684,539	-60,531	0,083	0,026
-683,524	-173,959	0,057	-0,001
-682,510	-129,034	-0,175	-0,018
-681,495	800,000	0,060	-0,146
-680,481	54,323	-0,057	-0,041
-679,466	800,000	-0,033	-0,070
-678,451	245,544	-0,058	-0,071
-677,437	543,583	-0,072	-0,128
-676,422	263,993	0,047	0,060
-675,408	507,102	-0,022	0,037
-674,393	800,000	-0,043	0,099
-673,378	19,999	-0,078	0,046
-672,364	800,000	-0,023	0,055
-671,349	-72,567	0,109	0,029
-670,335	-112,393	-0,239	0,035
-669,320	-112,259	0,107	-0,016
-668,305	-35,989	-0,105	-0,042
-667,291	232,245	-0,035	0,042
-666,276	-74,329	-0,049	0,013
-665,262	-200,000	-0,005	0,069
-664,247	413,951	-0,066	0,103
-663,232	-2,466	-0,104	0,054
-662,218	-200,000	0,011	-0,089
-661,203	-6,066	0,126	-0,063
-660,189	106,608	-0,084	0,073
-659,174	-175,942	-0,092	-0,002
-658,159	-200,000	0,004	-0,091
-657,145	800,000	0,013	0,039
-656,130	139,343	-0,071	0,069
-655,116	-200,000	0,013	0,059
-654,101	-17,870	0,216	-0,099
-653,086	-40,033	-0,053	-0,020
-652,072	322,122	0,029	-0,040
-651,057	800,000	0,028	-0,074
-650,043	-200,000	0,070	-0,246
-649,028	3,298	0,188	-0,100
-648,014	-200,000	-0,019	0,071
-646,999	65,877	-0,078	-0,058
-645,984	356,179	0,069	0,101
-644,970	800,000	0,037	-0,077
-643,955	800,000	-0,011	-0,026
-642,941	-160,250	-0,055	0,002
-641,926	46,936	0,015	-0,011
-640,911	-200,000	-0,042	0,146
-639,897	-137,007	0,132	-0,011
-638,882	188,607	-0,101	-0,111
-637,868	414,417	-0,123	-0,193
-636,853	-64,052	-0,071	-0,021
-635,838	800,000	-0,068	-0,141
-634,824	-200,000	0,002	-0,149
-633,809	21,979	0,053	-0,031
-632,795	392,898	0,119	0,182
-631,780	-200,000	-0,021	0,109
-630,765	-151,292	0,046	0,002
-629,751	-16,045	0,038	0,018
-628,736	-40,887	0,086	0,032
-627,722	-165,934	0,082	-0,003
-626,707	800,000	-0,047	-0,116
-625,692	800,000	-0,032	-0,070
-624,678	-200,000	0,012	0,089
-623,663	227,801	-0,079	0,094
-622,649	226,082	-0,045	0,054
-621,634	-200,000	0,082	-0,000
-620,619	-200,000	0,001	-0,090
-619,605	92,494	-0,041	0,034
-618,590	29,132	-0,002	0,001
-617,576	330,238	0,076	0,108
-616,561	-200,000	-0,003	0,024
-615,546	-200,000	0,025	0,139
-614,532	255,161	-0,058	-0,073
-613,517	800,000	-0,065	0,137
-612,503	-200,000	-0,012	-0,055
-611,488	139,855	0,080	-0,077
-610,474	385,032	-0,057	-0,086
-609,459	-79,538	-0,089	-0,022
-608,444	290,504	-0,064	-0,086
-607,430	295,724	-0,116	-0,156
-606,415	-200,000	-0,016	-0,101
-605,401	-26,429	0,033	-0,014
-604,386	539,047	-0,086	-0,151
-603,371	-57,934	0,095	-0,030
-602,357	-159,237	0,217	-0,009
-601,342	-20,709	-0,036	0,016
-600,328	92,905	0,091	-0,075
-599,313	178,586	-0,032	-0,034
-598,298	-103,275	-0,090	-0,015
-597,284	711,453	-0,008	0,016
-596,269	-155,056	0,031	0,001
-595,255	616,167	-0,081	0,150
-594,240	-200,000	0,005	-0,025
-593,225	800,000	0,077	-0,160
-592,211	-200,000	-0,028	-0,142
-591,196	-200,000	-0,005	-0,066
-590,182	-52,472	-0,127	-0,043
-589,167	-200,000	0,003	-0,018
-588,152	-141,149	0,096	-0,007
-587,138	-200,000	-0,061	-0,198
-586,123	800,000	-0,048	-0,114
-585,109	413,133	0,110	-0,171
-584,094	323,316	0,036	-0,051
-583,079	-200,000	0,003	-0,129
-582,065	-149,977	-0,061	0,003
-581,050	-142,001	-0,016	0,001
-580,036	169,142	-0,071	-0,074
-579,021	-200,000	-0,009	-0,092
-578,006	149,334	0,068	-0,067
-576,992	-200,000	0,000	-0,024
-575,977	-200,000	0,003	0,041
-574,963	383,411	0,031	0,047
-573,948	-49,217	-0,085	-0,030
-572,934	-200,000	0,011	-0,151
-571,919	142,340	-0,048	0,047
-570,904	-36,631	-0,115	-0,045
-569,890	7,734	-0,101	0,055
-568,875	384,693	-0,061	0,093
-567,861	766,008	-0,053	0,105
-566,846	800,000	0,044	0,132
-565,831	-130,466	0,181	-0,018
-564,817	800,000	0,020	-0,061
-563,802	-141,611	-0,158	-0,011
-562,788	-173,653	0,057	-0,001
-561,773	539,772	0,084	0,147
-560,758	408,296	-0,063	0,098
-559,744	-43,323	0,055	0,020
-558,729	-79,432	0,051	0,012
-557,715	286,003	-0,104	0,138
-556,700	153,791	0,072	-0,073
-555,685	800,000	-0,025	-0,051
-554,671	-64,005	-0,044	0,013
-553,656	-29,828	0,037	-0,015
-552,642	456,517	0,031	0,050
-551,627	-104,335	-0,051	0,009
-550,612	116,923	0,013	-0,012
-549,598	-200,000	-0,019	-0,063
-548,583	-50,570	0,057	0,019
-547,569	-134,937	0,018	0,002
-546,554	163,925	0,052	0,053
-545,539	-156,683	-0,041	0,002
-544,525	424,986	0,017	-0,027
-543,510	668,328	-0,069	-0,132
-542,496	161,719	-0,061	-0,063
-541,481	-22,410	-0,063	-0,028
-540,466	-60,871	-0,017	-0,005
-539,452	312,994	0,049	-0,067
-538,437	186,950	0,102	0,111
-537,423	800,000	-0,019	0,059
-536,408	-72,550	-0,187	0,050
-535,393	41,890	-0,005	0,003
-534,379	-143,241	-0,024	0,002
-533,364	240,112	0,006	-0,007
-532,350	-200,000	0,016	0,092
-531,335	800,000	-0,021	-0,051
-530,321	459,562	-0,087	-0,141
-529,306	-200,000	0,010	-0,122
-528,291	-200,000	0,034	-0,208
-527,277	166,001	0,112	-0,116
-526,262	148,839	-0,064	0,063
-525,248	-200,000	0,014	0,062
-524,233	800,000	-0,029	0,068
-523,218	-200,000	0,005	0,198
-522,204	287,428	0,001	0,001
-521,189	-55,136	-0,057	-0,019
-520,175	73,218	0,119	-0,091
-519,160	-200,000	-0,012	-0,045
-518,145	28,979	0,065	-0,040
-517,131	-13,296	0,066	-0,031
-516,116	266,203	0,101	0,129
-515,102	211,513	0,034	-0,039
-514,087	-200,000	-0,009	-0,084
-513,072	800,000	0,038	0,096
-512,058	-200,000	0,125	0,000
-511,043	-37,143	-0,148	-0,057
-510,029	-200,000	-0,012	-0,103
-509,014	-125,375	-0,075	-0,008
-507,999	-48,766	-0,058	0,020
-506,985	427,530	-0,028	-0,044
-505,970	-200,000	-0,020	0,074
-504,956	800,000	-0,031	0,079
-503,941	-120,433	0,122	0,015
-502,926	430,777	0,019	-0,030
-501,912	178,933	-0,032	-0,034
-500,897	-62,048	0,075	-0,023
-499,883	-194,413	0,044	-0,000
-498,868	800,000	0,023	-0,057
-497,853	-85,995	-0,082	0,018
-496,839	-111,095	-0,057	0,008
-495,824	241,279	-0,030	0,037
-494,810	800,000	0,032	0,098
-493,795	43,000	0,102	-0,068
-492,781	-200,000	-0,010	0,045
-491,766	800,000	-0,062	-0,148
-490,751	234,324	-0,074	0,089
-489,737	629,775	0,004	0,008
-488,722	18,615	0,103	-0,060
-487,708	-113,644	0,091	0,013
-486,693	-80,285	0,035	-0,008
-485,678	-94,549	0,086	-0,017
-484,664	10,432	-0,008	0,004
-483,649	40,931	-0,077	0,050
-482,635	800,000	-0,047	-0,128
-481,620	-200,000	0,020	-0,127
-480,605	-200,000	0,026	0,123
-479,591	-200,000	-0,010	-0,048
-478,576	51,490	-0,036	-0,025
-477,562	-102,570	-0,065	0,011
-476,547	127,113	-0,121	-0,112
-475,532	-43,078	-0,147	-0,054
-474,518	133,172	-0,024	-0,023
-473,503	800,000	0,031	-0,079
-472,489	800,000	0,068	0,182
-471,474	-200,000	0,011	0,057
-470,459	-39,185	-0,073	-0,028
-469,445	169,708	-0,078	-0,081
-468,430	58,322	-0,079	-0,057
-467,416	-200,000	0,016	-0,158
-466,401	-9,970	0,008	-0,004
-465,386	788,507	-0,055	0,111
-464,372	8,953	0,013	-0,007
-463,357	10,475	-0,090	0,050
-462,343	93,147	0,047	-0,038
-461,328	-171,794	-0,082	0,002
-460,313	800,000	0,049	-0,152
-459,299	-39,647	-0,075	0,029
-458,284	147,450	0,008	0,008
-457,270	-29,943	-0,134	0,055
-456,255	-200,000	0,004	0,162
-455,241	276,966	0,042	0,055
-454,226	-200,000	-0,015	0,073
-453,211	164,341	0,022	0,023
-452,197	120,353	0,029	0,026
-451,182	-128,392	-0,052	-0,005
-450,168	96,057	-0,145	0,121
-449,153	-113,814	-0,129	0,018
-448,138	-168,095	-0,199	-0,006
-447,124	800,000	0,013	-0,031
-446,109	44,064	0,123	0,082
-445,095	459,980	-0,032	0,052
-444,080	-200,000	-0,013	0,064
-443,065	-200,000	0,003	0,101
-442,051	-200,000	0,049	-0,159
-441,036	-200,000	-0,003	-0,041
-440,022	-73,807	-0,113	-0,030
-439,007	27,993	0,104	-0,064
-437,992	140,046	0,045	0,043
-436,978	-66,504	0,068	-0,019
-435,963	146,991	0,054	-0,053
-434,949	408,680	-0,051	-0,079
-433,934	284,815	-0,054	-0,071
-432,919	-200,000	0,002	-0,061
-431,905	-23,259	-0,089	0,039
-430,890	-200,000	0,002	-0,125
-429,876	288,315	0,022	0,029
-428,861	294,791	0,035	0,046
-427,846	-41,123	-0,078	0,029
-426,832	73,657	-0,037	0,029
-425,817	-200,000	-0,022	-0,112
-424,803	-200,000	0,014	0,104
-423,788	730,173	0,063	0,123
-422,773	800,000	0,010	0,021
-421,759	-92,623	-0,205	0,041
-420,744	49,128	0,089	0,061
-419,730	64,479	-0,059	-0,043
-418,715	800,000	0,015	0,037
-417,701	151,537	0,032	0,032
-416,686	-200,000	0,009	0,040
-415,671	244,789	0,097	0,119
-414,657	-147,918	0,022	-0,001
-413,642	415,996	0,026	-0,040
-412,628	-200,000	0,045	0,151
-411,613	470,070	0,052	0,085
-410,598	84,684	0,068	-0,054
-409,584	800,000	-0,038	-0,109
-408,569	-200,000	0,017	0,092
-407,555	-200,000	-0,005	-0,095
-406,540	-34,419	-0,051	0,020
-405,525	127,670	0,056	0,052
-404,511	-4,710	0,159	-0,080
-403,496	-105,218	0,083	0,014
-402,482	-70,585	-0,106	0,029
-401,467	-54,752	-0,023	-0,007
-400,452	52,583	0,099	0,069
-399,438	-41,922	0,056	0,021
-398,423	-136,092	-0,075	0,006
-397,409	-4,263	-0,050	-0,025
-396,394	800,000	0,023	-0,063
-395,379	800,000	0,056	0,127
-394,365	-99,112	-0,049	0,009
-393,350	169,078	0,192	0,200
-392,336	800,000	0,019	-0,054
-391,321	-200,000	0,000	-0,023
-390,306	-62,763	-0,128	0,038
-389,292	-200,000	0,036	0,132
-388,277	15,968	-0,057	0,033
-387,263	5,396	-0,174	0,093
-386,248	-50,319	0,169	0,058
-385,233	2,011	0,041	0,021
-384,219	-26,579	-0,070	-0,030
-383,204	-117,403	-0,089	-0,012
-382,190	52,824	0,082	-0,057
-381,175	-112,560	0,171	-0,025
-380,160	800,000	-0,027	-0,058
-379,146	-32,442	0,086	0,035
-378,131	-200,000	0,025	0,085
-377,117	-161,617	-0,115	0,004
-376,102	317,848	0,009	0,012
-375,088	-70,135	-0,108	-0,030
-374,073	-200,000	-0,010	0,057
-373,058	46,944	0,014	0,009
-372,044	74,327	-0,108	0,082
-371,029	-146,366	-0,114	-0,007
-370,015	356,385	0,084	-0,121
-369,000	-83,934	-0,064	0,015
-367,985	78,293	-0,077	-0,060
-366,971	-200,000	-0,005	-0,138
-365,956	-119,906	0,139	-0,017
-364,942	-40,542	0,099	0,037
-363,927	-200,000	-0,022	0,125
-362,912	800,000	-0,043	0,101
-361,898	-200,000	0,015	-0,056
-360,883	36,303	0,081	-0,052
-359,869	203,348	-0,124	-0,139
-358,854	202,886	0,039	0,044
-357,839	-58,078	0,145	0,046
-356,825	198,513	-0,060	-0,066
-355,810	261,880	-0,037	0,047
-354,796	33,387	0,060	0,038
-353,781	-200,000	-0,022	-0,076
-352,766	270,456	-0,066	0,084
-351,752	-87,849	-0,038	-0,008
-350,737	-55,125	0,081	-0,026
-349,723	-200,000	0,001	0,128
-348,708	-107,821	-0,137	-0,022
-347,693	-200,000	0,004	0,107
-346,679	-66,745	-0,089	0,025
-345,664	800,000	0,024	0,060
-344,650	-74,670	0,047	0,012
-343,635	-171,953	-0,147	-0,003
-342,620	-152,752	-0,144	0,007
-341,606	-200,000	0,000	0,054
-340,591	185,037	0,057	-0,061
-339,577	124,140	-0,072	0,066
-338,562	4,254	-0,082	0,044
-337,548	800,000	-0,078	0,214
-336,533	-200,000	0,003	0,022
-335,518	209,158	0,064	0,073
-334,504	-200,000	-0,035	0,128
-333,489	-126,290	-0,205	-0,022
-332,475	-200,000	0,008	0,064
-331,460	163,048	0,062	-0,064
-330,445	49,050	-0,047	-0,032
-329,431	800,000	-0,046	0,094
-328,416	90,800	0,200	0,162
-327,402	-200,000	0,010	0,041
-326,387	233,671	0,087	0,104
-325,372	-153,222	-0,133	-0,007
-324,358	627,415	0,114	-0,211
-323,343	477,472	-0,011	0,018
-322,329	-32,584	0,049	0,020
-321,314	-19,149	0,076	0,034
-320,299	-200,000	-0,009	0,069
-319,285	508,583	-0,093	0,157
-318,270	335,493	0,092	0,130
-317,256	75,481	0,084	-0,064
-316,241	-42,819	-0,067	0,024
-315,226	-171,447	-0,131	0,003
-314,212	7,900	-0,038	-0,021
-313,197	107,972	0,027	-0,023
-312,183	93,849	-0,098	0,081
-311,168	110,986	-0,079	0,069
-310,153	649,595	-0,051	0,094
-309,139	-88,759	-0,056	0,012
-308,124	303,373	0,085	0,115
-307,110	-155,742	0,202	-0,009
-306,095	-79,245	0,031	-0,008
-305,080	157,467	-0,095	0,096
-304,066	-200,000	0,020	0,091
-303,051	286,407	-0,115	-0,151
-302,037	-200,000	-0,007	0,058
-301,022	245,045	0,058	0,071
-300,008	800,000	-0,004	-0,011
-298,993	464,203	-0,074	0,120
-297,978	-200,000	-0,006	0,034
-296,964	-200,000	0,014	0,073
-295,949	10,205	0,127	-0,070
-294,935	106,952	-0,102	0,087
-293,920	-74,857	-0,081	0,021
-292,905	800,000	0,089	-0,198
-291,891	-43,574	0,103	-0,037
-290,876	223,484	0,071	0,084
-289,862	-28,622	-0,054	-0,023
-288,847	800,000	0,053	-0,115
-287,832	-200,000	0,024	-0,125
-286,818	768,702	0,055	0,109
-285,803	-200,000	-0,025	0,094
-284,789	-200,000	0,002	0,059
-283,774	800,000	-0,059	-0,164
-282,759	-42,609	-0,051	0,019
-281,745	-200,000	0,030	-0,122
-280,730	-84,740	0,040	-0,009
-279,716	398,031	0,039	-0,060
-278,701	-75,269	0,060	-0,015
-277,686	-23,588	0,175	-0,076
-276,672	81,133	-0,119	-0,093
-275,657	458,049	0,011	-0,018
-274,643	-200,000	-0,005	-0,027
-273,628	28,792	0,074	0,045
-272,613	-200,000	-0,035	0,179
-271,599	-117,934	-0,043	0,005
-270,584	-89,964	0,009	-0,002
-269,570	-133,438	-0,136	0,012
-268,555	197,592	-0,090	-0,100
-267,540	21,342	0,026	-0,015
-266,526	-200,000	-0,022	-0,181
-265,511	-50,659	-0,038	-0,013
-264,497	-26,843	-0,108	-0,046
-263,482	800,000	0,060	0,136
-262,467	707,701	0,049	0,094
-261,453	112,125	0,036	0,031
-260,438	-135,827	-0,035	0,003
-259,424	-132,149	0,038	-0,003
-258,409	-200,000	0,005	-0,046
-257,395	-5,413	0,050	-0,025
-256,380	-200,000	0,001	0,033
-255,365	703,642	-0,033	0,064
-254,351	238,889	0,043	0,052
-253,336	134,675	-0,014	0,014
-252,322	142,348	-0,090	-0,086
-251,307	800,000	-0,026	-0,059
-250,292	-200,000	-0,002	-0,127
-249,278	800,000	-0,033	0,067
-248,263	-121,241	-0,066	-0,008
-247,249	83,634	0,049	-0,038
-246,234	-200,000	0,046	0,000
-245,219	-200,000	0,015	-0,124
-244,205	100,096	0,099	-0,083
-243,190	-73,176	0,087	0,023
-242,176	800,000	0,048	0,130
-241,161	-200,000	0,032	0,112
-240,146	-159,775	0,192	-0,007
-239,132	800,000	0,040	0,127
-238,117	-1,754	0,041	0,021
-237,103	800,000	0,007	-0,019
-236,088	106,350	0,079	-0,067
-235,073	16,893	-0,023	-0,013
-234,059	589,853	0,040	-0,072
-233,044	-102,040	0,035	0,006
-232,030	740,791	-0,039	-0,076
-231,015	-200,000	-0,028	0,092
-230,000	-139,037	0,059	-0,005
-228,986	800,000	0,062	-0,164
-227,971	800,000	0,044	-0,136
-226,957	211,007	0,093	-0,106
-225,942	59,533	-0,084	0,060
-224,927	-54,851	-0,036	-0,012
-223,913	760,417	0,023	0,046
-222,898	-60,586	-0,082	0,025
-221,884	800,000	-0,023	-0,048
-220,869	-200,000	0,000	0,003
-219,855	-200,000	0,007	0,046
-218,840	-200,000	-0,003	0,021
-217,825	-64,498	-0,032	-0,009
-216,811	-105,252	0,043	-0,007
-215,796	564,685	0,040	0,070
-214,782	662,567	-0,040	0,075
-213,767	800,000	-0,036	-0,090
-212,752	660,106	0,030	0,055
-211,738	169,683	0,026	0,027
-210,723	121,818	0,047	0,043
-209,709	800,000	-0,046	-0,093
-208,694	800,000	0,040	-0,108
-207,679	-141,473	-0,073	0,005
-206,665	-200,000	-0,001	0,162
-205,650	-126,725	0,075	-0,008
-204,636	285,818	-0,045	0,059
-203,621	800,000	0,005	0,012
-202,606	140,630	-0,060	-0,057
-201,592	-149,958	-0,042	-0,002
-200,577	239,877	0,086	-0,103
-199,563	467,277	0,051	0,083
-198,548	-46,761	-0,015	0,005
-197,533	-14,560	-0,077	0,036
-196,519	129,959	0,048	-0,044
-195,504	77,192	0,043	0,033
-194,490	800,000	-0,042	0,089
-193,475	-29,883	-0,077	-0,032
-192,460	800,000	0,039	-0,079
-191,446	800,000	0,047	0,124
-190,431	148,510	-0,101	0,098
-189,417	-200,000	0,034	0,114
-188,402	-23,196	-0,059	0,026
-187,387	235,959	0,063	-0,076
-186,373	-103,227	0,063	-0,011
-185,358	200,060	-0,055	0,061
-184,344	-33,712	0,102	-0,040
-183,329	-20,823	0,093	-0,041
-182,315	-22,761	0,048	0,021
-181,300	-200,000	0,010	-0,037
-180,285	-99,791	0,023	0,004
-179,271	-200,000	-0,022	-0,141
-178,256	-13,737	-0,008	0,004
-177,242	-125,157	0,036	0,004
-176,227	164,493	0,087	-0,088
-175,212	-45,846	0,096	-0,034
-174,198	151,049	-0,071	0,069
-173,183	-200,000	0,006	0,147
-172,169	-109,225	0,021	-0,003
-171,154	136,754	0,066	-0,062
-170,139	-200,000	0,007	0,063
-169,125	-200,000	0,031	0,122
-168,110	800,000	0,019	-0,057
-167,096	173,315	-0,068	0,071
-166,081	-116,496	0,116	0,015
-165,066	482,969	0,042	-0,070
-164,052	-200,000	-0,003	0,033
-163,037	-200,000	0,001	-0,062
-162,023	-200,000	-0,003	-0,022
-161,008	-152,875	-0,036	0,002
-159,993	508,777	0,024	-0,041
-158,979	601,547	-0,081	-0,146
-157,964	-200,000	0,015	-0,049
-156,950	-97,813	0,134	0,025
-155,935	800,000	-0,018	-0,050
-154,920	-169,210	0,080	-0,002
-153,906	-200,000	-0,025	-0,118
-152,891	212,385	0,106	0,120
-151,877	85,201	0,067	0,053
-150,862	78,371	-0,010	-0,007
-149,847	-2,058	-0,117	0,059
-148,833	-200,000	0,019	-0,103
-147,818	156,778	-0,004	0,004
-146,804	-176,028	0,118	-0,002
-145,789	-200,000	-0,010	0,108
-144,775	329,189	-0,033	-0,046
-143,760	120,925	0,033	0,029
-142,745	-98,591	-0,083	0,015
-141,731	-18,180	-0,015	-0,007
-140,716	270,703	-0,019	0,024
-139,702	445,210	-0,052	0,083
-138,687	313,370	-0,086	0,116
-137,672	149,625	0,060	0,059
-136,658	-162,795	-0,217	-0,007
-135,643	23,313	-0,065	-0,038
-134,629	157,652	0,103	0,102
-133,614	-114,639	0,073	0,010
-132,599	-12,581	0,129	0,060
-131,585	800,000	0,125	0,253
-130,570	-24,627	-0,130	0,055
-129,556	-200,000	0,015	-0,077
-128,541	156,720	0,053	-0,053
-127,526	179,352	0,078	-0,082
-126,512	-86,136	-0,134	-0,030
-125,497	283,161	-0,073	0,095
-124,483	-200,000	0,007	0,033
-123,468	800,000	-0,022	0,053
-122,453	21,201	0,078	-0,045
-121,439	37,318	-0,057	-0,036
-120,424	38,926	-0,026	-0,017
-119,410	800,000	-0,037	-0,080
-118,395	200,313	0,096	0,106
-117,380	224,156	-0,065	-0,075
-116,366	-69,353	-0,062	0,017
-115,351	-135,714	0,088	-0,007
-114,337	-200,000	0,021	-0,107
-113,322	-163,670	0,102	-0,003
-112,307	3,090	0,089	-0,046
-111,293	38,007	-0,080	0,051
-110,278	-52,387	0,073	-0,024
-109,264	-27,605	0,100	0,042
-108,249	-17,861	-0,067	-0,030
-107,234	393,817	-0,042	-0,063
-106,220	34,784	-0,074	-0,047
-105,205	338,632	-0,058	-0,081
-104,191	16,778	0,007	-0,004
-103,176	-109,476	-0,032	-0,005
-102,162	156,657	-0,085	-0,084
-101,147	483,281	-0,089	-0,146
-100,132	525,837	-0,067	0,113
-99,118	135,207	0,142	-0,133
-98,103	-200,000	-0,006	-0,122
-97,089	-200,000	0,001	0,107
-96,074	-52,547	0,092	0,030
-95,059	-200,000	-0,032	-0,130
-94,045	-200,000	0,014	0,090
-93,030	800,000	-0,033	-0,075
-92,016	800,000	-0,072	-0,162
-91,001	682,614	0,048	-0,090
-89,986	-200,000	0,001	-0,021
-88,972	135,358	0,045	0,042
-87,957	800,000	0,047	-0,135
-86,943	-170,445	-0,115	-0,003
-85,928	-200,000	0,020	-0,109
-84,913	291,652	0,054	-0,071
-83,899	-114,629	0,049	-0,007
-82,884	-133,132	0,164	-0,015
-81,870	800,000	0,021	-0,049
-80,855	-200,000	-0,020	0,094
-79,840	-157,626	-0,190	-0,008
-78,826	-73,614	-0,096	-0,025
-77,811	149,618	-0,081	0,079
-76,797	-46,526	0,122	0,043
-75,782	-200,000	-0,000	-0,023
-74,767	800,000	0,060	-0,153
-73,753	-200,000	-0,001	-0,039
-72,738	-64,148	-0,106	0,031
-71,724	-181,728	-0,077	0,001
-70,709	407,798	0,093	-0,142
-69,694	-200,000	-0,008	-0,067
-68,680	158,037	0,010	0,009
-67,665	800,000	0,021	0,044
-66,651	-144,963	-0,056	0,004
-65,636	29,986	-0,080	-0,049
-64,622	-200,000	-0,021	-0,078
-63,607	-200,000	-0,034	-0,183
-62,592	800,000	-0,046	-0,102
-61,578	-25,695	-0,060	-0,025
-60,563	535,581	-0,050	0,085
-59,549	28,448	-0,100	0,060
-58,534	11,334	-2,072	-1,136
-57,519	-200,000	-0,231	-0,975
-56,505	-200,000	-1,289	-5,020
-55,490	70,570	0,814	0,603
-54,476	800,000	5,200	11,795
-53,461	-200,000	17,860	290,481
-52,446	800,000	726,890	2230,889
-51,432	536,260	1639,536	2803,621
-50,417	109,623	1629,256	1400,982
-49,403	73,256	1283,257	962,229
-48,388	31,540	1026,114	631,622
-47,373	19,923	988,060	569,932
-46,359	18,251	976,548	557,792
-45,344	15,487	972,334	546,327
-44,330	15,742	970,856	546,307
-43,315	15,283	969,131	543,818
-42,300	15,248	967,889	542,985
-41,286	15,204	966,971	542,305
-40,271	15,230	966,045	541,850
-39,257	15,254	964,976	541,307
-38,242	15,289	964,200	540,962
-37,227	15,245	963,504	540,407
-36,213	15,289	962,593	540,019
-35,198	15,264	961,664	539,395
-34,184	15,337	960,845	539,149
-33,169	15,206	960,016	538,241
-32,154	15,337	959,023	538,084
-31,140	15,290	958,331	537,523
-30,125	15,344	957,455	537,183
-29,111	15,250	956,630	536,398
-28,096	15,298	956,021	536,191
-27,082	15,246	955,454	535,683
-26,067	15,355	954,564	535,513
-25,052	15,299	953,898	534,939
-24,038	15,265	952,975	534,291
-23,023	15,240	952,350	533,840
-22,009	15,269	951,828	533,618
-20,994	15,350	951,017	533,402
-19,979	15,294	950,506	532,913
-18,965	15,270	949,878	532,465
-17,950	15,309	949,245	532,213
-16,936	15,213	948,832	531,654
-15,921	15,240	948,051	531,281
-14,906	15,151	947,327	530,572
-13,892	15,143	946,732	530,190
-12,877	15,124	946,119	529,768
-11,863	15,126	945,531	529,422
-10,848	15,102	945,049	529,057
-9,833	15,218	944,523	529,108
-8,819	15,175	943,825	528,561
-7,804	15,201	943,072	528,201
-6,790	15,180	942,688	527,896
-5,775	15,164	942,108	527,501
-4,760	15,182	941,324	527,097
-3,746	15,153	940,837	526,713
-2,731	15,017	940,160	525,882
-1,717	15,011	939,451	525,446
-0,702	15,049	938,772	525,165
0,313	14,818	938,185	524,900
1,327	18,172	936,143	534,269
2,342	27,336	789,871	474,930
3,356	23,969	444,297	262,140
4,371	-5,731	295,109	144,466
5,386	-9,674	276,783	131,751
6,400	-11,048	271,009	127,715
7,415	-11,260	268,570	126,359
8,429	-11,165	267,279	125,828
9,444	-11,312	266,486	125,309
10,459	-11,087	265,783	125,173
11,473	-11,221	265,193	124,762
12,488	-11,272	264,608	124,429
13,502	-11,602	264,107	123,885
14,517	-11,353	263,601	123,860
15,531	-11,317	263,367	123,772
16,546	-11,026	262,915	123,810
17,561	-11,031	262,391	123,549
18,575	-11,148	262,427	123,449
19,590	-11,000	261,725	123,240
20,604	-11,095	261,730	123,147
21,619	-11,252	261,248	122,768
22,634	-11,219	260,832	122,592
23,648	-11,296	260,727	122,463
24,663	-11,291	260,355	122,281
25,677	-11,283	260,104	122,160
26,692	-11,322	259,847	121,994
27,707	-11,454	259,729	121,810
28,721	-11,346	259,203	121,649
29,736	-11,349	258,944	121,513
30,750	-11,406	258,761	121,366
31,765	-11,402	258,585	121,276
32,780	-11,221	258,165	121,228
33,794	-11,370	258,164	121,085
34,809	-11,459	257,976	120,908
35,823	-11,408	257,499	120,719
36,838	-11,306	257,256	120,684
37,853	-11,481	257,104	120,448
38,867	-11,335	256,745	120,397
39,882	-11,648	256,644	120,064
40,896	-11,418	256,300	120,094
41,911	-11,170	255,984	120,152
42,926	-11,572	255,956	119,777
43,940	-11,451	255,747	119,774
44,955	-11,530	255,559	119,606
45,969	-11,645	255,285	119,367
46,984	-11,767	254,933	119,086
47,999	-11,996	254,655	118,747
49,013	-12,218	254,601	118,517
50,028	-12,126	254,197	118,400
51,042	-12,490	254,018	117,989
52,057	-12,367	253,732	117,953
53,071	-12,470	253,640	117,810
54,086	-12,232	253,344	117,868
55,101	-12,010	253,363	118,058
56,115	-11,788	253,133	118,132
57,130	-11,497	252,956	118,290
58,144	-11,125	252,713	118,486
59,159	-11,146	252,561	118,386
60,174	-11,363	252,416	118,121
61,188	-11,152	252,175	118,179
62,203	-11,261	251,985	117,986
63,217	-11,305	251,689	117,799
64,232	-11,175	251,410	117,770
65,247	-11,279	251,301	117,618
66,261	-11,372	250,972	117,375
67,276	-11,451	250,874	117,251
68,290	-11,691	250,545	116,882
69,305	-11,899	250,289	116,575
70,320	-11,829	250,163	116,565
71,334	-11,646	249,935	116,605
72,349	-11,354	249,918	116,834
73,363	-10,959	249,621	117,021
74,378	-11,205	249,362	116,681
75,393	-11,134	249,260	116,682
76,407	-11,274	248,953	116,409
77,422	-11,361	248,812	116,260
78,436	-11,327	248,705	116,228
79,451	-11,303	248,465	116,126
80,466	-11,236	248,146	116,023
81,480	-11,488	247,844	115,659
82,495	-11,528	247,720	115,558
83,509	-11,536	247,610	115,489
84,524	-11,654	247,459	115,309
85,539	-11,887	247,181	114,973
86,553	-11,644	246,896	115,034
87,568	-11,474	246,627	115,042
88,582	-11,676	246,528	114,815
89,597	-11,620	246,429	114,806
90,611	-11,528	246,272	114,799
91,626	-11,346	246,026	114,827
92,641	-11,330	245,938	114,789
93,655	-11,583	245,723	114,467
94,670	-11,476	245,466	114,426
95,684	-11,626	245,437	114,278
96,699	-11,450	244,982	114,202
97,714	-11,638	244,928	114,011
98,728	-11,657	244,742	113,897
99,743	-11,888	244,506	113,586
100,757	-12,085	244,361	113,345
101,772	-11,861	244,198	113,445
102,787	-11,594	243,921	113,527
103,801	-11,659	243,633	113,330
104,816	-11,312	243,704	113,639
105,830	-11,436	243,391	113,381
106,845	-11,316	243,394	113,472
107,860	-11,425	243,173	113,268
108,874	-11,404	242,747	113,077
109,889	-11,558	242,537	112,842
110,903	-11,505	242,443	112,832
111,918	-11,523	242,135	112,664
112,933	-11,387	241,946	112,678
113,947	-11,419	241,926	112,632
114,962	-11,429	241,999	112,648
115,976	-11,588	241,780	112,405
116,991	-11,365	241,476	112,437
118,006	-11,353	241,259	112,335
119,020	-11,562	241,219	112,136
120,035	-11,408	241,075	112,185
121,049	-11,274	240,886	112,197
122,064	-11,303	240,646	112,051
123,079	-11,538	240,450	111,758
124,093	-11,586	240,194	111,590
125,108	-11,736	239,908	111,326
126,122	-11,638	239,621	111,261
127,137	-11,803	239,604	111,110
128,151	-11,718	239,468	111,106
129,166	-11,738	239,188	110,950
130,181	-11,896	238,993	110,721
131,195	-11,853	238,741	110,630
132,210	-11,670	238,765	110,779
133,224	-11,378	238,513	110,888
134,239	-11,407	238,268	110,741
135,254	-11,482	238,222	110,649
136,268	-11,890	238,114	110,260
137,283	-11,835	237,729	110,117
138,297	-12,082	237,685	109,887
139,312	-12,005	237,262	109,744
140,327	-11,763	237,232	109,914
141,341	-11,263	237,187	110,285
142,356	-11,126	237,108	110,349
143,370	-11,107	236,960	110,285
144,385	-11,165	236,819	110,163
145,400	-10,990	236,717	110,246
146,414	-11,030	236,330	110,023
147,429	-11,101	236,235	109,913
148,443	-11,196	236,012	109,723
149,458	-10,916	235,831	109,853
150,473	-11,162	235,793	109,629
151,487	-11,177	235,523	109,482
152,502	-11,315	235,459	109,333
153,516	-11,139	235,216	109,350
154,531	-10,974	235,055	109,397
155,546	-11,131	234,732	109,112
156,560	-11,230	234,793	109,052
157,575	-11,344	234,331	108,738
158,589	-11,377	234,142	108,614
159,604	-11,114	234,181	108,831
160,619	-11,021	234,014	108,817
161,633	-11,026	234,014	108,803
162,648	-10,971	233,824	108,749
163,662	-11,004	233,486	108,555
164,677	-11,068	233,348	108,431
165,692	-11,175	233,195	108,266
166,706	-10,861	233,088	108,454
167,721	-10,644	232,901	108,528
168,735	-10,933	232,884	108,284
169,750	-10,952	232,635	108,143
170,764	-11,018	232,595	108,063
171,779	-11,101	232,434	107,914
172,794	-11,092	232,341	107,868
173,808	-11,165	231,920	107,605
174,823	-11,680	231,833	107,152
175,837	-11,695	231,423	106,941
176,852	-11,354	231,479	107,224
177,867	-11,121	231,506	107,410
178,881	-11,000	231,236	107,369
179,896	-11,009	231,208	107,339
180,910	-11,002	231,064	107,269
181,925	-10,983	230,810	107,156
182,940	-11,016	230,713	107,075
183,954	-11,028	230,430	106,925
184,969	-11,167	230,435	106,810
185,983	-10,655	230,228	107,101
186,998	-10,762	230,146	106,971
188,013	-10,851	229,985	106,818
189,027	-10,870	229,704	106,663
190,042	-10,744	229,528	106,669
191,056	-11,098	229,358	106,307
192,071	-10,813	229,222	106,455
193,086	-10,764	229,058	106,407
194,100	-11,019	228,899	106,126
195,115	-11,447	228,586	105,642
196,129	-11,605	228,471	105,458
197,144	-5,983	230,331	110,664
198,159	0,286	232,202	116,436
199,173	2,922	232,863	118,810
200,188	3,128	232,915	118,986
201,202	3,383	232,592	119,008
202,217	3,806	232,422	119,239
203,232	3,833	232,519	119,300
204,246	3,870	232,355	119,233
205,261	3,854	232,206	119,134
206,275	4,145	232,036	119,261
207,290	4,115	232,006	119,212
208,304	4,034	231,706	118,985
209,319	3,872	231,634	118,812
210,334	3,779	231,473	118,647
211,348	3,742	231,069	118,401
212,363	3,227	230,802	117,857
213,377	2,875	230,800	117,574
214,392	3,029	230,474	117,516
215,407	3,078	230,510	117,562
216,421	3,476	230,220	117,708
217,436	3,352	230,178	117,582
218,450	3,065	229,812	117,164
219,465	2,944	229,707	117,008
220,480	3,030	229,566	116,991
221,494	2,883	229,477	116,823
222,509	3,005	229,439	116,887
223,523	3,349	229,148	116,990
224,538	3,056	228,997	116,679
225,553	3,091	228,885	116,638
226,567	3,371	228,760	116,778
227,582	3,394	228,740	116,774
228,596	3,330	228,659	116,674
229,611	3,452	228,322	116,585
230,626	3,023	228,134	116,152
231,640	3,062	227,960	116,083
232,655	3,449	227,843	116,306
233,669	3,734	227,922	116,553
234,684	3,819	227,780	116,534
235,699	3,664	227,526	116,276
236,713	3,296	227,425	115,936
237,728	3,179	227,165	115,704
238,742	3,030	226,937	115,466
239,757	3,205	226,759	115,496
240,772	3,114	226,614	115,344
241,786	3,125	226,608	115,339
242,801	3,237	226,393	115,304
243,815	3,723	226,406	115,666
244,830	3,626	226,212	115,483
245,844	3,148	225,898	114,954
246,859	3,488	225,791	115,144
247,874	3,424	225,744	115,063
248,888	3,613	225,623	115,132
249,903	3,387	225,451	114,865
250,917	3,206	225,248	114,615
251,932	3,337	225,049	114,602
252,947	2,899	224,997	114,238
253,961	3,044	224,812	114,242
254,976	3,353	224,552	114,330
255,990	3,559	224,610	114,503
257,005	3,418	224,482	114,323
258,020	3,318	224,292	114,141
259,034	3,436	224,276	114,211
260,049	3,492	224,080	114,143
261,063	3,359	223,954	113,970
262,078	3,581	223,826	114,059
263,093	3,779	223,580	114,070
264,107	3,579	223,313	113,776
265,122	3,444	223,431	113,725
266,136	3,514	223,295	113,698
267,151	3,638	223,090	113,675
268,166	3,312	222,695	113,223
269,180	2,819	222,528	112,764
270,195	3,071	222,401	112,875
271,209	3,111	222,315	112,851
272,224	3,240	222,297	112,927
273,239	3,528	222,002	112,979
274,253	3,210	221,810	112,637
275,268	3,060	221,743	112,483
276,282	2,884	221,536	112,238
277,297	2,866	221,281	112,086
278,312	2,945	221,268	112,127
279,326	3,116	221,237	112,227
280,341	3,226	221,122	112,240
281,355	3,268	220,936	112,166
282,370	3,033	220,783	111,906
283,384	2,727	220,599	111,579
284,399	2,864	220,423	111,580
285,414	2,761	220,375	111,470
286,428	3,335	220,270	111,827
287,443	3,518	220,085	111,857
288,457	3,164	219,997	111,544
289,472	2,994	219,763	111,291
290,487	2,950	219,575	111,155
291,501	2,665	219,416	110,857
292,516	2,795	219,312	110,889
293,530	2,720	219,239	110,787
294,545	2,972	219,074	110,877
295,560	2,851	219,152	110,819
296,574	3,155	218,904	110,904
297,589	3,281	218,705	110,885
298,603	3,062	218,519	110,622
299,618	3,163	218,390	110,619
300,633	3,197	218,408	110,643
301,647	3,303	218,293	110,652
302,662	3,409	218,077	110,609
303,676	3,267	217,833	110,373
304,691	3,442	217,712	110,428
305,706	3,426	217,611	110,356
306,720	3,299	217,563	110,230
307,735	3,270	217,298	110,065
308,749	3,095	217,107	109,832
309,764	3,340	217,067	109,978
310,779	3,485	217,043	110,061
311,793	3,323	216,803	109,813
312,808	3,115	216,768	109,636
313,822	3,164	216,618	109,586
314,837	3,258	216,320	109,492
315,852	3,045	216,243	109,292
316,866	3,190	216,091	109,308
317,881	3,425	216,044	109,443
318,895	3,347	215,772	109,240
319,910	3,299	215,458	109,037
320,925	2,755	215,471	108,646
321,939	2,918	215,213	108,622
322,954	3,013	215,109	108,628
323,968	3,231	215,105	108,771
324,983	3,352	214,982	108,785
325,997	3,490	214,821	108,792
327,012	3,291	214,727	108,593
328,027	3,292	214,422	108,431
329,041	3,564	214,559	108,683
330,056	3,601	214,560	108,699
331,070	3,467	214,234	108,430
332,085	2,838	214,041	107,878
333,100	3,026	213,955	107,958
334,114	3,472	213,812	108,191
335,129	3,326	213,565	107,953
336,143	3,091	213,538	107,765
337,158	3,054	213,539	107,729
338,173	3,080	213,225	107,579
339,187	3,035	213,050	107,450
340,202	2,785	212,881	107,180
341,216	2,802	212,731	107,106
342,231	2,982	212,497	107,105
343,246	2,986	212,500	107,100
344,260	3,243	212,234	107,136
345,275	3,152	212,286	107,089
346,289	3,617	211,999	107,260
347,304	3,364	212,051	107,100
348,319	3,186	211,883	106,881
349,333	3,246	211,677	106,809
350,348	3,444	211,622	106,911
351,362	3,424	211,566	106,859
352,377	3,422	211,477	106,803
353,392	3,438	211,214	106,671
354,406	3,335	211,016	106,490
355,421	194,907	1340,828	1416,645
356,435	155,650	1478,441	1416,606
