DTS Sentinel unit serial number:	SN410029Multiplexer serial number:	ORYXHardware model number:	OX2-SRSoftware version number:	ORYX F/W v4,00 Oryx Data Collector v3.7.2.0data status	okinstallation	B6 Nyhavnadifferential loss correction	single-endedforward channel	channel 2reverse channel	N/Adate	2023/12/07time	20:15:08forward acquisition time	300,00reverse acquisition time	0,00gamma	499,1914k internal	0,3165k external	0,3165temperature offset calibration	1,0000default loss term (dB/km)	0,3820temperature slope calibration	1,0000multiplexer offset coefficient	1,0000multiplexer slope coefficient	1,0000fibre end	0,00T internal ref (°C)	13,87T ext. ref 1 (°C)	-3,11T ext. ref 2 (°C)	-3,11length (m)	temperature (°C)	Stokes	anti-Stokes-744,400	107,769	0,117	0,102
-743,385	-167,536	-0,311	-0,009
-742,371	358,645	0,121	0,178
-741,356	-74,226	-0,420	0,111
-740,342	190,695	0,093	0,103
-739,327	-177,223	-0,314	-0,006
-738,312	-200,000	0,022	0,169
-737,298	-134,876	-0,335	-0,029
-736,283	181,469	-0,079	0,085
-735,269	-114,293	-0,253	-0,035
-734,254	-28,313	0,147	0,062
-733,239	-18,925	-0,481	-0,219
-732,225	-45,827	0,176	0,064
-731,210	-200,000	-0,001	-0,005
-730,196	-200,000	0,005	0,038
-729,181	-117,977	-0,048	0,006
-728,167	400,931	-0,094	-0,145
-727,152	-200,000	-0,009	0,085
-726,137	-169,528	-0,077	-0,002
-725,123	65,231	0,019	-0,014
-724,108	-54,513	-0,111	-0,037
-723,094	27,551	-0,073	-0,045
-722,079	-144,180	-0,115	0,008
-721,064	70,016	-0,049	-0,037
-720,050	-200,000	-0,024	0,108
-719,035	39,067	0,121	-0,080
-718,021	190,632	-0,034	-0,037
-717,006	34,441	-0,056	-0,036
-715,991	-188,316	-0,122	0,001
-714,977	-200,000	0,005	-0,099
-713,962	62,788	0,133	0,098
-712,948	-200,000	0,027	0,091
-711,933	-90,265	-0,141	-0,030
-710,918	1,517	-0,195	-0,103
-709,904	780,075	-0,068	-0,138
-708,889	-200,000	-0,002	0,015
-707,875	-16,094	-0,167	0,077
-706,860	182,213	0,035	-0,038
-705,845	100,463	0,098	0,084
-704,831	-72,478	0,123	0,033
-703,816	800,000	-0,065	-0,134
-702,802	-84,177	-0,053	0,012
-701,787	-200,000	-0,016	-0,062
-700,772	23,540	-0,103	0,062
-699,758	-200,000	0,003	-0,086
-698,743	-24,447	-0,086	0,038
-697,729	8,889	0,110	-0,061
-696,714	-200,000	-0,007	-0,028
-695,699	364,300	0,004	0,006
-694,685	-80,551	-0,178	-0,043
-693,670	284,834	0,030	-0,040
-692,656	-200,000	-0,022	-0,101
-691,641	-56,462	0,206	0,067
-690,627	85,862	0,072	0,058
-689,612	408,319	0,089	-0,139
-688,597	-200,000	0,004	0,133
-687,583	125,740	-0,122	0,114
-686,568	681,040	-0,026	-0,051
-685,554	-173,701	-0,120	-0,003
-684,539	90,275	0,092	-0,076
-683,524	-51,135	0,216	0,074
-682,510	478,712	0,049	0,081
-681,495	38,626	-0,050	-0,032
-680,481	-200,000	0,007	-0,133
-679,466	800,000	-0,036	-0,110
-678,451	515,860	-0,028	-0,049
-677,437	531,776	0,069	0,120
-676,422	-96,338	0,181	0,035
-675,408	272,769	0,046	0,059
-674,393	800,000	0,028	-0,061
-673,378	247,440	-0,025	0,031
-672,364	-200,000	-0,013	0,054
-671,349	-108,102	-0,091	0,014
-670,335	-200,000	0,009	0,063
-669,320	-68,161	0,136	-0,039
-668,305	-130,915	-0,051	-0,005
-667,291	-200,000	0,022	0,101
-666,276	-200,000	0,022	-0,071
-665,262	-87,088	-0,051	-0,011
-664,247	-200,000	0,001	0,082
-663,232	-156,351	-0,130	0,006
-662,218	89,428	-0,063	0,052
-661,203	-129,948	0,111	-0,011
-660,189	392,160	0,080	0,122
-659,174	474,324	-0,011	0,018
-658,159	-47,157	-0,116	-0,041
-657,145	111,019	0,101	-0,089
-656,130	221,387	0,030	0,036
-655,116	-132,796	0,115	-0,011
-654,101	130,094	-0,110	-0,103
-653,086	131,965	0,058	0,055
-652,072	492,202	0,045	0,076
-651,057	-59,922	-0,036	0,011
-650,043	-200,000	-0,001	0,016
-649,028	-5,145	-0,149	-0,075
-648,014	225,289	0,006	0,008
-646,999	800,000	0,031	-0,095
-645,984	586,939	-0,057	-0,103
-644,970	-138,108	-0,058	-0,005
-643,955	800,000	-0,019	-0,044
-642,941	-66,570	-0,205	-0,059
-641,926	-10,055	-0,138	0,067
-640,911	-78,695	-0,061	0,015
-639,897	1,986	-0,076	0,040
-638,882	-33,701	-0,101	-0,040
-637,868	-200,000	-0,007	-0,147
-636,853	-92,407	-0,122	0,025
-635,838	-114,421	-0,115	-0,016
-634,824	116,733	-0,061	-0,055
-633,809	94,602	0,193	-0,160
-632,795	-200,000	-0,030	0,108
-631,780	800,000	0,044	0,126
-630,765	-200,000	-0,004	-0,060
-629,751	192,458	-0,050	-0,056
-628,736	-200,000	0,000	0,053
-627,722	127,116	0,035	-0,033
-626,707	295,417	0,070	0,095
-625,692	-63,609	-0,035	0,010
-624,678	-200,000	0,002	0,083
-623,663	-97,283	-0,100	-0,019
-622,649	800,000	-0,021	0,056
-621,634	623,895	-0,072	-0,133
-620,619	-200,000	-0,002	-0,134
-619,605	-126,316	0,106	0,011
-618,590	155,942	-0,088	-0,089
-617,576	-87,469	0,079	0,017
-616,561	540,516	-0,033	-0,057
-615,546	-200,000	0,002	-0,010
-614,532	33,612	0,092	0,058
-613,517	-15,019	-0,078	-0,037
-612,503	710,295	-0,035	-0,068
-611,488	-20,811	0,096	0,043
-610,474	245,147	0,106	-0,131
-609,459	384,030	0,036	0,054
-608,444	-40,093	-0,066	0,025
-607,430	65,525	-0,005	0,003
-606,415	287,649	-0,040	-0,054
-605,401	-200,000	0,015	-0,090
-604,386	-71,621	-0,041	-0,011
-603,371	-91,916	0,131	0,027
-602,357	-137,319	-0,185	0,015
-601,342	-10,552	-0,071	0,034
-600,328	-200,000	-0,016	-0,219
-599,313	-130,602	-0,093	-0,009
-598,298	100,423	-0,067	-0,057
-597,284	386,950	0,113	0,171
-596,269	800,000	0,050	0,127
-595,255	-53,540	-0,082	-0,027
-594,240	181,763	-0,083	-0,090
-593,225	508,426	-0,051	-0,086
-592,211	-19,858	-0,020	-0,009
-591,196	800,000	0,032	0,077
-590,182	45,944	-0,146	-0,099
-589,167	-28,014	0,055	-0,023
-588,152	158,608	-0,071	0,072
-587,138	352,812	-0,077	0,112
-586,123	800,000	0,090	-0,196
-585,109	375,438	0,056	-0,083
-584,094	-42,464	-0,077	-0,029
-583,079	201,907	-0,019	0,022
-582,065	195,416	0,074	0,082
-581,050	-200,000	0,009	-0,096
-580,036	90,365	-0,099	-0,081
-579,021	61,576	-0,098	-0,071
-578,006	77,395	0,114	-0,088
-576,992	502,483	-0,072	-0,122
-575,977	56,055	0,104	-0,074
-574,963	800,000	0,035	-0,108
-573,948	30,530	0,107	0,067
-572,934	-200,000	0,011	0,057
-571,919	-200,000	-0,006	-0,050
-570,904	520,683	-0,057	-0,098
-569,890	-200,000	-0,020	-0,126
-568,875	-200,000	0,013	-0,104
-567,861	-1,964	-0,040	-0,020
-566,846	-200,000	0,020	0,071
-565,831	-11,717	0,066	0,031
-564,817	800,000	0,038	-0,113
-563,802	206,328	0,055	0,063
-562,788	16,566	-0,086	-0,049
-561,773	-61,951	0,074	0,022
-560,758	-122,144	-0,029	-0,003
-559,744	-200,000	-0,018	0,103
-558,729	-15,766	-0,018	0,008
-557,715	74,286	-0,160	-0,123
-556,700	460,778	0,021	-0,035
-555,685	621,614	0,050	-0,093
-554,671	231,309	0,048	-0,057
-553,656	223,298	0,114	0,134
-552,642	800,000	-0,036	-0,090
-551,627	800,000	-0,062	0,134
-550,612	800,000	0,038	0,109
-549,598	-107,052	-0,103	-0,016
-548,583	27,919	-0,021	-0,013
-547,569	-33,811	0,033	0,013
-546,554	107,099	0,062	0,054
-545,539	-156,025	-0,156	-0,007
-544,525	476,633	0,079	0,130
-543,510	-200,000	0,001	0,097
-542,496	-200,000	-0,018	0,089
-541,481	800,000	-0,014	0,038
-540,466	9,460	0,018	-0,010
-539,452	800,000	0,047	-0,129
-538,437	-148,088	-0,053	0,003
-537,423	800,000	0,004	0,011
-536,408	-20,417	-0,061	-0,027
-535,393	121,501	-0,127	0,115
-534,379	-31,666	-0,101	-0,041
-533,364	-82,129	-0,109	0,026
-532,350	800,000	-0,022	0,062
-531,335	-200,000	0,010	0,057
-530,321	-99,253	-0,040	-0,007
-529,306	800,000	0,032	-0,101
-528,291	691,963	0,015	-0,028
-527,277	-84,186	0,042	0,010
-526,262	800,000	-0,038	-0,084
-525,248	30,213	0,024	0,015
-524,233	800,000	-0,090	0,207
-523,218	-88,081	0,072	0,016
-522,204	-200,000	0,009	0,043
-521,189	-200,000	-0,020	-0,112
-520,175	431,825	0,063	-0,101
-519,160	-105,016	-0,057	-0,009
-518,145	418,339	-0,072	-0,112
-517,131	-200,000	0,005	-0,049
-516,116	83,192	0,069	0,055
-515,102	164,169	-0,081	-0,083
-514,087	-6,983	-0,020	-0,010
-513,072	-172,750	0,098	0,002
-512,058	158,777	-0,094	-0,096
-511,043	264,065	0,019	0,024
-510,029	102,030	-0,036	-0,031
-509,014	616,233	0,042	-0,077
-507,999	337,949	0,050	0,071
-506,985	200,135	0,070	-0,079
-505,970	800,000	0,022	-0,070
-504,956	-200,000	0,013	-0,075
-503,941	-13,975	-0,034	0,016
-502,926	-38,982	-0,117	-0,044
-501,912	800,000	0,088	0,191
-500,897	800,000	-0,034	-0,079
-499,883	660,537	0,041	-0,078
-498,868	-13,331	0,037	-0,017
-497,853	17,390	-0,067	0,038
-496,839	-200,000	-0,028	0,096
-495,824	800,000	-0,043	0,104
-494,810	-73,846	0,081	0,021
-493,795	-171,441	-0,155	0,004
-492,781	-91,804	-0,094	-0,019
-491,766	-200,000	-0,003	-0,071
-490,751	-107,459	-0,038	0,006
-489,737	-116,194	0,181	0,024
-488,722	4,920	-0,060	0,032
-487,708	-21,082	0,078	0,035
-486,693	156,634	-0,041	0,042
-485,678	144,780	-0,117	-0,114
-484,664	-107,680	0,052	-0,008
-483,649	730,462	-0,022	0,043
-482,635	800,000	-0,011	0,029
-481,620	70,053	-0,033	-0,024
-480,605	800,000	0,102	0,225
-479,591	-200,000	0,023	0,108
-478,576	-200,000	-0,005	0,062
-477,562	168,028	-0,096	-0,099
-476,547	608,499	0,047	-0,086
-475,532	26,450	0,098	-0,059
-474,518	44,298	-0,087	-0,058
-473,503	31,925	-0,052	-0,032
-472,489	343,955	-0,012	-0,018
-471,474	800,000	-0,031	-0,065
-470,459	531,043	0,043	-0,074
-469,445	157,417	0,080	-0,081
-468,430	-34,940	0,167	-0,066
-467,416	-16,839	-0,088	0,040
-466,401	800,000	0,020	0,044
-465,386	-30,674	0,121	-0,050
-464,372	-200,000	0,026	0,158
-463,357	-200,000	0,018	0,119
-462,343	282,213	-0,044	0,057
-461,328	179,816	0,009	0,009
-460,313	-200,000	0,034	0,157
-459,299	-62,559	-0,092	0,028
-458,284	-119,171	-0,029	0,004
-457,270	-200,000	-0,009	0,128
-456,255	-200,000	-0,040	-0,130
-455,241	-125,745	0,065	0,007
-454,226	-136,533	-0,090	0,007
-453,211	14,869	0,100	0,057
-452,197	-200,000	-0,012	0,081
-451,182	-79,361	0,148	0,036
-450,168	-89,617	0,151	0,032
-449,153	-76,189	-0,032	0,008
-448,138	-200,000	0,004	-0,012
-447,124	14,672	-0,057	0,032
-446,109	191,550	0,046	-0,051
-445,095	181,399	-0,014	0,015
-444,080	14,426	0,084	0,047
-443,065	-106,188	-0,035	0,006
-442,051	163,464	-0,142	0,145
-441,036	111,949	0,090	-0,079
-440,022	-200,000	-0,005	-0,070
-439,007	-200,000	0,005	-0,019
-437,992	800,000	0,016	-0,047
-436,978	10,730	0,175	-0,097
-435,963	800,000	-0,031	-0,078
-434,949	446,858	-0,019	0,031
-433,934	-48,006	-0,052	-0,018
-432,919	-200,000	-0,011	-0,035
-431,905	-200,000	0,012	-0,045
-430,890	579,894	-0,037	-0,067
-429,876	171,979	0,017	0,017
-428,861	569,538	0,040	0,070
-427,846	-200,000	-0,001	0,050
-426,832	-200,000	0,036	0,117
-425,817	85,820	-0,106	-0,084
-424,803	-10,471	-0,078	-0,037
-423,788	-200,000	0,029	-0,123
-422,773	800,000	-0,048	-0,103
-421,759	243,919	-0,080	0,098
-420,744	208,099	0,102	-0,116
-419,730	60,567	0,053	-0,038
-418,715	449,801	-0,071	0,114
-417,701	-200,000	-0,015	0,060
-416,686	-24,728	0,070	-0,030
-415,671	-49,242	-0,074	0,026
-414,657	350,989	0,061	0,088
-413,642	-0,045	0,137	0,070
-412,628	-200,000	0,003	-0,023
-411,613	-200,000	-0,004	0,025
-410,598	-155,591	0,157	-0,007
-409,584	-131,984	0,048	-0,005
-408,569	304,185	0,064	0,086
-407,555	193,640	0,054	0,059
-406,540	-110,681	0,128	0,019
-405,525	-200,000	0,003	-0,020
-404,511	800,000	0,040	-0,121
-403,496	-200,000	0,001	0,083
-402,482	128,888	-0,099	0,092
-401,467	10,668	0,097	0,053
-400,452	-75,316	0,071	-0,018
-399,438	-45,896	-0,094	0,034
-398,423	518,353	-0,038	0,064
-397,409	800,000	0,018	0,054
-396,394	-15,003	-0,079	0,037
-395,379	92,535	0,013	0,011
-394,365	124,278	-0,061	-0,055
-393,350	106,327	0,121	-0,104
-392,336	-45,409	-0,105	-0,037
-391,321	800,000	-0,036	0,078
-390,306	14,997	-0,084	0,047
-389,292	-139,547	-0,085	0,007
-388,277	349,631	-0,040	0,057
-387,263	42,295	0,162	-0,106
-386,248	60,492	-0,094	-0,067
-385,233	-73,169	0,188	0,049
-384,219	84,992	-0,035	0,028
-383,204	-136,043	-0,122	0,010
-382,190	112,238	0,095	-0,083
-381,175	-98,882	-0,054	0,010
-380,160	-200,000	-0,010	-0,079
-379,146	-64,064	-0,077	0,023
-378,131	-200,000	0,005	0,064
-377,117	800,000	-0,005	-0,012
-376,102	8,268	-0,113	0,061
-375,088	243,667	-0,120	-0,146
-374,073	235,012	0,090	-0,107
-373,058	800,000	-0,024	0,075
-372,044	1,606	0,169	0,088
-371,029	-10,194	-0,149	0,071
-370,015	-200,000	-0,052	0,245
-369,000	658,874	-0,074	0,140
-367,985	-42,193	-0,040	0,015
-366,971	44,319	0,043	0,029
-365,956	-200,000	0,008	-0,119
-364,942	-133,641	0,126	0,011
-363,927	-200,000	-0,006	0,036
-362,912	800,000	-0,045	0,138
-361,898	-200,000	0,001	0,023
-360,883	-49,795	-0,111	0,038
-359,869	42,028	0,157	0,103
-358,854	468,253	-0,076	-0,124
-357,839	138,044	-0,095	0,091
-356,825	85,286	0,082	0,065
-355,810	445,294	-0,035	-0,055
-354,796	-114,090	-0,078	0,011
-353,781	-16,210	-0,085	-0,039
-352,766	582,970	0,062	-0,111
-351,752	-16,705	0,077	0,035
-350,737	189,246	0,126	0,137
-349,723	107,279	-0,021	0,018
-348,708	-7,548	0,114	-0,056
-347,693	149,477	-0,072	-0,071
-346,679	80,833	-0,047	0,036
-345,664	-200,000	0,005	-0,086
-344,650	143,712	0,102	-0,099
-343,635	-200,000	-0,010	0,041
-342,620	-153,977	0,081	0,004
-341,606	-200,000	0,015	0,096
-340,591	-200,000	-0,024	0,099
-339,577	-30,667	0,036	-0,015
-338,562	244,144	-0,060	0,073
-337,548	-104,999	-0,134	0,022
-336,533	-122,866	0,150	-0,017
-335,518	-15,095	0,060	0,028
-334,504	-200,000	-0,016	-0,076
-333,489	338,152	-0,036	0,051
-332,475	800,000	-0,052	-0,140
-331,460	99,416	-0,041	-0,034
-330,445	-28,501	0,080	-0,033
-329,431	800,000	-0,050	0,114
-328,416	-51,382	0,023	-0,008
-327,402	-45,604	-0,101	-0,036
-326,387	55,704	0,053	-0,037
-325,372	-55,564	0,030	-0,010
-324,358	-200,000	0,041	-0,145
-323,343	800,000	0,039	-0,123
-322,329	227,999	0,094	-0,111
-321,314	511,691	0,057	-0,096
-320,299	94,336	0,100	-0,082
-319,285	-30,331	-0,033	0,014
-318,270	-180,033	-0,214	-0,003
-317,256	800,000	-0,016	0,036
-316,241	800,000	-0,012	-0,027
-315,226	-144,526	0,088	-0,006
-314,212	208,961	-0,057	0,064
-313,197	-20,666	0,049	0,022
-312,183	-116,540	-0,062	-0,008
-311,168	-55,706	-0,085	-0,027
-310,153	16,888	0,132	-0,075
-309,139	104,911	0,051	-0,043
-308,124	353,235	0,024	0,035
-307,110	64,397	0,065	0,048
-306,095	240,514	0,067	0,081
-305,080	-104,318	-0,058	-0,010
-304,066	-200,000	0,020	-0,095
-303,051	-15,233	-0,146	0,067
-302,037	337,061	0,056	-0,079
-301,022	33,339	0,053	0,033
-300,008	-200,000	0,018	0,063
-298,993	-112,812	0,065	-0,009
-297,978	-18,703	-0,084	0,038
-296,964	26,542	-0,040	0,024
-295,949	93,549	0,032	-0,026
-294,935	800,000	0,030	-0,085
-293,920	22,638	-0,009	0,005
-292,905	-200,000	0,022	-0,081
-291,891	-200,000	0,012	0,112
-290,876	800,000	-0,013	0,039
-289,862	91,705	-0,064	0,052
-288,847	-200,000	-0,011	-0,098
-287,832	142,922	0,080	-0,076
-286,818	-106,802	-0,048	0,008
-285,803	88,666	0,067	0,054
-284,789	-32,144	0,085	0,034
-283,774	-200,000	0,007	0,080
-282,759	301,628	-0,041	-0,055
-281,745	-200,000	-0,018	-0,187
-280,730	-12,745	-0,172	0,081
-279,716	800,000	0,026	-0,072
-278,701	-200,000	0,006	0,054
-277,686	-200,000	0,006	-0,021
-276,672	332,701	0,033	0,046
-275,657	289,600	0,072	-0,095
-274,643	261,859	-0,049	0,061
-273,628	8,818	-0,086	0,047
-272,613	-200,000	0,003	-0,126
-271,599	34,817	0,051	0,032
-270,584	243,248	0,048	0,059
-269,570	-129,635	0,040	0,004
-268,555	49,300	0,050	-0,034
-267,540	-200,000	-0,016	0,067
-266,526	800,000	-0,022	-0,059
-265,511	800,000	0,049	-0,098
-264,497	-92,370	-0,154	0,031
-263,482	71,908	0,128	0,096
-262,467	-200,000	0,008	0,037
-261,453	-92,694	0,131	0,026
-260,438	-200,000	0,001	-0,109
-259,424	-200,000	0,019	-0,077
-258,409	229,738	0,046	-0,054
-257,395	273,950	0,093	-0,119
-256,380	504,082	0,073	0,122
-255,365	-94,757	-0,097	0,019
-254,351	-48,815	0,061	-0,021
-253,336	-63,906	0,090	-0,026
-252,322	-200,000	-0,028	-0,171
-251,307	-200,000	0,000	0,018
-250,292	335,614	0,027	-0,038
-249,278	667,716	0,037	-0,069
-248,263	-76,273	0,066	0,017
-247,249	800,000	0,059	-0,139
-246,234	109,999	0,058	0,050
-245,219	-26,475	-0,042	0,018
-244,205	506,538	-0,057	-0,096
-243,190	265,386	0,096	0,121
-242,176	-200,000	0,052	0,182
-241,161	-200,000	0,010	0,160
-240,146	410,717	0,068	0,104
-239,132	146,272	-0,119	0,115
-238,117	300,289	0,005	0,006
-237,103	52,693	-0,013	-0,009
-236,088	455,989	-0,075	-0,121
-235,073	-131,968	0,060	0,006
-234,059	-109,249	0,145	-0,022
-233,044	145,787	0,087	-0,084
-232,030	-200,000	0,016	0,075
-231,015	499,913	-0,031	0,051
-230,000	-99,136	0,042	-0,008
-228,986	-200,000	0,001	0,048
-227,971	-151,668	0,042	0,002
-226,957	642,536	0,104	0,193
-225,942	-181,385	0,085	-0,001
-224,927	-160,850	-0,074	-0,003
-223,913	-144,045	-0,102	-0,007
-222,898	267,722	-0,047	-0,059
-221,884	151,245	-0,082	0,080
-220,869	-200,000	-0,005	0,039
-219,855	800,000	-0,010	0,027
-218,840	-122,579	-0,041	0,005
-217,825	-200,000	-0,001	0,130
-216,811	-6,939	-0,081	0,040
-215,796	196,785	0,075	0,082
-214,782	-118,467	-0,069	0,009
-213,767	800,000	0,056	0,119
-212,752	-200,000	0,039	0,143
-211,738	265,641	0,071	0,090
-210,723	277,178	0,072	0,093
-209,709	118,845	0,048	-0,043
-208,694	-109,431	-0,042	-0,006
-207,679	800,000	0,042	-0,117
-206,665	-200,000	-0,095	0,000
-205,650	-166,485	0,135	-0,004
-204,636	130,525	0,073	-0,067
-203,621	303,990	0,068	0,091
-202,606	-86,521	-0,065	-0,014
-201,592	405,301	0,045	0,069
-200,577	-61,355	-0,104	0,031
-199,563	800,000	0,085	0,205
-198,548	1,166	0,050	-0,026
-197,533	-23,544	-0,025	0,011
-196,519	-2,825	-0,059	0,030
-195,504	-17,580	-0,153	-0,069
-194,490	-70,552	0,163	0,044
-193,475	-102,037	-0,103	0,018
-192,460	-200,000	0,014	-0,069
-191,446	39,145	0,115	-0,074
-190,431	654,981	-0,019	-0,036
-189,417	306,945	-0,079	-0,106
-188,402	-200,000	0,020	-0,066
-187,387	284,430	0,058	-0,075
-186,373	353,569	0,037	-0,052
-185,358	583,530	0,050	0,089
-184,344	-191,388	0,149	-0,001
-183,329	-88,590	0,124	-0,026
-182,315	-20,335	0,098	0,043
-181,300	-29,979	-0,106	-0,043
-180,285	-200,000	-0,023	0,221
-179,271	295,989	-0,114	0,151
-178,256	121,110	0,022	-0,020
-177,242	759,216	-0,022	-0,043
-176,227	-142,077	0,197	-0,014
-175,212	364,669	-0,059	-0,085
-174,198	-45,382	-0,137	0,049
-173,183	-165,007	-0,145	0,005
-172,169	-200,000	-0,003	0,041
-171,154	384,549	-0,032	-0,047
-170,139	-200,000	0,032	0,125
-169,125	-182,270	0,032	-0,000
-168,110	-200,000	-0,006	-0,217
-167,096	-200,000	0,018	0,067
-166,081	137,089	-0,005	0,004
-165,066	-200,000	-0,002	-0,025
-164,052	51,857	-0,096	-0,066
-163,037	230,847	-0,046	0,054
-162,023	-200,000	0,015	0,195
-161,008	800,000	0,014	0,040
-159,993	-200,000	0,007	0,110
-158,979	-95,527	0,089	0,017
-157,964	-85,019	-0,090	0,020
-156,950	800,000	-0,047	-0,109
-155,935	-0,651	-0,044	0,022
-154,920	66,438	0,054	-0,039
-153,906	800,000	-0,028	0,075
-152,891	479,419	-0,016	-0,026
-151,877	-196,450	-0,188	0,001
-150,862	119,763	-0,052	-0,046
-149,847	196,633	-0,063	0,069
-148,833	-200,000	-0,010	0,111
-147,818	-20,806	0,089	0,039
-146,804	-200,000	-0,034	-0,121
-145,789	106,323	0,053	-0,045
-144,775	-200,000	0,032	-0,126
-143,760	214,979	-0,081	-0,093
-142,745	36,439	-0,092	-0,058
-141,731	-200,000	-0,005	-0,080
-140,716	-200,000	0,020	-0,081
-139,702	-200,000	-0,025	0,000
-138,687	73,496	-0,051	-0,039
-137,672	-200,000	0,007	-0,177
-136,658	800,000	-0,017	-0,048
-135,643	-15,662	-0,057	-0,026
-134,629	62,992	-0,012	-0,009
-133,614	-33,776	-0,096	0,038
-132,599	-200,000	0,033	0,113
-131,585	616,091	0,069	0,124
-130,570	104,950	0,039	0,033
-129,556	-80,593	0,069	-0,016
-128,541	700,577	-0,037	-0,070
-127,526	800,000	0,063	-0,143
-126,512	121,985	-0,094	0,084
-125,497	-137,403	0,127	0,010
-124,483	-115,461	-0,057	0,008
-123,468	-30,676	0,081	-0,033
-122,453	286,814	-0,076	-0,098
-121,439	-123,445	-0,087	0,010
-120,424	-200,000	-0,010	0,170
-119,410	27,778	0,135	0,082
-118,395	-200,000	0,012	-0,073
-117,380	229,749	-0,071	-0,084
-116,366	238,641	0,054	0,064
-115,351	-75,188	-0,054	0,014
-114,337	262,297	-0,044	0,054
-113,322	-200,000	0,004	-0,038
-112,307	186,156	-0,052	0,055
-111,293	405,961	0,094	0,142
-110,278	800,000	-0,047	0,097
-109,264	-200,000	0,012	-0,053
-108,249	-200,000	-0,006	-0,141
-107,234	146,999	0,030	-0,029
-106,220	139,202	0,021	-0,020
-105,205	17,016	0,080	0,045
-104,191	-91,989	-0,134	0,027
-103,176	-150,444	0,190	0,010
-102,162	-10,791	-0,060	-0,028
-101,147	675,017	-0,050	0,094
-100,132	-54,691	0,021	0,007
-99,118	-200,000	0,015	0,110
-98,103	150,353	-0,103	-0,100
-97,089	55,340	-0,050	0,034
-96,074	-200,000	-0,002	0,062
-95,059	800,000	0,025	-0,079
-94,045	243,009	0,011	-0,013
-93,030	-52,489	-0,069	0,023
-92,016	21,415	-0,075	-0,044
-91,001	-200,000	-0,014	0,067
-89,986	-200,000	0,016	0,145
-88,972	-200,000	-0,026	0,137
-87,957	-200,000	-0,023	-0,079
-86,943	384,188	-0,060	-0,089
-85,928	-123,525	0,102	-0,011
-84,913	61,307	-0,030	-0,022
-83,899	-79,450	0,067	-0,016
-82,884	800,000	0,052	0,119
-81,870	416,886	0,050	-0,077
-80,855	757,459	0,024	0,048
-79,840	-138,645	0,025	0,002
-78,826	13,291	-0,119	-0,066
-77,811	-200,000	-0,024	-0,086
-76,797	-46,337	-0,144	0,050
-75,782	800,000	0,053	0,133
-74,767	273,846	-0,073	0,093
-73,753	207,398	0,101	0,113
-72,738	-200,000	0,018	0,174
-71,724	-200,000	-0,023	-0,138
-70,709	372,339	0,029	-0,042
-69,694	48,600	-0,021	-0,014
-68,680	-8,997	0,071	-0,034
-67,665	2,841	-0,090	-0,047
-66,651	-10,604	0,143	-0,067
-65,636	-165,595	-0,071	0,002
-64,622	396,761	0,025	0,038
-63,607	-200,000	-0,017	-0,075
-62,592	-115,274	-0,109	-0,015
-61,578	-153,488	0,104	0,005
-60,563	60,071	0,082	0,058
-59,549	-200,000	-0,007	0,073
-58,534	34,639	-2,034	-1,271
-57,519	-200,000	-0,061	-0,860
-56,505	-200,000	-1,267	-5,113
-55,490	126,563	0,877	0,795
-54,476	800,000	5,414	12,268
-53,461	-200,000	18,619	302,471
-52,446	800,000	735,775	2260,711
-51,432	533,333	1648,904	2807,103
-50,417	107,890	1635,065	1394,564
-49,403	71,817	1285,721	956,177
-48,388	29,906	1026,983	625,208
-47,373	19,661	989,147	568,428
-46,359	17,541	976,646	554,286
-45,344	14,282	972,789	541,430
-44,330	14,593	971,273	541,581
-43,315	13,923	969,373	538,315
-42,300	13,838	968,375	537,463
-41,286	13,851	967,456	536,974
-40,271	13,914	966,526	536,640
-39,257	13,916	965,668	536,150
-38,242	13,915	964,977	535,743
-37,227	13,889	963,967	535,075
-36,213	13,811	963,264	534,413
-35,198	13,866	962,169	533,963
-34,184	13,903	961,584	533,734
-33,169	13,826	960,530	532,879
-32,154	13,907	959,519	532,559
-31,140	13,927	958,813	532,210
-30,125	13,935	957,969	531,748
-29,111	13,869	957,332	531,160
-28,096	13,894	956,669	530,852
-27,082	13,946	955,849	530,543
-26,067	13,909	954,971	529,916
-25,052	13,885	954,538	529,576
-24,038	13,872	953,889	529,153
-23,023	13,896	952,985	528,709
-22,009	13,912	952,333	528,377
-20,994	13,881	951,783	527,953
-19,979	13,887	951,223	527,640
-18,965	13,968	950,400	527,419
-17,950	13,952	949,931	527,090
-16,936	13,870	949,281	526,445
-15,921	13,867	948,483	525,972
-14,906	13,797	947,800	525,351
-13,892	13,827	947,008	524,986
-12,877	13,812	946,469	524,617
-11,863	13,779	945,936	524,197
-10,848	13,826	945,341	523,995
-9,833	13,908	944,853	523,965
-8,819	13,852	944,260	523,437
-7,804	13,785	943,744	522,918
-6,790	13,776	943,126	522,528
-5,775	13,832	942,477	522,325
-4,760	13,798	942,003	521,933
-3,746	13,808	941,300	521,553
-2,731	13,759	940,519	520,945
-1,717	13,688	939,844	520,328
-0,702	13,625	939,187	519,745
0,313	13,472	938,716	519,786
1,327	16,855	936,543	529,179
2,342	26,306	788,295	470,237
3,356	22,488	443,209	258,731
4,371	-7,292	295,388	142,709
5,386	-11,193	277,263	130,248
6,400	-12,546	271,744	126,387
7,415	-12,302	269,128	125,383
8,429	-12,566	267,816	124,519
9,444	-12,625	266,825	123,994
10,459	-12,742	266,381	123,670
11,473	-12,700	265,621	123,345
12,488	-12,642	265,098	123,143
13,502	-12,985	264,559	122,572
14,517	-13,000	264,118	122,342
15,531	-13,021	263,793	122,163
16,546	-12,645	263,358	122,288
17,561	-13,008	263,024	121,796
18,575	-12,806	262,684	121,809
19,590	-12,875	262,353	121,583
20,604	-12,723	262,071	121,578
21,619	-12,892	261,728	121,256
22,634	-12,882	261,351	121,080
23,648	-12,937	261,052	120,882
24,663	-12,919	260,843	120,790
25,677	-12,963	260,517	120,589
26,692	-12,832	260,166	120,533
27,707	-12,830	259,848	120,376
28,721	-13,047	259,698	120,104
29,736	-13,009	259,486	120,029
30,750	-12,782	258,942	119,966
31,765	-12,870	258,852	119,836
32,780	-12,907	258,685	119,715
33,794	-12,808	258,317	119,622
34,809	-12,887	258,061	119,423
35,823	-13,100	257,989	119,192
36,838	-13,121	257,699	119,029
37,853	-13,093	257,364	118,888
38,867	-12,929	257,282	118,983
39,882	-12,913	256,909	118,815
40,896	-12,823	256,685	118,779
41,911	-12,970	256,515	118,561
42,926	-12,697	256,024	118,562
43,940	-12,869	255,947	118,366
44,955	-13,092	255,895	118,137
45,969	-13,145	255,584	117,936
46,984	-13,168	255,245	117,749
47,999	-13,468	255,074	117,399
49,013	-13,522	254,665	117,153
50,028	-13,691	254,457	116,901
51,042	-13,638	254,351	116,888
52,057	-13,802	254,089	116,616
53,071	-13,620	253,804	116,632
54,086	-13,588	253,622	116,565
55,101	-13,328	253,417	116,684
56,115	-13,201	253,449	116,798
57,130	-12,755	253,241	117,076
58,144	-12,723	253,091	117,024
59,159	-12,728	252,771	116,862
60,174	-12,702	252,506	116,751
61,188	-12,735	252,348	116,640
62,203	-12,907	252,193	116,410
63,217	-12,784	251,985	116,409
64,232	-12,720	251,753	116,346
65,247	-12,826	251,544	116,149
66,261	-12,822	251,235	115,999
67,276	-12,949	250,959	115,753
68,290	-13,032	250,738	115,570
69,305	-13,239	250,451	115,251
70,320	-13,277	250,410	115,189
71,334	-12,994	250,249	115,346
72,349	-12,823	249,987	115,360
73,363	-12,526	249,817	115,523
74,378	-12,913	249,705	115,133
75,393	-12,772	249,341	115,074
76,407	-12,766	249,140	114,977
77,422	-12,858	248,930	114,792
78,436	-12,661	248,729	114,855
79,451	-12,640	248,492	114,753
80,466	-12,836	248,349	114,512
81,480	-13,019	248,007	114,190
82,495	-13,238	248,026	114,003
83,509	-13,186	247,909	113,984
84,524	-12,943	247,541	114,008
85,539	-13,357	247,193	113,491
86,553	-13,048	247,002	113,651
87,568	-13,091	247,081	113,641
88,582	-13,106	246,816	113,498
89,597	-13,215	246,586	113,290
90,611	-13,020	246,443	113,377
91,626	-12,704	246,196	113,518
92,641	-12,745	246,034	113,398
93,655	-12,877	245,781	113,162
94,670	-12,852	245,616	113,096
95,684	-12,941	245,560	112,986
96,699	-13,106	245,315	112,726
97,714	-13,022	245,035	112,657
98,728	-12,974	244,756	112,559
99,743	-13,170	244,580	112,305
100,757	-13,277	244,368	112,109
101,772	-13,008	244,271	112,277
102,787	-12,930	244,012	112,213
103,801	-13,030	243,862	112,051
104,816	-13,044	243,770	111,987
105,830	-12,839	243,746	112,136
106,845	-13,047	243,427	111,807
107,860	-12,999	243,227	111,746
108,874	-12,912	243,046	111,723
109,889	-13,068	242,693	111,423
110,903	-12,994	242,513	111,392
111,918	-13,099	242,521	111,300
112,933	-13,029	242,158	111,181
113,947	-12,948	242,125	111,222
114,962	-12,847	241,961	111,219
115,976	-12,817	241,730	111,127
116,991	-12,858	241,573	111,012
118,006	-13,143	241,502	110,736
119,020	-12,976	241,081	110,670
120,035	-12,822	241,131	110,808
121,049	-12,928	240,984	110,644
122,064	-12,824	240,677	110,579
123,079	-12,777	240,373	110,467
124,093	-12,813	240,300	110,394
125,108	-13,080	240,073	110,064
126,122	-13,347	239,821	109,722
127,137	-13,391	239,639	109,592
128,151	-13,476	239,626	109,508
129,166	-13,165	239,239	109,574
130,181	-13,376	239,139	109,347
131,195	-13,283	238,910	109,308
132,210	-13,130	238,865	109,401
133,224	-13,013	238,577	109,353
134,239	-12,881	238,536	109,432
135,254	-12,907	238,201	109,247
136,268	-13,035	237,997	109,041
137,283	-13,340	237,839	108,713
138,297	-13,385	237,583	108,551
139,312	-13,333	237,567	108,575
140,327	-13,130	237,269	108,593
141,341	-12,688	237,241	108,925
142,356	-12,673	237,293	108,950
143,370	-12,605	236,971	108,847
144,385	-12,769	236,978	108,710
145,400	-12,655	236,585	108,611
146,414	-12,818	236,540	108,450
147,429	-12,928	236,230	108,210
148,443	-12,814	236,012	108,192
149,458	-12,685	235,939	108,252
150,473	-12,705	235,757	108,142
151,487	-12,625	235,558	108,105
152,502	-12,761	235,349	107,892
153,516	-12,740	235,209	107,834
154,531	-12,610	234,959	107,813
155,546	-12,887	234,908	107,561
156,560	-12,775	234,562	107,481
157,575	-12,645	234,380	107,491
158,589	-12,605	234,164	107,414
159,604	-12,564	234,088	107,402
160,619	-12,704	234,184	107,326
161,633	-12,545	233,930	107,326
162,648	-12,487	233,658	107,236
163,662	-12,656	233,509	107,025
164,677	-12,826	233,406	106,835
165,692	-12,601	233,235	106,924
166,706	-12,501	233,141	106,950
167,721	-12,646	233,031	106,776
168,735	-12,619	232,931	106,742
169,750	-12,497	232,619	106,685
170,764	-12,393	232,489	106,698
171,779	-12,772	232,438	106,368
172,794	-12,721	232,283	106,327
173,808	-12,854	231,973	106,072
174,823	-13,224	231,693	105,646
175,837	-13,152	231,548	105,626
176,852	-12,839	231,551	105,862
177,867	-12,690	231,440	105,919
178,881	-12,829	231,275	105,725
179,896	-12,565	230,988	105,790
180,910	-12,471	230,880	105,804
181,925	-12,584	230,703	105,626
182,940	-12,569	230,598	105,580
183,954	-12,568	230,535	105,542
184,969	-12,473	230,336	105,515
185,983	-12,433	230,079	105,419
186,998	-12,326	230,108	105,506
188,013	-12,376	229,889	105,357
189,027	-12,337	229,617	105,253
190,042	-12,810	229,633	104,886
191,056	-12,631	229,482	104,946
192,071	-12,669	229,232	104,793
193,086	-12,356	228,969	104,904
194,100	-12,731	228,933	104,590
195,115	-12,852	228,429	104,257
196,129	-13,172	228,595	104,078
197,144	-7,191	230,364	109,502
198,159	-1,574	232,143	114,705
199,173	1,762	232,895	117,662
200,188	2,314	233,098	118,183
201,202	2,360	232,728	118,021
202,217	2,246	232,717	117,916
203,232	2,440	232,633	118,014
204,246	2,561	232,387	117,972
205,261	2,563	232,325	117,931
206,275	2,581	232,253	117,898
207,290	2,683	232,095	117,886
208,304	2,568	231,890	117,682
209,319	2,724	231,677	117,684
210,334	2,500	231,433	117,377
211,348	2,431	231,380	117,287
212,363	1,968	231,093	116,775
213,377	1,648	230,774	116,357
214,392	2,048	230,518	116,525
215,407	2,013	230,486	116,471
216,421	2,268	230,408	116,618
217,436	1,884	230,238	116,226
218,450	1,844	230,008	116,069
219,465	1,663	229,834	115,832
220,480	1,926	229,729	115,971
221,494	1,590	229,732	115,704
222,509	1,879	229,653	115,875
223,523	2,227	229,358	115,982
224,538	2,016	229,245	115,753
225,553	1,887	229,087	115,565
226,567	2,128	228,858	115,623
227,582	2,235	228,861	115,695
228,596	2,405	228,859	115,814
229,611	1,932	228,556	115,290
230,626	1,988	228,110	115,097
231,640	1,681	227,958	114,778
232,655	2,247	227,950	115,193
233,669	2,262	227,873	115,155
234,684	2,253	227,947	115,175
235,699	2,437	227,583	115,120
236,713	2,137	227,398	114,790
237,728	1,896	227,274	114,535
238,742	1,930	226,991	114,408
239,757	2,068	226,943	114,477
240,772	1,810	226,817	114,208
241,786	1,792	226,656	114,104
242,801	2,178	226,423	114,267
243,815	2,496	226,478	114,524
244,830	2,384	226,458	114,420
245,844	2,129	226,034	114,004
246,859	2,120	225,803	113,870
247,874	2,449	225,700	114,054
248,888	2,376	225,715	113,997
249,903	2,039	225,528	113,639
250,917	1,823	225,522	113,465
251,932	2,056	225,189	113,462
252,947	1,811	224,937	113,142
253,961	1,793	224,890	113,094
254,976	1,983	224,766	113,164
255,990	2,225	224,761	113,332
257,005	2,231	224,630	113,260
258,020	2,154	224,480	113,117
259,034	2,276	224,377	113,145
260,049	2,198	224,160	112,968
261,063	2,312	223,949	112,936
262,078	2,426	223,880	112,976
263,093	2,507	223,731	112,951
264,107	2,434	223,516	112,778
265,122	2,189	223,393	112,525
266,136	2,454	223,345	112,687
267,151	2,592	222,879	112,544
268,166	2,034	222,896	112,130
269,180	2,042	222,493	111,923
270,195	1,920	222,463	111,808
271,209	1,969	222,427	111,816
272,224	2,036	222,291	111,787
273,239	2,165	222,184	111,818
274,253	2,150	221,961	111,685
275,268	1,623	221,838	111,226
276,282	1,507	221,726	111,075
277,297	1,924	221,403	111,209
278,312	1,951	221,399	111,217
279,326	2,059	221,301	111,237
280,341	2,327	221,093	111,318
281,355	2,093	221,072	111,126
282,370	2,023	220,914	110,986
283,384	1,990	220,607	110,798
284,399	1,765	220,388	110,514
285,414	1,995	220,226	110,590
286,428	1,997	220,428	110,684
287,443	2,368	220,117	110,788
288,457	2,451	220,074	110,817
289,472	2,002	219,965	110,425
290,487	1,785	219,602	110,075
291,501	1,524	219,459	109,804
292,516	1,990	219,304	110,055
293,530	1,758	219,237	109,843
294,545	1,699	219,268	109,806
295,560	2,013	219,076	109,928
296,574	2,259	218,821	109,968
297,589	1,896	218,778	109,674
298,603	2,067	218,611	109,704
299,618	2,141	218,488	109,686
300,633	2,078	218,454	109,614
301,647	2,379	218,380	109,784
302,662	2,197	218,111	109,508
303,676	2,032	218,076	109,362
304,691	2,205	217,923	109,400
305,706	2,350	217,655	109,360
306,720	2,378	217,609	109,347
307,735	2,152	217,407	109,074
308,749	1,969	217,186	108,821
309,764	2,034	217,192	108,862
310,779	2,594	217,061	109,188
311,793	2,374	216,852	108,915
312,808	2,267	216,644	108,724
313,822	2,166	216,603	108,622
314,837	2,144	216,386	108,488
315,852	1,990	216,152	108,251
316,866	2,306	216,135	108,458
317,881	2,385	216,113	108,493
318,895	2,150	215,903	108,211
319,910	1,979	215,646	107,951
320,925	1,659	215,522	107,652
321,939	1,553	215,325	107,468
322,954	1,530	215,240	107,400
323,968	2,061	215,167	107,731
324,983	2,197	214,986	107,728
325,997	2,275	215,138	107,849
327,012	2,148	214,840	107,600
328,027	2,293	214,692	107,619
329,041	2,588	214,596	107,770
330,056	2,520	214,497	107,663
331,070	2,148	214,194	107,238
332,085	2,184	213,953	107,133
333,100	2,253	213,883	107,138
334,114	2,348	213,832	107,169
335,129	2,278	213,599	106,993
336,143	2,062	213,393	106,729
337,158	1,983	213,391	106,663
338,173	2,073	213,225	106,634
339,187	1,934	212,873	106,351
340,202	1,858	212,680	106,192
341,216	1,569	212,788	106,033
342,231	2,098	212,717	106,359
343,246	2,202	212,524	106,326
344,260	2,324	212,327	106,303
345,275	2,407	212,331	106,354
346,289	2,457	212,302	106,365
347,304	2,170	212,198	106,103
348,319	2,239	211,847	105,966
349,333	2,106	211,668	105,774
350,348	2,068	211,636	105,722
351,362	2,451	211,607	105,965
352,377	2,329	211,411	105,772
353,392	2,083	211,286	105,530
354,406	2,365	211,147	105,647
355,421	197,844	1314,435	1394,931
356,435	158,248	1448,803	1394,876
