DTS Sentinel unit serial number:	SN410029Multiplexer serial number:	ORYXHardware model number:	OX2-SRSoftware version number:	ORYX F/W v4,00 Oryx Data Collector v3.7.2.0data status	okinstallation	B6 Nyhavnadifferential loss correction	single-endedforward channel	channel 2reverse channel	N/Adate	2023/12/09time	06:05:08forward acquisition time	300,00reverse acquisition time	0,00gamma	499,1914k internal	0,3141k external	0,3141temperature offset calibration	1,0000default loss term (dB/km)	0,3820temperature slope calibration	1,0000multiplexer offset coefficient	1,0000multiplexer slope coefficient	1,0000fibre end	0,00T internal ref (°C)	18,28T ext. ref 1 (°C)	2,32T ext. ref 2 (°C)	2,34length (m)	temperature (°C)	Stokes	anti-Stokes-744,400	-58,208	0,049	-0,016
-743,385	-118,570	-0,268	0,035
-742,371	800,000	0,027	0,059
-741,356	-95,261	-0,211	0,042
-740,342	-74,554	0,116	0,031
-739,327	-177,314	-0,328	0,006
-738,312	313,743	-0,040	-0,056
-737,298	-125,071	-0,239	0,027
-736,283	-200,000	-0,014	-0,048
-735,269	-141,876	-0,162	-0,012
-734,254	41,253	0,065	0,043
-733,239	-28,035	-0,317	-0,135
-732,225	52,654	0,187	0,132
-731,210	-15,469	0,172	-0,081
-730,196	324,787	-0,092	-0,131
-729,181	-200,000	-0,048	-0,207
-728,167	-200,000	-0,006	-0,042
-727,152	-84,215	-0,083	-0,019
-726,137	129,122	0,028	0,026
-725,123	-115,580	-0,065	0,009
-724,108	521,581	-0,052	-0,091
-723,094	-78,283	-0,128	-0,032
-722,079	800,000	-0,002	0,004
-721,064	800,000	-0,032	-0,093
-720,050	-200,000	-0,003	-0,142
-719,035	33,799	0,034	-0,022
-718,021	45,634	-0,034	-0,023
-717,006	310,742	-0,040	0,055
-715,991	-7,186	0,073	-0,036
-714,977	-200,000	-0,005	-0,074
-713,962	293,328	0,032	-0,043
-712,948	565,200	0,025	-0,046
-711,933	-180,531	0,091	0,001
-710,918	-69,140	-0,031	0,009
-709,904	-91,140	-0,060	0,013
-708,889	-51,637	0,071	-0,024
-707,875	-117,336	0,097	0,013
-706,860	-124,279	0,172	-0,020
-705,845	-49,643	0,115	0,040
-704,831	800,000	-0,026	0,064
-703,816	-80,016	-0,027	-0,007
-702,802	487,192	-0,069	-0,117
-701,787	107,658	-0,035	-0,031
-700,772	-200,000	-0,010	0,054
-699,758	-200,000	0,017	-0,107
-698,743	-200,000	0,006	0,098
-697,729	343,007	-0,096	0,140
-696,714	584,699	-0,042	-0,076
-695,699	-40,913	-0,072	0,027
-694,685	-64,771	-0,067	-0,020
-693,670	800,000	0,024	-0,059
-692,656	9,324	0,037	0,021
-691,641	-200,000	-0,055	-0,184
-690,627	410,874	0,074	0,117
-689,612	519,001	0,028	-0,049
-688,597	-74,687	0,079	0,021
-687,583	215,148	-0,089	-0,104
-686,568	-100,284	-0,098	0,018
-685,554	567,920	0,037	-0,066
-684,539	-79,235	0,097	0,024
-683,524	-45,063	0,084	-0,031
-682,510	-90,320	-0,146	-0,031
-681,495	-20,139	-0,178	-0,081
-680,481	-200,000	-0,010	-0,091
-679,466	5,296	-0,116	-0,063
-678,451	100,168	0,038	0,033
-677,437	-200,000	0,005	-0,032
-676,422	19,234	-0,008	-0,005
-675,408	-18,341	-0,169	0,078
-674,393	57,186	0,073	-0,053
-673,378	229,328	0,055	0,066
-672,364	244,881	-0,077	0,095
-671,349	285,646	-0,051	-0,069
-670,335	-1,404	0,101	0,053
-669,320	-81,490	-0,076	-0,018
-668,305	96,100	-0,042	-0,036
-667,291	-200,000	0,006	0,068
-666,276	34,023	-0,065	-0,042
-665,262	-61,774	-0,043	-0,013
-664,247	-43,931	-0,152	0,056
-663,232	-6,799	0,114	-0,057
-662,218	-200,000	0,021	-0,112
-661,203	-157,853	-0,119	0,005
-660,189	312,755	-0,027	0,037
-659,174	-200,000	-0,021	0,091
-658,159	-13,593	0,062	0,030
-657,145	-200,000	0,025	0,137
-656,130	-34,085	0,132	0,053
-655,116	-200,000	-0,010	-0,074
-654,101	153,605	-0,051	0,052
-653,086	62,046	0,163	0,120
-652,072	34,368	-0,067	-0,043
-651,057	-100,982	-0,160	0,029
-650,043	800,000	-0,038	0,085
-649,028	-200,000	0,000	0,005
-648,014	-97,061	0,051	-0,010
-646,999	593,259	0,025	0,045
-645,984	800,000	0,045	0,127
-644,970	189,389	-0,098	-0,109
-643,955	-114,160	-0,079	-0,011
-642,941	-200,000	-0,058	-0,214
-641,926	178,574	-0,007	-0,008
-640,911	-54,608	0,053	0,018
-639,897	-200,000	0,002	0,024
-638,882	228,628	0,027	-0,033
-637,868	-186,175	0,003	0,000
-636,853	-23,085	0,072	0,032
-635,838	-181,248	-0,149	-0,002
-634,824	-103,800	-0,036	0,006
-633,809	-55,376	0,040	0,013
-632,795	160,668	0,101	-0,104
-631,780	-9,643	0,083	-0,041
-630,765	800,000	-0,055	-0,132
-629,751	218,428	0,032	0,038
-628,736	165,589	-0,029	0,030
-627,722	-110,577	-0,038	-0,006
-626,707	68,642	0,129	0,098
-625,692	210,272	0,120	0,139
-624,678	-200,000	0,002	0,163
-623,663	215,597	0,015	0,017
-622,649	67,921	-0,140	-0,106
-621,634	-73,958	-0,030	-0,008
-620,619	-134,847	-0,057	0,005
-619,605	18,142	0,036	0,021
-618,590	456,899	0,039	0,064
-617,576	256,758	-0,061	0,077
-616,561	800,000	-0,017	-0,043
-615,546	-200,000	0,069	0,000
-614,532	187,387	-0,120	-0,132
-613,517	-200,000	-0,006	0,072
-612,503	168,710	-0,021	-0,022
-611,488	-200,000	0,007	0,093
-610,474	121,109	0,108	0,099
-609,459	-86,373	0,068	0,015
-608,444	131,537	-0,056	0,053
-607,430	-28,524	-0,167	0,071
-606,415	800,000	-0,012	-0,038
-605,401	33,959	-0,051	0,033
-604,386	-79,074	0,048	-0,012
-603,371	-200,000	-0,031	-0,107
-602,357	-200,000	-0,023	-0,096
-601,342	708,851	-0,074	-0,146
-600,328	128,956	-0,083	-0,078
-599,313	16,979	0,026	-0,015
-598,298	34,878	0,121	-0,078
-597,284	4,435	-0,117	-0,063
-596,269	24,308	0,040	0,025
-595,255	-115,963	-0,062	0,008
-594,240	316,944	-0,030	0,042
-593,225	156,607	-0,107	-0,109
-592,211	468,617	-0,074	-0,124
-591,196	-20,266	0,016	-0,007
-590,182	-166,552	-0,045	0,001
-589,167	318,331	0,025	-0,035
-588,152	15,608	-0,081	0,047
-587,138	-200,000	0,012	-0,089
-586,123	-200,000	-0,015	-0,059
-585,109	202,624	0,096	-0,109
-584,094	35,379	0,229	0,148
-583,079	229,311	-0,091	0,110
-582,065	241,059	0,030	-0,037
-581,050	-200,000	0,001	0,114
-580,036	127,270	-0,051	0,048
-579,021	55,751	0,154	-0,110
-578,006	-63,618	-0,122	-0,037
-576,992	-136,183	-0,086	0,007
-575,977	-153,852	0,097	-0,005
-574,963	-24,767	0,110	-0,048
-573,948	-200,000	0,023	0,090
-572,934	157,235	0,034	-0,035
-571,919	-200,000	0,021	-0,131
-570,904	-14,785	-0,150	-0,071
-569,890	-133,846	-0,050	-0,004
-568,875	77,717	-0,002	0,001
-567,861	744,847	0,084	0,168
-566,846	-48,755	0,035	0,012
-565,831	-200,000	0,004	-0,048
-564,817	508,177	-0,065	-0,111
-563,802	61,117	-0,083	0,060
-562,788	800,000	0,030	-0,062
-561,773	-200,000	0,008	-0,069
-560,758	688,237	0,073	-0,142
-559,744	-32,622	-0,057	-0,023
-558,729	297,147	0,068	0,092
-557,715	215,663	-0,043	-0,050
-556,700	-137,758	-0,158	0,013
-555,685	-200,000	-0,007	-0,034
-554,671	-200,000	0,007	0,212
-553,656	-200,000	-0,004	0,090
-552,642	-121,128	-0,059	-0,007
-551,627	-200,000	0,009	0,055
-550,612	387,818	-0,009	0,013
-549,598	-138,655	-0,051	0,004
-548,583	-200,000	-0,007	-0,124
-547,569	14,855	-0,059	-0,034
-546,554	-200,000	0,030	0,153
-545,539	-200,000	-0,001	-0,060
-544,525	-200,000	0,011	0,078
-543,510	294,907	0,018	-0,024
-542,496	-200,000	0,029	-0,094
-541,481	-200,000	-0,035	-0,175
-540,466	-107,620	-0,092	0,015
-539,452	721,563	-0,055	0,108
-538,437	800,000	0,001	0,004
-537,423	141,181	0,016	0,015
-536,408	-44,999	-0,067	0,025
-535,393	-107,926	-0,110	0,017
-534,379	114,858	-0,078	-0,070
-533,364	-113,828	0,044	-0,006
-532,350	421,204	0,032	-0,050
-531,335	-15,559	0,074	0,034
-530,321	-200,000	-0,042	0,170
-529,306	83,411	-0,104	-0,083
-528,291	342,344	0,095	-0,136
-527,277	302,182	-0,036	0,049
-526,262	800,000	0,031	0,083
-525,248	47,536	-0,024	0,016
-524,233	-192,446	0,092	-0,001
-523,218	-18,255	0,016	0,007
-522,204	313,860	-0,101	0,140
-521,189	-200,000	-0,021	0,092
-520,175	-200,000	-0,020	-0,070
-519,160	44,201	-0,043	-0,029
-518,145	-34,307	0,058	-0,023
-517,131	324,943	0,058	-0,081
-516,116	436,593	0,056	-0,090
-515,102	-60,882	0,041	-0,013
-514,087	282,603	-0,017	0,023
-513,072	-47,302	-0,051	-0,018
-512,058	-153,119	-0,105	0,005
-511,043	-109,887	0,097	-0,015
-510,029	-200,000	0,015	-0,107
-509,014	-48,777	0,063	0,022
-507,999	-200,000	-0,016	0,083
-506,985	-67,838	-0,110	-0,031
-505,970	312,675	0,056	0,077
-504,956	800,000	0,026	-0,060
-503,941	740,531	-0,084	0,167
-502,926	-121,190	0,125	-0,015
-501,912	-93,524	-0,036	0,007
-500,897	800,000	0,005	0,011
-499,883	-200,000	-0,021	-0,116
-498,868	800,000	-0,081	-0,186
-497,853	-200,000	0,007	0,080
-496,839	171,589	-0,053	-0,056
-495,824	-33,818	0,130	0,052
-494,810	77,127	-0,066	-0,051
-493,795	-200,000	-0,023	-0,156
-492,781	800,000	-0,014	0,030
-491,766	-200,000	-0,047	-0,269
-490,751	-200,000	-0,030	0,101
-489,737	-64,381	0,080	0,024
-488,722	-200,000	-0,001	-0,089
-487,708	573,357	-0,035	0,063
-486,693	-200,000	0,021	-0,084
-485,678	241,419	0,070	0,087
-484,664	-38,311	-0,182	0,070
-483,649	121,692	-0,017	0,015
-482,635	-111,472	0,047	-0,007
-481,620	555,896	0,049	-0,088
-480,605	800,000	0,052	-0,110
-479,591	800,000	-0,053	0,125
-478,576	800,000	0,015	-0,031
-477,562	800,000	-0,022	-0,066
-476,547	23,440	0,076	0,046
-475,532	800,000	-0,055	-0,125
-474,518	-113,236	0,174	-0,025
-473,503	428,496	-0,046	0,074
-472,489	244,029	0,079	0,097
-471,474	-138,220	0,084	-0,007
-470,459	800,000	-0,031	-0,068
-469,445	800,000	-0,050	-0,133
-468,430	800,000	0,018	0,054
-467,416	4,426	0,085	-0,046
-466,401	-200,000	0,016	-0,132
-465,386	-160,974	-0,076	-0,003
-464,372	30,243	-0,022	-0,014
-463,357	49,646	-0,099	0,069
-462,343	-3,559	-0,050	0,025
-461,328	-200,000	-0,005	0,016
-460,313	-56,063	-0,021	0,007
-459,299	-200,000	-0,030	0,098
-458,284	800,000	0,119	0,242
-457,270	50,986	0,049	0,034
-456,255	-200,000	0,019	-0,161
-455,241	329,779	0,106	-0,150
-454,226	795,384	-0,032	0,066
-453,211	99,104	-0,085	-0,072
-452,197	682,494	-0,070	-0,135
-451,182	576,488	0,044	0,079
-450,168	800,000	-0,023	-0,059
-449,153	-84,565	-0,022	0,005
-448,138	800,000	-0,019	-0,060
-447,124	-81,942	-0,096	-0,023
-446,109	-200,000	-0,014	-0,063
-445,095	-200,000	0,001	-0,047
-444,080	72,435	-0,080	-0,061
-443,065	-33,614	0,055	-0,022
-442,051	-200,000	-0,004	0,128
-441,036	-26,181	-0,124	-0,053
-440,022	800,000	-0,066	-0,141
-439,007	-111,716	0,139	0,020
-437,992	91,155	0,013	0,010
-436,978	-87,739	0,108	-0,024
-435,963	-200,000	0,003	-0,011
-434,949	611,115	0,031	-0,057
-433,934	20,210	-0,084	0,050
-432,919	-200,000	0,003	0,020
-431,905	800,000	0,016	0,034
-430,890	772,746	0,041	0,083
-429,876	173,428	-0,070	-0,074
-428,861	741,539	0,100	0,197
-427,846	138,841	-0,032	0,030
-426,832	-148,442	-0,035	0,002
-425,817	-200,000	-0,004	-0,065
-424,803	-87,628	0,157	-0,034
-423,788	91,174	0,088	-0,072
-422,773	-90,510	0,079	0,017
-421,759	-164,302	-0,021	0,001
-420,744	-114,629	-0,026	0,004
-419,730	-143,091	-0,086	-0,006
-418,715	-200,000	0,022	-0,139
-417,701	800,000	0,043	-0,089
-416,686	-56,140	-0,123	0,040
-415,671	45,514	0,176	0,119
-414,657	-104,607	0,098	0,016
-413,642	334,156	-0,045	0,064
-412,628	-200,000	0,010	-0,059
-411,613	260,168	-0,114	-0,144
-410,598	-200,000	0,017	0,200
-409,584	800,000	0,103	0,285
-408,569	-156,227	-0,088	-0,004
-407,555	209,210	0,036	0,041
-406,540	511,756	-0,029	0,049
-405,525	79,740	-0,037	-0,029
-404,511	-15,142	-0,114	0,053
-403,496	-22,017	-0,051	0,023
-402,482	-200,000	0,009	0,114
-401,467	-200,000	-0,009	0,058
-400,452	122,328	0,161	0,147
-399,438	800,000	0,049	0,132
-398,423	36,139	0,044	0,028
-397,409	-200,000	-0,012	0,107
-396,394	27,174	0,084	0,052
-395,379	-200,000	0,013	-0,079
-394,365	-100,470	-0,016	0,003
-393,350	-200,000	0,025	0,153
-392,336	-200,000	-0,025	0,123
-391,321	-200,000	-0,013	0,075
-390,306	-200,000	-0,003	-0,091
-389,292	-200,000	0,017	0,104
-388,277	-83,744	0,030	-0,007
-387,263	-200,000	-0,006	0,038
-386,248	91,448	0,078	-0,064
-385,233	-200,000	0,012	-0,094
-384,219	-12,690	0,120	-0,057
-383,204	-47,866	-0,085	0,030
-382,190	-33,023	-0,045	-0,018
-381,175	64,806	0,061	-0,045
-380,160	-110,995	0,131	-0,020
-379,146	-67,794	0,099	0,028
-378,131	328,815	-0,004	0,006
-377,117	-45,633	0,078	0,028
-376,102	-200,000	-0,050	-0,274
-375,088	34,100	-0,143	-0,091
-374,073	-117,007	-0,039	-0,005
-373,058	-110,090	0,025	0,004
-372,044	212,554	0,130	-0,150
-371,029	424,635	-0,021	-0,032
-370,015	320,503	-0,061	-0,084
-369,000	57,129	-0,055	-0,039
-367,985	-200,000	0,008	0,120
-366,971	-200,000	-0,003	0,053
-365,956	800,000	-0,043	-0,094
-364,942	-200,000	0,005	0,160
-363,927	-76,444	0,056	-0,014
-362,912	9,548	0,050	0,027
-361,898	74,632	-0,200	-0,153
-360,883	521,006	-0,086	-0,147
-359,869	159,799	-0,117	-0,119
-358,854	-200,000	0,005	-0,151
-357,839	-42,949	0,142	-0,052
-356,825	11,836	0,121	0,068
-355,810	70,509	0,037	0,028
-354,796	-200,000	0,006	0,048
-353,781	-200,000	-0,029	-0,113
-352,766	-5,827	-0,125	0,062
-351,752	-84,694	-0,067	-0,015
-350,737	94,617	-0,030	0,025
-349,723	800,000	0,060	-0,160
-348,708	56,904	0,048	0,034
-347,693	252,220	0,070	0,087
-346,679	800,000	0,009	-0,028
-345,664	282,418	-0,097	-0,128
-344,650	-200,000	0,038	-0,185
-343,635	4,119	0,077	0,041
-342,620	-153,162	-0,093	0,005
-341,606	-18,238	-0,025	-0,011
-340,591	-100,186	-0,045	0,008
-339,577	9,320	0,085	-0,047
-338,562	-49,102	0,045	-0,015
-337,548	-120,710	0,087	-0,011
-336,533	-145,389	0,078	0,005
-335,518	358,446	0,051	0,075
-334,504	-200,000	0,020	0,103
-333,489	47,562	0,118	0,080
-332,475	412,709	-0,049	-0,076
-331,460	800,000	0,010	0,022
-330,445	-200,000	0,006	0,064
-329,431	413,695	0,044	0,068
-328,416	12,673	-0,058	0,033
-327,402	465,778	0,040	-0,066
-326,387	182,650	0,066	-0,071
-325,372	163,251	-0,102	-0,104
-324,358	294,260	0,040	-0,053
-323,343	-200,000	-0,007	0,079
-322,329	415,194	0,044	-0,068
-321,314	-200,000	-0,013	0,046
-320,299	111,491	0,125	0,110
-319,285	107,492	0,063	-0,055
-318,270	-200,000	-0,009	0,135
-317,256	83,495	0,113	-0,090
-316,241	-200,000	-0,020	-0,106
-315,226	135,207	-0,031	-0,029
-314,212	223,810	0,048	-0,056
-313,197	-200,000	-0,009	-0,031
-312,183	-200,000	0,032	0,104
-311,168	41,443	0,022	0,014
-310,153	501,362	0,060	-0,101
-309,139	-200,000	0,004	-0,118
-308,124	157,599	0,067	0,068
-307,110	-200,000	0,001	0,039
-306,095	-200,000	0,012	-0,063
-305,080	-98,224	-0,128	0,024
-304,066	120,568	0,063	0,057
-303,051	97,123	0,071	0,059
-302,037	-109,290	-0,057	-0,009
-301,022	255,022	-0,022	0,027
-300,008	243,929	0,078	-0,095
-298,993	29,110	0,160	0,099
-297,978	210,492	-0,099	0,114
-296,964	-69,077	0,054	0,015
-295,949	29,189	-0,131	0,081
-294,935	-76,980	-0,091	-0,023
-293,920	-59,078	0,068	0,021
-292,905	-19,514	-0,185	0,083
-291,891	475,880	0,109	0,180
-290,876	771,672	-0,058	-0,116
-289,862	-200,000	-0,009	-0,115
-288,847	-200,000	-0,030	0,098
-287,832	117,999	-0,042	-0,038
-286,818	-93,056	0,117	-0,024
-285,803	800,000	0,032	0,068
-284,789	351,405	0,050	0,073
-283,774	78,059	0,018	-0,014
-282,759	-127,123	-0,117	-0,012
-281,745	-158,474	0,048	0,002
-280,730	800,000	0,044	-0,100
-279,716	307,493	0,058	0,079
-278,701	234,436	0,034	-0,041
-277,686	63,829	0,171	-0,125
-276,672	192,184	0,062	0,068
-275,657	134,812	0,016	0,015
-274,643	-104,806	-0,042	-0,007
-273,628	387,935	-0,062	-0,093
-272,613	-122,593	-0,068	-0,008
-271,599	800,000	-0,040	0,113
-270,584	557,863	0,044	0,078
-269,570	-136,284	-0,175	0,015
-268,555	170,449	0,012	0,013
-267,540	53,385	0,161	0,112
-266,526	-200,000	-0,008	-0,118
-265,511	800,000	-0,026	0,055
-264,497	29,421	0,127	0,079
-263,482	-143,782	0,033	-0,002
-262,467	800,000	0,038	0,081
-261,453	-164,984	-0,090	0,003
-260,438	-200,000	-0,041	0,175
-259,424	-23,197	-0,108	0,047
-258,409	800,000	0,032	0,073
-257,395	-184,365	-0,144	-0,002
-256,380	333,757	0,118	0,166
-255,365	29,353	-0,009	-0,006
-254,351	-200,000	0,016	-0,139
-253,336	22,139	0,079	0,047
-252,322	-53,554	-0,190	-0,063
-251,307	-103,837	0,093	-0,016
-250,292	32,713	0,091	0,057
-249,278	-200,000	-0,010	0,036
-248,263	13,938	-0,076	-0,043
-247,249	5,150	0,072	0,039
-246,234	-200,000	-0,011	0,073
-245,219	-57,830	0,066	-0,021
-244,205	-45,680	0,069	-0,025
-243,190	-7,625	-0,029	-0,014
-242,176	800,000	0,026	-0,066
-241,161	110,509	-0,007	-0,006
-240,146	800,000	0,022	0,049
-239,132	-200,000	0,003	-0,046
-238,117	48,357	-0,052	0,035
-237,103	212,702	0,019	0,022
-236,088	800,000	-0,044	0,142
-235,073	122,268	-0,013	0,012
-234,059	-11,650	-0,061	0,029
-233,044	-134,556	-0,040	0,004
-232,030	385,886	0,050	-0,075
-231,015	266,062	-0,149	0,189
-230,000	319,449	-0,047	0,065
-228,986	-200,000	-0,006	0,065
-227,971	-200,000	0,028	0,106
-226,957	63,353	-0,049	0,035
-225,942	132,578	-0,019	-0,017
-224,927	-169,129	-0,129	0,003
-223,913	-111,861	0,045	0,007
-222,898	174,390	-0,144	-0,151
-221,884	-124,537	-0,143	0,016
-220,869	49,813	0,119	0,081
-219,855	-8,424	-0,187	0,091
-218,840	593,747	0,027	0,049
-217,825	-113,239	0,069	-0,010
-216,811	394,285	-0,035	0,053
-215,796	-22,942	-0,171	-0,075
-214,782	242,897	-0,071	0,086
-213,767	46,510	-0,019	-0,013
-212,752	283,545	-0,065	0,085
-211,738	-1,269	-0,128	0,065
-210,723	-200,000	0,015	-0,069
-209,709	48,286	0,065	0,044
-208,694	98,757	0,076	0,063
-207,679	-200,000	0,006	0,106
-206,665	800,000	-0,019	-0,056
-205,650	258,901	0,079	0,099
-204,636	-68,123	-0,107	0,030
-203,621	-200,000	-0,014	0,076
-202,606	-0,355	0,160	-0,082
-201,592	-138,048	0,144	0,011
-200,577	-106,553	-0,078	0,012
-199,563	-87,085	-0,041	0,009
-198,548	-59,159	0,034	0,010
-197,533	-61,241	-0,089	-0,027
-196,519	-200,000	0,020	-0,102
-195,504	513,003	-0,053	-0,090
-194,490	-91,252	-0,076	-0,016
-193,475	546,700	-0,117	-0,205
-192,460	76,405	0,028	-0,021
-191,446	76,281	-0,060	0,046
-190,431	186,937	0,032	0,034
-189,417	800,000	-0,032	0,087
-188,402	-161,326	0,078	-0,003
-187,387	337,802	-0,078	0,110
-186,373	293,564	0,054	-0,071
-185,358	800,000	-0,058	-0,162
-184,344	368,993	0,067	-0,099
-183,329	800,000	0,015	0,043
-182,315	177,634	0,119	0,126
-181,300	-97,510	-0,021	-0,004
-180,285	-200,000	0,011	0,113
-179,271	-200,000	0,006	0,110
-178,256	73,144	0,054	0,041
-177,242	-132,577	0,135	-0,012
-176,227	800,000	-0,058	0,177
-175,212	88,541	-0,015	-0,012
-174,198	74,553	0,083	-0,063
-173,183	505,646	-0,050	-0,084
-172,169	-137,091	-0,050	0,004
-171,154	326,597	0,087	-0,121
-170,139	-200,000	0,008	0,057
-169,125	272,613	0,082	0,105
-168,110	-101,093	0,088	0,015
-167,096	-200,000	-0,019	-0,084
-166,081	82,452	0,149	-0,117
-165,066	147,960	-0,091	-0,089
-164,052	340,561	0,026	0,037
-163,037	-200,000	0,015	-0,072
-162,023	-134,267	-0,033	0,003
-161,008	160,112	-0,042	-0,043
-159,993	-61,625	-0,023	-0,007
-158,979	-200,000	0,021	0,081
-157,964	634,187	0,046	-0,084
-156,950	474,245	-0,106	-0,174
-155,935	37,816	-0,153	-0,098
-154,920	46,328	0,116	0,078
-153,906	184,928	0,019	-0,020
-152,891	-200,000	0,035	0,140
-151,877	184,078	-0,069	0,074
-150,862	-53,523	-0,077	-0,025
-149,847	-124,674	-0,090	-0,010
-148,833	447,899	0,030	-0,048
-147,818	800,000	0,052	0,148
-146,804	405,337	0,053	0,080
-145,789	31,546	-0,162	-0,101
-144,775	800,000	-0,044	-0,107
-143,760	-57,738	0,080	-0,025
-142,745	142,433	0,031	-0,029
-141,731	-200,000	-0,008	0,071
-140,716	-200,000	0,019	-0,074
-139,702	-200,000	-0,014	0,055
-138,687	-74,163	0,184	0,048
-137,672	800,000	0,011	0,035
-136,658	-200,000	0,007	0,053
-135,643	800,000	-0,016	-0,040
-134,629	739,122	0,032	-0,063
-133,614	227,636	-0,029	-0,034
-132,599	228,948	0,065	-0,076
-131,585	320,692	0,102	0,140
-130,570	578,013	0,047	-0,084
-129,556	-200,000	-0,023	-0,088
-128,541	-129,255	-0,111	0,011
-127,526	299,415	-0,101	-0,135
-126,512	-200,000	0,011	0,132
-125,497	-200,000	-0,015	0,138
-124,483	162,233	-0,124	-0,126
-123,468	-200,000	0,053	0,186
-122,453	800,000	-0,058	0,175
-121,439	-200,000	-0,026	0,133
-120,424	-136,170	0,086	-0,007
-119,410	42,616	-0,052	0,034
-118,395	800,000	0,046	0,143
-117,380	93,743	0,073	-0,060
-116,366	176,062	-0,050	0,053
-115,351	-55,127	0,029	-0,009
-114,337	-153,429	-0,093	-0,005
-113,322	13,212	0,035	-0,020
-112,307	-77,186	-0,091	0,023
-111,293	-75,346	-0,047	-0,012
-110,278	-21,975	-0,012	0,005
-109,264	186,055	-0,054	0,058
-108,249	-200,000	-0,002	0,116
-107,234	-200,000	0,015	0,137
-106,220	558,905	0,083	-0,145
-105,205	11,736	0,067	-0,037
-104,191	800,000	0,060	0,140
-103,176	63,559	0,100	0,072
-102,162	-200,000	0,005	-0,050
-101,147	-178,028	0,080	-0,001
-100,132	-200,000	-0,007	0,151
-99,118	-29,124	0,063	0,026
-98,103	-200,000	0,014	0,093
-97,089	739,112	-0,043	0,084
-96,074	800,000	0,043	-0,114
-95,059	30,350	-0,116	-0,072
-94,045	-200,000	-0,014	0,116
-93,030	513,427	0,032	0,055
-92,016	54,296	0,183	-0,127
-91,001	800,000	-0,016	-0,049
-89,986	213,305	0,128	0,146
-88,972	800,000	-0,047	0,123
-87,957	584,017	-0,038	0,068
-86,943	345,698	-0,031	0,044
-85,928	-32,441	-0,110	0,044
-84,913	108,799	-0,034	-0,029
-83,899	154,174	-0,023	-0,023
-82,884	-200,000	0,001	0,017
-81,870	794,986	0,051	0,103
-80,855	-200,000	-0,017	-0,097
-79,840	-28,424	-0,020	-0,008
-78,826	-13,725	0,079	0,037
-77,811	-200,000	-0,028	-0,100
-76,797	800,000	-0,050	0,146
-75,782	-91,787	0,157	0,032
-74,767	800,000	-0,032	0,090
-73,753	54,716	0,082	0,057
-72,738	-107,449	0,102	-0,016
-71,724	-42,115	0,101	0,037
-70,709	800,000	0,025	-0,060
-69,694	255,275	-0,050	0,063
-68,680	-200,000	-0,009	0,145
-67,665	-200,000	0,012	0,133
-66,651	762,719	-0,063	0,125
-65,636	74,966	-0,074	-0,056
-64,622	-200,000	0,003	-0,061
-63,607	-200,000	0,006	-0,045
-62,592	-200,000	-0,002	-0,048
-61,578	-58,400	0,079	-0,025
-60,563	188,049	-0,016	-0,018
-59,549	-1,628	-0,153	0,077
-58,534	-47,413	-1,847	-0,645
-57,519	800,000	-0,530	-1,110
-56,505	-200,000	-1,043	-4,768
-55,490	-145,644	0,695	-0,044
-54,476	800,000	5,348	12,154
-53,461	-200,000	16,001	279,075
-52,446	-200,000	703,575	2245,544
-51,432	562,395	1619,573	2838,394
-50,417	122,292	1623,458	1463,273
-49,403	83,273	1284,435	1008,235
-48,388	36,918	1029,050	655,140
-47,373	21,480	990,993	579,848
-46,359	20,339	979,654	569,429
-45,344	18,541	975,556	561,109
-44,330	18,686	974,030	560,688
-43,315	18,379	972,516	558,786
-42,300	18,377	971,277	558,045
-41,286	18,308	970,373	557,278
-40,271	18,318	969,236	556,634
-39,257	18,341	968,641	556,349
-38,242	18,340	967,860	555,873
-37,227	18,289	967,089	555,243
-36,213	18,346	966,092	554,832
-35,198	18,241	965,426	554,087
-34,184	18,333	964,723	553,962
-33,169	18,309	963,710	553,278
-32,154	18,346	962,919	552,923
-31,140	18,286	962,175	552,278
-30,125	18,335	961,334	551,934
-29,111	18,375	960,242	551,414
-28,096	18,312	959,808	550,939
-27,082	18,299	959,196	550,523
-26,067	18,355	958,403	550,229
-25,052	18,294	957,475	549,478
-24,038	18,337	956,702	549,149
-23,023	18,326	955,956	548,664
-22,009	18,378	955,327	548,449
-20,994	18,355	954,857	548,084
-19,979	18,294	954,204	547,490
-18,965	18,349	953,456	547,216
-17,950	18,336	952,960	546,867
-16,936	18,238	952,541	546,292
-15,921	18,283	951,624	545,886
-14,906	18,212	950,918	545,233
-13,892	18,212	950,235	544,820
-12,877	18,141	949,588	544,200
-11,863	18,130	949,052	543,837
-10,848	18,150	948,611	543,626
-9,833	18,285	948,082	543,732
-8,819	18,288	947,370	543,314
-7,804	18,192	946,633	542,562
-6,790	18,192	946,153	542,266
-5,775	18,219	945,615	542,022
-4,760	18,186	945,010	541,548
-3,746	18,195	944,188	541,083
-2,731	18,112	943,531	540,422
-1,717	18,028	942,937	539,794
-0,702	18,063	942,276	539,505
0,313	17,767	941,901	539,164
1,327	20,961	939,801	548,032
2,342	30,023	796,764	488,759
3,356	27,130	449,585	271,423
4,371	-2,170	295,266	148,917
5,386	-6,311	276,525	135,523
6,400	-7,728	270,997	131,482
7,415	-8,110	268,491	129,902
8,429	-7,840	267,157	129,493
9,444	-7,940	266,462	129,053
10,459	-7,911	265,679	128,689
11,473	-8,151	265,187	128,220
12,488	-8,193	264,684	127,928
13,502	-8,550	264,106	127,312
14,517	-8,385	263,637	127,225
15,531	-8,234	263,249	127,163
16,546	-8,186	262,920	127,036
17,561	-8,348	262,517	126,683
18,575	-8,104	262,172	126,726
19,590	-8,389	261,887	126,320
20,604	-8,191	261,491	126,296
21,619	-8,306	261,121	126,002
22,634	-8,245	260,726	125,855
23,648	-8,417	260,411	125,539
24,663	-8,480	260,270	125,403
25,677	-8,312	259,959	125,392
26,692	-8,483	259,767	125,135
27,707	-8,248	259,379	125,147
28,721	-8,505	259,211	124,826
29,736	-8,672	258,954	124,543
30,750	-8,488	258,668	124,557
31,765	-8,569	258,455	124,372
32,780	-8,431	258,327	124,421
33,794	-8,488	258,111	124,256
34,809	-8,590	257,857	124,032
35,823	-8,577	257,679	123,947
36,838	-8,471	257,335	123,864
37,853	-8,573	256,951	123,579
38,867	-8,636	256,988	123,529
39,882	-8,605	256,674	123,395
40,896	-8,466	256,249	123,302
41,911	-8,644	256,075	123,051
42,926	-8,667	255,812	122,894
43,940	-8,743	255,655	122,741
44,955	-8,525	255,485	122,839
45,969	-8,746	255,211	122,502
46,984	-8,902	254,930	122,220
47,999	-9,240	254,627	121,769
49,013	-9,269	254,450	121,649
50,028	-9,466	254,276	121,383
51,042	-9,529	253,819	121,099
52,057	-9,540	253,734	121,038
53,071	-9,419	253,504	121,023
54,086	-9,325	253,269	120,981
55,101	-9,317	253,120	120,906
56,115	-8,928	253,008	121,179
57,130	-8,538	253,016	121,510
58,144	-8,261	252,861	121,665
59,159	-8,215	252,652	121,593
60,174	-8,237	252,415	121,449
61,188	-8,261	252,244	121,335
62,203	-8,575	252,031	120,951
63,217	-8,385	251,687	120,939
64,232	-8,468	251,563	120,797
65,247	-8,441	251,404	120,734
66,261	-8,546	251,080	120,477
67,276	-8,629	250,739	120,231
68,290	-8,790	250,610	120,020
69,305	-8,851	250,301	119,809
70,320	-8,889	250,047	119,645
71,334	-8,709	250,114	119,820
72,349	-8,525	249,983	119,904
73,363	-8,182	249,765	120,082
74,378	-8,229	249,489	119,898
75,393	-8,275	249,319	119,767
76,407	-8,146	248,952	119,690
77,422	-8,489	248,960	119,390
78,436	-8,171	248,684	119,517
79,451	-8,407	248,441	119,190
80,466	-8,439	248,206	119,040
81,480	-8,601	247,920	118,754
82,495	-8,927	247,770	118,397
83,509	-8,904	247,709	118,375
84,524	-8,934	247,418	118,201
85,539	-8,832	247,066	118,109
86,553	-8,939	246,969	117,961
87,568	-8,829	246,920	118,020
88,582	-8,859	246,623	117,842
89,597	-8,789	246,366	117,768
90,611	-8,755	246,409	117,807
91,626	-8,512	246,096	117,851
92,641	-8,474	245,895	117,775
93,655	-8,621	245,789	117,591
94,670	-8,738	245,530	117,359
95,684	-8,533	245,247	117,384
96,699	-8,739	245,232	117,195
97,714	-8,841	244,914	116,946
98,728	-8,844	244,732	116,847
99,743	-9,103	244,514	116,516
100,757	-9,077	244,334	116,442
101,772	-8,828	244,137	116,545
102,787	-8,911	244,010	116,405
103,801	-8,705	243,778	116,455
104,816	-8,713	243,599	116,353
105,830	-8,357	243,556	116,617
106,845	-8,357	243,487	116,574
107,860	-8,715	243,242	116,149
108,874	-8,820	243,046	115,959
109,889	-8,787	242,783	115,850
110,903	-8,844	242,605	115,707
111,918	-8,803	242,420	115,643
112,933	-8,613	242,255	115,711
113,947	-8,590	242,096	115,643
114,962	-8,570	241,831	115,522
115,976	-8,803	241,838	115,324
116,991	-8,414	241,517	115,481
118,006	-8,600	241,408	115,265
119,020	-8,533	241,350	115,282
120,035	-8,516	241,142	115,186
121,049	-8,246	241,034	115,347
122,064	-8,277	240,745	115,173
123,079	-8,663	240,655	114,803
124,093	-8,552	240,363	114,744
125,108	-8,680	240,206	114,555
126,122	-9,044	239,968	114,133
127,137	-9,156	239,796	113,950
128,151	-8,967	239,560	113,981
129,166	-8,979	239,453	113,911
130,181	-8,750	239,032	113,886
131,195	-8,836	238,898	113,743
132,210	-8,919	238,856	113,645
133,224	-8,694	238,783	113,783
134,239	-8,550	238,612	113,808
135,254	-8,492	238,368	113,729
136,268	-8,692	238,137	113,447
137,283	-9,030	237,952	113,075
138,297	-9,031	237,618	112,905
139,312	-9,277	237,641	112,708
140,327	-8,727	237,372	113,013
141,341	-8,275	237,463	113,412
142,356	-8,096	237,228	113,433
143,370	-8,172	237,178	113,339
144,385	-8,181	236,975	113,224
145,400	-7,970	236,759	113,280
146,414	-8,128	236,654	113,092
147,429	-8,348	236,432	112,800
148,443	-8,243	236,302	112,812
149,458	-8,094	236,217	112,881
150,473	-8,103	235,798	112,664
151,487	-8,332	235,750	112,448
152,502	-8,225	235,611	112,456
153,516	-8,154	235,366	112,386
154,531	-7,999	235,292	112,465
155,546	-8,266	235,062	112,132
156,560	-8,303	234,795	111,965
157,575	-8,424	234,686	111,806
158,589	-8,273	234,408	111,784
159,604	-7,865	234,285	112,040
160,619	-8,130	234,224	111,790
161,633	-8,165	234,203	111,742
162,648	-8,075	234,090	111,750
163,662	-8,108	233,825	111,587
164,677	-8,274	233,576	111,327
165,692	-8,219	233,410	111,282
166,706	-7,877	233,262	111,472
167,721	-7,847	233,197	111,454
168,735	-7,919	233,226	111,401
169,750	-7,926	232,918	111,239
170,764	-8,151	232,878	111,032
171,779	-8,238	232,780	110,907
172,794	-8,039	232,515	110,927
173,808	-8,153	232,174	110,665
174,823	-8,876	231,875	109,944
175,837	-8,913	231,704	109,825
176,852	-8,221	231,673	110,344
177,867	-8,184	231,601	110,328
178,881	-7,982	231,379	110,371
179,896	-8,117	231,336	110,235
180,910	-7,934	231,207	110,307
181,925	-7,846	230,891	110,215
182,940	-8,024	230,874	110,058
183,954	-8,015	230,864	110,050
184,969	-7,767	230,501	110,061
185,983	-7,841	230,433	109,961
186,998	-7,767	230,275	109,934
188,013	-7,942	230,172	109,738
189,027	-7,941	230,024	109,659
190,042	-7,911	229,863	109,595
191,056	-7,905	229,529	109,431
192,071	-7,886	229,633	109,486
193,086	-7,915	229,339	109,313
194,100	-7,826	229,118	109,267
195,115	-7,770	228,976	109,233
196,129	-7,938	228,847	109,031
197,144	-4,311	230,024	112,401
198,159	0,096	231,485	116,544
199,173	3,210	232,279	119,365
200,188	3,709	232,189	119,697
201,202	3,682	231,974	119,554
202,217	3,828	231,922	119,631
203,232	4,062	231,835	119,757
204,246	4,069	231,622	119,642
205,261	4,011	231,580	119,565
206,275	4,428	231,461	119,816
207,290	4,418	231,314	119,722
208,304	4,480	231,074	119,635
209,319	4,167	231,028	119,357
210,334	4,312	230,716	119,299
211,348	3,822	230,538	118,816
212,363	3,562	230,364	118,515
213,377	3,214	230,152	118,127
214,392	3,249	229,867	117,997
215,407	3,352	229,914	118,090
216,421	3,650	229,656	118,176
217,436	3,415	229,446	117,878
218,450	3,288	229,183	117,635
219,465	3,265	229,071	117,548
220,480	3,224	228,885	117,411
221,494	2,876	228,986	117,185
222,509	3,431	228,733	117,471
223,523	3,385	228,547	117,329
224,538	3,451	228,244	117,214
225,553	3,403	228,272	117,182
226,567	3,673	228,132	117,306
227,582	3,803	228,054	117,354
228,596	3,747	227,967	117,256
229,611	3,547	227,741	116,977
230,626	3,197	227,574	116,614
231,640	3,388	227,372	116,646
232,655	3,551	227,360	116,753
233,669	3,989	227,328	117,059
234,684	4,417	227,192	117,304
235,699	3,969	226,954	116,831
236,713	3,612	226,724	116,431
237,728	3,324	226,534	116,105
238,742	3,389	226,229	115,987
239,757	3,408	226,151	115,951
240,772	3,465	226,007	115,910
241,786	3,341	225,939	115,771
242,801	3,616	225,841	115,919
243,815	3,881	225,726	116,049
244,830	3,713	225,644	115,870
245,844	3,531	225,405	115,600
246,859	3,398	225,289	115,429
247,874	3,693	225,009	115,498
248,888	3,802	224,958	115,543
249,903	3,359	224,851	115,145
250,917	3,446	224,560	115,051
251,932	3,169	224,556	114,830
252,947	3,073	224,414	114,676
253,961	3,426	224,187	114,814
254,976	3,603	224,019	114,851
255,990	3,537	224,041	114,803
257,005	3,630	223,970	114,825
258,020	3,376	223,703	114,489
259,034	3,815	223,646	114,777
260,049	3,769	223,444	114,628
261,063	3,650	223,307	114,459
262,078	3,754	223,164	114,453
263,093	3,895	222,996	114,462
264,107	3,736	222,781	114,223
265,122	3,958	222,626	114,298
266,136	3,835	222,614	114,190
267,151	3,931	222,381	114,132
268,166	3,648	222,083	113,759
269,180	3,282	221,948	113,409
270,195	3,357	221,884	113,422
271,209	3,411	221,703	113,359
272,224	3,448	221,454	113,249
273,239	3,472	221,548	113,305
274,253	3,360	221,215	113,041
275,268	3,222	221,128	112,885
276,282	3,163	220,971	112,752
277,297	3,050	220,790	112,566
278,312	3,144	220,792	112,626
279,326	3,284	220,648	112,645
280,341	3,428	220,366	112,597
281,355	3,585	220,376	112,708
282,370	3,355	220,084	112,379
283,384	3,033	219,994	112,088
284,399	3,224	219,688	112,062
285,414	3,256	219,663	112,062
286,428	3,541	219,641	112,250
287,443	3,462	219,620	112,171
288,457	3,327	219,364	111,932
289,472	3,439	219,237	111,939
290,487	3,166	218,956	111,586
291,501	2,850	218,785	111,259
292,516	3,161	218,620	111,391
293,530	3,181	218,645	111,409
294,545	2,852	218,518	111,094
295,560	3,170	218,370	111,241
296,574	3,489	218,037	111,293
297,589	3,511	218,141	111,352
298,603	3,629	218,040	111,376
299,618	3,469	217,783	111,118
300,633	3,137	217,818	110,886
301,647	3,638	217,646	111,152
302,662	3,829	217,449	111,180
303,676	3,723	217,399	111,067
304,691	3,648	217,145	110,873
305,706	3,833	216,995	110,920
306,720	3,835	216,832	110,828
307,735	3,413	216,632	110,412
308,749	3,404	216,560	110,360
309,764	3,488	216,442	110,350
310,779	3,642	216,407	110,433
311,793	3,704	216,092	110,307
312,808	3,477	215,974	110,074
313,822	3,304	215,768	109,835
314,837	3,303	215,656	109,767
315,852	3,141	215,440	109,531
316,866	3,100	215,307	109,425
317,881	3,499	215,341	109,718
318,895	3,552	215,341	109,746
319,910	3,487	214,989	109,511
320,925	3,144	214,914	109,218
321,939	3,209	214,683	109,137
322,954	3,219	214,583	109,084
323,968	3,420	214,592	109,222
324,983	3,737	214,477	109,379
325,997	3,680	214,273	109,225
327,012	3,580	213,983	108,996
328,027	3,595	213,978	108,994
329,041	3,541	213,848	108,880
330,056	3,897	213,769	109,083
331,070	3,578	213,510	108,715
332,085	3,230	213,262	108,332
333,100	3,123	213,248	108,240
334,114	3,424	213,086	108,361
335,129	3,403	212,955	108,270
336,143	3,383	212,972	108,255
337,158	3,323	212,727	108,078
338,173	3,584	212,644	108,210
339,187	3,351	212,456	107,941
340,202	3,213	212,274	107,742
341,216	3,087	212,132	107,571
342,231	3,487	211,934	107,743
343,246	3,150	211,855	107,457
344,260	3,273	211,778	107,494
345,275	3,393	211,612	107,484
346,289	3,579	211,581	107,589
347,304	3,680	211,412	107,565
348,319	3,554	211,206	107,362
349,333	3,561	211,010	107,258
350,348	3,379	211,048	107,140
351,362	3,783	210,892	107,334
352,377	3,662	210,717	107,151
353,392	3,558	210,595	107,006
354,406	3,367	210,585	106,859
355,421	194,300	1342,717	1424,187
356,435	155,121	1480,684	1424,224
