DTS Sentinel unit serial number:	SN410029Multiplexer serial number:	ORYXHardware model number:	OX2-SRSoftware version number:	ORYX F/W v4,00 Oryx Data Collector v3.7.2.0data status	okinstallation	B6 Nyhavnadifferential loss correction	single-endedforward channel	channel 2reverse channel	N/Adate	2023/12/08time	00:15:08forward acquisition time	300,00reverse acquisition time	0,00gamma	499,1914k internal	0,3165k external	0,3165temperature offset calibration	1,0000default loss term (dB/km)	0,3820temperature slope calibration	1,0000multiplexer offset coefficient	1,0000multiplexer slope coefficient	1,0000fibre end	0,00T internal ref (°C)	13,37T ext. ref 1 (°C)	-3,59T ext. ref 2 (°C)	-3,58length (m)	temperature (°C)	Stokes	anti-Stokes-744,400	-200,000	-0,010	0,115
-743,385	-75,356	-0,278	0,072
-742,371	477,268	0,106	0,177
-741,356	-173,786	-0,407	-0,009
-740,342	-90,588	0,189	0,040
-739,327	-190,812	-0,307	-0,002
-738,312	38,304	0,141	0,092
-737,298	-100,699	-0,409	-0,073
-736,283	59,671	0,208	0,151
-735,269	-176,313	-0,343	-0,006
-734,254	70,452	0,134	0,102
-733,239	-100,368	-0,493	-0,089
-732,225	800,000	0,017	-0,041
-731,210	87,328	0,008	0,006
-730,196	-200,000	0,005	-0,043
-729,181	4,720	-0,067	-0,036
-728,167	-21,101	0,041	-0,019
-727,152	-200,000	0,005	0,040
-726,137	592,920	-0,038	-0,070
-725,123	-20,363	-0,186	-0,084
-724,108	-109,477	-0,253	-0,039
-723,094	-83,951	-0,085	0,020
-722,079	-200,000	0,021	0,101
-721,064	-9,982	0,072	-0,035
-720,050	33,308	0,018	-0,012
-719,035	-115,260	-0,071	0,010
-718,021	178,040	0,083	-0,090
-717,006	205,991	-0,063	-0,073
-715,991	304,475	-0,035	-0,047
-714,977	485,315	-0,060	-0,101
-713,962	226,878	0,082	-0,097
-712,948	-200,000	0,007	-0,104
-711,933	800,000	-0,006	-0,014
-710,918	-87,752	-0,109	-0,024
-709,904	-200,000	-0,014	-0,097
-708,889	160,775	-0,028	-0,029
-707,875	62,131	0,022	0,016
-706,860	-200,000	-0,007	-0,066
-705,845	-200,000	-0,016	-0,121
-704,831	-94,667	0,130	-0,026
-703,816	800,000	0,027	-0,064
-702,802	-59,246	-0,119	-0,038
-701,787	81,226	-0,064	-0,051
-700,772	267,222	-0,078	-0,100
-699,758	-48,871	0,246	-0,086
-698,743	-200,000	-0,009	-0,070
-697,729	-200,000	0,002	-0,051
-696,714	-65,518	-0,077	-0,022
-695,699	-64,296	-0,259	-0,077
-694,685	167,082	-0,088	-0,092
-693,670	512,806	-0,011	-0,019
-692,656	-33,509	-0,050	0,020
-691,641	800,000	0,023	-0,059
-690,627	733,657	-0,040	0,078
-689,612	654,960	0,021	0,039
-688,597	800,000	-0,015	-0,032
-687,583	179,105	-0,066	-0,071
-686,568	450,769	-0,065	-0,105
-685,554	58,549	0,077	-0,055
-684,539	-200,000	-0,004	0,021
-683,524	19,752	0,210	0,123
-682,510	398,289	-0,081	0,124
-681,495	17,755	-0,042	0,024
-680,481	76,027	-0,129	-0,100
-679,466	-64,096	-0,050	0,015
-678,451	-200,000	-0,015	0,061
-677,437	-25,544	0,080	-0,035
-676,422	86,560	0,081	-0,065
-675,408	-200,000	-0,005	0,129
-674,393	-108,335	-0,080	-0,013
-673,378	-40,450	-0,086	-0,033
-672,364	-100,713	0,017	-0,003
-671,349	-124,220	-0,058	0,007
-670,335	-68,659	-0,093	-0,026
-669,320	-84,457	0,025	-0,006
-668,305	18,300	-0,031	0,018
-667,291	-79,972	-0,063	0,015
-666,276	-78,765	0,040	0,010
-665,262	126,941	-0,061	-0,057
-664,247	120,676	-0,087	0,079
-663,232	126,217	0,140	0,130
-662,218	-43,532	0,076	-0,028
-661,203	800,000	-0,029	0,071
-660,189	-200,000	0,001	0,062
-659,174	0,334	-0,032	-0,017
-658,159	-200,000	-0,006	-0,034
-657,145	-32,741	-0,174	0,071
-656,130	-70,907	0,108	0,030
-655,116	-200,000	0,002	0,008
-654,101	-28,974	-0,140	-0,059
-653,086	-200,000	0,008	-0,084
-652,072	-200,000	-0,002	0,025
-651,057	200,739	-0,085	-0,096
-650,043	-113,711	-0,081	0,012
-649,028	196,255	-0,064	0,071
-648,014	-106,632	-0,150	0,024
-646,999	359,080	0,063	0,092
-645,984	90,959	-0,074	0,061
-644,970	-145,172	0,011	-0,001
-643,955	9,938	0,046	-0,025
-642,941	-200,000	0,001	0,044
-641,926	-200,000	-0,010	0,116
-640,911	330,857	-0,035	0,049
-639,897	12,274	0,102	-0,057
-638,882	554,034	0,061	0,108
-637,868	800,000	-0,019	-0,042
-636,853	756,610	-0,047	-0,094
-635,838	247,969	-0,064	-0,080
-634,824	660,136	0,073	-0,138
-633,809	207,696	0,055	-0,063
-632,795	183,925	0,011	0,012
-631,780	221,354	-0,077	0,091
-630,765	306,966	0,067	-0,091
-629,751	17,845	-0,131	-0,076
-628,736	-100,681	-0,152	0,027
-627,722	139,857	-0,047	0,045
-626,707	-154,379	-0,124	-0,006
-625,692	800,000	0,052	0,154
-624,678	39,641	-0,056	-0,036
-623,663	336,033	-0,025	0,035
-622,649	25,636	-0,108	-0,066
-621,634	69,851	-0,055	-0,041
-620,619	800,000	-0,048	-0,118
-619,605	-200,000	0,003	0,023
-618,590	800,000	0,018	-0,048
-617,576	-170,993	-0,064	0,002
-616,561	800,000	0,029	-0,085
-615,546	-200,000	-0,014	-0,065
-614,532	187,022	-0,043	0,047
-613,517	-94,925	0,130	-0,025
-612,503	-200,000	-0,004	0,090
-611,488	-41,475	0,196	0,073
-610,474	-56,248	0,122	-0,039
-609,459	-200,000	-0,007	-0,169
-608,444	-115,257	0,092	0,013
-607,430	83,690	-0,057	0,045
-606,415	-106,788	0,067	0,011
-605,401	170,406	0,016	-0,016
-604,386	-21,171	-0,108	-0,048
-603,371	495,681	0,059	0,099
-602,357	800,000	0,013	0,027
-601,342	800,000	0,016	0,043
-600,328	299,248	-0,077	0,104
-599,313	-200,000	-0,012	0,092
-598,298	-46,583	-0,161	0,057
-597,284	361,092	-0,006	0,009
-596,269	-200,000	-0,006	0,053
-595,255	248,326	-0,012	0,015
-594,240	-191,560	0,023	-0,000
-593,225	143,695	-0,103	-0,101
-592,211	-72,049	0,086	0,023
-591,196	30,551	-0,046	-0,029
-590,182	-92,647	0,096	0,020
-589,167	-200,000	-0,012	0,100
-588,152	-200,000	-0,000	0,046
-587,138	-112,774	-0,146	-0,021
-586,123	-71,706	-0,063	0,017
-585,109	63,213	0,122	-0,090
-584,094	-200,000	0,045	-0,223
-583,079	800,000	0,045	0,096
-582,065	-130,438	0,035	-0,003
-581,050	-75,812	-0,073	-0,019
-580,036	173,445	0,069	-0,073
-579,021	330,216	-0,032	-0,045
-578,006	40,297	-0,083	0,054
-576,992	33,486	-0,052	0,033
-575,977	800,000	0,072	-0,187
-574,963	149,324	-0,075	-0,074
-573,948	-27,066	0,088	-0,038
-572,934	22,613	-0,186	-0,111
-571,919	379,546	0,036	0,054
-570,904	-89,367	-0,084	-0,018
-569,890	232,470	0,039	0,047
-568,875	362,718	0,042	0,062
-567,861	-200,000	0,020	0,074
-566,846	261,125	-0,062	0,079
-565,831	-73,368	-0,032	-0,009
-564,817	-200,000	0,022	-0,075
-563,802	-2,204	-0,148	-0,075
-562,788	91,188	0,087	0,072
-561,773	-200,000	0,002	0,120
-560,758	-200,000	-0,017	0,134
-559,744	-200,000	-0,037	0,131
-558,729	-71,126	-0,080	0,022
-557,715	-34,977	-0,072	0,029
-556,700	-200,000	-0,001	-0,104
-555,685	0,482	0,142	0,074
-554,671	800,000	0,037	0,076
-553,656	-118,307	-0,165	0,021
-552,642	68,261	0,107	-0,080
-551,627	-176,757	-0,110	0,002
-550,612	76,066	-0,056	0,043
-549,598	-106,841	-0,103	-0,016
-548,583	206,800	-0,102	-0,117
-547,569	-200,000	0,045	-0,205
-546,554	25,039	0,076	-0,046
-545,539	-64,916	-0,047	-0,014
-544,525	67,436	-0,007	0,005
-543,510	800,000	0,025	0,071
-542,496	-200,000	-0,027	-0,093
-541,481	178,631	0,060	-0,064
-540,466	-200,000	-0,005	-0,076
-539,452	-200,000	0,004	-0,036
-538,437	236,244	-0,113	0,137
-537,423	-31,523	-0,112	-0,046
-536,408	-200,000	0,037	0,173
-535,393	800,000	-0,036	-0,111
-534,379	-200,000	0,004	-0,095
-533,364	222,885	-0,038	-0,045
-532,350	800,000	-0,007	0,017
-531,335	765,704	0,102	0,204
-530,321	254,116	0,057	0,071
-529,306	-56,058	-0,073	0,023
-528,291	-200,000	-0,051	-0,169
-527,277	591,864	-0,072	-0,131
-526,262	142,748	-0,004	0,003
-525,248	-67,861	-0,063	0,018
-524,233	412,347	0,060	0,093
-523,218	434,839	0,038	-0,061
-522,204	800,000	0,027	0,058
-521,189	800,000	0,082	-0,180
-520,175	461,464	0,042	-0,068
-519,160	44,949	0,064	0,043
-518,145	176,827	-0,051	-0,054
-517,131	800,000	0,023	-0,063
-516,116	-117,590	0,084	0,011
-515,102	756,269	-0,045	-0,090
-514,087	-200,000	0,004	0,015
-513,072	39,401	0,143	0,093
-512,058	-14,081	-0,116	-0,054
-511,043	-47,202	0,067	0,024
-510,029	321,029	0,036	-0,050
-509,014	-200,000	0,001	0,057
-507,999	800,000	0,059	0,162
-506,985	-200,000	0,031	0,104
-505,970	-200,000	-0,017	-0,065
-504,956	560,709	-0,091	-0,161
-503,941	-46,934	0,081	-0,029
-502,926	129,120	-0,084	-0,078
-501,912	-76,682	0,111	-0,028
-500,897	103,205	-0,078	0,067
-499,883	-23,712	0,024	-0,011
-498,868	-160,068	-0,087	0,003
-497,853	108,454	-0,123	0,107
-496,839	-86,255	0,043	0,010
-495,824	800,000	-0,028	-0,061
-494,810	-200,000	0,002	-0,063
-493,795	18,799	0,069	-0,040
-492,781	34,722	-0,067	-0,042
-491,766	412,055	0,038	0,059
-490,751	-55,262	0,129	0,042
-489,737	-97,978	-0,054	-0,010
-488,722	48,973	0,061	0,042
-487,708	800,000	0,030	0,068
-486,693	-142,702	0,092	0,006
-485,678	800,000	0,059	-0,158
-484,664	59,436	-0,048	-0,034
-483,649	-200,000	0,005	-0,042
-482,635	177,680	-0,077	-0,082
-481,620	-12,395	0,099	-0,047
-480,605	58,356	0,048	0,035
-479,591	43,267	-0,042	-0,028
-478,576	-98,925	-0,134	0,025
-477,562	-54,108	0,145	-0,048
-476,547	85,180	-0,073	-0,058
-475,532	-47,698	0,051	0,018
-474,518	69,119	0,063	-0,047
-473,503	73,484	0,091	0,070
-472,489	-200,000	0,007	-0,025
-471,474	154,302	0,004	-0,004
-470,459	35,351	-0,035	-0,022
-469,445	-120,065	0,081	-0,010
-468,430	85,228	0,055	-0,044
-467,416	-145,187	-0,051	0,003
-466,401	164,853	0,130	0,133
-465,386	60,310	0,065	0,047
-464,372	-98,842	-0,060	-0,011
-463,357	-200,000	0,006	-0,024
-462,343	-200,000	0,025	0,108
-461,328	800,000	-0,071	-0,177
-460,313	-40,472	-0,146	0,055
-459,299	-200,000	0,003	-0,019
-458,284	-200,000	0,011	-0,094
-457,270	-37,541	-0,090	0,035
-456,255	137,359	-0,075	-0,072
-455,241	-200,000	0,039	-0,160
-454,226	-15,808	-0,149	-0,069
-453,211	-200,000	-0,034	0,187
-452,197	79,774	-0,110	0,085
-451,182	15,072	0,115	0,066
-450,168	-37,621	0,067	0,026
-449,153	764,935	-0,039	-0,078
-448,138	800,000	-0,036	-0,096
-447,124	387,631	0,068	0,103
-446,109	800,000	0,057	0,172
-445,095	-200,000	0,003	0,012
-444,080	-44,785	0,016	0,006
-443,065	-200,000	-0,017	-0,058
-442,051	-65,626	-0,090	-0,026
-441,036	800,000	-0,046	-0,123
-440,022	800,000	0,079	-0,160
-439,007	-148,508	0,058	-0,003
-437,992	-200,000	-0,001	0,136
-436,978	-200,000	-0,002	-0,019
-435,963	-156,912	0,070	-0,003
-434,949	153,117	-0,084	0,084
-433,934	115,500	0,089	-0,079
-432,919	-52,744	0,006	-0,002
-431,905	-200,000	0,009	0,100
-430,890	-200,000	0,024	0,118
-429,876	-200,000	-0,010	0,102
-428,861	139,569	0,146	0,140
-427,846	-35,085	0,083	0,033
-426,832	-26,524	-0,149	-0,063
-425,817	-200,000	0,006	-0,089
-424,803	-55,708	0,038	-0,012
-423,788	800,000	-0,068	0,136
-422,773	-97,365	0,167	0,031
-421,759	87,873	-0,115	0,093
-420,744	-26,942	0,096	-0,040
-419,730	-30,710	0,032	0,013
-418,715	-200,000	0,009	0,134
-417,701	285,595	0,038	-0,050
-416,686	52,514	-0,117	0,081
-415,671	-200,000	0,030	0,117
-414,657	-200,000	0,001	0,115
-413,642	70,888	0,058	0,044
-412,628	-200,000	0,014	-0,069
-411,613	-13,251	-0,150	-0,070
-410,598	-200,000	-0,021	-0,072
-409,584	22,702	0,118	0,070
-408,569	800,000	-0,021	0,044
-407,555	590,691	0,015	-0,026
-406,540	-100,391	0,097	-0,017
-405,525	-160,459	-0,018	0,001
-404,511	64,378	-0,138	-0,101
-403,496	-200,000	0,009	0,126
-402,482	154,322	0,035	0,035
-401,467	800,000	-0,020	-0,046
-400,452	-170,390	0,089	-0,002
-399,438	-119,683	-0,046	-0,006
-398,423	-69,974	-0,078	-0,022
-397,409	8,647	-0,113	-0,062
-396,394	-200,000	-0,002	-0,079
-395,379	-87,214	0,101	-0,022
-394,365	-130,374	0,095	0,009
-393,350	464,802	0,070	-0,113
-392,336	-141,706	0,047	-0,003
-391,321	-175,874	-0,066	-0,001
-390,306	-99,932	0,019	0,003
-389,292	95,277	-0,092	-0,076
-388,277	-37,964	-0,141	0,054
-387,263	-200,000	-0,003	-0,052
-386,248	-106,522	-0,089	0,014
-385,233	-107,484	-0,026	0,004
-384,219	56,820	0,058	0,041
-383,204	800,000	0,025	-0,065
-382,190	-144,414	-0,038	-0,003
-381,175	147,246	0,086	0,084
-380,160	800,000	0,040	0,095
-379,146	164,584	-0,052	0,053
-378,131	-46,826	0,063	-0,022
-377,117	-41,929	0,023	0,009
-376,102	-123,410	0,043	-0,005
-375,088	492,416	0,054	-0,090
-374,073	340,360	0,017	0,024
-373,058	-69,962	0,012	-0,003
-372,044	-147,042	0,086	-0,005
-371,029	226,097	-0,042	0,049
-370,015	461,656	0,061	-0,100
-369,000	628,893	-0,055	0,100
-367,985	-58,662	-0,036	-0,011
-366,971	451,382	-0,039	-0,062
-365,956	-87,453	-0,158	0,034
-364,942	-33,827	-0,088	-0,035
-363,927	-98,350	-0,104	0,019
-362,912	169,289	0,108	-0,112
-361,898	18,105	-0,029	0,017
-360,883	-51,312	-0,137	-0,046
-359,869	-200,000	-0,001	0,042
-358,854	-31,039	0,035	0,014
-357,839	-200,000	-0,001	0,014
-356,825	-149,267	-0,062	-0,004
-355,810	-70,530	0,141	-0,038
-354,796	93,583	-0,149	-0,122
-353,781	-31,231	-0,136	-0,055
-352,766	-200,000	0,020	-0,094
-351,752	618,631	0,020	0,037
-350,737	123,644	0,067	0,061
-349,723	-52,561	0,062	0,021
-348,708	-28,978	0,045	0,019
-347,693	5,451	0,055	0,029
-346,679	-200,000	-0,015	-0,097
-345,664	-200,000	0,025	0,085
-344,650	-200,000	0,002	0,045
-343,635	48,035	-0,006	-0,004
-342,620	-2,813	0,168	0,085
-341,606	200,896	0,070	-0,078
-340,591	-200,000	-0,014	0,111
-339,577	-37,230	0,023	-0,009
-338,562	552,181	-0,050	0,088
-337,548	584,265	0,042	-0,074
-336,533	75,617	0,104	0,080
-335,518	131,257	0,025	0,023
-334,504	-200,000	0,007	0,053
-333,489	152,872	-0,066	0,066
-332,475	41,308	-0,086	0,056
-331,460	-200,000	0,001	0,017
-330,445	92,555	-0,050	-0,041
-329,431	-174,587	0,136	0,003
-328,416	205,312	-0,095	0,107
-327,402	-200,000	0,004	0,028
-326,387	-142,461	-0,135	-0,009
-325,372	-200,000	-0,006	-0,037
-324,358	31,950	-0,074	0,046
-323,343	-55,687	0,050	-0,016
-322,329	-21,476	-0,070	-0,031
-321,314	-168,283	-0,061	-0,002
-320,299	61,381	0,126	0,090
-319,285	-96,968	0,098	0,018
-318,270	-200,000	0,004	-0,065
-317,256	800,000	0,044	0,094
-316,241	493,331	0,093	0,156
-315,226	-29,999	0,094	-0,039
-314,212	-200,000	0,006	0,068
-313,197	800,000	-0,025	0,074
-312,183	217,623	0,069	-0,080
-311,168	-200,000	-0,012	0,071
-310,153	31,617	-0,077	0,048
-309,139	-74,285	-0,104	-0,027
-308,124	-27,032	0,109	-0,046
-307,110	-65,341	0,081	0,023
-306,095	-200,000	-0,039	0,137
-305,080	-200,000	-0,014	-0,070
-304,066	667,972	0,029	0,054
-303,051	-30,052	-0,132	0,054
-302,037	-40,847	0,046	0,017
-301,022	13,858	-0,080	0,045
-300,008	-88,878	-0,012	0,003
-298,993	-41,474	0,207	0,077
-297,978	800,000	-0,086	0,212
-296,964	-49,831	-0,125	0,043
-295,949	-119,575	-0,162	-0,020
-294,935	-200,000	-0,025	-0,095
-293,920	-169,026	0,096	0,003
-292,905	-200,000	-0,025	0,122
-291,891	-26,246	0,082	-0,035
-290,876	-200,000	-0,029	0,108
-289,862	214,554	0,064	-0,073
-288,847	76,644	-0,114	-0,087
-287,832	-200,000	0,013	0,124
-286,818	-29,452	-0,113	-0,046
-285,803	-92,570	0,111	0,022
-284,789	-200,000	0,026	0,083
-283,774	-200,000	0,009	0,038
-282,759	-29,740	0,009	-0,004
-281,745	800,000	0,031	-0,070
-280,730	-100,271	-0,046	0,008
-279,716	-46,117	0,066	-0,023
-278,701	540,672	-0,041	0,070
-277,686	242,489	-0,018	-0,022
-276,672	-200,000	0,010	-0,156
-275,657	-91,603	0,035	0,007
-274,643	112,294	0,127	-0,111
-273,628	-99,887	-0,111	0,020
-272,613	586,623	-0,042	0,075
-271,599	428,401	0,023	0,036
-270,584	58,518	0,041	0,029
-269,570	-43,544	0,158	0,057
-268,555	197,201	0,074	-0,082
-267,540	130,567	-0,175	-0,162
-266,526	-200,000	-0,008	0,049
-265,511	-200,000	-0,019	-0,061
-264,497	800,000	-0,040	-0,106
-263,482	227,694	0,136	0,159
-262,467	-200,000	0,004	0,223
-261,453	28,804	0,074	-0,045
-260,438	-200,000	-0,017	0,070
-259,424	136,099	-0,036	-0,034
-258,409	-87,505	0,073	0,016
-257,395	-200,000	-0,010	0,039
-256,380	280,519	-0,044	-0,057
-255,365	-81,829	0,143	-0,033
-254,351	-200,000	0,002	-0,041
-253,336	47,809	-0,141	-0,095
-252,322	800,000	-0,042	-0,101
-251,307	-200,000	0,000	-0,043
-250,292	-200,000	-0,005	-0,027
-249,278	-73,314	0,056	0,015
-248,263	-38,075	0,097	-0,037
-247,249	40,996	0,135	0,088
-246,234	-150,608	-0,029	-0,002
-245,219	583,705	0,041	-0,072
-244,205	-200,000	-0,003	-0,101
-243,190	95,111	0,061	-0,050
-242,176	-69,398	-0,135	0,037
-241,161	169,776	-0,008	0,008
-240,146	-200,000	-0,009	-0,115
-239,132	-200,000	-0,004	-0,035
-238,117	338,044	0,058	-0,081
-237,103	18,572	0,083	0,047
-236,088	423,154	0,049	0,076
-235,073	800,000	0,023	0,052
-234,059	56,898	-0,058	0,041
-233,044	-200,000	0,010	0,061
-232,030	-200,000	0,002	0,103
-231,015	800,000	-0,068	-0,197
-230,000	-200,000	0,001	-0,061
-228,986	422,116	-0,059	-0,091
-227,971	89,019	-0,036	-0,029
-226,957	800,000	0,016	0,035
-225,942	372,827	0,015	0,022
-224,927	800,000	-0,022	-0,059
-223,913	40,235	-0,017	0,011
-222,898	120,700	-0,018	0,016
-221,884	-200,000	0,007	-0,068
-220,869	-8,651	0,078	0,038
-219,855	53,485	0,135	0,093
-218,840	-200,000	0,003	0,074
-217,825	-37,384	-0,079	0,030
-216,811	390,680	-0,023	-0,034
-215,796	366,506	-0,029	-0,042
-214,782	140,159	-0,001	-0,001
-213,767	-200,000	0,004	0,041
-212,752	-145,146	0,034	-0,002
-211,738	193,515	0,059	-0,064
-210,723	-89,159	-0,125	-0,026
-209,709	130,783	-0,084	-0,078
-208,694	91,252	-0,047	0,038
-207,679	-178,672	-0,137	0,002
-206,665	-129,053	-0,107	-0,011
-205,650	500,661	0,061	0,101
-204,636	20,843	-0,089	0,052
-203,621	406,864	0,034	-0,052
-202,606	-92,075	0,151	0,031
-201,592	-99,348	-0,069	0,012
-200,577	-40,897	0,137	0,051
-199,563	39,775	0,059	0,038
-198,548	-200,000	0,004	0,104
-197,533	800,000	0,002	0,004
-196,519	800,000	0,024	0,059
-195,504	-75,204	-0,064	0,016
-194,490	-200,000	-0,019	-0,151
-193,475	510,921	-0,065	0,109
-192,460	-200,000	-0,000	-0,226
-191,446	-49,801	0,069	-0,024
-190,431	58,157	-0,047	0,033
-189,417	-200,000	-0,027	-0,143
-188,402	-200,000	-0,004	-0,102
-187,387	-2,697	-0,133	-0,067
-186,373	-43,894	-0,034	-0,012
-185,358	800,000	0,077	-0,170
-184,344	379,010	0,061	0,091
-183,329	-200,000	-0,015	0,209
-182,315	-119,332	0,169	0,021
-181,300	438,790	-0,110	-0,173
-180,285	-200,000	0,014	-0,120
-179,271	-18,362	-0,086	-0,039
-178,256	-74,708	0,131	0,034
-177,242	-200,000	-0,017	-0,136
-176,227	800,000	-0,023	0,058
-175,212	184,167	0,059	-0,062
-174,198	31,158	0,054	-0,033
-173,183	89,415	-0,114	-0,092
-172,169	291,917	0,057	-0,075
-171,154	-200,000	0,008	0,092
-170,139	-200,000	0,007	0,048
-169,125	-200,000	0,037	0,136
-168,110	-163,336	0,027	0,001
-167,096	39,068	-0,018	0,012
-166,081	-43,761	-0,110	-0,040
-165,066	6,284	0,109	-0,058
-164,052	17,126	-0,082	-0,046
-163,037	16,863	0,019	-0,011
-162,023	-200,000	0,018	-0,102
-161,008	61,167	-0,043	0,031
-159,993	219,242	0,098	0,113
-158,979	-200,000	-0,004	-0,068
-157,964	800,000	0,017	-0,039
-156,950	-29,086	0,032	0,013
-155,935	800,000	0,031	0,083
-154,920	-140,458	0,217	0,016
-153,906	800,000	-0,008	0,024
-152,891	507,188	0,019	0,032
-151,877	-13,965	0,160	-0,074
-150,862	-131,965	-0,101	0,009
-149,847	130,686	-0,086	-0,080
-148,833	-160,325	0,089	-0,003
-147,818	32,269	0,047	0,029
-146,804	-107,709	-0,144	0,022
-145,789	-14,732	-0,034	0,015
-144,775	-200,000	0,015	-0,124
-143,760	276,791	0,035	-0,044
-142,745	800,000	0,047	-0,121
-141,731	294,753	-0,028	0,037
-140,716	5,422	-0,139	0,073
-139,702	800,000	0,070	0,170
-138,687	-58,940	0,128	-0,039
-137,672	-200,000	-0,027	0,111
-136,658	156,151	0,026	-0,025
-135,643	-173,363	-0,028	-0,001
-134,629	-9,179	-0,112	-0,054
-133,614	-200,000	-0,012	-0,054
-132,599	225,411	0,162	0,188
-131,585	31,812	-0,054	-0,033
-130,570	-58,554	-0,201	0,062
-129,556	-200,000	0,028	-0,151
-128,541	-200,000	-0,005	0,031
-127,526	447,661	-0,042	0,067
-126,512	-168,849	-0,129	-0,003
-125,497	-60,846	0,124	-0,038
-124,483	-103,431	-0,189	-0,032
-123,468	-200,000	0,015	0,104
-122,453	-159,672	0,071	-0,003
-121,439	-94,723	0,075	0,015
-120,424	64,456	0,024	-0,017
-119,410	29,422	-0,074	0,045
-118,395	-200,000	0,012	0,148
-117,380	800,000	0,026	0,059
-116,366	800,000	-0,043	0,122
-115,351	800,000	0,056	0,124
-114,337	-200,000	-0,001	0,043
-113,322	43,762	0,111	-0,073
-112,307	524,573	0,068	-0,115
-111,293	31,055	0,047	-0,029
-110,278	-82,777	-0,125	-0,029
-109,264	-200,000	0,021	-0,140
-108,249	-110,116	-0,120	0,018
-107,234	-63,404	-0,049	-0,014
-106,220	-200,000	0,048	-0,247
-105,205	-200,000	-0,004	0,048
-104,191	433,982	0,056	0,088
-103,176	-76,717	-0,065	0,016
-102,162	-200,000	0,012	-0,072
-101,147	-200,000	-0,020	0,153
-100,132	-84,115	-0,174	-0,039
-99,118	215,964	0,060	-0,069
-98,103	461,369	0,057	-0,092
-97,089	9,418	-0,089	0,048
-96,074	-200,000	0,020	-0,069
-95,059	129,715	0,016	-0,015
-94,045	800,000	-0,056	0,150
-93,030	55,856	0,045	0,031
-92,016	-113,887	-0,107	0,015
-91,001	-165,129	0,012	0,000
-89,986	-200,000	-0,010	0,068
-88,972	733,187	0,044	0,085
-87,957	-198,764	-0,098	-0,000
-86,943	195,160	0,037	0,040
-85,928	323,487	-0,112	-0,154
-84,913	-25,367	-0,115	0,049
-83,899	-64,702	-0,093	0,027
-82,884	800,000	0,056	0,125
-81,870	-200,000	-0,011	0,036
-80,855	800,000	-0,042	0,107
-79,840	-3,559	0,093	-0,046
-78,826	-114,115	-0,064	0,009
-77,811	74,189	-0,052	0,039
-76,797	-37,786	0,077	-0,029
-75,782	304,382	-0,083	0,111
-74,767	20,350	0,056	0,033
-73,753	557,229	0,008	0,014
-72,738	-200,000	0,002	0,098
-71,724	-105,396	-0,158	-0,026
-70,709	800,000	-0,010	0,023
-69,694	-12,143	-0,077	0,036
-68,680	449,956	0,033	0,053
-67,665	27,136	-0,102	-0,061
-66,651	800,000	-0,009	0,018
-65,636	6,589	-0,004	-0,002
-64,622	289,467	0,037	0,048
-63,607	-200,000	0,001	-0,013
-62,592	286,740	0,055	-0,072
-61,578	406,072	0,064	0,097
-60,563	374,510	-0,110	0,161
-59,549	800,000	0,063	0,178
-58,534	25,565	-2,242	-1,333
-57,519	-200,000	-0,105	-0,694
-56,505	-200,000	-1,375	-5,075
-55,490	117,813	0,911	0,803
-54,476	800,000	5,380	12,157
-53,461	-200,000	18,800	315,586
-52,446	800,000	740,585	2316,094
-51,432	549,528	1653,998	2850,079
-50,417	110,012	1637,224	1406,465
-49,403	73,507	1287,689	964,345
-48,388	29,752	1029,219	625,997
-47,373	19,689	991,855	570,032
-46,359	17,133	979,590	554,577
-45,344	13,725	975,849	541,266
-44,330	14,120	974,290	541,672
-43,315	13,511	972,293	538,551
-42,300	13,364	971,403	537,555
-41,286	13,362	970,466	537,008
-40,271	13,401	969,342	536,492
-39,257	13,376	968,778	536,077
-38,242	13,460	967,799	535,789
-37,227	13,416	967,096	535,233
-36,213	13,370	966,196	534,567
-35,198	13,353	965,184	533,930
-34,184	13,439	964,337	533,717
-33,169	13,369	963,586	533,053
-32,154	13,349	962,620	532,435
-31,140	13,393	961,640	532,013
-30,125	13,444	960,958	531,781
-29,111	13,400	960,167	531,180
-28,096	13,422	959,456	530,835
-27,082	13,397	958,848	530,397
-26,067	13,482	958,031	530,200
-25,052	13,368	957,255	529,381
-24,038	13,368	956,729	529,068
-23,023	13,348	956,030	528,597
-22,009	13,417	955,326	528,409
-20,994	13,461	954,582	528,116
-19,979	13,449	954,069	527,773
-18,965	13,404	953,384	527,231
-17,950	13,382	953,084	526,971
-16,936	13,326	952,407	526,397
-15,921	13,317	951,725	525,970
-14,906	13,323	950,702	525,403
-13,892	13,360	950,185	525,215
-12,877	13,271	949,486	524,526
-11,863	13,269	948,807	524,121
-10,848	13,320	948,331	524,002
-9,833	13,357	947,877	523,847
-8,819	13,342	947,122	523,361
-7,804	13,305	946,553	522,907
-6,790	13,331	945,810	522,562
-5,775	13,306	945,546	522,315
-4,760	13,373	944,831	522,111
-3,746	13,270	944,227	521,430
-2,731	13,169	943,384	520,623
-1,717	13,124	942,745	520,107
-0,702	13,064	942,147	519,566
0,313	12,948	941,469	519,610
1,327	16,423	939,324	529,349
2,342	25,547	789,741	469,073
3,356	21,690	444,058	258,027
4,371	-7,865	296,941	142,868
5,386	-11,541	278,701	130,582
6,400	-12,714	272,892	126,755
7,415	-12,834	270,541	125,541
8,429	-13,020	269,182	124,727
9,444	-13,082	268,229	124,218
10,459	-12,945	267,588	124,036
11,473	-13,147	267,008	123,571
12,488	-13,260	266,454	123,200
13,502	-13,497	265,919	122,727
14,517	-13,274	265,518	122,734
15,531	-13,020	265,034	122,728
16,546	-13,099	264,695	122,490
17,561	-13,334	264,381	122,121
18,575	-13,077	263,986	122,159
19,590	-13,217	263,566	121,828
20,604	-12,828	263,289	122,039
21,619	-13,123	262,943	121,603
22,634	-13,072	262,580	121,470
23,648	-13,155	262,366	121,286
24,663	-13,149	262,037	121,128
25,677	-13,094	261,858	121,083
26,692	-13,212	261,635	120,864
27,707	-13,285	261,267	120,618
28,721	-13,164	261,058	120,619
29,736	-13,264	260,697	120,352
30,750	-13,177	260,328	120,249
31,765	-13,208	260,214	120,158
32,780	-13,270	260,039	120,011
33,794	-13,276	259,795	119,883
34,809	-13,159	259,458	119,820
35,823	-13,091	259,040	119,677
36,838	-13,288	259,058	119,500
37,853	-13,305	258,664	119,293
38,867	-13,413	258,477	119,101
39,882	-13,241	258,126	119,079
40,896	-13,268	258,063	119,017
41,911	-13,233	257,809	118,920
42,926	-13,285	257,533	118,735
43,940	-13,251	257,226	118,614
44,955	-13,505	257,099	118,322
45,969	-13,551	256,948	118,202
46,984	-13,704	256,609	117,901
47,999	-13,996	256,320	117,502
49,013	-13,989	256,067	117,382
50,028	-13,980	255,761	117,239
51,042	-14,136	255,499	116,974
52,057	-14,235	255,307	116,789
53,071	-14,071	255,067	116,811
54,086	-13,791	254,867	116,953
55,101	-13,806	254,638	116,824
56,115	-13,706	254,567	116,868
57,130	-13,178	254,550	117,307
58,144	-12,993	254,304	117,342
59,159	-13,103	254,081	117,134
60,174	-13,137	253,803	116,967
61,188	-13,045	253,593	116,938
62,203	-12,986	253,549	116,959
63,217	-12,932	253,149	116,810
64,232	-13,138	253,016	116,561
65,247	-13,035	252,855	116,566
66,261	-13,078	252,472	116,342
67,276	-13,240	252,338	116,130
68,290	-13,443	252,014	115,797
69,305	-13,767	251,858	115,437
70,320	-13,636	251,579	115,411
71,334	-13,322	251,498	115,632
72,349	-12,976	251,297	115,826
73,363	-13,114	251,257	115,678
74,378	-13,104	250,769	115,452
75,393	-13,073	250,674	115,424
76,407	-13,300	250,528	115,154
77,422	-13,285	250,154	114,985
78,436	-13,132	250,026	115,045
79,451	-13,057	249,829	115,008
80,466	-13,366	249,483	114,576
81,480	-13,416	249,319	114,448
82,495	-13,368	249,061	114,361
83,509	-13,464	249,012	114,247
84,524	-13,546	248,756	114,050
85,539	-13,582	248,429	113,860
86,553	-13,661	248,305	113,725
87,568	-13,503	248,180	113,791
88,582	-13,494	248,011	113,711
89,597	-13,431	247,768	113,643
90,611	-13,266	247,594	113,692
91,626	-13,260	247,413	113,604
92,641	-12,978	247,149	113,708
93,655	-13,271	247,153	113,455
94,670	-13,314	246,894	113,290
95,684	-13,419	246,650	113,080
96,699	-13,282	246,569	113,147
97,714	-13,367	246,308	112,946
98,728	-13,566	246,155	112,700
99,743	-13,616	245,842	112,505
100,757	-13,674	245,511	112,295
101,772	-13,556	245,526	112,390
102,787	-13,402	245,241	112,377
103,801	-13,527	245,160	112,226
104,816	-13,428	245,022	112,235
105,830	-13,277	244,883	112,287
106,845	-13,221	244,656	112,219
107,860	-13,216	244,437	112,113
108,874	-13,442	244,241	111,826
109,889	-13,267	243,924	111,815
110,903	-13,486	243,740	111,541
111,918	-13,331	243,625	111,606
112,933	-13,322	243,531	111,560
113,947	-13,300	243,202	111,418
114,962	-13,325	243,013	111,301
115,976	-13,278	242,851	111,255
116,991	-13,246	242,719	111,211
118,006	-13,539	242,739	110,969
119,020	-13,364	242,517	111,002
120,035	-13,129	242,251	111,063
121,049	-13,316	242,021	110,794
122,064	-13,148	241,950	110,890
123,079	-13,323	241,826	110,679
124,093	-13,138	241,493	110,668
125,108	-13,648	241,270	110,140
126,122	-13,723	241,091	109,988
127,137	-13,626	240,884	109,962
128,151	-13,679	240,772	109,858
129,166	-13,394	240,568	109,987
130,181	-13,711	240,412	109,649
131,195	-13,551	240,140	109,644
132,210	-13,578	240,013	109,555
133,224	-13,227	239,716	109,694
134,239	-13,394	239,662	109,523
135,254	-13,282	239,225	109,405
136,268	-13,623	239,384	109,192
137,283	-13,701	238,979	108,935
138,297	-13,504	238,569	108,896
139,312	-13,881	238,637	108,615
140,327	-13,453	238,576	108,922
141,341	-13,137	238,581	109,169
142,356	-12,893	238,314	109,233
143,370	-13,066	238,333	109,093
144,385	-12,746	237,952	109,166
145,400	-12,679	237,766	109,125
146,414	-12,946	237,695	108,868
147,429	-13,020	237,444	108,684
148,443	-12,985	237,138	108,563
149,458	-13,024	237,097	108,503
150,473	-12,991	236,966	108,460
151,487	-13,099	236,698	108,241
152,502	-13,007	236,562	108,243
153,516	-13,069	236,534	108,170
154,531	-12,986	236,308	108,124
155,546	-13,188	236,072	107,845
156,560	-13,045	235,905	107,873
157,575	-13,068	235,595	107,704
158,589	-13,049	235,552	107,689
159,604	-12,992	235,323	107,620
160,619	-13,084	235,235	107,497
161,633	-12,947	235,072	107,522
162,648	-12,832	234,858	107,505
163,662	-13,017	234,748	107,300
164,677	-13,154	234,625	107,125
165,692	-13,081	234,411	107,076
166,706	-12,944	234,234	107,094
167,721	-12,804	234,158	107,160
168,735	-12,668	233,936	107,156
169,750	-13,006	233,820	106,827
170,764	-12,963	233,670	106,783
171,779	-12,838	233,548	106,815
172,794	-12,907	233,310	106,643
173,808	-13,103	233,207	106,432
174,823	-13,464	232,793	105,951
175,837	-13,650	232,577	105,698
176,852	-13,005	232,669	106,236
177,867	-13,002	232,370	106,092
178,881	-12,980	232,323	106,078
179,896	-12,617	232,013	106,210
180,910	-12,900	232,074	106,007
181,925	-13,078	232,011	105,830
182,940	-12,896	231,940	105,931
183,954	-12,577	231,521	105,979
184,969	-12,806	231,493	105,778
185,983	-12,689	231,255	105,750
186,998	-12,717	231,323	105,751
188,013	-12,746	230,966	105,556
189,027	-12,645	230,844	105,569
190,042	-12,808	230,749	105,390
191,056	-12,999	230,546	105,139
192,071	-12,814	230,412	105,212
193,086	-12,783	230,247	105,151
194,100	-12,858	230,072	105,004
195,115	-13,213	229,589	104,500
196,129	-13,314	229,660	104,445
197,144	-7,618	231,610	109,754
198,159	-2,091	233,159	114,795
199,173	1,861	234,353	118,467
200,188	2,761	234,449	119,209
201,202	2,572	234,259	118,954
202,217	2,680	234,178	118,986
203,232	3,048	234,008	119,176
204,246	3,119	233,652	119,040
205,261	3,230	233,586	119,082
206,275	3,192	233,622	119,060
207,290	3,225	233,514	119,020
208,304	3,183	233,400	118,919
209,319	3,346	233,086	118,875
210,334	2,980	232,864	118,466
211,348	2,727	232,773	118,214
212,363	2,310	232,299	117,640
213,377	2,394	232,185	117,637
214,392	2,176	232,112	117,421
215,407	2,371	231,908	117,458
216,421	2,448	231,987	117,547
217,436	2,500	231,488	117,323
218,450	2,406	231,306	117,148
219,465	2,287	231,156	116,970
220,480	2,120	231,262	116,885
221,494	2,341	230,874	116,848
222,509	2,519	230,830	116,952
223,523	2,721	230,723	117,043
224,538	2,433	230,597	116,748
225,553	2,491	230,462	116,713
226,567	2,565	230,137	116,595
227,582	2,780	230,216	116,789
228,596	2,697	230,066	116,639
229,611	2,615	229,976	116,520
230,626	2,000	229,730	115,915
231,640	2,244	229,563	116,007
232,655	2,516	229,508	116,177
233,669	2,787	229,284	116,259
234,684	2,949	229,247	116,354
235,699	2,856	229,001	116,148
236,713	2,389	228,889	115,726
237,728	2,495	228,577	115,637
238,742	2,461	228,528	115,576
239,757	2,564	228,291	115,525
240,772	2,317	228,039	115,199
241,786	2,483	227,961	115,276
242,801	2,432	228,027	115,260
243,815	2,900	227,862	115,521
244,830	3,079	227,747	115,587
245,844	2,492	227,380	114,948
246,859	2,790	227,262	115,102
247,874	2,736	227,301	115,071
248,888	2,744	227,078	114,954
249,903	2,584	226,909	114,738
250,917	2,551	226,736	114,615
251,932	2,348	226,679	114,424
252,947	2,217	226,372	114,159
253,961	2,178	226,071	113,968
254,976	2,175	226,027	113,934
255,990	2,689	225,981	114,286
257,005	2,528	225,915	114,122
258,020	2,663	225,713	114,111
259,034	2,639	225,581	114,016
260,049	2,589	225,519	113,937
261,063	2,696	225,266	113,879
262,078	2,775	225,197	113,893
263,093	3,082	225,013	114,019
264,107	2,830	224,785	113,705
265,122	2,640	224,831	113,577
266,136	2,820	224,689	113,629
267,151	2,713	224,514	113,450
268,166	2,483	224,312	113,168
269,180	2,315	224,056	112,904
270,195	2,217	223,982	112,783
271,209	2,548	223,751	112,902
272,224	2,529	223,552	112,778
273,239	2,644	223,558	112,857
274,253	2,379	223,425	112,582
275,268	2,122	223,176	112,257
276,282	2,132	223,043	112,187
277,297	1,981	222,879	111,983
278,312	2,024	222,902	112,017
279,326	2,330	222,637	112,099
280,341	2,373	222,616	112,111
281,355	2,601	222,353	112,136
282,370	2,610	222,214	112,062
283,384	2,300	222,153	111,794
284,399	2,264	221,899	111,629
285,414	2,112	221,650	111,383
286,428	2,330	221,694	111,555
287,443	2,677	221,589	111,747
288,457	2,738	221,399	111,685
289,472	2,519	221,137	111,383
290,487	1,983	220,999	110,912
291,501	2,021	220,804	110,832
292,516	2,118	220,744	110,863
293,530	2,032	220,565	110,700
294,545	2,148	220,458	110,721
295,560	2,310	220,440	110,821
296,574	2,238	220,309	110,693
297,589	2,120	220,064	110,473
298,603	2,593	219,841	110,695
299,618	2,501	219,770	110,582
300,633	2,322	219,906	110,511
301,647	2,754	219,619	110,671
302,662	2,705	219,576	110,604
303,676	2,619	219,303	110,394
304,691	2,786	219,203	110,455
305,706	2,773	219,125	110,396
306,720	2,756	218,781	110,201
307,735	2,538	218,639	109,962
308,749	2,370	218,425	109,723
309,764	2,454	218,503	109,813
310,779	2,796	218,298	109,947
311,793	2,707	218,133	109,790
312,808	2,542	218,025	109,607
313,822	2,699	217,902	109,649
314,837	2,423	217,684	109,331
315,852	2,167	217,585	109,087
316,866	2,500	217,436	109,242
317,881	2,816	217,196	109,338
318,895	2,709	217,201	109,254
319,910	2,234	217,009	108,808
320,925	1,988	216,675	108,454
321,939	1,823	216,424	108,202
322,954	1,918	216,428	108,261
323,968	2,529	216,465	108,707
324,983	2,779	216,442	108,864
325,997	2,798	216,311	108,802
327,012	2,837	216,029	108,678
328,027	2,508	216,075	108,457
329,041	2,892	215,870	108,618
330,056	2,898	215,691	108,522
331,070	2,436	215,519	108,098
332,085	2,324	215,372	107,935
333,100	2,303	215,314	107,882
334,114	2,301	215,245	107,836
335,129	2,538	214,933	107,838
336,143	2,537	214,691	107,706
337,158	2,388	214,643	107,567
338,173	2,226	214,457	107,350
339,187	2,044	214,257	107,112
340,202	1,987	214,179	107,023
341,216	2,336	214,215	107,278
342,231	2,764	213,931	107,427
343,246	2,645	213,861	107,299
344,260	2,476	213,930	107,205
345,275	2,730	213,824	107,321
346,289	2,817	213,609	107,265
347,304	2,628	213,393	107,014
348,319	2,646	213,152	106,896
349,333	2,512	213,105	106,769
350,348	2,590	212,925	106,724
351,362	2,798	212,790	106,793
352,377	2,510	212,793	106,583
353,392	2,534	212,667	106,527
354,406	2,634	212,407	106,457
355,421	198,882	1311,390	1394,842
356,435	159,175	1445,230	1394,788
