DTS Sentinel unit serial number:	SN410029Multiplexer serial number:	ORYXHardware model number:	OX2-SRSoftware version number:	ORYX F/W v4,00 Oryx Data Collector v3.7.2.0data status	okinstallation	B6 Nyhavnadifferential loss correction	single-endedforward channel	channel 2reverse channel	N/Adate	2023/12/10time	10:30:08forward acquisition time	300,00reverse acquisition time	0,00gamma	499,1914k internal	0,3122k external	0,3122temperature offset calibration	1,0000default loss term (dB/km)	0,3820temperature slope calibration	1,0000multiplexer offset coefficient	1,0000multiplexer slope coefficient	1,0000fibre end	0,00T internal ref (°C)	22,56T ext. ref 1 (°C)	6,40T ext. ref 2 (°C)	6,39length (m)	temperature (°C)	Stokes	anti-Stokes-744,400	-73,091	0,135	0,037
-743,385	-107,361	-0,190	-0,031
-742,371	446,121	0,049	-0,080
-741,356	170,669	-0,115	0,123
-740,342	800,000	-0,045	-0,134
-739,327	47,112	-0,172	0,119
-738,312	68,089	0,031	0,023
-737,298	-108,226	-0,263	0,042
-736,283	17,875	0,078	0,046
-735,269	113,094	-0,086	0,078
-734,254	-54,108	0,041	0,014
-733,239	-146,415	-0,331	0,021
-732,225	-60,043	0,139	0,044
-731,210	800,000	0,024	0,057
-730,196	-200,000	-0,006	0,055
-729,181	31,170	-0,056	-0,036
-728,167	-200,000	0,040	0,204
-727,152	800,000	0,025	0,060
-726,137	30,461	0,038	0,024
-725,123	197,105	-0,118	-0,135
-724,108	800,000	0,043	-0,114
-723,094	79,629	-0,036	0,029
-722,079	-112,756	0,030	0,004
-721,064	-200,000	-0,019	-0,100
-720,050	-200,000	-0,008	-0,091
-719,035	800,000	0,038	0,121
-718,021	-31,606	0,053	0,022
-717,006	-200,000	0,010	-0,092
-715,991	-200,000	-0,023	-0,159
-714,977	-184,905	-0,072	0,001
-713,962	-16,165	0,101	-0,047
-712,948	86,710	-0,079	0,065
-711,933	-19,178	-0,080	0,037
-710,918	212,660	0,022	-0,026
-709,904	-37,924	-0,071	0,028
-708,889	54,047	-0,056	0,040
-707,875	-48,791	-0,128	-0,045
-706,860	-200,000	0,002	-0,091
-705,845	11,460	-0,031	-0,018
-704,831	48,813	0,017	0,012
-703,816	800,000	-0,031	0,065
-702,802	80,196	-0,039	0,031
-701,787	-200,000	0,032	-0,142
-700,772	-56,719	-0,092	0,030
-699,758	124,406	0,077	0,072
-698,743	-200,000	0,012	0,104
-697,729	65,633	-0,075	-0,056
-696,714	-179,610	-0,086	0,001
-695,699	-70,353	-0,094	-0,026
-694,685	-146,112	0,035	0,002
-693,670	30,156	-0,100	-0,064
-692,656	204,347	0,081	0,094
-691,641	800,000	-0,023	-0,058
-690,627	-200,000	-0,041	-0,144
-689,612	-17,809	0,069	-0,032
-688,597	-200,000	-0,034	-0,128
-687,583	11,908	-0,160	0,091
-686,568	143,164	-0,121	-0,119
-685,554	-157,663	0,149	-0,007
-684,539	-144,893	-0,054	0,004
-683,524	349,522	-0,048	0,070
-682,510	-58,830	0,039	-0,013
-681,495	-200,000	-0,020	-0,128
-680,481	800,000	0,038	-0,096
-679,466	-200,000	-0,039	-0,155
-678,451	800,000	-0,029	-0,089
-677,437	800,000	0,071	0,177
-676,422	-200,000	0,003	0,031
-675,408	-35,150	0,088	-0,035
-674,393	-200,000	-0,013	0,049
-673,378	-126,177	-0,148	-0,016
-672,364	248,089	0,036	-0,046
-671,349	298,285	0,051	-0,070
-670,335	-109,896	0,058	-0,009
-669,320	229,936	-0,041	0,050
-668,305	-144,468	0,062	0,004
-667,291	-113,190	0,056	-0,008
-666,276	260,181	0,033	0,043
-665,262	-200,000	-0,010	-0,035
-664,247	294,798	0,020	0,028
-663,232	111,779	-0,020	-0,018
-662,218	76,455	0,163	0,128
-661,203	-57,224	0,013	-0,004
-660,189	-1,900	-0,057	0,030
-659,174	8,375	-0,111	-0,062
-658,159	483,000	-0,039	-0,066
-657,145	-115,470	-0,113	-0,016
-656,130	101,344	-0,058	-0,050
-655,116	-2,843	0,067	-0,034
-654,101	-19,833	0,037	0,017
-653,086	-171,427	-0,070	0,002
-652,072	-166,548	-0,079	-0,002
-651,057	307,924	-0,042	-0,058
-650,043	800,000	0,055	-0,129
-649,028	-103,785	-0,113	0,019
-648,014	-200,000	0,032	0,122
-646,999	-200,000	0,032	0,122
-645,984	-200,000	-0,004	-0,022
-644,970	-15,629	0,040	0,019
-643,955	-79,318	-0,060	-0,015
-642,941	202,827	-0,066	-0,076
-641,926	-81,692	-0,090	0,022
-640,911	443,124	0,065	-0,106
-639,897	800,000	-0,060	0,152
-638,882	113,685	-0,081	-0,073
-637,868	-52,939	0,013	-0,004
-636,853	338,598	-0,040	-0,058
-635,838	48,409	-0,062	-0,043
-634,824	31,411	0,123	0,078
-633,809	18,092	0,047	-0,028
-632,795	239,888	0,046	0,058
-631,780	557,853	0,117	0,210
-630,765	68,353	0,028	-0,021
-629,751	-200,000	-0,005	-0,042
-628,736	-79,952	-0,147	0,036
-627,722	109,733	0,085	0,076
-626,707	-64,031	-0,038	-0,011
-625,692	350,648	0,089	0,131
-624,678	-149,863	-0,081	0,005
-623,663	50,110	0,109	0,076
-622,649	-200,000	-0,029	0,117
-621,634	85,876	-0,077	-0,063
-620,619	800,000	-0,040	-0,112
-619,605	-200,000	0,011	-0,053
-618,590	540,604	-0,045	-0,080
-617,576	-200,000	0,035	-0,159
-616,561	800,000	0,013	-0,041
-615,546	-35,084	-0,107	0,043
-614,532	113,369	-0,026	0,024
-613,517	159,203	-0,047	-0,049
-612,503	-200,000	-0,010	0,038
-611,488	-200,000	0,030	0,142
-610,474	-53,619	-0,030	0,010
-609,459	-144,357	-0,096	0,007
-608,444	544,145	-0,036	-0,064
-607,430	237,507	-0,068	-0,084
-606,415	315,246	-0,052	-0,074
-605,401	206,354	-0,009	0,011
-604,386	57,336	0,037	0,027
-603,371	121,912	0,074	-0,069
-602,357	-137,415	0,068	-0,006
-601,342	30,965	0,077	0,049
-600,328	-200,000	-0,019	0,142
-599,313	434,288	-0,033	-0,053
-598,298	-200,000	0,030	-0,136
-597,284	-42,633	-0,071	-0,027
-596,269	375,556	0,059	-0,089
-595,255	-165,604	0,080	-0,003
-594,240	-130,113	-0,138	0,014
-593,225	-200,000	-0,005	-0,109
-592,211	32,604	-0,085	-0,054
-591,196	625,080	0,016	-0,030
-590,182	-143,408	-0,084	-0,006
-589,167	5,230	0,065	0,035
-588,152	-115,936	0,052	-0,007
-587,138	-103,281	-0,052	-0,009
-586,123	-163,502	-0,139	-0,005
-585,109	7,749	0,028	0,015
-584,094	-43,063	-0,152	-0,057
-583,079	7,948	0,145	-0,080
-582,065	-200,000	-0,000	0,035
-581,050	-200,000	0,001	0,074
-580,036	-120,443	0,012	-0,002
-579,021	-36,406	-0,065	-0,026
-578,006	-200,000	0,017	-0,068
-576,992	346,027	0,031	-0,045
-575,977	-104,066	-0,153	0,026
-574,963	503,028	0,028	-0,048
-573,948	376,952	-0,023	0,034
-572,934	-144,196	0,119	-0,008
-571,919	31,896	0,023	-0,015
-570,904	-200,000	-0,001	-0,064
-569,890	-200,000	-0,001	0,059
-568,875	800,000	-0,018	0,051
-567,861	362,615	-0,039	-0,058
-566,846	-62,300	-0,091	0,028
-565,831	467,751	-0,040	0,066
-564,817	-200,000	-0,005	-0,046
-563,802	800,000	0,030	0,073
-562,788	-123,121	0,072	-0,008
-561,773	22,741	-0,076	0,046
-560,758	-200,000	0,123	-0,000
-559,744	-200,000	0,002	0,135
-558,729	746,665	0,024	-0,048
-557,715	-196,221	-0,102	0,001
-556,700	-26,381	-0,157	-0,068
-555,685	538,235	-0,031	0,054
-554,671	-200,000	-0,009	-0,079
-553,656	-105,232	0,041	0,007
-552,642	38,359	0,057	0,038
-551,627	800,000	0,026	-0,054
-550,612	78,435	0,058	0,046
-549,598	193,131	-0,032	-0,036
-548,583	-193,644	-0,188	0,001
-547,569	103,854	-0,059	-0,051
-546,554	113,613	0,101	0,091
-545,539	-183,287	0,151	0,002
-544,525	71,239	0,085	0,065
-543,510	-148,811	-0,186	0,011
-542,496	-200,000	0,010	-0,129
-541,481	-200,000	0,004	-0,045
-540,466	557,828	-0,033	0,059
-539,452	145,505	-0,046	-0,045
-538,437	96,835	0,129	0,109
-537,423	-65,698	0,110	0,032
-536,408	6,249	0,027	0,015
-535,393	-200,000	-0,008	-0,131
-534,379	82,922	-0,112	-0,090
-533,364	3,037	-0,019	0,010
-532,350	3,374	0,048	-0,026
-531,335	-102,274	0,170	-0,030
-530,321	150,329	0,045	0,045
-529,306	800,000	-0,026	-0,063
-528,291	-175,984	-0,077	0,001
-527,277	-118,696	-0,099	-0,013
-526,262	-94,469	-0,123	-0,025
-525,248	537,551	0,083	-0,147
-524,233	-200,000	0,023	0,166
-523,218	245,731	0,044	-0,055
-522,204	762,170	0,007	0,015
-521,189	-200,000	0,026	-0,085
-520,175	-200,000	-0,006	-0,055
-519,160	15,339	-0,037	0,022
-518,145	-115,487	-0,084	-0,012
-517,131	9,392	-0,121	-0,068
-516,116	-5,047	-0,055	0,028
-515,102	800,000	-0,026	0,057
-514,087	-152,023	-0,116	0,006
-513,072	-51,820	-0,096	0,033
-512,058	15,838	-0,050	-0,029
-511,043	-8,913	-0,139	-0,069
-510,029	191,724	0,050	0,055
-509,014	-200,000	0,001	0,026
-507,999	471,404	-0,043	-0,072
-506,985	10,127	-0,071	0,040
-505,970	-60,798	0,022	-0,007
-504,956	135,610	-0,012	0,012
-503,941	800,000	0,058	0,126
-502,926	-24,084	-0,115	-0,050
-501,912	43,295	0,109	-0,074
-500,897	-111,834	0,061	-0,009
-499,883	-200,000	-0,005	0,142
-498,868	418,357	0,048	0,077
-497,853	109,244	-0,162	-0,143
-496,839	800,000	0,040	-0,120
-495,824	-147,266	-0,047	0,003
-494,810	-200,000	-0,001	0,045
-493,795	-200,000	0,003	-0,088
-492,781	137,025	-0,027	-0,026
-491,766	-200,000	0,032	-0,186
-490,751	92,121	0,122	-0,101
-489,737	67,428	0,073	0,055
-488,722	81,878	0,069	0,055
-487,708	116,818	0,037	-0,034
-486,693	123,726	-0,033	-0,031
-485,678	-91,742	-0,072	-0,015
-484,664	-200,000	0,005	-0,096
-483,649	235,601	-0,096	-0,117
-482,635	-200,000	-0,036	0,120
-481,620	226,767	0,062	0,075
-480,605	178,243	0,063	0,068
-479,591	94,846	-0,037	0,031
-478,576	152,479	-0,047	0,048
-477,562	98,552	0,109	-0,092
-476,547	302,631	-0,069	-0,095
-475,532	453,023	-0,064	-0,106
-474,518	-200,000	-0,008	0,067
-473,503	-33,272	0,108	0,044
-472,489	261,506	0,121	-0,154
-471,474	-200,000	-0,019	-0,088
-470,459	216,100	0,055	-0,065
-469,445	800,000	0,034	0,091
-468,430	205,799	0,087	-0,100
-467,416	-200,000	0,017	0,074
-466,401	-119,469	0,086	-0,011
-465,386	377,113	-0,075	0,113
-464,372	36,899	-0,037	-0,024
-463,357	235,088	-0,094	-0,115
-462,343	-200,000	-0,017	-0,097
-461,328	-9,836	0,106	0,052
-460,313	-73,459	0,140	0,037
-459,299	-118,426	-0,206	0,027
-458,284	14,222	0,105	-0,060
-457,270	140,031	-0,034	0,033
-456,255	89,933	0,019	0,016
-455,241	-22,615	-0,096	-0,042
-454,226	400,303	0,026	0,040
-453,211	-137,293	0,139	0,012
-452,197	-200,000	-0,020	0,279
-451,182	68,220	0,059	-0,045
-450,168	-75,940	-0,078	0,020
-449,153	-99,331	0,105	-0,019
-448,138	261,482	-0,041	0,053
-447,124	680,674	0,036	-0,070
-446,109	-25,334	0,026	-0,011
-445,095	-200,000	0,005	-0,059
-444,080	800,000	0,058	0,159
-443,065	9,755	0,049	0,027
-442,051	-33,772	0,058	0,023
-441,036	-100,001	-0,129	-0,024
-440,022	-99,058	0,137	-0,025
-439,007	306,601	0,032	0,043
-437,992	-90,747	0,110	-0,023
-436,978	800,000	-0,045	0,139
-435,963	-10,280	0,068	-0,033
-434,949	125,781	0,047	0,044
-433,934	276,845	-0,046	0,061
-432,919	800,000	-0,054	0,120
-431,905	-55,372	0,039	-0,013
-430,890	175,755	-0,100	0,107
-429,876	800,000	0,049	-0,136
-428,861	-200,000	-0,001	0,039
-427,846	-200,000	-0,001	0,088
-426,832	486,602	0,011	0,019
-425,817	443,448	0,083	-0,135
-424,803	800,000	-0,046	-0,144
-423,788	-200,000	0,017	0,073
-422,773	28,500	0,176	0,109
-421,759	-200,000	0,017	0,054
-420,744	-200,000	-0,019	0,075
-419,730	-126,920	-0,094	-0,010
-418,715	-200,000	-0,047	0,156
-417,701	394,716	0,032	-0,050
-416,686	-128,679	-0,144	-0,015
-415,671	-7,925	-0,070	0,035
-414,657	204,124	0,100	0,115
-413,642	-200,000	0,003	-0,068
-412,628	309,690	0,067	-0,092
-411,613	800,000	0,028	-0,071
-410,598	-126,931	-0,150	-0,016
-409,584	632,790	-0,029	-0,055
-408,569	-12,626	0,109	-0,052
-407,555	188,878	0,086	0,095
-406,540	273,471	-0,066	0,086
-405,525	-200,000	0,009	0,105
-404,511	116,942	0,013	-0,012
-403,496	800,000	-0,026	0,067
-402,482	27,447	0,129	-0,080
-401,467	1,174	0,160	0,084
-400,452	495,816	0,053	0,090
-399,438	-200,000	0,005	-0,092
-398,423	91,653	-0,084	0,069
-397,409	-200,000	-0,013	0,061
-396,394	-200,000	0,007	0,097
-395,379	800,000	-0,026	0,069
-394,365	800,000	-0,016	-0,039
-393,350	660,545	-0,012	-0,023
-392,336	800,000	0,010	0,031
-391,321	800,000	-0,057	0,133
-390,306	-200,000	0,023	0,144
-389,292	171,726	-0,072	-0,076
-388,277	235,351	-0,013	-0,015
-387,263	129,448	-0,051	-0,048
-386,248	-200,000	0,014	0,115
-385,233	16,091	0,107	0,062
-384,219	35,766	-0,029	-0,019
-383,204	-27,101	-0,143	0,061
-382,190	-87,169	-0,006	-0,001
-381,175	-165,712	-0,065	0,002
-380,160	23,210	0,119	-0,072
-379,146	166,748	0,028	-0,029
-378,131	-150,326	-0,083	0,005
-377,117	101,413	0,009	-0,008
-376,102	74,318	0,047	0,036
-375,088	-191,171	-0,034	-0,000
-374,073	-200,000	-0,005	-0,081
-373,058	-200,000	-0,003	-0,032
-372,044	800,000	-0,060	0,146
-371,029	-188,840	0,190	-0,002
-370,015	-200,000	-0,019	0,102
-369,000	800,000	0,089	-0,191
-367,985	18,114	-0,130	0,076
-366,971	-101,906	-0,017	-0,003
-365,956	275,668	0,036	-0,047
-364,942	-200,000	0,022	0,203
-363,927	-200,000	0,032	0,194
-362,912	-200,000	-0,017	0,212
-361,898	-200,000	-0,022	-0,076
-360,883	-200,000	0,015	0,069
-359,869	-130,815	-0,096	0,009
-358,854	14,662	-0,029	0,016
-357,839	44,741	-0,040	-0,027
-356,825	-45,459	0,039	0,014
-355,810	49,715	0,057	-0,039
-354,796	-8,965	-0,096	0,047
-353,781	800,000	0,035	0,109
-352,766	-22,592	-0,075	-0,033
-351,752	235,818	0,129	0,157
-350,737	404,337	-0,054	-0,084
-349,723	-55,199	0,123	-0,041
-348,708	77,692	-0,112	0,087
-347,693	488,726	-0,041	-0,069
-346,679	54,258	0,075	0,053
-345,664	800,000	0,034	-0,074
-344,650	-78,534	-0,030	-0,007
-343,635	484,840	0,016	0,027
-342,620	117,435	-0,061	-0,055
-341,606	800,000	-0,009	0,026
-340,591	800,000	0,021	0,066
-339,577	-200,000	-0,019	-0,086
-338,562	800,000	-0,048	-0,120
-337,548	-21,415	-0,101	-0,045
-336,533	207,084	-0,016	-0,018
-335,518	4,492	0,042	0,023
-334,504	-200,000	0,023	0,115
-333,489	5,518	-0,136	-0,074
-332,475	-200,000	0,007	-0,144
-331,460	-200,000	-0,052	-0,192
-330,445	30,582	0,053	-0,033
-329,431	51,530	-0,017	-0,012
-328,416	-200,000	0,008	0,070
-327,402	-152,682	0,111	0,006
-326,387	-47,679	0,093	0,033
-325,372	-111,102	-0,042	-0,006
-324,358	101,351	-0,024	-0,021
-323,343	-200,000	0,001	0,028
-322,329	-81,572	0,124	-0,030
-321,314	-167,498	-0,058	-0,002
-320,299	24,315	0,105	0,064
-319,285	-138,837	-0,098	-0,008
-318,270	301,834	-0,087	0,118
-317,256	-200,000	0,008	0,075
-316,241	-61,219	-0,110	-0,034
-315,226	164,835	-0,023	0,023
-314,212	233,995	0,035	-0,042
-313,197	-105,548	0,088	-0,015
-312,183	-200,000	-0,007	0,034
-311,168	800,000	0,019	-0,044
-310,153	-200,000	-0,026	-0,136
-309,139	-115,340	0,135	0,018
-308,124	-200,000	-0,002	0,035
-307,110	-161,103	0,105	0,004
-306,095	-109,922	0,135	-0,021
-305,080	37,539	0,034	0,022
-304,066	-200,000	-0,014	0,131
-303,051	-200,000	0,013	-0,153
-302,037	-88,967	-0,076	-0,016
-301,022	-200,000	0,022	-0,090
-300,008	629,428	-0,044	-0,082
-298,993	15,393	0,016	-0,009
-297,978	-114,799	0,092	0,013
-296,964	-38,335	-0,156	-0,060
-295,949	-200,000	-0,004	0,143
-294,935	100,918	0,023	0,020
-293,920	800,000	0,008	0,020
-292,905	-200,000	-0,009	0,154
-291,891	-200,000	0,018	0,142
-290,876	-51,126	0,116	0,040
-289,862	102,882	0,041	0,035
-288,847	-200,000	0,046	-0,255
-287,832	-96,246	0,081	0,016
-286,818	-13,740	-0,154	-0,072
-285,803	-100,998	0,050	0,009
-284,789	-33,970	-0,084	-0,034
-283,774	125,683	-0,091	0,084
-282,759	-200,000	-0,001	-0,022
-281,745	-154,296	-0,051	0,002
-280,730	-200,000	-0,034	-0,142
-279,716	800,000	0,049	-0,103
-278,701	68,545	0,074	0,055
-277,686	800,000	0,029	-0,065
-276,672	37,381	-0,084	0,055
-275,657	800,000	0,036	-0,076
-274,643	229,767	0,027	0,032
-273,628	-200,000	-0,021	-0,103
-272,613	-200,000	-0,015	0,053
-271,599	-200,000	0,022	0,079
-270,584	57,273	0,095	-0,068
-269,570	-56,424	-0,066	-0,021
-268,555	800,000	-0,054	-0,120
-267,540	-125,531	-0,097	-0,011
-266,526	129,018	-0,044	-0,041
-265,511	-200,000	0,011	0,046
-264,497	75,126	0,109	0,084
-263,482	126,901	0,053	0,049
-262,467	758,335	0,016	-0,031
-261,453	-196,783	-0,076	-0,000
-260,438	251,882	-0,043	-0,054
-259,424	133,436	0,095	0,090
-258,409	351,370	-0,048	-0,069
-257,395	-200,000	0,008	0,089
-256,380	-30,198	0,186	-0,077
-255,365	129,585	-0,069	0,064
-254,351	-92,149	0,141	0,029
-253,336	495,420	0,114	-0,193
-252,322	-137,381	-0,184	-0,015
-251,307	145,929	0,085	-0,083
-250,292	800,000	-0,072	0,168
-249,278	-200,000	-0,015	0,063
-248,263	-91,069	0,062	0,013
-247,249	-85,579	0,073	0,016
-246,234	70,307	-0,097	0,073
-245,219	-7,263	-0,065	-0,032
-244,205	800,000	-0,012	-0,030
-243,190	-81,715	0,087	-0,021
-242,176	-200,000	-0,023	-0,089
-241,161	-200,000	0,017	-0,069
-240,146	-48,479	0,116	-0,040
-239,132	800,000	-0,069	-0,171
-238,117	208,780	0,029	0,033
-237,103	386,887	-0,031	-0,047
-236,088	257,082	-0,096	-0,120
-235,073	-87,576	-0,009	-0,002
-234,059	-170,785	0,113	0,003
-233,044	384,930	-0,103	-0,155
-232,030	-200,000	-0,032	-0,138
-231,015	8,291	0,057	-0,031
-230,000	-200,000	0,006	-0,143
-228,986	-143,683	0,218	0,015
-227,971	-200,000	-0,011	0,079
-226,957	-40,509	0,138	0,052
-225,942	-200,000	0,010	0,111
-224,927	10,310	0,082	0,045
-223,913	196,884	0,036	0,041
-222,898	800,000	0,022	0,069
-221,884	260,505	0,037	0,047
-220,869	800,000	0,005	-0,012
-219,855	76,368	-0,070	0,054
-218,840	282,224	-0,084	0,110
-217,825	-200,000	-0,007	-0,070
-216,811	173,242	-0,055	0,058
-215,796	800,000	-0,019	0,052
-214,782	-132,025	-0,092	-0,009
-213,767	800,000	0,032	0,068
-212,752	344,707	0,088	0,126
-211,738	647,394	-0,074	0,138
-210,723	7,483	0,184	0,100
-209,709	96,926	0,090	-0,076
-208,694	-103,526	-0,056	0,009
-207,679	-200,000	0,002	-0,092
-206,665	-200,000	-0,001	-0,064
-205,650	128,112	0,037	-0,035
-204,636	119,608	0,100	-0,091
-203,621	-200,000	0,007	-0,114
-202,606	249,603	-0,040	0,050
-201,592	614,015	-0,013	-0,023
-200,577	-200,000	-0,011	-0,139
-199,563	800,000	-0,034	0,070
-198,548	-44,366	0,071	0,026
-197,533	-200,000	-0,019	0,127
-196,519	-200,000	0,000	0,075
-195,504	124,327	-0,112	0,103
-194,490	203,644	0,067	-0,076
-193,475	-76,679	-0,058	0,015
-192,460	-200,000	-0,020	-0,106
-191,446	-200,000	0,028	-0,093
-190,431	800,000	-0,020	0,041
-189,417	800,000	-0,018	-0,042
-188,402	-20,465	-0,123	-0,055
-187,387	66,089	0,062	-0,046
-186,373	-200,000	0,000	0,048
-185,358	321,851	-0,077	-0,107
-184,344	800,000	0,047	-0,097
-183,329	-12,079	-0,123	0,059
-182,315	528,575	0,074	0,127
-181,300	-54,749	0,061	0,020
-180,285	-200,000	-0,012	-0,062
-179,271	225,715	-0,039	-0,047
-178,256	800,000	-0,039	-0,102
-177,242	330,106	0,086	-0,121
-176,227	41,724	0,056	0,037
-175,212	372,030	-0,051	-0,075
-174,198	-200,000	0,023	0,087
-173,183	-200,000	-0,002	0,074
-172,169	800,000	0,009	0,025
-171,154	800,000	-0,043	-0,105
-170,139	-89,428	-0,185	-0,039
-169,125	-200,000	-0,001	0,041
-168,110	82,383	0,076	-0,060
-167,096	800,000	-0,001	0,003
-166,081	-103,409	-0,134	-0,023
-165,066	800,000	0,099	-0,212
-164,052	-200,000	-0,012	-0,085
-163,037	-60,309	0,145	0,045
-162,023	-200,000	0,027	0,094
-161,008	21,563	-0,097	0,058
-159,993	333,659	-0,076	0,107
-158,979	56,861	0,065	-0,046
-157,964	800,000	-0,019	-0,056
-156,950	-38,498	0,115	-0,044
-155,935	301,528	-0,031	0,042
-154,920	66,585	-0,124	0,092
-153,906	-200,000	0,025	0,102
-152,891	-200,000	-0,023	0,177
-151,877	242,703	-0,048	0,059
-150,862	182,463	-0,154	0,165
-149,847	800,000	0,025	-0,064
-148,833	300,864	0,063	0,085
-147,818	220,708	0,080	-0,094
-146,804	785,565	0,042	-0,084
-145,789	237,974	0,079	-0,096
-144,775	239,791	0,061	-0,074
-143,760	59,640	0,100	0,072
-142,745	105,584	0,107	-0,092
-141,731	52,125	-0,150	-0,104
-140,716	-98,447	0,138	0,026
-139,702	-200,000	-0,003	0,041
-138,687	-200,000	0,015	0,207
-137,672	-130,351	-0,151	0,015
-136,658	-43,447	-0,092	-0,034
-135,643	-133,308	0,118	0,011
-134,629	-200,000	0,000	0,021
-133,614	39,007	0,046	0,030
-132,599	36,513	0,056	0,036
-131,585	480,668	-0,036	0,059
-130,570	290,818	0,063	0,083
-129,556	195,988	0,017	-0,019
-128,541	35,012	0,096	-0,061
-127,526	800,000	-0,072	0,172
-126,512	45,455	0,039	0,026
-125,497	15,709	0,040	-0,023
-124,483	132,584	-0,065	-0,061
-123,468	800,000	0,025	-0,055
-122,453	-146,075	-0,068	0,004
-121,439	-22,546	-0,063	-0,028
-120,424	369,013	0,036	-0,054
-119,410	103,309	0,097	-0,083
-118,395	197,357	0,041	0,046
-117,380	228,313	0,149	0,176
-116,366	582,194	-0,080	0,144
-115,351	-99,066	0,058	-0,011
-114,337	120,483	0,112	-0,101
-113,322	51,214	0,085	0,058
-112,307	-200,000	-0,029	0,160
-111,293	81,263	0,092	0,072
-110,278	393,225	0,035	0,053
-109,264	173,145	-0,124	0,130
-108,249	-52,922	-0,088	-0,029
-107,234	-60,409	-0,137	-0,042
-106,220	-110,457	-0,091	-0,014
-105,205	-200,000	0,019	0,133
-104,191	642,858	-0,023	0,043
-103,176	-200,000	0,033	0,143
-102,162	437,318	-0,070	-0,111
-101,147	-141,140	-0,108	-0,008
-100,132	-200,000	0,001	0,067
-99,118	-125,566	-0,172	0,019
-98,103	800,000	-0,059	-0,147
-97,089	-200,000	0,015	0,076
-96,074	-52,000	0,088	0,029
-95,059	521,127	0,025	-0,042
-94,045	-200,000	-0,008	0,123
-93,030	31,327	-0,092	0,057
-92,016	-84,688	0,051	0,012
-91,001	142,387	0,043	-0,041
-89,986	486,314	0,130	0,217
-88,972	553,907	-0,038	0,066
-87,957	24,829	0,146	0,088
-86,943	691,277	-0,068	0,130
-85,928	-92,804	0,206	-0,041
-84,913	185,037	-0,096	-0,103
-83,899	-103,039	0,183	-0,031
-82,884	118,332	0,026	-0,023
-81,870	461,090	-0,040	-0,065
-80,855	265,516	0,024	0,031
-79,840	638,422	0,007	0,012
-78,826	47,995	0,088	0,059
-77,811	-90,303	0,133	0,028
-76,797	-200,000	-0,005	0,022
-75,782	271,510	-0,066	-0,084
-74,767	-106,675	0,151	0,024
-73,753	-200,000	-0,010	-0,124
-72,738	-95,750	0,103	0,020
-71,724	-54,554	0,120	-0,039
-70,709	16,924	-0,109	0,062
-69,694	38,330	-0,086	0,056
-68,680	224,091	-0,045	-0,053
-67,665	-200,000	0,013	0,096
-66,651	-200,000	-0,009	0,071
-65,636	-200,000	0,007	0,095
-64,622	-200,000	0,010	0,072
-63,607	-200,000	-0,003	-0,082
-62,592	-188,805	-0,071	0,001
-61,578	800,000	-0,039	-0,108
-60,563	272,223	-0,009	0,011
-59,549	752,932	-0,007	-0,015
-58,534	-134,615	-1,338	-0,117
-57,519	800,000	-0,717	-1,541
-56,505	-200,000	-0,883	-4,442
-55,490	17,271	0,573	-0,329
-54,476	800,000	4,977	11,987
-53,461	-200,000	13,254	252,643
-52,446	-200,000	688,608	2267,585
-51,432	596,075	1622,597	2927,587
-50,417	120,687	1635,926	1475,661
-49,403	73,640	1289,961	979,725
-48,388	38,392	1024,833	661,352
-47,373	24,503	982,300	588,216
-46,359	23,742	972,139	579,611
-45,344	22,808	967,952	574,035
-44,330	22,705	966,342	572,722
-43,315	22,591	964,911	571,481
-42,300	22,651	963,733	570,953
-41,286	22,612	962,980	570,359
-40,271	22,560	962,051	569,619
-39,257	22,582	961,179	569,151
-38,242	22,565	960,146	568,461
-37,227	22,562	959,279	567,916
-36,213	22,543	958,375	567,295
-35,198	22,501	957,635	566,698
-34,184	22,605	956,912	566,585
-33,169	22,546	956,016	565,840
-32,154	22,584	955,295	565,516
-31,140	22,597	954,272	564,929
-30,125	22,649	953,319	564,509
-29,111	22,589	952,637	563,891
-28,096	22,601	951,910	563,476
-27,082	22,641	951,227	563,179
-26,067	22,647	950,527	562,760
-25,052	22,597	949,743	562,113
-24,038	22,628	949,158	561,845
-23,023	22,572	948,559	561,290
-22,009	22,622	947,750	560,948
-20,994	22,677	947,228	560,792
-19,979	22,679	946,485	560,335
-18,965	22,584	946,070	559,764
-17,950	22,598	945,372	559,375
-16,936	22,577	944,531	558,789
-15,921	22,521	944,047	558,300
-14,906	22,540	943,087	557,771
-13,892	22,443	942,685	557,201
-12,877	22,519	941,939	556,981
-11,863	22,453	941,333	556,391
-10,848	22,480	940,837	556,163
-9,833	22,603	940,376	556,256
-8,819	22,574	939,833	555,823
-7,804	22,479	939,173	555,107
-6,790	22,457	938,507	554,624
-5,775	22,462	938,062	554,355
-4,760	22,488	937,421	554,035
-3,746	22,485	936,626	553,536
-2,731	22,411	935,897	552,848
-1,717	22,253	935,423	552,047
-0,702	22,318	934,703	551,804
0,313	22,118	933,883	551,522
1,327	25,193	931,885	559,967
2,342	34,802	796,569	504,265
3,356	32,947	452,077	283,363
4,371	2,051	293,815	153,338
5,386	-2,498	274,746	139,069
6,400	-3,874	268,950	134,845
7,415	-4,483	266,507	133,049
8,429	-4,117	265,408	132,823
9,444	-4,124	264,485	132,344
10,459	-4,093	263,694	131,964
11,473	-4,295	263,138	131,490
12,488	-4,192	262,636	131,321
13,502	-4,589	262,115	130,690
14,517	-4,475	261,596	130,523
15,531	-4,489	261,461	130,431
16,546	-4,288	260,810	130,276
17,561	-4,326	260,595	130,122
18,575	-4,303	260,383	130,026
19,590	-4,329	259,821	129,710
20,604	-4,439	259,801	129,590
21,619	-4,421	259,377	129,383
22,634	-4,397	258,943	129,176
23,648	-4,633	258,798	128,882
24,663	-4,500	258,441	128,811
25,677	-4,267	258,146	128,860
26,692	-4,315	257,867	128,667
27,707	-4,411	257,807	128,540
28,721	-4,332	257,339	128,365
29,736	-4,404	257,186	128,213
30,750	-4,598	256,987	127,931
31,765	-4,498	256,755	127,893
32,780	-4,567	256,512	127,700
33,794	-4,578	256,351	127,598
34,809	-4,424	255,992	127,543
35,823	-4,513	255,657	127,287
36,838	-4,479	255,587	127,271
37,853	-4,401	255,340	127,205
38,867	-4,325	255,012	127,097
39,882	-4,406	254,817	126,917
40,896	-4,514	254,698	126,753
41,911	-4,420	254,438	126,694
42,926	-4,665	254,232	126,366
43,940	-4,692	253,998	126,214
44,955	-4,623	253,630	126,081
45,969	-4,686	253,570	125,985
46,984	-4,803	253,277	125,726
47,999	-4,987	252,934	125,384
49,013	-5,220	252,737	125,073
50,028	-5,290	252,519	124,893
51,042	-5,177	252,223	124,834
52,057	-5,244	251,960	124,634
53,071	-5,278	251,952	124,590
54,086	-5,246	251,791	124,527
55,101	-5,224	251,637	124,459
56,115	-4,797	251,418	124,708
57,130	-4,522	251,345	124,898
58,144	-4,392	251,222	124,938
59,159	-4,490	251,007	124,736
60,174	-4,199	250,752	124,849
61,188	-4,214	250,475	124,687
62,203	-4,455	250,304	124,383
63,217	-4,294	250,174	124,446
64,232	-4,320	249,872	124,262
65,247	-4,385	249,762	124,140
66,261	-4,454	249,439	123,910
67,276	-4,719	249,267	123,586
68,290	-4,729	248,920	123,395
69,305	-4,906	248,785	123,166
70,320	-4,903	248,528	123,030
71,334	-4,666	248,439	123,178
72,349	-4,230	248,333	123,485
73,363	-4,129	248,052	123,421
74,378	-4,297	247,919	123,201
75,393	-4,418	247,693	122,974
76,407	-4,320	247,400	122,901
77,422	-4,550	247,449	122,719
78,436	-4,493	247,252	122,659
79,451	-4,207	246,813	122,672
80,466	-4,452	246,590	122,343
81,480	-4,613	246,282	122,043
82,495	-4,649	246,252	121,987
83,509	-4,590	246,001	121,902
84,524	-4,605	245,856	121,807
85,539	-4,813	245,621	121,504
86,553	-4,893	245,538	121,385
87,568	-4,764	245,271	121,350
88,582	-4,617	245,113	121,385
89,597	-4,727	244,884	121,169
90,611	-4,606	244,876	121,256
91,626	-4,438	244,628	121,263
92,641	-4,403	244,451	121,193
93,655	-4,577	244,330	120,977
94,670	-4,669	244,079	120,765
95,684	-4,590	243,862	120,713
96,699	-4,530	243,663	120,654
97,714	-4,491	243,347	120,519
98,728	-4,669	243,348	120,360
99,743	-4,698	243,061	120,183
100,757	-4,940	242,818	119,851
101,772	-4,513	242,610	120,093
102,787	-4,751	242,508	119,834
103,801	-4,782	242,414	119,751
104,816	-4,588	242,276	119,833
105,830	-4,398	242,050	119,868
106,845	-4,356	241,902	119,819
107,860	-4,630	241,715	119,488
108,874	-4,618	241,555	119,409
109,889	-4,490	241,198	119,328
110,903	-4,592	241,150	119,209
111,918	-4,660	240,955	119,046
112,933	-4,572	240,777	119,019
113,947	-4,382	240,488	119,022
114,962	-4,442	240,481	118,959
115,976	-4,380	240,251	118,886
116,991	-4,348	240,085	118,820
118,006	-4,401	239,969	118,707
119,020	-4,470	239,902	118,607
120,035	-4,363	239,595	118,533
121,049	-4,341	239,482	118,484
122,064	-4,276	239,355	118,464
123,079	-4,493	239,210	118,205
124,093	-4,631	238,933	117,945
125,108	-4,703	238,731	117,775
126,122	-4,977	238,489	117,422
127,137	-5,050	238,397	117,307
128,151	-4,749	238,135	117,412
129,166	-4,671	237,909	117,354
130,181	-4,909	237,883	117,137
131,195	-5,042	237,542	116,850
132,210	-4,775	237,418	116,996
133,224	-4,531	237,465	117,206
134,239	-4,538	237,227	117,073
135,254	-4,483	237,099	117,043
136,268	-4,601	236,870	116,825
137,283	-4,962	236,524	116,352
138,297	-4,862	236,249	116,288
139,312	-5,024	235,978	116,013
140,327	-4,762	236,241	116,344
141,341	-4,146	236,153	116,786
142,356	-4,111	235,977	116,717
143,370	-4,039	235,786	116,670
144,385	-4,060	235,700	116,600
145,400	-4,191	235,600	116,435
146,414	-4,183	235,175	116,221
147,429	-4,189	234,970	116,104
148,443	-4,290	234,963	116,010
149,458	-4,176	234,819	116,019
150,473	-4,231	234,621	115,867
151,487	-4,409	234,426	115,618
152,502	-4,365	234,370	115,616
153,516	-4,176	234,115	115,630
154,531	-4,202	233,825	115,456
155,546	-4,367	233,758	115,282
156,560	-4,339	233,559	115,195
157,575	-4,370	233,353	115,058
158,589	-4,461	233,309	114,954
159,604	-4,199	233,066	115,033
160,619	-4,198	233,022	115,001
161,633	-4,107	232,917	115,011
162,648	-4,289	232,597	114,699
163,662	-4,041	232,391	114,783
164,677	-4,158	232,271	114,621
165,692	-4,202	232,220	114,551
166,706	-4,119	232,023	114,509
167,721	-4,165	231,881	114,392
168,735	-3,970	231,753	114,472
169,750	-3,980	231,581	114,370
170,764	-4,226	231,382	114,068
171,779	-3,937	231,257	114,223
172,794	-3,995	231,232	114,155
173,808	-4,118	230,921	113,895
174,823	-4,676	230,552	113,266
175,837	-4,755	230,337	113,087
176,852	-4,264	230,339	113,463
177,867	-4,192	230,397	113,538
178,881	-3,903	230,101	113,608
179,896	-3,996	230,057	113,503
180,910	-3,941	229,934	113,476
181,925	-4,166	229,736	113,192
182,940	-4,067	229,550	113,167
183,954	-4,192	229,459	113,015
184,969	-4,049	229,222	113,000
185,983	-4,053	229,248	112,999
186,998	-3,976	228,912	112,884
188,013	-4,016	228,850	112,812
189,027	-3,979	228,693	112,753
190,042	-4,030	228,527	112,622
191,056	-4,078	228,376	112,499
192,071	-3,873	228,126	112,525
193,086	-3,927	227,998	112,411
194,100	-3,876	227,842	112,363
195,115	-4,407	227,680	111,862
196,129	-4,875	227,477	111,392
197,144	-1,086	228,552	114,845
198,159	2,646	229,589	118,257
199,173	4,147	229,731	119,484
200,188	4,278	229,587	119,501
201,202	3,989	229,493	119,216
202,217	4,467	229,334	119,493
203,232	4,561	229,373	119,576
204,246	4,650	229,354	119,624
205,261	4,818	229,015	119,567
206,275	5,021	228,837	119,619
207,290	4,903	228,803	119,500
208,304	4,656	228,746	119,269
209,319	4,856	228,436	119,251
210,334	4,640	228,327	119,017
211,348	4,607	228,038	118,831
212,363	4,150	227,810	118,350
213,377	4,002	227,636	118,136
214,392	3,892	227,455	117,946
215,407	4,071	227,345	118,016
216,421	4,264	227,216	118,087
217,436	4,053	227,109	117,859
218,450	3,588	226,745	117,304
219,465	3,759	226,642	117,371
220,480	3,742	226,474	117,261
221,494	3,593	226,337	117,065
222,509	4,001	226,232	117,312
223,523	3,725	226,049	116,996
224,538	3,661	226,037	116,930
225,553	3,894	225,706	116,926
226,567	3,971	225,783	117,014
227,582	4,473	225,507	117,242
228,596	4,322	225,438	117,081
229,611	4,119	225,185	116,785
230,626	4,012	224,892	116,542
231,640	3,844	224,911	116,414
232,655	4,025	224,907	116,539
233,669	4,679	224,778	116,956
234,684	4,391	224,808	116,743
235,699	4,516	224,501	116,668
236,713	3,968	224,351	116,166
237,728	4,178	224,086	116,176
238,742	3,866	223,853	115,811
239,757	3,942	223,715	115,786
240,772	3,945	223,572	115,704
241,786	3,999	223,529	115,712
242,801	3,906	223,473	115,603
243,815	4,135	223,366	115,709
244,830	4,266	223,231	115,728
245,844	4,122	222,941	115,459
246,859	4,330	222,622	115,439
247,874	4,202	222,653	115,349
248,888	4,166	222,552	115,259
249,903	4,234	222,199	115,117
250,917	4,069	222,066	114,915
251,932	4,132	222,006	114,920
252,947	3,784	221,748	114,517
253,961	3,844	221,687	114,520
254,976	3,874	221,550	114,461
255,990	4,305	221,449	114,720
257,005	4,383	221,310	114,695
258,020	4,167	221,228	114,482
259,034	4,387	221,215	114,629
260,049	4,108	220,909	114,253
261,063	3,856	220,873	114,038
262,078	4,126	220,748	114,162
263,093	4,395	220,660	114,306
264,107	4,343	220,485	114,167
265,122	4,171	220,300	113,935
266,136	4,555	220,219	114,166
267,151	4,339	220,043	113,905
268,166	3,992	219,877	113,553
269,180	3,647	219,560	113,124
270,195	4,106	219,244	113,290
271,209	3,873	219,448	113,214
272,224	3,723	219,229	112,980
273,239	3,898	219,076	113,020
274,253	4,033	218,717	112,924
275,268	3,840	218,680	112,753
276,282	3,771	218,498	112,598
277,297	3,664	218,386	112,452
278,312	3,784	218,129	112,397
279,326	3,841	218,032	112,379
280,341	3,894	217,993	112,387
281,355	3,952	217,938	112,392
282,370	3,897	217,680	112,209
283,384	3,629	217,599	111,961
284,399	3,589	217,315	111,776
285,414	3,573	217,230	111,711
286,428	3,861	217,209	111,900
287,443	4,076	217,163	112,022
288,457	4,098	216,970	111,928
289,472	4,031	216,795	111,780
290,487	3,543	216,503	111,265
291,501	3,394	216,500	111,146
292,516	3,706	216,230	111,224
293,530	3,775	216,164	111,229
294,545	3,798	215,908	111,104
295,560	3,622	216,076	111,053
296,574	4,032	215,756	111,175
297,589	4,064	215,719	111,170
298,603	4,069	215,608	111,106
299,618	3,877	215,533	110,919
300,633	3,898	215,379	110,845
301,647	4,038	215,318	110,904
302,662	4,290	214,994	110,909
303,676	3,978	215,036	110,696
304,691	4,101	214,764	110,635
305,706	4,111	214,746	110,623
306,720	4,237	214,450	110,551
307,735	3,994	214,406	110,344
308,749	3,933	214,214	110,192
309,764	3,955	214,163	110,171
310,779	4,421	213,837	110,327
311,793	4,061	213,730	110,004
312,808	4,079	213,627	109,955
313,822	4,013	213,584	109,875
314,837	3,816	213,388	109,624
315,852	3,960	213,143	109,592
316,866	3,930	213,077	109,526
317,881	4,044	212,963	109,539
318,895	4,180	212,865	109,576
319,910	4,001	212,568	109,286
320,925	3,732	212,461	109,030
321,939	3,653	212,306	108,885
322,954	3,468	212,269	108,725
323,968	3,954	212,085	108,965
324,983	4,036	212,024	108,982
325,997	4,254	211,981	109,105
327,012	4,161	211,685	108,877
328,027	4,153	211,632	108,834
329,041	4,122	211,620	108,796
330,056	4,469	211,513	108,977
331,070	4,072	211,131	108,491
332,085	3,685	211,027	108,155
333,100	3,998	210,740	108,218
334,114	4,071	210,761	108,271
335,129	3,914	210,596	108,066
336,143	3,793	210,385	107,863
337,158	3,807	210,395	107,868
338,173	4,129	210,079	107,922
339,187	3,784	209,963	107,611
340,202	3,583	209,897	107,428
341,216	3,585	209,632	107,284
342,231	3,884	209,677	107,506
343,246	3,864	209,483	107,383
344,260	3,793	209,472	107,319
345,275	3,763	209,329	107,215
346,289	3,917	209,184	107,238
347,304	3,932	209,090	107,191
348,319	3,886	208,907	107,055
349,333	3,992	208,850	107,091
350,348	4,034	208,639	107,002
351,362	4,306	208,526	107,124
352,377	3,813	208,575	106,797
353,392	3,956	208,196	106,693
354,406	4,073	208,138	106,734
355,421	194,322	1345,653	1435,857
356,435	155,052	1484,356	1435,974
