DTS Sentinel unit serial number:	SN410029Multiplexer serial number:	ORYXHardware model number:	OX2-SRSoftware version number:	ORYX F/W v4,00 Oryx Data Collector v3.7.2.0data status	okinstallation	B6 Nyhavnadifferential loss correction	single-endedforward channel	channel 2reverse channel	N/Adate	2023/12/10time	01:15:08forward acquisition time	300,00reverse acquisition time	0,00gamma	499,1914k internal	0,3125k external	0,3125temperature offset calibration	1,0000default loss term (dB/km)	0,3820temperature slope calibration	1,0000multiplexer offset coefficient	1,0000multiplexer slope coefficient	1,0000fibre end	0,00T internal ref (°C)	21,89T ext. ref 1 (°C)	5,70T ext. ref 2 (°C)	5,70length (m)	temperature (°C)	Stokes	anti-Stokes-744,400	159,605	0,119	-0,123
-743,385	11,248	-0,261	0,149
-742,371	-27,233	0,204	-0,088
-741,356	-147,968	-0,144	0,009
-740,342	-200,000	-0,008	-0,058
-739,327	-144,205	-0,327	0,022
-738,312	76,499	0,034	-0,027
-737,298	-141,626	-0,328	0,024
-736,283	-125,275	0,107	-0,012
-735,269	800,000	-0,040	0,130
-734,254	-200,000	0,004	-0,015
-733,239	-131,991	-0,401	-0,038
-732,225	-81,052	0,048	-0,012
-731,210	-57,468	-0,153	-0,050
-730,196	294,765	0,027	-0,037
-729,181	211,830	0,065	0,077
-728,167	200,957	-0,048	-0,055
-727,152	472,254	-0,083	-0,140
-726,137	-78,507	-0,092	0,023
-725,123	-128,002	-0,086	-0,009
-724,108	405,669	0,080	-0,126
-723,094	235,079	-0,099	-0,122
-722,079	-200,000	0,003	0,027
-721,064	120,019	-0,020	-0,019
-720,050	-94,920	-0,042	0,008
-719,035	281,860	-0,006	-0,008
-718,021	800,000	-0,028	-0,082
-717,006	274,034	-0,095	-0,125
-715,991	-200,000	-0,011	-0,038
-714,977	414,931	-0,078	-0,123
-713,962	-102,109	-0,098	0,017
-712,948	59,410	0,046	-0,033
-711,933	-76,132	-0,121	0,031
-710,918	-82,739	0,047	0,011
-709,904	192,084	0,062	-0,069
-708,889	64,494	0,071	-0,054
-707,875	-200,000	0,001	0,041
-706,860	71,447	0,092	-0,071
-705,845	129,360	0,074	-0,071
-704,831	-200,000	-0,006	-0,042
-703,816	22,273	0,035	-0,021
-702,802	40,245	0,077	0,051
-701,787	800,000	-0,035	-0,072
-700,772	-99,140	-0,227	-0,042
-699,758	-200,000	-0,029	0,117
-698,743	-200,000	0,013	0,085
-697,729	23,811	0,199	0,122
-696,714	-200,000	-0,006	0,085
-695,699	-154,630	-0,141	0,007
-694,685	800,000	0,030	-0,066
-693,670	-142,644	-0,112	0,008
-692,656	115,047	-0,028	0,025
-691,641	141,918	-0,020	-0,020
-690,627	-99,279	0,107	-0,020
-689,612	-200,000	-0,020	-0,093
-688,597	800,000	-0,028	-0,080
-687,583	175,695	-0,065	0,070
-686,568	321,801	-0,096	-0,136
-685,554	-200,000	-0,040	-0,143
-684,539	800,000	-0,027	0,068
-683,524	800,000	-0,025	-0,057
-682,510	800,000	0,036	-0,101
-681,495	27,799	0,049	-0,031
-680,481	207,313	-0,064	-0,074
-679,466	800,000	-0,057	-0,152
-678,451	-40,758	-0,149	-0,057
-677,437	-200,000	0,009	-0,059
-676,422	-200,000	-0,008	0,111
-675,408	-101,562	-0,062	0,011
-674,393	-14,109	-0,105	-0,050
-673,378	-34,814	0,093	0,038
-672,364	-56,083	-0,083	-0,027
-671,349	617,048	-0,070	-0,131
-670,335	293,848	-0,057	-0,077
-669,320	-130,823	0,076	0,008
-668,305	-132,740	-0,154	0,014
-667,291	279,347	-0,022	-0,029
-666,276	-200,000	-0,001	-0,042
-665,262	83,981	-0,090	-0,073
-664,247	638,446	0,062	-0,117
-663,232	138,816	0,033	-0,032
-662,218	60,464	0,079	-0,058
-661,203	28,421	0,060	-0,038
-660,189	-12,621	-0,078	0,038
-659,174	379,532	0,087	-0,133
-658,159	800,000	-0,004	0,011
-657,145	-15,328	-0,171	-0,081
-656,130	-5,629	-0,076	-0,039
-655,116	-200,000	0,014	-0,145
-654,101	50,222	0,093	-0,065
-653,086	800,000	-0,061	-0,143
-652,072	-109,304	-0,156	-0,024
-651,057	-200,000	-0,043	0,167
-650,043	333,165	-0,082	-0,117
-649,028	-39,335	-0,143	-0,055
-648,014	-200,000	0,000	0,064
-646,999	-54,016	0,096	0,032
-645,984	-200,000	-0,001	-0,043
-644,970	-23,844	-0,092	-0,041
-643,955	-118,246	-0,134	-0,017
-642,941	156,539	0,050	0,051
-641,926	21,355	-0,037	0,022
-640,911	31,001	0,173	-0,110
-639,897	-200,000	-0,022	0,072
-638,882	8,074	-0,081	-0,045
-637,868	-20,186	-0,136	-0,062
-636,853	217,529	-0,161	0,191
-635,838	800,000	-0,027	0,069
-634,824	157,832	-0,032	0,033
-633,809	800,000	0,041	0,098
-632,795	-57,076	-0,076	0,025
-631,780	-200,000	-0,001	-0,097
-630,765	-129,523	0,139	0,014
-629,751	-200,000	0,002	-0,037
-628,736	287,767	-0,077	-0,103
-627,722	53,483	-0,041	-0,029
-626,707	-132,498	-0,102	0,010
-625,692	490,101	0,114	0,194
-624,678	28,108	0,045	-0,028
-623,663	800,000	-0,012	-0,028
-622,649	303,052	0,099	-0,136
-621,634	561,728	0,026	-0,047
-620,619	-38,960	-0,100	-0,039
-619,605	119,226	0,019	-0,017
-618,590	181,486	0,133	0,145
-617,576	245,523	0,047	-0,058
-616,561	13,016	-0,098	0,056
-615,546	-200,000	-0,012	0,151
-614,532	-60,221	-0,077	0,024
-613,517	-46,367	-0,096	0,035
-612,503	390,783	0,048	-0,075
-611,488	567,541	0,052	0,094
-610,474	-200,000	-0,011	0,068
-609,459	94,202	-0,151	-0,127
-608,444	800,000	-0,030	-0,066
-607,430	-200,000	0,009	-0,057
-606,415	28,922	0,078	0,049
-605,401	593,499	0,056	0,103
-604,386	18,442	0,127	-0,075
-603,371	-200,000	-0,023	-0,121
-602,357	-30,776	0,111	-0,046
-601,342	-200,000	0,004	-0,069
-600,328	53,149	-0,101	-0,071
-599,313	-200,000	0,001	-0,004
-598,298	103,250	0,095	-0,083
-597,284	738,223	-0,016	-0,032
-596,269	-15,700	-0,055	0,026
-595,255	16,175	-0,044	0,025
-594,240	-154,254	-0,144	-0,007
-593,225	800,000	-0,032	-0,090
-592,211	-106,232	-0,116	0,019
-591,196	-167,938	-0,111	0,003
-590,182	-70,635	0,151	-0,042
-589,167	54,956	-0,054	0,038
-588,152	-200,000	-0,002	0,010
-587,138	-200,000	-0,001	-0,109
-586,123	-200,000	-0,006	-0,027
-585,109	800,000	-0,005	0,011
-584,094	325,714	0,044	-0,063
-583,079	-117,892	0,063	0,008
-582,065	207,157	0,049	-0,057
-581,050	800,000	0,064	-0,138
-580,036	-119,179	-0,093	0,012
-579,021	-200,000	-0,030	-0,117
-578,006	-47,536	0,092	-0,033
-576,992	-200,000	0,018	-0,068
-575,977	140,980	-0,064	-0,063
-574,963	-66,827	0,095	-0,028
-573,948	-39,823	0,052	0,020
-572,934	-200,000	0,008	-0,038
-571,919	-97,791	-0,163	-0,031
-570,904	2,708	0,103	-0,055
-569,890	-200,000	-0,010	0,055
-568,875	31,031	-0,071	-0,045
-567,861	20,575	0,081	0,048
-566,846	-200,000	-0,043	0,174
-565,831	-70,460	-0,057	-0,016
-564,817	11,206	-0,050	-0,028
-563,802	136,551	-0,046	-0,044
-562,788	-6,763	0,016	-0,008
-561,773	800,000	0,033	0,088
-560,758	-96,511	0,055	-0,011
-559,744	800,000	0,026	0,065
-558,729	800,000	-0,057	-0,139
-557,715	800,000	-0,048	-0,110
-556,700	103,271	0,045	-0,039
-555,685	-200,000	-0,016	-0,120
-554,671	49,583	0,062	0,043
-553,656	-64,796	0,193	0,057
-552,642	212,361	0,013	-0,015
-551,627	-200,000	-0,003	-0,034
-550,612	-200,000	0,049	0,162
-549,598	-77,540	0,057	-0,014
-548,583	342,909	-0,048	-0,070
-547,569	-79,088	-0,075	0,019
-546,554	-122,707	0,093	-0,011
-545,539	-200,000	0,028	0,120
-544,525	147,681	0,071	-0,071
-543,510	262,114	-0,046	-0,059
-542,496	639,088	0,055	-0,104
-541,481	-200,000	-0,023	0,115
-540,466	-28,304	-0,036	-0,015
-539,452	19,291	-0,042	-0,025
-538,437	15,501	0,069	0,040
-537,423	-91,019	0,117	-0,025
-536,408	-22,057	-0,083	-0,037
-535,393	124,333	-0,109	-0,101
-534,379	564,958	0,027	0,049
-533,364	800,000	0,028	-0,063
-532,350	-200,000	0,010	0,184
-531,335	183,192	0,072	0,079
-530,321	800,000	-0,017	0,046
-529,306	-114,730	0,121	0,017
-528,291	127,893	-0,047	-0,044
-527,277	800,000	-0,020	-0,042
-526,262	55,306	-0,120	0,086
-525,248	-200,000	0,004	0,106
-524,233	36,937	0,129	0,084
-523,218	-42,446	-0,124	0,046
-522,204	-200,000	0,002	-0,104
-521,189	800,000	-0,022	-0,058
-520,175	-200,000	-0,016	-0,119
-519,160	16,152	-0,147	-0,085
-518,145	-200,000	0,046	-0,194
-517,131	754,127	0,036	0,071
-516,116	160,734	0,049	0,051
-515,102	24,989	-0,123	-0,075
-514,087	-200,000	0,018	-0,123
-513,072	-163,359	-0,086	-0,003
-512,058	-80,497	-0,068	-0,017
-511,043	0,430	0,085	0,044
-510,029	-78,708	-0,075	0,019
-509,014	108,909	-0,129	0,114
-507,999	-116,657	0,029	0,004
-506,985	167,061	-0,079	-0,083
-505,970	800,000	-0,036	0,081
-504,956	-69,688	-0,041	-0,012
-503,941	-200,000	0,014	0,150
-502,926	151,138	0,061	0,061
-501,912	-112,150	0,107	0,016
-500,897	10,339	-0,038	-0,021
-499,883	74,441	-0,052	-0,041
-498,868	16,239	-0,065	0,038
-497,853	-200,000	0,005	0,041
-496,839	-45,473	0,120	0,043
-495,824	-200,000	0,010	0,051
-494,810	13,213	0,087	-0,050
-493,795	800,000	0,038	0,086
-492,781	-200,000	-0,055	0,233
-491,766	-200,000	0,011	-0,115
-490,751	86,000	0,027	-0,022
-489,737	800,000	-0,009	0,021
-488,722	800,000	-0,001	-0,004
-487,708	200,721	0,031	-0,035
-486,693	-192,489	0,073	0,000
-485,678	231,159	-0,041	0,050
-484,664	-78,048	0,082	-0,021
-483,649	172,124	-0,050	-0,054
-482,635	-117,377	0,095	0,013
-481,620	-67,293	0,097	0,028
-480,605	39,215	0,028	0,018
-479,591	-200,000	-0,002	0,030
-478,576	-116,823	-0,119	0,016
-477,562	-136,124	-0,112	0,010
-476,547	-117,448	-0,098	0,013
-475,532	-131,298	-0,153	0,015
-474,518	-123,829	-0,082	-0,009
-473,503	378,783	0,069	0,105
-472,489	-65,810	-0,039	-0,011
-471,474	72,683	0,041	0,031
-470,459	-19,080	-0,133	-0,061
-469,445	-159,209	-0,049	-0,002
-468,430	-124,070	0,025	-0,003
-467,416	800,000	0,054	0,115
-466,401	-200,000	0,006	0,075
-465,386	-115,023	-0,027	0,004
-464,372	-200,000	0,005	0,120
-463,357	-129,557	-0,101	-0,010
-462,343	-200,000	0,002	-0,075
-461,328	5,586	-0,064	-0,035
-460,313	111,702	0,046	-0,041
-459,299	-200,000	-0,029	-0,102
-458,284	-151,166	0,100	-0,005
-457,270	-200,000	0,004	-0,074
-456,255	-200,000	0,012	0,045
-455,241	800,000	-0,054	-0,139
-454,226	337,945	0,047	0,067
-453,211	800,000	-0,049	0,122
-452,197	800,000	0,036	0,102
-451,182	-200,000	-0,028	-0,098
-450,168	31,387	-0,077	-0,049
-449,153	-200,000	-0,010	0,041
-448,138	800,000	-0,020	-0,051
-447,124	129,236	-0,073	-0,069
-446,109	-200,000	-0,006	-0,139
-445,095	114,410	0,046	-0,041
-444,080	104,859	0,012	0,010
-443,065	800,000	0,032	0,093
-442,051	-200,000	-0,037	0,126
-441,036	189,692	0,041	0,046
-440,022	800,000	-0,033	0,093
-439,007	-200,000	-0,007	0,037
-437,992	687,476	0,053	0,103
-436,978	14,289	0,071	-0,041
-435,963	-200,000	0,010	0,129
-434,949	-200,000	-0,029	0,117
-433,934	-200,000	-0,002	0,048
-432,919	24,998	-0,037	0,022
-431,905	-200,000	-0,010	0,043
-430,890	800,000	0,036	0,078
-429,876	90,833	0,079	0,065
-428,861	-68,068	0,039	-0,011
-427,846	599,959	0,037	0,068
-426,832	-52,697	-0,112	0,038
-425,817	-48,934	-0,078	0,027
-424,803	145,210	-0,032	-0,032
-423,788	32,694	0,062	-0,039
-422,773	8,635	0,039	0,022
-421,759	392,298	0,044	-0,067
-420,744	40,889	-0,099	-0,065
-419,730	188,690	0,076	0,084
-418,715	158,638	0,082	-0,084
-417,701	230,111	0,042	-0,050
-416,686	800,000	-0,023	-0,066
-415,671	517,744	-0,017	0,029
-414,657	221,215	0,115	0,137
-413,642	174,521	0,053	-0,056
-412,628	-163,025	-0,082	0,003
-411,613	-120,413	-0,108	0,013
-410,598	147,517	-0,009	0,009
-409,584	-41,595	0,090	0,034
-408,569	77,511	0,103	0,081
-407,555	249,732	-0,034	0,042
-406,540	-16,532	-0,003	-0,001
-405,525	-38,137	0,067	-0,026
-404,511	-158,700	-0,043	-0,002
-403,496	800,000	0,028	-0,076
-402,482	39,559	-0,105	-0,069
-401,467	63,260	0,068	-0,050
-400,452	-5,096	0,073	-0,037
-399,438	663,434	0,026	-0,050
-398,423	155,235	-0,075	0,076
-397,409	302,606	-0,069	0,095
-396,394	800,000	-0,011	-0,024
-395,379	-82,738	-0,135	-0,032
-394,365	-63,383	0,089	-0,027
-393,350	489,773	-0,020	0,034
-392,336	-200,000	0,009	0,120
-391,321	-200,000	-0,009	0,059
-390,306	409,693	-0,060	-0,094
-389,292	120,641	-0,041	-0,037
-388,277	800,000	0,014	-0,043
-387,263	-200,000	0,021	0,082
-386,248	-71,221	0,002	0,000
-385,233	-45,582	-0,120	0,043
-384,219	-42,873	-0,063	-0,023
-383,204	198,191	0,113	-0,127
-382,190	-27,143	0,054	-0,023
-381,175	557,674	-0,053	0,094
-380,160	-200,000	0,006	0,105
-379,146	367,868	-0,038	0,057
-378,131	409,521	-0,021	0,033
-377,117	215,825	-0,120	-0,140
-376,102	108,263	0,065	-0,057
-375,088	-200,000	-0,012	-0,159
-374,073	97,127	0,068	-0,057
-373,058	362,961	-0,011	-0,016
-372,044	-200,000	0,015	0,330
-371,029	37,320	0,158	0,103
-370,015	-200,000	-0,033	0,111
-369,000	55,404	-0,106	-0,075
-367,985	-200,000	0,016	-0,073
-366,971	584,734	-0,018	0,033
-365,956	380,784	-0,043	0,065
-364,942	286,408	0,040	0,054
-363,927	-70,607	-0,013	-0,004
-362,912	375,607	-0,031	-0,047
-361,898	-200,000	-0,031	0,139
-360,883	-41,740	-0,110	-0,041
-359,869	330,079	0,022	0,031
-358,854	283,867	0,032	-0,043
-357,839	766,005	-0,087	0,174
-356,825	277,941	-0,081	0,107
-355,810	715,439	0,034	-0,066
-354,796	-35,138	0,078	-0,031
-353,781	-25,752	-0,128	-0,055
-352,766	274,659	0,033	-0,044
-351,752	-200,000	-0,006	-0,168
-350,737	-61,435	0,089	0,027
-349,723	-38,438	-0,068	0,026
-348,708	-200,000	0,018	0,154
-347,693	55,185	0,177	-0,125
-346,679	0,688	-0,189	-0,099
-345,664	-91,185	-0,071	0,015
-344,650	-56,745	0,054	-0,017
-343,635	440,340	0,041	-0,066
-342,620	-91,904	0,076	0,016
-341,606	113,558	-0,033	0,030
-340,591	-200,000	-0,039	-0,157
-339,577	-111,169	-0,184	-0,027
-338,562	-200,000	-0,002	-0,060
-337,548	95,101	0,127	-0,106
-336,533	-175,392	0,140	0,003
-335,518	37,021	-0,036	-0,023
-334,504	-200,000	0,017	-0,065
-333,489	-200,000	-0,008	0,029
-332,475	274,589	-0,039	-0,051
-331,460	23,227	0,078	0,047
-330,445	105,388	0,147	-0,127
-329,431	743,090	-0,064	0,127
-328,416	271,037	0,054	0,069
-327,402	-79,215	0,124	-0,031
-326,387	-76,883	-0,031	-0,008
-325,372	531,614	-0,065	-0,114
-324,358	302,615	0,084	0,114
-323,343	204,416	-0,056	0,064
-322,329	-62,004	-0,090	-0,027
-321,314	128,710	-0,104	-0,097
-320,299	-137,085	0,066	0,005
-319,285	800,000	0,082	0,193
-318,270	304,707	-0,017	-0,023
-317,256	108,275	0,017	0,015
-316,241	-200,000	0,030	0,108
-315,226	40,482	0,144	0,095
-314,212	309,562	0,063	0,087
-313,197	1,101	-0,141	0,074
-312,183	-113,863	0,048	-0,007
-311,168	21,601	-0,079	-0,047
-310,153	-200,000	0,003	-0,085
-309,139	710,112	-0,027	-0,053
-308,124	-59,735	0,192	-0,060
-307,110	-200,000	-0,010	0,034
-306,095	359,718	0,045	-0,066
-305,080	-52,617	0,077	-0,026
-304,066	-76,804	0,063	-0,016
-303,051	-13,928	0,087	-0,041
-302,037	-200,000	-0,011	-0,070
-301,022	-77,010	0,161	-0,041
-300,008	-200,000	-0,006	-0,031
-298,993	125,709	-0,028	-0,026
-297,978	-65,334	-0,043	0,013
-296,964	-118,651	0,129	0,016
-295,949	-200,000	-0,024	-0,132
-294,935	-9,707	0,105	-0,051
-293,920	369,984	-0,043	-0,064
-292,905	22,303	-0,028	0,017
-291,891	-200,000	-0,001	0,030
-290,876	-112,602	0,064	-0,009
-289,862	1,526	-0,047	0,025
-288,847	-200,000	0,003	-0,062
-287,832	94,137	-0,062	0,051
-286,818	-124,961	0,078	-0,009
-285,803	-13,393	-0,028	-0,013
-284,789	-134,116	-0,093	-0,008
-283,774	-25,051	-0,047	-0,020
-282,759	-200,000	0,006	0,123
-281,745	-100,404	-0,077	-0,014
-280,730	401,919	-0,062	-0,095
-279,716	800,000	-0,039	-0,093
-278,701	139,343	-0,084	0,081
-277,686	-109,385	0,055	-0,008
-276,672	325,586	-0,059	0,083
-275,657	626,167	0,031	0,058
-274,643	-200,000	-0,000	-0,104
-273,628	272,571	-0,030	0,039
-272,613	-110,656	0,215	-0,032
-271,599	99,881	0,134	-0,114
-270,584	800,000	0,023	0,066
-269,570	164,960	-0,112	0,116
-268,555	604,172	0,037	0,067
-267,540	409,301	-0,074	-0,116
-266,526	-200,000	0,028	-0,128
-265,511	301,551	-0,014	-0,019
-264,497	-60,213	-0,088	0,027
-263,482	-151,721	0,152	0,008
-262,467	205,918	0,042	0,047
-261,453	628,380	0,047	0,088
-260,438	-200,000	-0,015	-0,067
-259,424	566,084	-0,036	-0,064
-258,409	-200,000	0,007	0,072
-257,395	-110,174	0,023	-0,003
-256,380	-34,174	0,101	0,040
-255,365	137,702	-0,052	0,050
-254,351	-199,771	-0,071	0,000
-253,336	-120,075	-0,085	-0,011
-252,322	-200,000	-0,016	-0,091
-251,307	800,000	0,037	-0,087
-250,292	800,000	-0,033	0,075
-249,278	-23,568	0,091	-0,040
-248,263	-80,997	0,061	0,015
-247,249	-108,251	0,105	-0,016
-246,234	-41,889	0,161	-0,060
-245,219	312,488	0,019	-0,026
-244,205	-67,177	-0,086	-0,024
-243,190	83,616	0,064	-0,051
-242,176	800,000	-0,016	0,043
-241,161	800,000	0,066	0,135
-240,146	-60,419	0,054	-0,017
-239,132	-200,000	0,019	0,141
-238,117	800,000	0,052	-0,129
-237,103	20,803	-0,048	0,028
-236,088	0,777	-0,054	-0,028
-235,073	585,796	0,053	0,095
-234,059	-64,957	0,062	0,018
-233,044	3,640	-0,137	0,073
-232,030	-154,474	-0,077	0,004
-231,015	800,000	-0,037	-0,087
-230,000	-84,505	-0,034	0,008
-228,986	107,122	0,074	-0,065
-227,971	43,455	0,111	0,074
-226,957	-51,638	0,067	-0,023
-225,942	-104,166	-0,094	0,016
-224,927	117,618	-0,126	0,113
-223,913	800,000	-0,078	0,161
-222,898	-42,906	0,063	-0,023
-221,884	-80,318	0,113	-0,027
-220,869	-30,504	0,062	-0,025
-219,855	145,987	-0,039	-0,038
-218,840	150,588	-0,076	0,075
-217,825	800,000	0,085	-0,182
-216,811	800,000	-0,031	-0,071
-215,796	-148,570	-0,032	0,002
-214,782	-200,000	-0,002	-0,073
-213,767	800,000	0,026	0,078
-212,752	175,805	0,094	0,099
-211,738	-200,000	0,006	0,041
-210,723	-200,000	0,014	-0,145
-209,709	-200,000	0,032	-0,136
-208,694	-200,000	-0,020	-0,094
-207,679	352,281	-0,064	-0,092
-206,665	-32,560	0,019	-0,008
-205,650	33,443	0,094	0,059
-204,636	-200,000	-0,040	-0,135
-203,621	-68,045	0,193	0,054
-202,606	-126,366	-0,073	0,008
-201,592	189,864	0,090	0,098
-200,577	463,350	-0,094	0,154
-199,563	800,000	-0,043	-0,114
-198,548	182,133	0,051	-0,055
-197,533	-200,000	0,005	0,032
-196,519	-66,714	0,109	0,031
-195,504	-144,336	-0,093	-0,006
-194,490	-200,000	0,000	0,017
-193,475	-28,399	0,065	0,027
-192,460	-200,000	-0,006	0,039
-191,446	-15,572	0,131	-0,061
-190,431	-87,876	-0,158	0,034
-189,417	35,910	0,024	-0,015
-188,402	-9,972	0,050	0,024
-187,387	18,701	-0,115	0,067
-186,373	-32,374	0,067	-0,027
-185,358	-1,137	0,006	-0,003
-184,344	558,905	-0,061	0,107
-183,329	622,631	-0,013	0,024
-182,315	-69,106	0,088	0,024
-181,300	-200,000	-0,036	0,172
-180,285	297,433	0,054	0,072
-179,271	-200,000	-0,001	-0,081
-178,256	-200,000	-0,014	0,134
-177,242	-47,591	-0,164	0,058
-176,227	-200,000	-0,031	0,118
-175,212	-56,504	0,162	-0,052
-174,198	-53,014	-0,093	0,031
-173,183	-154,366	-0,215	-0,010
-172,169	511,882	-0,007	0,012
-171,154	113,265	-0,085	-0,075
-170,139	-147,512	-0,074	-0,004
-169,125	-49,474	-0,064	0,022
-168,110	112,023	0,074	0,065
-167,096	-200,000	0,005	-0,018
-166,081	800,000	0,009	-0,024
-165,066	-200,000	-0,002	-0,054
-164,052	800,000	-0,056	-0,172
-163,037	77,190	-0,051	-0,040
-162,023	238,036	0,033	-0,039
-161,008	-1,191	0,132	-0,068
-159,993	-200,000	-0,010	-0,050
-158,979	-35,534	-0,073	0,029
-157,964	-98,867	-0,120	0,022
-156,950	-28,680	0,071	0,029
-155,935	-73,933	0,068	0,018
-154,920	108,080	0,056	-0,048
-153,906	800,000	0,027	-0,066
-152,891	-200,000	0,000	0,091
-151,877	-51,768	-0,109	0,037
-150,862	-200,000	0,012	-0,072
-149,847	516,567	-0,033	-0,057
-148,833	-68,760	-0,041	-0,011
-147,818	153,110	0,039	0,039
-146,804	-200,000	-0,045	0,150
-145,789	-142,443	0,015	-0,001
-144,775	186,731	0,008	0,009
-143,760	50,249	-0,138	-0,095
-142,745	-94,578	-0,143	-0,028
-141,731	800,000	0,032	-0,069
-140,716	-18,730	-0,106	-0,048
-139,702	-111,814	0,112	0,016
-138,687	181,771	-0,043	-0,046
-137,672	24,453	-0,022	-0,013
-136,658	-200,000	-0,002	0,016
-135,643	189,378	-0,107	0,116
-134,629	-96,927	-0,090	-0,017
-133,614	33,489	0,080	0,050
-132,599	156,063	0,043	0,044
-131,585	260,095	-0,066	0,083
-130,570	8,871	-0,089	0,049
-129,556	-0,852	-0,133	-0,068
-128,541	182,332	0,058	0,063
-127,526	23,442	-0,043	0,026
-126,512	-183,794	0,087	-0,001
-125,497	-122,452	-0,005	-0,001
-124,483	-200,000	0,012	0,083
-123,468	50,372	-0,150	0,103
-122,453	-200,000	0,004	0,057
-121,439	143,566	-0,102	-0,099
-120,424	800,000	0,025	0,063
-119,410	60,839	-0,024	0,017
-118,395	800,000	-0,020	0,041
-117,380	-200,000	-0,031	0,138
-116,366	32,618	0,011	-0,007
-115,351	-200,000	-0,002	0,081
-114,337	6,157	-0,166	-0,089
-113,322	-109,471	-0,017	0,003
-112,307	-200,000	-0,019	-0,145
-111,293	333,814	0,036	0,051
-110,278	335,593	0,057	0,081
-109,264	215,865	0,037	-0,043
-108,249	-125,466	-0,120	0,013
-107,234	53,444	0,051	-0,035
-106,220	-157,156	-0,133	0,006
-105,205	-200,000	0,007	-0,041
-104,191	-200,000	0,004	-0,030
-103,176	-200,000	0,017	-0,057
-102,162	-200,000	0,002	-0,120
-101,147	103,886	0,044	-0,037
-100,132	-185,222	-0,121	0,001
-99,118	199,298	0,063	0,070
-98,103	1,249	0,067	0,035
-97,089	-200,000	0,018	0,097
-96,074	159,126	0,067	0,067
-95,059	544,715	0,062	0,108
-94,045	484,241	0,074	0,124
-93,030	800,000	0,027	-0,063
-92,016	345,746	0,081	-0,116
-91,001	-200,000	-0,010	-0,053
-89,986	422,566	-0,021	-0,033
-88,972	242,593	0,020	0,024
-87,957	11,239	0,096	-0,053
-86,943	-78,021	0,028	-0,007
-85,928	-200,000	0,009	-0,037
-84,913	291,157	-0,083	-0,110
-83,899	-7,043	0,025	0,012
-82,884	623,837	-0,018	-0,033
-81,870	14,140	0,037	0,021
-80,855	-56,685	0,137	0,044
-79,840	167,402	-0,042	-0,044
-78,826	-200,000	-0,013	0,099
-77,811	120,850	-0,106	-0,096
-76,797	311,120	-0,049	0,067
-75,782	201,429	-0,093	0,104
-74,767	71,727	0,041	0,031
-73,753	-200,000	-0,007	0,050
-72,738	-200,000	-0,005	0,069
-71,724	-40,463	-0,020	-0,007
-70,709	-27,624	0,054	0,023
-69,694	291,178	0,116	-0,154
-68,680	482,502	-0,057	-0,094
-67,665	49,679	-0,055	0,037
-66,651	222,111	-0,024	0,028
-65,636	-200,000	0,006	0,023
-64,622	28,251	-0,158	-0,096
-63,607	-200,000	0,005	0,029
-62,592	-200,000	-0,000	-0,002
-61,578	800,000	0,027	-0,075
-60,563	73,536	-0,063	0,048
-59,549	-200,000	-0,006	0,088
-58,534	-110,545	-1,513	-0,225
-57,519	448,007	-0,917	-1,470
-56,505	-200,000	-0,716	-4,394
-55,490	-19,056	0,555	-0,249
-54,476	800,000	4,990	11,728
-53,461	-200,000	14,008	252,987
-52,446	-200,000	692,970	2238,677
-51,432	574,344	1623,806	2884,156
-50,417	117,554	1633,082	1456,792
-49,403	72,315	1287,115	971,242
-48,388	37,455	1023,128	656,434
-47,373	23,882	981,335	585,014
-46,359	23,180	970,826	576,428
-45,344	22,149	966,543	570,496
-44,330	21,999	965,408	569,314
-43,315	21,968	963,698	568,181
-42,300	21,989	962,669	567,623
-41,286	21,934	961,754	566,882
-40,271	21,870	960,843	566,115
-39,257	21,930	959,813	565,677
-38,242	21,920	958,851	565,056
-37,227	21,866	957,889	564,293
-36,213	21,862	957,141	563,817
-35,198	21,829	956,252	563,163
-34,184	21,885	955,745	563,023
-33,169	21,895	954,683	562,408
-32,154	21,952	953,748	562,018
-31,140	21,994	952,773	561,557
-30,125	21,956	952,279	561,123
-29,111	21,925	951,244	560,391
-28,096	21,981	950,543	560,135
-27,082	21,916	950,059	559,618
-26,067	21,878	949,156	558,943
-25,052	21,925	948,317	558,577
-24,038	21,910	947,832	558,221
-23,023	21,958	947,075	557,905
-22,009	21,986	946,433	557,594
-20,994	22,048	945,739	557,364
-19,979	21,997	945,077	556,786
-18,965	21,960	944,614	556,374
-17,950	21,932	943,987	555,896
-16,936	21,925	943,193	555,382
-15,921	21,857	942,642	554,820
-14,906	21,824	941,930	554,274
-13,892	21,831	941,369	553,942
-12,877	21,788	940,838	553,471
-11,863	21,783	940,046	552,968
-10,848	21,817	939,638	552,815
-9,833	21,887	939,121	552,710
-8,819	21,832	938,476	552,134
-7,804	21,771	937,885	551,571
-6,790	21,826	937,220	551,333
-5,775	21,803	936,642	550,897
-4,760	21,823	935,956	550,536
-3,746	21,788	935,450	550,107
-2,731	21,610	934,836	549,163
-1,717	21,630	933,801	548,595
-0,702	21,586	933,370	548,183
0,313	21,439	932,584	548,085
1,327	24,524	930,585	556,549
2,342	33,939	794,918	500,448
3,356	31,722	450,697	280,381
4,371	1,195	293,383	152,103
5,386	-3,392	274,337	137,882
6,400	-4,776	268,618	133,714
7,415	-5,056	266,357	132,319
8,429	-4,773	265,013	131,898
9,444	-4,882	264,283	131,424
10,459	-4,961	263,768	131,085
11,473	-5,025	263,078	130,671
12,488	-5,026	262,685	130,463
13,502	-5,110	262,068	130,070
14,517	-5,089	261,723	129,906
15,531	-5,146	261,362	129,664
16,546	-4,881	260,807	129,616
17,561	-5,080	260,777	129,410
18,575	-4,920	260,260	129,286
19,590	-4,934	259,932	129,098
20,604	-4,861	259,708	129,041
21,619	-4,898	259,288	128,788
22,634	-4,864	258,961	128,644
23,648	-5,105	258,825	128,351
24,663	-4,804	258,383	128,387
25,677	-5,125	258,119	127,960
26,692	-4,851	257,891	128,079
27,707	-5,088	257,816	127,819
28,721	-5,192	257,512	127,566
29,736	-5,011	257,305	127,611
30,750	-5,044	256,969	127,404
31,765	-5,109	256,824	127,263
32,780	-5,132	256,532	127,087
33,794	-4,935	256,169	127,070
34,809	-4,898	255,804	126,910
35,823	-5,220	255,838	126,632
36,838	-4,921	255,479	126,706
37,853	-5,098	255,279	126,440
38,867	-5,097	254,973	126,278
39,882	-5,231	254,861	126,094
40,896	-4,920	254,619	126,235
41,911	-5,082	254,359	125,953
42,926	-5,257	254,232	125,726
43,940	-5,087	253,880	125,690
44,955	-5,240	253,801	125,505
45,969	-5,057	253,348	125,430
46,984	-5,412	253,270	125,070
47,999	-5,583	253,001	124,778
49,013	-5,839	252,816	124,452
50,028	-5,704	252,489	124,398
51,042	-5,922	252,315	124,112
52,057	-5,702	251,931	124,103
53,071	-5,761	251,764	123,959
54,086	-5,730	251,578	123,883
55,101	-5,417	251,489	124,098
56,115	-5,252	251,324	124,148
57,130	-4,969	251,212	124,326
58,144	-4,935	251,121	124,299
59,159	-4,666	250,900	124,411
60,174	-4,856	250,656	124,115
61,188	-4,956	250,464	123,923
62,203	-4,822	250,185	123,889
63,217	-4,870	249,908	123,699
64,232	-5,118	249,816	123,430
65,247	-4,964	249,643	123,466
66,261	-5,011	249,477	123,332
67,276	-5,176	249,118	123,003
68,290	-5,269	248,937	122,823
69,305	-5,447	248,728	122,557
70,320	-5,325	248,493	122,534
71,334	-5,118	248,323	122,616
72,349	-4,890	248,193	122,735
73,363	-4,782	248,018	122,729
74,378	-4,939	247,799	122,477
75,393	-5,033	247,608	122,291
76,407	-5,156	247,450	122,098
77,422	-5,146	247,267	122,005
78,436	-5,075	247,056	121,951
79,451	-4,803	246,742	122,015
80,466	-4,920	246,480	121,776
81,480	-5,108	246,211	121,473
82,495	-5,280	246,129	121,277
83,509	-5,209	245,927	121,226
84,524	-5,152	245,765	121,184
85,539	-5,276	245,607	120,990
86,553	-5,354	245,402	120,813
87,568	-5,216	245,055	120,747
88,582	-5,414	244,973	120,530
89,597	-5,392	244,805	120,455
90,611	-5,195	244,743	120,579
91,626	-4,896	244,546	120,722
92,641	-5,124	244,328	120,412
93,655	-5,264	244,184	120,214
94,670	-5,298	243,862	120,016
95,684	-5,120	243,828	120,137
96,699	-4,988	243,488	120,069
97,714	-5,135	243,404	119,894
98,728	-5,248	243,300	119,738
99,743	-5,413	242,868	119,378
100,757	-5,512	242,871	119,286
101,772	-5,530	242,664	119,160
102,787	-5,431	242,448	119,124
103,801	-5,286	242,383	119,203
104,816	-5,192	242,052	119,107
105,830	-5,023	241,900	119,161
106,845	-4,803	241,761	119,264
107,860	-5,170	241,590	118,865
108,874	-5,121	241,297	118,751
109,889	-5,040	241,071	118,696
110,903	-5,278	241,000	118,455
111,918	-5,084	240,811	118,511
112,933	-5,288	240,795	118,325
113,947	-4,981	240,446	118,395
114,962	-5,021	240,271	118,265
115,976	-5,095	240,214	118,166
116,991	-5,127	239,901	117,975
118,006	-5,257	239,875	117,846
119,020	-4,920	239,729	118,039
120,035	-5,063	239,620	117,857
121,049	-5,011	239,312	117,738
122,064	-4,980	239,232	117,713
123,079	-4,987	238,957	117,562
124,093	-5,290	238,784	117,220
125,108	-5,474	238,636	116,986
126,122	-5,515	238,403	116,829
127,137	-5,579	238,268	116,700
128,151	-5,390	237,951	116,688
129,166	-5,222	237,910	116,794
130,181	-5,209	237,642	116,662
131,195	-5,215	237,418	116,537
132,210	-5,240	237,454	116,524
133,224	-5,110	237,169	116,479
134,239	-4,955	237,153	116,586
135,254	-5,088	236,844	116,316
136,268	-5,224	236,587	116,070
137,283	-5,213	236,389	115,971
138,297	-5,473	236,160	115,639
139,312	-5,347	236,046	115,675
140,327	-5,291	236,000	115,687
141,341	-4,895	236,064	116,027
142,356	-4,754	235,805	116,003
143,370	-4,708	235,662	115,958
144,385	-4,823	235,571	115,811
145,400	-4,663	235,327	115,809
146,414	-4,848	235,089	115,533
147,429	-4,759	234,909	115,506
148,443	-4,921	234,763	115,295
149,458	-4,856	234,611	115,262
150,473	-4,981	234,500	115,097
151,487	-4,822	234,279	115,105
152,502	-4,869	234,081	114,960
153,516	-4,721	233,961	115,009
154,531	-4,711	233,793	114,924
155,546	-4,834	233,592	114,717
156,560	-4,866	233,436	114,604
157,575	-5,088	233,213	114,309
158,589	-5,129	233,050	114,186
159,604	-4,922	232,914	114,273
160,619	-4,743	232,855	114,376
161,633	-4,585	232,647	114,389
162,648	-4,586	232,572	114,341
163,662	-4,695	232,195	114,059
164,677	-4,821	232,072	113,889
165,692	-4,585	232,020	114,039
166,706	-4,809	231,914	113,801
167,721	-4,808	231,729	113,700
168,735	-4,673	231,587	113,727
169,750	-4,706	231,389	113,593
170,764	-4,789	231,384	113,516
171,779	-4,772	231,151	113,405
172,794	-4,784	231,039	113,331
173,808	-4,723	230,780	113,241
174,823	-5,175	230,600	112,788
175,837	-5,151	230,291	112,645
176,852	-5,010	230,322	112,762
177,867	-4,839	230,346	112,896
178,881	-4,876	230,031	112,704
179,896	-4,823	229,986	112,713
180,910	-4,624	229,729	112,733
181,925	-4,770	229,623	112,556
182,940	-4,692	229,462	112,528
183,954	-4,738	229,461	112,482
184,969	-4,699	229,266	112,406
185,983	-4,840	229,181	112,245
186,998	-4,566	228,804	112,263
188,013	-4,506	228,566	112,183
189,027	-4,694	228,510	111,999
190,042	-4,637	228,369	111,965
191,056	-4,842	228,307	111,766
192,071	-4,767	228,188	111,755
193,086	-4,700	227,967	111,689
194,100	-4,636	227,798	111,646
195,115	-4,812	227,376	111,293
196,129	-5,122	227,273	110,994
197,144	-2,539	228,161	113,416
198,159	1,564	229,225	117,118
199,173	3,649	229,722	118,979
200,188	3,754	229,692	119,033
201,202	3,925	229,447	119,028
202,217	4,100	229,426	119,142
203,232	4,488	229,321	119,377
204,246	4,446	229,221	119,282
205,261	4,366	228,971	119,079
206,275	4,737	229,009	119,375
207,290	4,577	228,892	119,180
208,304	4,593	228,759	119,112
209,319	4,771	228,405	119,054
210,334	4,777	228,290	118,988
211,348	4,466	227,939	118,555
212,363	4,088	227,870	118,219
213,377	3,699	227,681	117,813
214,392	3,846	227,475	117,808
215,407	3,830	227,294	117,691
216,421	3,977	227,108	117,697
217,436	3,990	226,870	117,572
218,450	3,594	226,741	117,194
219,465	3,531	226,641	117,083
220,480	3,806	226,548	117,234
221,494	3,661	226,342	117,007
222,509	3,722	226,269	117,005
223,523	3,741	226,178	116,962
224,538	3,527	225,950	116,671
225,553	3,854	225,768	116,815
226,567	3,798	225,707	116,731
227,582	3,893	225,742	116,811
228,596	4,312	225,435	116,959
229,611	4,006	225,208	116,599
230,626	3,711	225,075	116,296
231,640	3,624	224,905	116,133
232,655	4,039	224,862	116,414
233,669	4,392	224,832	116,655
234,684	4,434	224,653	116,583
235,699	4,200	224,406	116,268
236,713	3,832	224,333	115,942
237,728	3,830	224,085	115,802
238,742	3,602	223,874	115,511
239,757	3,763	223,700	115,533
240,772	3,749	223,590	115,455
241,786	3,449	223,418	115,130
242,801	4,041	223,304	115,505
243,815	4,227	223,366	115,666
244,830	4,071	223,229	115,469
245,844	3,985	222,858	115,202
246,859	3,766	222,769	114,981
247,874	4,035	222,765	115,170
248,888	4,214	222,455	115,134
249,903	3,875	222,367	114,825
250,917	3,898	222,269	114,781
251,932	3,902	222,054	114,663
252,947	3,897	221,847	114,542
253,961	3,640	221,626	114,226
254,976	3,654	221,551	114,188
255,990	3,947	221,464	114,351
257,005	4,096	221,400	114,418
258,020	3,893	221,249	114,180
259,034	4,405	221,060	114,451
260,049	4,214	220,921	114,228
261,063	3,927	220,975	114,033
262,078	4,013	220,811	114,001
263,093	4,157	220,680	114,031
264,107	4,071	220,428	113,826
265,122	4,248	220,347	113,906
266,136	4,427	220,213	113,958
267,151	4,299	220,076	113,783
268,166	3,923	219,812	113,359
269,180	3,724	219,578	113,082
270,195	3,549	219,382	112,842
271,209	3,756	219,214	112,897
272,224	3,773	219,253	112,920
273,239	3,838	218,988	112,821
274,253	3,811	218,704	112,644
275,268	3,509	218,752	112,438
276,282	3,562	218,605	112,391
277,297	3,601	218,329	112,268
278,312	3,759	218,244	112,330
279,326	3,666	218,130	112,193
280,341	3,666	218,157	112,197
281,355	3,732	218,034	112,172
282,370	3,958	217,665	112,137
283,384	3,412	217,551	111,671
284,399	3,266	217,573	111,565
285,414	3,508	217,243	111,562
286,428	3,681	217,205	111,659
287,443	4,040	217,137	111,875
288,457	3,915	217,097	111,753
289,472	3,663	216,857	111,437
290,487	3,698	216,540	111,290
291,501	3,437	216,290	110,962
292,516	3,449	216,244	110,937
293,530	3,379	216,189	110,849
294,545	3,196	215,991	110,605
295,560	3,606	215,993	110,892
296,574	3,920	215,804	111,012
297,589	4,116	215,714	111,097
298,603	4,003	215,665	110,980
299,618	3,897	215,449	110,783
300,633	3,852	215,437	110,734
301,647	4,010	215,312	110,775
302,662	4,106	215,151	110,750
303,676	4,066	214,894	110,580
304,691	3,904	214,860	110,436
305,706	4,091	214,728	110,492
306,720	4,207	214,543	110,470
307,735	3,665	214,360	109,978
308,749	3,692	214,271	109,942
309,764	3,893	214,177	110,028
310,779	3,996	214,022	110,012
311,793	3,841	213,929	109,843
312,808	3,915	213,558	109,696
313,822	3,932	213,541	109,690
314,837	3,979	213,408	109,645
315,852	3,980	213,113	109,485
316,866	3,947	213,158	109,474
317,881	3,918	213,017	109,372
318,895	3,716	212,890	109,153
319,910	3,761	212,732	109,095
320,925	3,649	212,428	108,849
321,939	3,182	212,196	108,390
322,954	3,225	212,327	108,477
323,968	3,587	212,292	108,706
324,983	4,033	212,045	108,886
325,997	4,099	212,010	108,905
327,012	3,873	211,736	108,595
328,027	3,894	211,686	108,575
329,041	4,383	211,647	108,890
330,056	4,305	211,403	108,699
331,070	4,044	211,205	108,404
332,085	3,675	210,976	108,017
333,100	3,458	210,944	107,839
334,114	3,787	210,842	108,008
335,129	3,712	210,568	107,805
336,143	3,905	210,567	107,931
337,158	3,504	210,543	107,628
338,173	3,765	210,231	107,642
339,187	3,701	210,064	107,502
340,202	3,426	209,891	107,211
341,216	3,445	209,866	107,202
342,231	3,726	209,790	107,350
343,246	3,523	209,484	107,042
344,260	3,361	209,437	106,896
345,275	3,870	209,185	107,112
346,289	3,753	209,240	107,049
347,304	3,688	209,252	107,000
348,319	3,527	209,096	106,800
349,333	3,791	208,836	106,841
350,348	3,979	208,596	106,839
351,362	4,093	208,645	106,933
352,377	3,939	208,547	106,766
353,392	3,870	208,441	106,655
354,406	3,614	208,261	106,376
355,421	194,392	1344,324	1433,285
356,435	155,124	1482,831	1433,395
