DTS Sentinel unit serial number:	SN410029Multiplexer serial number:	ORYXHardware model number:	OX2-SRSoftware version number:	ORYX F/W v4,00 Oryx Data Collector v3.7.2.0data status	okinstallation	B6 Nyhavnadifferential loss correction	single-endedforward channel	channel 2reverse channel	N/Adate	2023/12/10time	21:20:08forward acquisition time	300,00reverse acquisition time	0,00gamma	499,1914k internal	0,3123k external	0,3123temperature offset calibration	1,0000default loss term (dB/km)	0,3820temperature slope calibration	1,0000multiplexer offset coefficient	1,0000multiplexer slope coefficient	1,0000fibre end	0,00T internal ref (°C)	22,26T ext. ref 1 (°C)	6,01T ext. ref 2 (°C)	6,01length (m)	temperature (°C)	Stokes	anti-Stokes-744,400	125,983	0,144	-0,135
-743,385	-4,958	-0,216	0,111
-742,371	584,515	0,025	0,046
-741,356	26,581	-0,077	0,048
-740,342	-200,000	-0,004	-0,016
-739,327	-135,237	-0,124	0,011
-738,312	-0,162	-0,114	0,060
-737,298	800,000	-0,045	0,139
-736,283	800,000	0,036	-0,116
-735,269	-109,463	-0,257	0,040
-734,254	30,858	0,090	0,058
-733,239	-16,333	-0,416	-0,196
-732,225	459,528	0,016	0,026
-731,210	168,040	-0,070	0,074
-730,196	119,369	-0,033	0,030
-729,181	-155,644	-0,196	-0,009
-728,167	-45,788	0,166	0,061
-727,152	139,203	-0,057	-0,056
-726,137	-200,000	0,006	-0,071
-725,123	20,318	0,014	-0,009
-724,108	31,177	-0,156	-0,099
-723,094	800,000	0,005	0,013
-722,079	-19,989	0,028	-0,013
-721,064	-129,143	-0,068	0,007
-720,050	-92,162	-0,045	-0,009
-719,035	250,317	-0,068	-0,086
-718,021	15,484	-0,131	-0,076
-717,006	800,000	-0,022	-0,069
-715,991	262,395	-0,083	-0,108
-714,977	583,714	-0,093	-0,170
-713,962	99,908	-0,059	-0,051
-712,948	17,396	0,076	-0,045
-711,933	250,107	-0,169	0,214
-710,918	800,000	-0,048	0,137
-709,904	25,403	0,166	-0,102
-708,889	272,375	-0,069	-0,091
-707,875	674,325	-0,106	-0,206
-706,860	79,131	0,077	0,061
-705,845	194,526	0,037	0,042
-704,831	-200,000	0,030	0,121
-703,816	-101,385	0,104	0,019
-702,802	-200,000	-0,005	-0,032
-701,787	-69,165	-0,033	0,009
-700,772	800,000	-0,042	-0,116
-699,758	171,710	-0,046	-0,049
-698,743	800,000	-0,044	0,099
-697,729	-86,519	0,060	0,014
-696,714	339,833	0,034	-0,050
-695,699	-114,150	-0,105	0,015
-694,685	-168,624	-0,131	0,004
-693,670	-200,000	-0,016	0,086
-692,656	800,000	-0,008	0,023
-691,641	-200,000	-0,019	0,100
-690,627	-67,216	-0,061	-0,018
-689,612	-49,636	-0,081	0,028
-688,597	-200,000	-0,049	0,165
-687,583	-139,197	-0,084	0,007
-686,568	261,431	-0,057	-0,074
-685,554	-30,220	-0,100	-0,042
-684,539	179,000	-0,063	0,068
-683,524	-8,552	-0,058	0,029
-682,510	800,000	0,014	-0,045
-681,495	191,045	-0,023	-0,026
-680,481	-22,814	-0,013	0,006
-679,466	-200,000	0,000	0,009
-678,451	-0,071	-0,117	-0,062
-677,437	75,033	-0,022	-0,018
-676,422	17,343	-0,029	-0,017
-675,408	-200,000	-0,015	0,051
-674,393	-29,926	0,108	-0,046
-673,378	71,413	-0,022	-0,017
-672,364	-65,165	-0,176	-0,053
-671,349	800,000	-0,133	-0,307
-670,335	-48,229	-0,029	0,010
-669,320	-200,000	-0,009	-0,047
-668,305	92,255	0,112	0,094
-667,291	-163,318	0,038	0,001
-666,276	511,891	-0,027	0,047
-665,262	800,000	-0,026	-0,080
-664,247	55,855	0,031	-0,023
-663,232	39,828	-0,086	0,058
-662,218	-135,160	0,023	-0,002
-661,203	378,309	0,115	0,175
-660,189	-84,939	-0,027	0,006
-659,174	-88,385	-0,098	0,022
-658,159	-200,000	-0,007	-0,103
-657,145	800,000	-0,025	-0,065
-656,130	-4,054	0,081	0,042
-655,116	617,928	0,059	0,110
-654,101	800,000	0,044	0,092
-653,086	-163,592	-0,071	-0,002
-652,072	330,389	0,064	-0,092
-651,057	430,578	0,044	-0,071
-650,043	698,478	0,048	-0,093
-649,028	567,515	0,031	0,057
-648,014	204,506	0,076	-0,088
-646,999	-177,326	-0,074	0,001
-645,984	800,000	-0,011	-0,033
-644,970	398,164	-0,076	0,118
-643,955	83,071	-0,101	-0,081
-642,941	253,532	-0,086	-0,109
-641,926	53,731	-0,047	-0,033
-640,911	-109,670	0,097	0,015
-639,897	800,000	-0,082	0,199
-638,882	678,293	-0,061	-0,119
-637,868	-130,845	-0,042	0,004
-636,853	-200,000	0,041	-0,185
-635,838	800,000	-0,043	0,093
-634,824	-101,999	0,191	0,034
-633,809	-200,000	-0,003	-0,013
-632,795	800,000	-0,046	0,127
-631,780	41,080	0,045	0,030
-630,765	633,310	-0,051	-0,096
-629,751	0,033	-0,118	-0,062
-628,736	11,902	-0,084	-0,048
-627,722	320,257	0,170	-0,240
-626,707	-148,534	-0,139	-0,008
-625,692	-200,000	-0,002	-0,083
-624,678	-200,000	-0,001	-0,023
-623,663	-148,619	0,021	0,001
-622,649	2,037	-0,042	0,023
-621,634	114,556	0,075	-0,068
-620,619	81,041	-0,127	0,102
-619,605	447,951	0,079	-0,130
-618,590	-140,688	-0,041	-0,003
-617,576	-200,000	-0,003	-0,012
-616,561	-72,090	-0,151	0,041
-615,546	172,803	-0,049	-0,053
-614,532	800,000	-0,133	-0,277
-613,517	800,000	0,021	-0,059
-612,503	11,594	-0,040	0,023
-611,488	128,359	0,054	-0,051
-610,474	38,541	-0,099	0,065
-609,459	-53,530	-0,097	-0,033
-608,444	-110,993	0,052	0,008
-607,430	-200,000	0,001	-0,042
-606,415	-200,000	0,015	-0,073
-605,401	472,083	0,072	0,120
-604,386	84,280	-0,050	-0,040
-603,371	350,067	0,059	0,087
-602,357	92,660	-0,030	-0,025
-601,342	-200,000	-0,003	0,011
-600,328	-124,017	-0,138	0,016
-599,313	222,806	-0,005	0,006
-598,298	49,321	0,064	0,045
-597,284	29,244	-0,041	0,026
-596,269	1,189	0,077	-0,041
-595,255	-69,076	-0,093	-0,026
-594,240	146,781	0,098	0,098
-593,225	-156,372	0,063	-0,003
-592,211	-200,000	0,033	-0,210
-591,196	-93,747	0,081	0,016
-590,182	228,026	-0,097	0,117
-589,167	-200,000	-0,018	-0,119
-588,152	-200,000	0,056	0,196
-587,138	49,648	-0,115	-0,080
-586,123	-200,000	0,003	-0,155
-585,109	-200,000	0,026	-0,121
-584,094	-200,000	0,028	-0,176
-583,079	102,290	-0,061	-0,053
-582,065	-109,401	0,098	0,015
-581,050	543,570	0,015	0,027
-580,036	43,700	-0,068	0,046
-579,021	800,000	-0,031	-0,063
-578,006	222,193	0,029	-0,034
-576,992	-200,000	-0,025	-0,102
-575,977	358,615	-0,041	0,060
-574,963	-29,280	-0,150	0,063
-573,948	175,305	-0,037	0,040
-572,934	-200,000	0,047	0,162
-571,919	-200,000	0,015	-0,061
-570,904	223,833	0,002	0,002
-569,890	-200,000	0,019	-0,070
-568,875	-131,580	-0,074	0,007
-567,861	-116,611	-0,011	-0,001
-566,846	-200,000	0,010	0,069
-565,831	115,125	0,062	0,056
-564,817	218,333	-0,116	-0,137
-563,802	-39,256	-0,046	0,018
-562,788	-114,747	0,225	-0,031
-561,773	-116,856	-0,105	0,014
-560,758	-94,849	0,155	-0,031
-559,744	-140,124	0,150	-0,012
-558,729	-102,036	-0,095	-0,017
-557,715	148,301	-0,055	-0,055
-556,700	-55,227	-0,060	-0,020
-555,685	-123,732	0,087	-0,010
-554,671	47,008	-0,129	0,089
-553,656	800,000	0,067	-0,192
-552,642	-129,752	-0,064	-0,006
-551,627	405,423	-0,034	0,053
-550,612	-200,000	0,015	-0,092
-549,598	800,000	-0,042	-0,094
-548,583	382,186	0,051	-0,078
-547,569	-25,739	0,156	0,068
-546,554	200,109	0,072	-0,082
-545,539	-42,336	0,076	0,029
-544,525	-200,000	0,021	-0,069
-543,510	-61,942	-0,108	0,033
-542,496	30,059	0,085	-0,054
-541,481	-200,000	0,015	0,064
-540,466	-13,826	-0,032	0,015
-539,452	800,000	0,013	0,042
-538,437	416,850	0,051	0,080
-537,423	-200,000	0,013	0,158
-536,408	-81,383	0,014	0,003
-535,393	143,488	-0,060	-0,059
-534,379	-200,000	0,021	0,142
-533,364	-77,790	0,082	0,021
-532,350	-200,000	0,009	0,106
-531,335	-200,000	0,008	0,095
-530,321	-200,000	-0,000	-0,076
-529,306	313,054	-0,085	-0,119
-528,291	343,217	-0,046	-0,067
-527,277	273,538	0,080	-0,105
-526,262	-46,799	0,080	-0,029
-525,248	48,264	-0,050	0,034
-524,233	268,420	0,096	-0,124
-523,218	800,000	0,023	-0,070
-522,204	-124,137	0,068	0,008
-521,189	-200,000	0,008	-0,049
-520,175	252,559	-0,055	-0,069
-519,160	-200,000	-0,003	-0,093
-518,145	-27,896	0,039	0,017
-517,131	800,000	-0,057	-0,149
-516,116	40,934	0,071	0,047
-515,102	800,000	0,010	-0,023
-514,087	54,153	-0,181	-0,128
-513,072	-72,177	-0,194	-0,053
-512,058	71,297	0,102	-0,078
-511,043	118,900	-0,060	-0,055
-510,029	-200,000	0,007	0,032
-509,014	-200,000	-0,011	0,100
-507,999	-180,984	0,086	-0,001
-506,985	-200,000	-0,005	0,058
-505,970	-85,725	0,043	-0,010
-504,956	-200,000	0,017	-0,069
-503,941	-116,656	0,129	0,017
-502,926	-84,614	-0,103	-0,024
-501,912	-103,572	-0,015	-0,003
-500,897	800,000	0,042	0,103
-499,883	-16,143	-0,081	0,038
-498,868	-109,856	-0,037	-0,006
-497,853	44,879	-0,084	-0,057
-496,839	236,437	-0,096	-0,118
-495,824	-96,915	0,033	-0,006
-494,810	5,812	0,110	0,060
-493,795	591,798	-0,042	0,077
-492,781	253,407	-0,042	-0,053
-491,766	21,473	0,071	-0,042
-490,751	-200,000	-0,001	-0,012
-489,737	193,335	-0,013	0,015
-488,722	-11,345	0,132	-0,064
-487,708	74,534	0,006	-0,005
-486,693	157,128	0,056	0,057
-485,678	649,297	-0,096	-0,181
-484,664	-156,305	-0,106	-0,005
-483,649	-16,161	-0,039	-0,018
-482,635	35,259	-0,049	-0,032
-481,620	800,000	-0,044	-0,123
-480,605	332,278	0,102	0,145
-479,591	-200,000	0,013	0,053
-478,576	320,898	0,030	0,043
-477,562	44,753	-0,032	0,022
-476,547	-200,000	-0,006	-0,066
-475,532	-200,000	-0,006	0,053
-474,518	136,725	-0,037	0,036
-473,503	800,000	0,048	0,126
-472,489	-200,000	-0,003	0,054
-471,474	-82,412	-0,071	0,017
-470,459	-32,143	-0,055	0,023
-469,445	-200,000	-0,084	-0,000
-468,430	-146,711	0,156	-0,010
-467,416	75,727	-0,005	-0,004
-466,401	44,997	0,100	-0,068
-465,386	-143,649	0,082	0,006
-464,372	-150,786	-0,212	0,012
-463,357	-200,000	-0,013	0,128
-462,343	-6,883	-0,038	-0,019
-461,328	-132,532	-0,073	0,007
-460,313	87,171	-0,030	-0,024
-459,299	-75,396	0,030	0,008
-458,284	238,458	0,025	0,031
-457,270	6,617	-0,157	0,086
-456,255	35,475	-0,077	-0,050
-455,241	383,666	-0,037	-0,057
-454,226	-39,127	-0,153	-0,059
-453,211	-159,443	-0,023	-0,001
-452,197	10,449	0,062	-0,035
-451,182	472,806	0,031	-0,051
-450,168	426,123	0,027	0,042
-449,153	-200,000	-0,008	0,067
-448,138	190,954	0,029	0,032
-447,124	461,689	0,019	-0,031
-446,109	800,000	0,031	0,093
-445,095	800,000	0,056	0,144
-444,080	-118,058	-0,068	-0,009
-443,065	-100,124	-0,015	-0,003
-442,051	-1,679	0,123	0,064
-441,036	-200,000	0,011	-0,081
-440,022	-92,554	-0,101	0,021
-439,007	-46,338	0,119	-0,043
-437,992	127,333	0,081	0,076
-436,978	800,000	-0,049	0,122
-435,963	-200,000	-0,019	-0,063
-434,949	-65,948	0,096	-0,028
-433,934	-96,683	-0,091	-0,018
-432,919	95,947	-0,074	-0,062
-431,905	-22,774	-0,090	-0,040
-430,890	272,665	0,155	0,202
-429,876	-200,000	0,030	0,163
-428,861	-200,000	0,008	-0,034
-427,846	-128,486	0,067	0,007
-426,832	-200,000	-0,023	0,090
-425,817	-18,214	0,120	0,055
-424,803	-200,000	0,000	0,008
-423,788	800,000	-0,069	-0,147
-422,773	192,545	0,089	0,099
-421,759	55,495	0,136	0,097
-420,744	268,182	-0,039	0,050
-419,730	-200,000	0,007	0,105
-418,715	-105,294	-0,089	-0,015
-417,701	-200,000	0,007	-0,093
-416,686	-34,731	0,010	0,004
-415,671	-99,510	-0,090	0,017
-414,657	-200,000	0,012	0,088
-413,642	-2,355	0,073	-0,037
-412,628	730,157	0,070	-0,138
-411,613	124,053	-0,052	-0,048
-410,598	-58,629	-0,081	-0,026
-409,584	800,000	0,048	-0,099
-408,569	743,369	-0,012	0,024
-407,555	301,082	-0,031	-0,042
-406,540	-47,871	0,116	0,041
-405,525	-53,654	0,197	0,066
-404,511	74,738	-0,074	0,057
-403,496	-62,247	0,045	0,014
-402,482	-155,112	0,131	0,006
-401,467	-200,000	-0,033	0,112
-400,452	-200,000	0,006	0,103
-399,438	-59,189	-0,096	0,030
-398,423	-200,000	-0,013	-0,059
-397,409	-79,542	0,054	0,013
-396,394	-106,366	-0,121	0,020
-395,379	-101,492	0,134	0,024
-394,365	60,001	0,028	0,020
-393,350	86,448	-0,055	-0,045
-392,336	302,032	-0,037	-0,051
-391,321	-200,000	-0,023	-0,117
-390,306	126,198	-0,021	0,019
-389,292	169,480	0,075	-0,079
-388,277	-200,000	0,012	-0,081
-387,263	193,522	-0,073	0,082
-386,248	92,557	0,065	0,054
-385,233	-28,420	-0,108	0,045
-384,219	-200,000	0,028	-0,098
-383,204	-33,931	-0,052	0,021
-382,190	-200,000	0,003	-0,067
-381,175	4,736	0,088	-0,047
-380,160	-66,926	0,076	0,022
-379,146	228,143	0,022	-0,026
-378,131	-200,000	0,008	-0,090
-377,117	218,147	-0,059	-0,069
-376,102	-83,299	0,031	0,007
-375,088	-63,207	-0,156	0,047
-374,073	478,367	-0,046	-0,077
-373,058	-97,883	0,095	-0,018
-372,044	-200,000	-0,014	-0,078
-371,029	-74,393	0,110	0,029
-370,015	139,025	0,034	0,033
-369,000	800,000	0,013	0,032
-367,985	-196,627	-0,057	-0,000
-366,971	-52,232	0,134	0,045
-365,956	651,028	0,020	-0,038
-364,942	697,596	0,050	0,097
-363,927	-200,000	-0,003	0,149
-362,912	90,720	0,047	0,038
-361,898	35,979	-0,086	-0,055
-360,883	112,789	0,008	-0,007
-359,869	415,097	0,064	-0,101
-358,854	-160,622	0,198	0,008
-357,839	-16,896	0,083	-0,038
-356,825	302,385	0,006	-0,008
-355,810	-200,000	-0,010	-0,042
-354,796	49,335	-0,052	0,036
-353,781	800,000	-0,021	0,062
-352,766	-200,000	-0,016	0,092
-351,752	126,997	0,060	-0,056
-350,737	63,496	0,056	-0,041
-349,723	-143,849	-0,108	-0,007
-348,708	-200,000	-0,022	0,100
-347,693	-200,000	0,024	0,163
-346,679	-129,242	-0,132	0,013
-345,664	-34,507	-0,110	-0,044
-344,650	800,000	-0,067	-0,137
-343,635	-3,212	0,070	0,036
-342,620	484,070	0,023	0,039
-341,606	396,883	0,035	-0,054
-340,591	-112,203	-0,251	0,037
-339,577	-200,000	0,015	-0,069
-338,562	170,338	-0,057	-0,059
-337,548	-35,730	-0,128	-0,051
-336,533	-102,321	0,092	0,016
-335,518	800,000	0,013	-0,029
-334,504	48,780	-0,125	0,086
-333,489	149,654	-0,049	0,049
-332,475	800,000	0,022	-0,045
-331,460	-7,270	-0,191	0,095
-330,445	-200,000	-0,007	-0,040
-329,431	38,569	0,134	0,087
-328,416	-15,324	0,116	-0,054
-327,402	800,000	0,009	-0,020
-326,387	800,000	0,047	0,104
-325,372	155,402	-0,122	-0,123
-324,358	137,892	-0,042	-0,041
-323,343	160,481	0,069	0,071
-322,329	-200,000	0,026	0,126
-321,314	335,477	-0,046	-0,066
-320,299	239,491	-0,021	-0,026
-319,285	62,194	0,084	0,062
-318,270	-200,000	-0,024	-0,148
-317,256	12,705	-0,032	-0,018
-316,241	-200,000	-0,000	-0,063
-315,226	-200,000	0,032	0,207
-314,212	5,950	-0,038	0,020
-313,197	-102,144	0,112	-0,019
-312,183	-200,000	0,005	0,114
-311,168	86,452	-0,028	-0,023
-310,153	70,120	0,029	-0,022
-309,139	485,876	-0,044	0,073
-308,124	800,000	-0,024	-0,075
-307,110	-200,000	0,175	0,000
-306,095	89,380	0,019	0,016
-305,080	-81,009	-0,085	0,020
-304,066	-200,000	-0,011	-0,044
-303,051	-71,038	0,060	0,016
-302,037	328,284	0,057	0,080
-301,022	-97,132	-0,024	0,005
-300,008	800,000	0,021	0,057
-298,993	800,000	-0,052	0,128
-297,978	-200,000	-0,011	-0,040
-296,964	-127,292	-0,163	0,017
-295,949	315,492	0,065	-0,090
-294,935	136,261	-0,108	-0,103
-293,920	-200,000	-0,003	0,070
-292,905	459,211	0,050	-0,082
-291,891	598,245	0,067	0,123
-290,876	350,813	0,064	0,093
-289,862	800,000	0,030	-0,084
-288,847	93,739	-0,142	-0,118
-287,832	122,050	-0,028	0,026
-286,818	800,000	0,048	-0,123
-285,803	366,839	-0,043	-0,064
-284,789	-113,278	-0,082	-0,012
-283,774	-172,700	0,083	0,002
-282,759	217,972	-0,058	0,068
-281,745	477,070	0,034	-0,057
-280,730	-18,249	0,049	0,023
-279,716	365,829	0,046	-0,068
-278,701	800,000	-0,060	0,183
-277,686	-140,817	0,138	-0,010
-276,672	304,857	0,015	0,020
-275,657	470,317	-0,024	-0,040
-274,643	96,872	-0,097	-0,082
-273,628	449,676	-0,056	-0,090
-272,613	168,771	-0,033	-0,035
-271,599	6,457	-0,079	-0,043
-270,584	-47,549	0,125	0,044
-269,570	28,890	-0,113	0,070
-268,555	55,956	-0,168	0,119
-267,540	60,331	-0,060	0,043
-266,526	59,908	-0,078	0,056
-265,511	-70,580	-0,095	-0,026
-264,497	47,891	-0,073	-0,050
-263,482	-37,263	0,142	-0,055
-262,467	-48,956	0,100	0,035
-261,453	499,966	-0,026	-0,045
-260,438	-200,000	0,026	0,105
-259,424	-63,822	-0,144	0,043
-258,409	-200,000	-0,011	-0,091
-257,395	211,372	0,056	0,064
-256,380	98,862	0,084	0,071
-255,365	-150,618	0,079	0,004
-254,351	237,281	0,010	-0,012
-253,336	60,600	-0,149	0,108
-252,322	37,012	-0,021	-0,014
-251,307	48,724	0,044	-0,030
-250,292	135,379	0,021	0,020
-249,278	80,417	0,118	-0,093
-248,263	480,318	0,035	0,058
-247,249	-200,000	0,017	-0,074
-246,234	-108,731	0,101	-0,016
-245,219	800,000	0,045	0,107
-244,205	22,600	-0,079	0,047
-243,190	800,000	-0,040	0,102
-242,176	-65,138	0,104	0,030
-241,161	174,716	0,061	0,064
-240,146	568,884	0,094	0,168
-239,132	800,000	0,066	0,160
-238,117	-169,654	0,106	-0,003
-237,103	-17,655	0,087	-0,040
-236,088	501,782	-0,070	0,118
-235,073	571,420	0,029	0,053
-234,059	-200,000	0,084	0,280
-233,044	257,634	-0,034	-0,043
-232,030	-45,411	-0,039	-0,014
-231,015	260,636	-0,049	-0,062
-230,000	800,000	-0,030	-0,096
-228,986	30,329	-0,064	-0,040
-227,971	2,261	0,150	0,079
-226,957	-47,370	-0,057	0,020
-225,942	16,337	0,055	0,031
-224,927	61,923	-0,067	-0,049
-223,913	-200,000	-0,013	-0,160
-222,898	90,060	0,155	-0,127
-221,884	-200,000	-0,053	-0,199
-220,869	-200,000	0,018	0,105
-219,855	173,621	-0,052	0,055
-218,840	-76,113	-0,009	-0,002
-217,825	800,000	-0,016	0,051
-216,811	-200,000	0,002	0,047
-215,796	93,826	-0,010	-0,008
-214,782	-154,516	0,124	0,006
-213,767	-98,672	-0,037	-0,007
-212,752	-3,943	0,039	0,019
-211,738	-200,000	0,012	0,060
-210,723	171,716	-0,079	0,083
-209,709	-200,000	-0,013	-0,084
-208,694	-103,317	-0,086	-0,015
-207,679	800,000	-0,058	-0,159
-206,665	16,594	0,055	-0,031
-205,650	170,497	0,090	0,094
-204,636	492,154	0,037	-0,062
-203,621	36,731	-0,118	-0,076
-202,606	800,000	0,055	-0,140
-201,592	603,456	-0,056	-0,103
-200,577	-154,930	0,150	-0,007
-199,563	800,000	-0,012	-0,031
-198,548	-200,000	0,011	0,099
-197,533	-193,739	0,117	-0,001
-196,519	159,384	-0,070	0,071
-195,504	-96,511	0,023	0,004
-194,490	-3,414	-0,023	0,012
-193,475	66,003	0,036	-0,027
-192,460	456,223	-0,025	0,040
-191,446	-200,000	-0,036	0,202
-190,431	140,691	0,105	0,101
-189,417	800,000	0,051	0,116
-188,402	-200,000	0,010	-0,082
-187,387	80,506	0,074	-0,058
-186,373	-88,863	-0,043	-0,009
-185,358	42,778	-0,068	0,045
-184,344	-200,000	-0,008	0,035
-183,329	-13,439	0,129	0,061
-182,315	-28,411	0,129	0,054
-181,300	800,000	0,030	-0,076
-180,285	233,136	0,030	-0,036
-179,271	-118,040	-0,168	-0,022
-178,256	-200,000	0,003	0,042
-177,242	-66,353	0,061	0,018
-176,227	-200,000	-0,036	0,118
-175,212	-200,000	0,000	0,065
-174,198	-200,000	0,021	0,074
-173,183	-28,817	-0,194	-0,081
-172,169	-10,452	0,039	0,019
-171,154	22,300	0,062	-0,037
-170,139	57,417	0,036	0,026
-169,125	651,641	0,054	0,101
-168,110	762,678	-0,027	-0,053
-167,096	153,500	0,059	0,059
-166,081	206,057	-0,017	0,019
-165,066	-82,623	0,017	-0,004
-164,052	6,636	-0,057	-0,031
-163,037	25,461	0,038	-0,023
-162,023	13,732	-0,056	-0,032
-161,008	-62,706	0,106	0,032
-159,993	-72,819	0,099	0,026
-158,979	800,000	0,032	0,093
-157,964	252,811	-0,130	0,161
-156,950	10,184	-0,090	0,050
-155,935	181,742	0,049	-0,053
-154,920	33,839	-0,053	-0,034
-153,906	82,148	0,066	-0,052
-152,891	131,469	-0,043	-0,041
-151,877	-135,517	-0,133	-0,011
-150,862	65,247	0,035	-0,025
-149,847	800,000	-0,023	-0,054
-148,833	96,602	-0,082	-0,068
-147,818	-24,569	-0,032	-0,014
-146,804	-200,000	0,006	0,059
-145,789	-200,000	-0,012	0,062
-144,775	-56,199	-0,072	-0,023
-143,760	-98,519	0,094	-0,017
-142,745	-200,000	-0,056	-0,253
-141,731	-25,745	-0,125	0,053
-140,716	-200,000	0,022	0,084
-139,702	800,000	0,047	0,096
-138,687	290,599	0,085	0,113
-137,672	800,000	-0,028	0,059
-136,658	-200,000	0,003	0,025
-135,643	120,594	-0,107	-0,097
-134,629	30,392	0,089	-0,055
-133,614	-200,000	0,041	0,160
-132,599	409,307	-0,052	0,081
-131,585	-200,000	-0,014	0,145
-130,570	104,223	-0,027	-0,023
-129,556	84,284	-0,068	0,054
-128,541	-69,955	-0,136	0,037
-127,526	-59,558	0,118	0,037
-126,512	63,625	0,069	-0,050
-125,497	203,032	0,083	0,094
-124,483	800,000	0,038	0,113
-123,468	30,953	-0,078	-0,048
-122,453	381,292	-0,087	-0,130
-121,439	635,250	-0,075	-0,139
-120,424	-200,000	0,000	-0,030
-119,410	-62,151	0,100	0,030
-118,395	-103,200	0,104	-0,018
-117,380	-200,000	0,012	0,063
-116,366	-200,000	0,026	-0,119
-115,351	102,007	-0,068	-0,058
-114,337	-84,759	-0,020	-0,004
-113,322	-150,839	0,064	0,003
-112,307	-178,041	0,125	-0,002
-111,293	800,000	0,041	0,094
-110,278	49,708	0,085	0,058
-109,264	142,130	-0,061	0,059
-108,249	-90,856	-0,052	0,011
-107,234	800,000	-0,043	-0,086
-106,220	-56,858	0,048	-0,015
-105,205	-200,000	-0,017	0,149
-104,191	96,825	-0,022	0,018
-103,176	-110,719	-0,011	-0,002
-102,162	329,695	-0,036	0,050
-101,147	-159,025	-0,216	-0,009
-100,132	-200,000	-0,020	0,106
-99,118	619,960	-0,077	0,141
-98,103	-15,743	-0,073	-0,034
-97,089	16,076	-0,054	-0,031
-96,074	-20,669	-0,040	0,018
-95,059	717,098	-0,047	-0,092
-94,045	-72,202	0,069	-0,018
-93,030	800,000	-0,026	0,082
-92,016	-77,797	0,037	-0,009
-91,001	-200,000	0,005	0,128
-89,986	48,472	0,090	-0,061
-88,972	-200,000	0,009	0,043
-87,957	-200,000	0,004	0,103
-86,943	66,890	-0,071	-0,053
-85,928	-200,000	-0,027	-0,191
-84,913	-118,188	-0,078	0,010
-83,899	-22,384	-0,046	-0,020
-82,884	233,453	-0,033	0,040
-81,870	276,869	-0,028	0,036
-80,855	-200,000	0,023	0,187
-79,840	-189,452	0,125	-0,001
-78,826	479,261	-0,018	0,030
-77,811	-135,403	0,121	0,010
-76,797	-200,000	-0,049	-0,194
-75,782	-26,717	0,094	0,040
-74,767	441,310	0,109	0,174
-73,753	-200,000	0,005	-0,074
-72,738	401,467	-0,072	0,110
-71,724	-150,573	0,019	-0,001
-70,709	372,777	0,088	-0,130
-69,694	-22,804	0,121	-0,053
-68,680	-115,679	-0,131	-0,018
-67,665	109,192	0,098	-0,085
-66,651	-200,000	-0,106	0,000
-65,636	-144,595	0,115	0,008
-64,622	277,806	-0,032	0,041
-63,607	-24,038	-0,069	-0,030
-62,592	-98,092	0,071	0,013
-61,578	92,848	-0,100	-0,082
-60,563	800,000	-0,046	0,107
-59,549	591,918	-0,041	0,074
-58,534	-76,529	-1,245	-0,315
-57,519	800,000	-0,722	-1,516
-56,505	-200,000	-0,890	-4,434
-55,490	119,904	0,545	-0,491
-54,476	800,000	4,943	11,925
-53,461	-200,000	13,619	253,132
-52,446	-200,000	690,182	2255,936
-51,432	589,260	1622,336	2913,616
-50,417	118,872	1634,678	1465,782
-49,403	72,986	1288,825	976,118
-48,388	37,906	1024,078	659,156
-47,373	24,255	981,696	586,981
-46,359	23,502	971,428	578,349
-45,344	22,451	967,354	572,467
-44,330	22,405	965,751	571,343
-43,315	22,300	964,393	570,175
-42,300	22,358	963,256	569,669
-41,286	22,317	962,280	568,938
-40,271	22,342	961,235	568,377
-39,257	22,256	960,499	567,639
-38,242	22,256	959,450	566,998
-37,227	22,256	958,650	566,504
-36,213	22,281	957,555	565,915
-35,198	22,205	956,918	565,269
-34,184	22,273	956,126	564,998
-33,169	22,203	955,399	564,319
-32,154	22,268	954,459	563,953
-31,140	22,342	953,466	563,582
-30,125	22,314	952,857	563,110
-29,111	22,334	951,853	562,557
-28,096	22,283	951,274	562,031
-27,082	22,323	950,573	561,720
-26,067	22,296	949,772	561,140
-25,052	22,252	949,051	560,550
-24,038	22,305	948,382	560,302
-23,023	22,287	947,812	559,886
-22,009	22,370	947,029	559,667
-20,994	22,316	946,558	559,194
-19,979	22,335	945,959	558,877
-18,965	22,266	945,366	558,285
-17,950	22,296	944,629	557,925
-16,936	22,285	943,934	557,455
-15,921	22,222	943,269	556,841
-14,906	22,239	942,262	556,278
-13,892	22,132	941,885	555,692
-12,877	22,183	941,205	555,433
-11,863	22,201	940,659	555,145
-10,848	22,186	940,228	554,822
-9,833	22,244	939,667	554,653
-8,819	22,272	939,112	554,392
-7,804	22,204	938,199	553,613
-6,790	22,229	937,787	553,429
-5,775	22,273	937,151	553,172
-4,760	22,201	936,468	552,518
-3,746	22,180	936,043	552,179
-2,731	22,047	935,432	551,378
-1,717	22,022	934,498	550,724
-0,702	21,969	934,104	550,303
0,313	21,805	933,219	550,096
1,327	24,966	931,278	558,841
2,342	34,735	795,901	503,621
3,356	32,803	451,747	282,915
4,371	1,856	294,118	153,287
5,386	-2,573	274,988	139,108
6,400	-4,351	269,199	134,516
7,415	-4,824	266,715	132,828
8,429	-4,742	265,530	132,301
9,444	-4,476	264,690	132,113
10,459	-4,564	264,022	131,688
11,473	-4,619	263,371	131,301
12,488	-4,635	262,736	130,959
13,502	-4,828	262,426	130,618
14,517	-4,844	261,847	130,304
15,531	-4,784	261,574	130,210
16,546	-4,734	261,049	129,982
17,561	-4,590	260,694	129,923
18,575	-4,643	260,374	129,705
19,590	-4,685	260,042	129,490
20,604	-4,604	259,870	129,465
21,619	-4,750	259,582	129,180
22,634	-4,630	259,135	129,053
23,648	-4,716	258,900	128,848
24,663	-4,590	258,641	128,820
25,677	-4,678	258,328	128,574
26,692	-4,742	257,984	128,334
27,707	-4,771	257,914	128,262
28,721	-4,910	257,589	127,966
29,736	-4,909	257,282	127,803
30,750	-4,748	256,953	127,771
31,765	-4,681	256,732	127,709
32,780	-4,715	256,522	127,563
33,794	-4,854	256,342	127,339
34,809	-5,073	256,234	127,080
35,823	-4,954	255,839	126,979
36,838	-4,795	255,627	127,001
37,853	-4,912	255,388	126,769
38,867	-4,866	255,204	126,707
39,882	-4,951	254,997	126,518
40,896	-5,084	254,772	126,278
41,911	-4,984	254,644	126,291
42,926	-4,833	254,366	126,274
43,940	-4,968	254,045	125,986
44,955	-4,891	253,695	125,868
45,969	-5,078	253,665	125,679
46,984	-5,154	253,374	125,457
47,999	-5,401	253,026	125,059
49,013	-5,495	252,778	124,843
50,028	-5,494	252,574	124,732
51,042	-5,682	252,164	124,356
52,057	-5,463	252,040	124,473
53,071	-5,590	251,891	124,278
54,086	-5,474	251,792	124,319
55,101	-5,461	251,589	124,219
56,115	-5,009	251,358	124,484
57,130	-4,834	251,388	124,639
58,144	-4,625	251,353	124,791
59,159	-4,643	251,193	124,686
60,174	-4,911	250,931	124,314
61,188	-4,700	250,675	124,357
62,203	-4,643	250,456	124,287
63,217	-4,678	250,259	124,147
64,232	-4,617	249,955	124,038
65,247	-4,868	249,828	123,749
66,261	-4,575	249,552	123,852
67,276	-4,756	249,224	123,523
68,290	-5,260	249,045	122,992
69,305	-5,476	248,962	122,756
70,320	-5,180	248,490	122,764
71,334	-4,960	248,553	122,972
72,349	-4,532	248,461	123,281
73,363	-4,613	248,167	123,055
74,378	-4,562	247,950	122,980
75,393	-4,725	247,764	122,739
76,407	-4,754	247,587	122,615
77,422	-4,754	247,395	122,509
78,436	-4,714	247,189	122,430
79,451	-4,539	246,928	122,438
80,466	-4,841	246,734	122,075
81,480	-4,932	246,411	121,827
82,495	-5,109	246,378	121,651
83,509	-4,972	246,212	121,673
84,524	-4,960	245,984	121,560
85,539	-5,108	245,680	121,275
86,553	-5,363	245,640	121,029
87,568	-5,254	245,398	120,991
88,582	-5,037	245,229	121,079
89,597	-5,236	245,161	120,868
90,611	-4,994	244,925	120,944
91,626	-4,822	244,749	120,990
92,641	-4,611	244,439	121,003
93,655	-4,766	244,280	120,784
94,670	-4,981	244,219	120,563
95,684	-4,874	243,899	120,484
96,699	-4,954	243,619	120,268
97,714	-4,942	243,530	120,223
98,728	-5,217	243,421	119,930
99,743	-5,224	243,134	119,772
100,757	-5,184	242,920	119,688
101,772	-5,075	242,798	119,708
102,787	-5,054	242,639	119,636
103,801	-4,933	242,357	119,588
104,816	-4,947	242,300	119,537
105,830	-4,800	242,131	119,565
106,845	-4,828	242,049	119,490
107,860	-4,692	241,830	119,485
108,874	-4,926	241,637	119,185
109,889	-5,091	241,465	118,953
110,903	-4,890	241,067	118,912
111,918	-4,956	240,835	118,733
112,933	-5,067	240,982	118,703
113,947	-4,955	240,705	118,648
114,962	-4,731	240,519	118,730
115,976	-4,786	240,244	118,538
116,991	-4,870	240,138	118,407
118,006	-4,961	239,898	118,203
119,020	-4,952	239,929	118,215
120,035	-4,803	239,818	118,272
121,049	-4,763	239,618	118,196
122,064	-4,944	239,381	117,920
123,079	-4,962	239,146	117,779
124,093	-4,895	238,945	117,724
125,108	-4,915	238,772	117,612
126,122	-5,287	238,515	117,172
127,137	-5,442	238,432	116,994
128,151	-5,367	238,129	116,896
129,166	-5,035	238,053	117,119
130,181	-5,167	237,811	116,882
131,195	-5,177	237,746	116,832
132,210	-4,927	237,552	116,929
133,224	-4,885	237,295	116,826
134,239	-4,828	237,326	116,877
135,254	-4,963	237,128	116,659
136,268	-4,936	236,799	116,509
137,283	-5,191	236,510	116,151
138,297	-5,140	236,360	116,108
139,312	-5,368	236,284	115,876
140,327	-5,064	236,182	116,061
141,341	-4,538	236,201	116,484
142,356	-4,321	235,920	116,509
143,370	-4,532	235,832	116,286
144,385	-4,443	235,649	116,257
145,400	-4,318	235,511	116,279
146,414	-4,560	235,327	115,983
147,429	-4,726	235,149	115,752
148,443	-4,626	234,934	115,716
149,458	-4,571	234,728	115,649
150,473	-4,553	234,663	115,620
151,487	-4,643	234,361	115,389
152,502	-4,627	234,401	115,411
153,516	-4,447	234,161	115,427
154,531	-4,570	233,930	115,205
155,546	-4,549	233,840	115,166
156,560	-4,563	233,703	115,078
157,575	-4,709	233,310	114,758
158,589	-4,652	233,120	114,699
159,604	-4,547	233,104	114,765
160,619	-4,376	232,873	114,776
161,633	-4,322	232,763	114,755
162,648	-4,559	232,758	114,554
163,662	-4,661	232,600	114,385
164,677	-4,636	232,215	114,206
165,692	-4,277	232,108	114,427
166,706	-4,677	232,196	114,144
167,721	-4,383	232,010	114,274
168,735	-4,404	231,848	114,168
169,750	-4,232	231,595	114,169
170,764	-4,632	231,693	113,891
171,779	-4,490	231,542	113,919
172,794	-4,534	231,035	113,625
173,808	-4,586	230,828	113,472
174,823	-5,102	230,632	112,961
175,837	-5,184	230,431	112,788
176,852	-4,842	230,314	112,989
177,867	-4,568	230,323	113,197
178,881	-4,452	230,253	113,244
179,896	-4,476	230,184	113,181
180,910	-4,568	229,915	112,967
181,925	-4,487	229,856	112,991
182,940	-4,094	229,435	113,080
183,954	-4,350	229,576	112,940
184,969	-4,243	229,351	112,903
185,983	-4,455	229,296	112,700
186,998	-4,453	228,975	112,534
188,013	-4,400	228,876	112,516
189,027	-4,290	228,695	112,503
190,042	-4,257	228,475	112,410
191,056	-4,476	228,417	112,202
192,071	-4,335	228,317	112,252
193,086	-4,352	228,083	112,114
194,100	-4,279	227,925	112,083
195,115	-4,398	227,566	111,804
196,129	-5,132	227,428	111,159
197,144	-1,813	228,332	114,163
198,159	2,044	229,561	117,765
199,173	4,077	229,994	119,556
200,188	4,417	229,864	119,742
201,202	4,262	229,909	119,635
202,217	4,601	229,645	119,749
203,232	4,844	229,507	119,854
204,246	4,925	229,418	119,860
205,261	4,878	229,238	119,719
206,275	4,892	229,211	119,705
207,290	5,020	229,038	119,703
208,304	4,998	228,945	119,626
209,319	5,087	228,534	119,469
210,334	4,934	228,440	119,293
211,348	4,656	228,101	118,891
212,363	4,347	227,905	118,540
213,377	4,015	227,856	118,249
214,392	4,018	227,697	118,159
215,407	4,315	227,439	118,242
216,421	4,489	227,251	118,267
217,436	4,082	227,274	117,957
218,450	3,902	226,977	117,655
219,465	3,668	226,805	117,376
220,480	3,676	226,681	117,307
221,494	3,690	226,619	117,276
222,509	3,898	226,638	117,433
223,523	4,025	226,340	117,366
224,538	3,959	226,097	117,179
225,553	4,169	225,991	117,273
226,567	4,237	225,913	117,274
227,582	4,461	225,762	117,356
228,596	4,350	225,762	117,260
229,611	4,224	225,392	116,962
230,626	4,131	225,229	116,797
231,640	4,186	225,108	116,765
232,655	4,489	225,123	116,992
233,669	4,676	224,895	117,005
234,684	4,930	224,852	117,164
235,699	4,608	224,507	116,731
236,713	4,212	224,447	116,391
237,728	4,254	224,110	116,237
238,742	4,042	224,090	116,056
239,757	4,163	223,875	116,026
240,772	3,984	223,873	115,880
241,786	3,981	223,679	115,767
242,801	4,305	223,527	115,921
243,815	4,610	223,450	116,100
244,830	4,499	223,325	115,942
245,844	4,086	223,043	115,475
246,859	4,300	222,972	115,589
247,874	4,268	222,851	115,491
248,888	4,469	222,716	115,561
249,903	4,318	222,540	115,347
250,917	4,230	222,278	115,135
251,932	4,072	222,230	114,982
252,947	4,200	222,026	114,961
253,961	4,154	221,786	114,793
254,976	3,896	221,886	114,642
255,990	3,998	221,716	114,620
257,005	4,523	221,527	114,903
258,020	4,405	221,586	114,835
259,034	4,674	221,336	114,895
260,049	4,381	221,190	114,592
261,063	4,261	221,033	114,411
262,078	4,425	220,893	114,450
263,093	4,554	220,719	114,445
264,107	4,535	220,591	114,355
265,122	4,495	220,467	114,250
266,136	4,555	220,392	114,246
267,151	4,465	220,240	114,090
268,166	4,077	219,992	113,665
269,180	3,915	219,715	113,392
270,195	3,755	219,674	113,243
271,209	3,784	219,496	113,163
272,224	4,193	219,336	113,371
273,239	4,253	219,288	113,381
274,253	4,176	219,019	113,174
275,268	3,791	218,820	112,779
276,282	3,927	218,810	112,864
277,297	3,969	218,501	112,725
278,312	3,995	218,438	112,702
279,326	4,225	218,340	112,809
280,341	4,131	218,251	112,685
281,355	3,849	218,119	112,400
282,370	4,297	217,857	112,582
283,384	3,810	217,935	112,257
284,399	3,719	217,739	112,079
285,414	3,816	217,387	111,959
286,428	4,367	217,381	112,347
287,443	4,138	217,367	112,163
288,457	4,427	217,084	112,217
289,472	4,132	216,928	111,912
290,487	3,861	216,654	111,564
291,501	3,676	216,578	111,381
292,516	3,960	216,493	111,533
293,530	3,949	216,328	111,430
294,545	3,859	216,194	111,286
295,560	3,812	216,081	111,184
296,574	4,075	215,917	111,280
297,589	4,034	215,911	111,238
298,603	4,301	215,749	111,336
299,618	4,325	215,604	111,269
300,633	4,245	215,332	111,061
301,647	4,048	215,567	111,031
302,662	4,471	215,348	111,212
303,676	4,391	215,099	111,016
304,691	4,241	214,933	110,813
305,706	4,401	214,988	110,946
306,720	4,249	214,805	110,733
307,735	4,169	214,550	110,534
308,749	4,101	214,267	110,330
309,764	3,935	214,207	110,170
310,779	4,380	214,146	110,448
311,793	4,334	213,976	110,317
312,808	4,164	213,802	110,096
313,822	4,378	213,615	110,143
314,837	4,078	213,625	109,924
315,852	3,942	213,321	109,661
316,866	4,018	213,160	109,622
317,881	4,184	213,186	109,744
318,895	4,368	213,105	109,824
319,910	4,252	212,897	109,625
320,925	3,925	212,598	109,228
321,939	3,600	212,528	108,952
322,954	3,812	212,337	108,995
323,968	4,296	212,332	109,325
324,983	3,913	212,310	109,033
325,997	4,307	212,154	109,222
327,012	4,226	211,909	109,029
328,027	3,991	211,818	108,807
329,041	4,174	211,882	108,959
330,056	4,588	211,511	109,050
331,070	4,442	211,308	108,833
332,085	3,903	211,090	108,332
333,100	3,976	211,119	108,388
334,114	3,999	210,931	108,298
335,129	3,925	210,727	108,132
336,143	3,830	210,677	108,030
337,158	3,996	210,534	108,063
338,173	3,748	210,361	107,791
339,187	4,055	210,142	107,884
340,202	3,990	209,989	107,750
341,216	3,727	209,920	107,522
342,231	4,010	209,790	107,643
343,246	3,871	209,700	107,490
344,260	4,027	209,614	107,546
345,275	3,995	209,415	107,412
346,289	4,218	209,413	107,557
347,304	4,125	209,257	107,402
348,319	4,124	209,075	107,298
349,333	4,205	208,905	107,258
350,348	4,173	208,864	107,205
351,362	4,233	208,776	107,193
352,377	4,294	208,616	107,143
353,392	4,301	208,376	107,015
354,406	4,274	208,243	106,918
355,421	193,725	1345,297	1433,396
356,435	154,556	1483,943	1433,513
