DTS Sentinel unit serial number:	SN410029Multiplexer serial number:	ORYXHardware model number:	OX2-SRSoftware version number:	ORYX F/W v4,00 Oryx Data Collector v3.7.2.0data status	okinstallation	B6 Nyhavnadifferential loss correction	single-endedforward channel	channel 2reverse channel	N/Adate	2023/12/10time	13:40:08forward acquisition time	300,00reverse acquisition time	0,00gamma	499,1914k internal	0,3122k external	0,3122temperature offset calibration	1,0000default loss term (dB/km)	0,3820temperature slope calibration	1,0000multiplexer offset coefficient	1,0000multiplexer slope coefficient	1,0000fibre end	0,00T internal ref (°C)	22,75T ext. ref 1 (°C)	6,30T ext. ref 2 (°C)	6,32length (m)	temperature (°C)	Stokes	anti-Stokes-744,400	800,000	0,025	-0,052
-743,385	26,806	-0,181	0,113
-742,371	33,313	-0,024	-0,016
-741,356	-45,355	-0,170	0,063
-740,342	-149,468	0,140	0,008
-739,327	-9,617	-0,142	-0,070
-738,312	800,000	0,053	-0,143
-737,298	12,144	-0,103	0,059
-736,283	-200,000	-0,019	-0,083
-735,269	111,344	-0,160	0,144
-734,254	-200,000	0,003	-0,079
-733,239	-99,701	-0,426	0,079
-732,225	48,041	-0,075	-0,052
-731,210	800,000	-0,020	0,052
-730,196	800,000	-0,013	-0,030
-729,181	424,134	-0,029	0,046
-728,167	175,979	-0,060	-0,064
-727,152	-57,688	0,052	0,017
-726,137	388,614	-0,038	-0,058
-725,123	-200,000	0,010	-0,101
-724,108	602,838	-0,076	-0,142
-723,094	615,356	-0,045	-0,085
-722,079	39,751	0,129	-0,086
-721,064	56,771	-0,086	0,063
-720,050	124,861	0,129	-0,121
-719,035	-115,351	-0,263	-0,037
-718,021	-200,000	-0,003	0,037
-717,006	77,602	0,014	-0,011
-715,991	87,972	-0,104	-0,085
-714,977	-200,000	-0,032	-0,166
-713,962	-200,000	-0,036	-0,127
-712,948	-200,000	0,000	-0,018
-711,933	116,647	-0,126	-0,115
-710,918	170,574	-0,073	-0,078
-709,904	-200,000	0,005	-0,083
-708,889	-94,117	-0,096	-0,019
-707,875	-17,875	-0,173	-0,081
-706,860	696,082	-0,052	0,102
-705,845	73,387	0,130	0,101
-704,831	800,000	-0,008	0,021
-703,816	-69,679	-0,144	0,041
-702,802	-200,000	0,016	-0,091
-701,787	-152,860	-0,141	-0,007
-700,772	-18,998	-0,087	-0,040
-699,758	800,000	0,037	0,112
-698,743	249,063	-0,033	0,042
-697,729	377,598	0,055	-0,084
-696,714	197,203	0,043	0,049
-695,699	-200,000	0,015	0,196
-694,685	800,000	0,016	-0,041
-693,670	-31,046	0,043	-0,018
-692,656	800,000	-0,022	0,045
-691,641	-131,800	0,129	-0,012
-690,627	46,271	-0,082	0,056
-689,612	-90,774	0,133	0,028
-688,597	-200,000	0,008	0,029
-687,583	131,264	-0,153	-0,147
-686,568	800,000	-0,066	-0,165
-685,554	-200,000	0,019	-0,098
-684,539	128,436	0,049	-0,046
-683,524	-56,975	-0,113	0,037
-682,510	800,000	0,098	0,219
-681,495	431,985	-0,097	-0,156
-680,481	-54,493	-0,113	-0,038
-679,466	-128,419	0,074	-0,008
-678,451	-200,000	-0,063	-0,217
-677,437	-200,000	-0,020	0,124
-676,422	-107,189	0,092	0,015
-675,408	575,181	0,043	-0,078
-674,393	69,641	-0,074	-0,056
-673,378	-167,298	0,042	0,001
-672,364	218,080	0,027	-0,032
-671,349	93,475	0,127	-0,107
-670,335	-200,000	0,000	-0,058
-669,320	-67,668	-0,025	-0,007
-668,305	-83,149	0,133	-0,032
-667,291	67,797	-0,203	0,154
-666,276	180,208	-0,079	0,086
-665,262	-200,000	0,028	-0,165
-664,247	56,023	0,061	-0,044
-663,232	240,620	0,104	-0,129
-662,218	-90,828	0,208	0,044
-661,203	-159,853	0,079	0,003
-660,189	309,767	0,034	-0,047
-659,174	613,268	-0,013	0,024
-658,159	94,899	0,030	-0,026
-657,145	-200,000	-0,034	-0,142
-656,130	-200,000	0,000	-0,124
-655,116	179,097	-0,048	0,052
-654,101	160,673	0,046	-0,048
-653,086	-148,004	-0,089	0,005
-652,072	-157,870	-0,114	-0,005
-651,057	-78,082	-0,075	-0,019
-650,043	-29,285	-0,043	-0,018
-649,028	92,492	-0,007	0,006
-648,014	-200,000	0,012	0,063
-646,999	-9,289	0,146	-0,072
-645,984	800,000	0,017	0,053
-644,970	800,000	0,038	0,092
-643,955	-107,596	-0,053	-0,008
-642,941	800,000	0,043	-0,097
-641,926	-200,000	0,001	-0,067
-640,911	349,143	0,069	0,102
-639,897	-22,082	0,017	0,008
-638,882	264,697	-0,035	0,045
-637,868	800,000	0,043	0,097
-636,853	-91,389	-0,138	-0,029
-635,838	6,537	-0,037	-0,020
-634,824	166,426	-0,036	-0,038
-633,809	-200,000	0,006	0,072
-632,795	97,111	0,087	0,074
-631,780	93,941	-0,094	0,079
-630,765	96,308	-0,014	-0,012
-629,751	38,726	-0,043	0,028
-628,736	-200,000	-0,006	0,040
-627,722	800,000	-0,051	-0,125
-626,707	-200,000	0,020	-0,094
-625,692	290,902	0,015	0,021
-624,678	800,000	0,019	-0,054
-623,663	271,906	0,059	-0,078
-622,649	235,597	-0,093	-0,114
-621,634	-104,230	-0,108	0,018
-620,619	-76,326	-0,094	-0,024
-619,605	-200,000	-0,020	0,101
-618,590	57,789	0,013	-0,009
-617,576	-47,067	0,088	-0,032
-616,561	254,708	0,035	-0,044
-615,546	-200,000	0,008	-0,066
-614,532	-22,370	0,059	-0,027
-613,517	84,256	-0,021	-0,017
-612,503	-200,000	-0,013	0,067
-611,488	34,498	0,083	0,053
-610,474	188,067	0,032	0,035
-609,459	229,781	-0,099	0,120
-608,444	-200,000	0,016	0,164
-607,430	-50,073	-0,098	-0,034
-606,415	-200,000	-0,017	0,101
-605,401	30,917	0,023	-0,015
-604,386	800,000	0,020	0,045
-603,371	-71,286	0,033	0,009
-602,357	800,000	0,026	0,066
-601,342	11,634	0,079	-0,045
-600,328	-200,000	0,007	-0,187
-599,313	800,000	-0,010	0,024
-598,298	29,790	-0,048	-0,030
-597,284	345,866	-0,069	0,101
-596,269	-200,000	-0,010	0,122
-595,255	9,033	0,029	-0,016
-594,240	-86,142	0,065	0,015
-593,225	47,150	-0,092	0,063
-592,211	-2,569	-0,133	0,069
-591,196	458,031	0,055	0,091
-590,182	-200,000	0,026	0,108
-589,167	-66,592	0,083	-0,024
-588,152	213,778	-0,130	0,153
-587,138	-10,888	-0,069	-0,034
-586,123	-119,290	-0,107	0,014
-585,109	584,934	0,013	0,024
-584,094	144,189	-0,095	-0,094
-583,079	204,532	-0,079	-0,091
-582,065	-200,000	-0,007	0,082
-581,050	91,441	0,080	0,066
-580,036	-32,923	-0,121	-0,050
-579,021	-69,751	0,052	0,015
-578,006	-142,012	-0,095	-0,007
-576,992	-82,143	0,023	-0,006
-575,977	187,111	-0,063	-0,070
-574,963	800,000	0,019	-0,045
-573,948	800,000	0,018	0,058
-572,934	119,569	-0,167	0,153
-571,919	-200,000	-0,026	0,251
-570,904	800,000	-0,057	-0,176
-569,890	-200,000	-0,004	-0,089
-568,875	154,228	-0,044	-0,044
-567,861	-200,000	0,016	0,076
-566,846	-12,575	0,091	0,044
-565,831	252,687	-0,075	-0,095
-564,817	200,503	0,009	-0,010
-563,802	162,419	-0,073	-0,076
-562,788	800,000	0,013	-0,030
-561,773	-102,490	0,074	-0,013
-560,758	107,038	-0,095	0,084
-559,744	-200,000	-0,007	0,058
-558,729	-59,593	-0,051	-0,016
-557,715	-200,000	-0,045	0,152
-556,700	-89,257	-0,078	-0,017
-555,685	-133,830	-0,063	-0,006
-554,671	188,547	0,033	-0,037
-553,656	-49,349	0,101	-0,035
-552,642	800,000	0,041	0,092
-551,627	-25,234	0,021	0,009
-550,612	-13,201	-0,091	-0,044
-549,598	739,064	-0,057	-0,114
-548,583	-200,000	0,009	-0,119
-547,569	-173,065	-0,066	-0,001
-546,554	169,945	-0,022	-0,023
-545,539	-117,294	0,095	0,013
-544,525	-143,789	-0,107	0,007
-543,510	533,068	0,069	0,122
-542,496	93,881	-0,060	0,050
-541,481	-4,821	-0,035	-0,018
-540,466	10,715	-0,065	0,036
-539,452	-72,202	-0,077	0,021
-538,437	-121,245	-0,066	-0,008
-537,423	-86,263	0,139	0,031
-536,408	-200,000	-0,006	-0,122
-535,393	-200,000	-0,007	-0,139
-534,379	231,448	0,057	-0,069
-533,364	-200,000	-0,009	-0,149
-532,350	-19,863	-0,082	0,037
-531,335	800,000	0,024	-0,067
-530,321	320,289	0,044	-0,062
-529,306	-200,000	-0,010	-0,077
-528,291	-61,964	-0,133	-0,041
-527,277	-7,954	-0,012	-0,006
-526,262	-200,000	0,045	-0,153
-525,248	-53,641	0,115	-0,039
-524,233	-61,905	-0,063	-0,020
-523,218	-200,000	0,015	0,152
-522,204	-200,000	0,019	0,115
-521,189	-200,000	-0,003	-0,018
-520,175	48,008	-0,061	-0,042
-519,160	-200,000	-0,012	-0,085
-518,145	50,756	0,174	-0,121
-517,131	-35,450	0,078	-0,031
-516,116	-83,396	0,028	0,007
-515,102	-115,043	-0,038	0,005
-514,087	-200,000	-0,019	-0,076
-513,072	229,238	-0,084	-0,101
-512,058	-200,000	-0,023	-0,128
-511,043	-145,889	0,056	0,004
-510,029	-13,422	-0,039	-0,019
-509,014	-200,000	-0,015	-0,060
-507,999	-133,620	0,089	0,008
-506,985	-135,364	0,131	0,011
-505,970	582,673	0,034	-0,061
-504,956	-200,000	-0,007	-0,118
-503,941	-89,809	0,072	0,015
-502,926	80,788	0,066	0,053
-501,912	-136,549	0,244	-0,021
-500,897	74,704	0,076	0,059
-499,883	800,000	-0,040	0,102
-498,868	-40,443	-0,170	-0,065
-497,853	90,323	-0,054	0,044
-496,839	323,412	-0,020	-0,028
-495,824	1,274	0,025	0,013
-494,810	139,933	0,018	-0,017
-493,795	-177,033	-0,062	0,001
-492,781	-21,212	0,088	-0,040
-491,766	-9,522	-0,068	-0,033
-490,751	507,641	-0,038	-0,065
-489,737	194,574	0,077	-0,086
-488,722	-200,000	0,013	-0,129
-487,708	13,532	0,154	0,088
-486,693	-200,000	0,025	0,093
-485,678	93,859	0,101	-0,084
-484,664	800,000	-0,025	-0,062
-483,649	37,185	-0,021	0,014
-482,635	-101,841	-0,056	0,010
-481,620	-91,354	-0,078	0,016
-480,605	-70,688	0,196	0,054
-479,591	-76,820	-0,041	-0,011
-478,576	800,000	0,077	0,158
-477,562	-120,763	-0,083	0,010
-476,547	-20,256	0,159	0,072
-475,532	800,000	-0,055	-0,173
-474,518	-134,165	-0,014	0,001
-473,503	382,590	0,066	-0,100
-472,489	-35,949	0,116	0,046
-471,474	-50,554	-0,070	0,024
-470,459	-200,000	-0,027	-0,118
-469,445	-31,313	-0,086	0,036
-468,430	-21,991	-0,101	-0,045
-467,416	243,052	-0,019	-0,024
-466,401	-147,725	-0,095	0,006
-465,386	-39,534	-0,060	0,023
-464,372	-200,000	0,001	-0,006
-463,357	-142,673	0,051	-0,004
-462,343	16,207	0,100	0,058
-461,328	-200,000	-0,028	0,106
-460,313	-200,000	-0,004	-0,030
-459,299	-171,162	-0,065	-0,002
-458,284	366,255	0,085	-0,127
-457,270	370,813	-0,074	0,111
-456,255	800,000	-0,020	-0,046
-455,241	78,176	-0,063	-0,049
-454,226	-200,000	-0,019	-0,145
-453,211	-120,390	0,107	0,013
-452,197	-69,044	-0,146	-0,041
-451,182	-86,811	-0,049	-0,011
-450,168	-200,000	-0,001	-0,075
-449,153	-200,000	0,023	0,084
-448,138	45,767	0,066	-0,045
-447,124	97,804	-0,070	0,060
-446,109	800,000	-0,003	-0,006
-445,095	-57,955	-0,079	0,025
-444,080	-29,543	-0,113	0,047
-443,065	-21,459	-0,070	-0,031
-442,051	-200,000	0,002	0,038
-441,036	121,763	0,058	-0,054
-440,022	-200,000	0,048	-0,168
-439,007	-142,130	0,050	-0,004
-437,992	-85,496	0,061	0,014
-436,978	456,061	-0,085	0,140
-435,963	-86,387	0,016	-0,004
-434,949	-36,301	-0,085	-0,034
-433,934	53,397	-0,030	-0,021
-432,919	103,098	0,108	0,093
-431,905	-200,000	0,003	-0,067
-430,890	-200,000	-0,014	-0,063
-429,876	210,768	-0,037	-0,043
-428,861	-200,000	-0,000	0,127
-427,846	172,084	0,104	0,110
-426,832	-119,073	0,060	-0,008
-425,817	-4,229	-0,182	-0,093
-424,803	19,331	0,034	-0,020
-423,788	-113,782	0,047	-0,007
-422,773	330,870	0,090	0,128
-421,759	229,898	-0,066	-0,080
-420,744	416,683	-0,054	0,085
-419,730	367,573	0,029	-0,043
-418,715	-53,229	0,078	-0,026
-417,701	-200,000	-0,027	-0,116
-416,686	-30,003	0,095	0,040
-415,671	209,829	0,036	0,042
-414,657	633,193	0,029	0,055
-413,642	800,000	0,017	-0,035
-412,628	800,000	-0,059	-0,183
-411,613	485,904	0,007	0,011
-410,598	236,720	0,100	-0,122
-409,584	-200,000	0,020	0,180
-408,569	-25,565	-0,043	0,019
-407,555	-135,011	0,108	0,009
-406,540	42,556	-0,073	0,049
-405,525	84,027	-0,070	-0,056
-404,511	-100,374	0,018	0,003
-403,496	-200,000	0,051	0,227
-402,482	-55,624	-0,088	0,029
-401,467	18,691	-0,052	-0,031
-400,452	-200,000	0,013	0,106
-399,438	-200,000	0,006	0,037
-398,423	-1,313	0,018	-0,009
-397,409	-103,938	0,113	0,019
-396,394	89,442	-0,100	0,082
-395,379	800,000	-0,026	-0,066
-394,365	251,105	0,116	-0,145
-393,350	-166,343	0,069	0,002
-392,336	13,612	0,051	0,029
-391,321	-200,000	-0,008	0,035
-390,306	-200,000	-0,006	0,072
-389,292	-162,678	-0,065	0,002
-388,277	-200,000	-0,004	0,027
-387,263	-34,231	0,123	-0,049
-386,248	216,510	-0,050	0,059
-385,233	-200,000	-0,001	-0,033
-384,219	-200,000	-0,011	-0,070
-383,204	-200,000	0,019	0,073
-382,190	-63,443	0,079	0,024
-381,175	-34,397	-0,099	-0,040
-380,160	322,295	0,031	0,044
-379,146	-200,000	-0,020	0,101
-378,131	-200,000	0,025	-0,084
-377,117	-200,000	0,027	0,090
-376,102	800,000	0,021	0,048
-375,088	800,000	0,024	-0,059
-374,073	-129,513	-0,032	0,003
-373,058	-69,873	-0,032	0,009
-372,044	130,935	0,055	-0,052
-371,029	-200,000	0,000	0,075
-370,015	94,563	0,089	-0,074
-369,000	20,360	0,035	-0,021
-367,985	-103,988	-0,102	-0,017
-366,971	-85,473	-0,099	-0,022
-365,956	-97,568	0,073	-0,014
-364,942	-93,284	-0,084	0,017
-363,927	-200,000	0,025	-0,116
-362,912	-200,000	-0,012	-0,051
-361,898	662,021	0,072	-0,136
-360,883	28,293	0,036	-0,022
-359,869	51,381	0,135	-0,094
-358,854	-109,641	-0,059	0,009
-357,839	-82,069	0,097	0,023
-356,825	262,987	0,038	-0,049
-355,810	-200,000	-0,003	-0,068
-354,796	-200,000	0,016	-0,103
-353,781	-200,000	-0,029	0,100
-352,766	466,029	0,030	-0,050
-351,752	402,231	-0,037	-0,057
-350,737	290,623	0,061	0,082
-349,723	172,266	-0,074	-0,078
-348,708	-76,149	0,081	-0,021
-347,693	-184,457	0,124	0,001
-346,679	234,592	-0,097	0,117
-345,664	332,105	-0,068	0,096
-344,650	24,730	-0,108	-0,066
-343,635	-9,439	0,064	-0,031
-342,620	-200,000	0,029	0,093
-341,606	-42,001	0,063	-0,023
-340,591	403,493	-0,070	-0,108
-339,577	-47,936	-0,062	-0,022
-338,562	443,087	0,041	0,066
-337,548	102,597	0,114	-0,098
-336,533	48,831	0,176	-0,121
-335,518	-200,000	0,007	-0,035
-334,504	-36,527	0,044	0,017
-333,489	-200,000	-0,017	0,153
-332,475	665,139	-0,031	-0,058
-331,460	47,126	-0,125	-0,085
-330,445	-52,965	0,062	0,021
-329,431	-200,000	0,004	0,083
-328,416	800,000	0,015	0,044
-327,402	-77,499	0,075	-0,019
-326,387	800,000	0,046	0,102
-325,372	-36,914	-0,070	0,027
-324,358	-95,475	-0,016	-0,003
-323,343	-31,723	0,151	-0,062
-322,329	-146,173	0,171	0,011
-321,314	-200,000	-0,011	-0,073
-320,299	-200,000	-0,000	-0,037
-319,285	34,374	-0,042	-0,027
-318,270	121,568	0,027	-0,024
-317,256	360,892	-0,112	-0,165
-316,241	-49,382	-0,045	-0,016
-315,226	-53,279	0,068	0,023
-314,212	285,209	-0,056	0,074
-313,197	171,605	0,077	0,081
-312,183	800,000	-0,038	0,092
-311,168	-200,000	-0,004	-0,061
-310,153	-200,000	-0,014	-0,112
-309,139	-97,544	-0,062	-0,012
-308,124	-87,937	0,069	0,015
-307,110	24,564	0,018	0,011
-306,095	-91,503	0,079	0,016
-305,080	-200,000	0,003	0,081
-304,066	87,014	0,020	-0,016
-303,051	5,318	-0,048	-0,026
-302,037	-90,185	-0,173	0,037
-301,022	147,780	0,044	-0,043
-300,008	-200,000	0,013	0,078
-298,993	375,710	-0,028	0,043
-297,978	-109,089	0,085	0,013
-296,964	151,224	-0,109	-0,109
-295,949	-92,703	-0,053	0,011
-294,935	9,406	0,106	0,058
-293,920	18,975	0,055	0,032
-292,905	-126,527	0,127	0,014
-291,891	-43,928	0,061	0,022
-290,876	-200,000	-0,020	0,161
-289,862	-200,000	0,001	0,049
-288,847	-62,600	0,110	-0,033
-287,832	241,714	-0,095	-0,117
-286,818	362,226	0,062	-0,091
-285,803	-200,000	0,005	0,044
-284,789	-81,757	0,048	-0,011
-283,774	105,353	0,020	-0,017
-282,759	510,420	0,048	0,082
-281,745	-4,343	-0,093	-0,047
-280,730	7,350	-0,094	-0,051
-279,716	-58,407	-0,135	-0,043
-278,701	116,632	0,027	-0,024
-277,686	-52,490	0,055	0,019
-276,672	-127,201	0,122	-0,013
-275,657	-117,674	0,044	0,006
-274,643	330,989	-0,029	0,041
-273,628	222,839	-0,064	-0,076
-272,613	43,924	0,066	-0,044
-271,599	-200,000	-0,007	-0,024
-270,584	134,006	0,069	0,065
-269,570	613,987	-0,075	0,137
-268,555	-200,000	-0,024	0,125
-267,540	-20,204	-0,079	0,035
-266,526	5,523	-0,111	0,060
-265,511	800,000	0,012	-0,037
-264,497	615,846	0,078	-0,144
-263,482	-142,685	0,065	0,005
-262,467	93,559	-0,033	0,027
-261,453	504,438	-0,042	-0,071
-260,438	505,202	-0,069	-0,117
-259,424	-200,000	0,001	0,066
-258,409	-200,000	-0,001	0,027
-257,395	225,155	0,029	0,034
-256,380	532,473	0,058	0,101
-255,365	17,756	0,097	0,056
-254,351	-67,719	-0,100	0,028
-253,336	-63,723	-0,111	0,033
-252,322	46,413	0,084	0,057
-251,307	-49,719	-0,078	0,027
-250,292	571,640	0,046	-0,082
-249,278	502,355	0,063	0,107
-248,263	208,989	0,088	0,101
-247,249	98,670	-0,019	0,016
-246,234	43,080	-0,133	0,088
-245,219	-99,369	0,069	0,013
-244,205	-200,000	-0,025	0,088
-243,190	-14,162	0,044	0,020
-242,176	-36,807	0,187	0,073
-241,161	-200,000	-0,049	0,164
-240,146	-109,199	0,040	-0,006
-239,132	133,261	-0,041	0,039
-238,117	-200,000	-0,032	-0,133
-237,103	-69,072	0,102	-0,028
-236,088	215,445	-0,029	-0,034
-235,073	46,090	-0,012	-0,008
-234,059	-200,000	-0,009	0,119
-233,044	453,664	0,073	0,119
-232,030	-13,825	-0,059	0,028
-231,015	800,000	-0,034	-0,108
-230,000	-74,983	-0,095	-0,025
-228,986	-175,215	-0,086	-0,002
-227,971	-200,000	-0,030	0,148
-226,957	181,225	0,083	0,090
-225,942	413,044	-0,037	-0,057
-224,927	252,677	0,019	-0,024
-223,913	4,188	0,023	-0,012
-222,898	-200,000	0,004	0,060
-221,884	-76,009	0,073	0,019
-220,869	-63,154	-0,072	0,022
-219,855	-200,000	-0,003	0,082
-218,840	61,840	-0,018	-0,013
-217,825	180,944	-0,094	-0,101
-216,811	-200,000	-0,014	-0,128
-215,796	-65,992	-0,075	-0,022
-214,782	-200,000	0,013	-0,065
-213,767	748,088	0,088	-0,174
-212,752	-200,000	-0,010	-0,055
-211,738	-149,996	-0,076	0,004
-210,723	416,750	-0,018	-0,028
-209,709	-103,923	-0,066	-0,011
-208,694	-166,936	-0,053	0,002
-207,679	433,303	0,043	-0,069
-206,665	93,073	-0,153	0,126
-205,650	-119,801	0,196	-0,024
-204,636	32,746	0,056	-0,036
-203,621	-48,991	0,058	0,020
-202,606	-200,000	-0,007	0,034
-201,592	-200,000	-0,014	0,131
-200,577	222,934	0,031	0,037
-199,563	266,773	-0,056	0,072
-198,548	608,263	0,056	-0,102
-197,533	499,712	0,049	0,083
-196,519	24,759	-0,055	-0,033
-195,504	127,506	0,013	0,012
-194,490	-200,000	-0,021	-0,089
-193,475	-200,000	-0,026	0,141
-192,460	420,681	0,087	0,137
-191,446	-200,000	-0,036	0,148
-190,431	-200,000	0,001	-0,012
-189,417	419,239	0,032	0,051
-188,402	41,926	-0,079	-0,052
-187,387	539,214	-0,068	0,119
-186,373	-113,863	-0,125	0,018
-185,358	-200,000	-0,017	-0,091
-184,344	461,317	-0,036	0,059
-183,329	-200,000	-0,004	0,087
-182,315	-152,609	-0,085	0,004
-181,300	-73,749	-0,065	-0,017
-180,285	-21,952	-0,105	-0,046
-179,271	-200,000	-0,001	-0,084
-178,256	37,848	-0,071	0,046
-177,242	306,757	0,112	-0,152
-176,227	-138,792	0,113	0,009
-175,212	-95,327	-0,115	-0,022
-174,198	800,000	0,021	0,045
-173,183	148,897	0,063	0,062
-172,169	-200,000	0,006	0,043
-171,154	-200,000	0,002	-0,066
-170,139	-200,000	0,014	-0,075
-169,125	-200,000	-0,033	0,150
-168,110	389,676	-0,065	-0,099
-167,096	406,139	0,044	-0,068
-166,081	-200,000	0,009	-0,102
-165,066	800,000	-0,064	-0,201
-164,052	374,429	0,050	0,075
-163,037	106,653	-0,085	0,073
-162,023	-175,157	0,182	0,004
-161,008	206,750	0,014	0,016
-159,993	231,717	0,112	0,134
-158,979	316,074	-0,077	-0,107
-157,964	6,253	-0,038	0,021
-156,950	-200,000	-0,007	-0,093
-155,935	800,000	0,014	-0,033
-154,920	96,564	0,066	0,055
-153,906	800,000	0,021	-0,055
-152,891	-200,000	0,009	0,060
-151,877	47,663	0,042	0,028
-150,862	180,340	-0,043	-0,046
-149,847	800,000	-0,018	0,049
-148,833	800,000	0,065	-0,139
-147,818	-94,475	0,307	0,060
-146,804	-200,000	0,008	0,032
-145,789	-24,087	0,077	0,034
-144,775	337,876	-0,070	-0,100
-143,760	166,550	-0,009	-0,009
-142,745	-52,228	-0,157	0,053
-141,731	-35,216	0,058	-0,023
-140,716	-154,719	0,120	-0,006
-139,702	-200,000	-0,020	-0,070
-138,687	176,695	-0,025	-0,026
-137,672	-200,000	-0,001	0,032
-136,658	211,943	-0,077	-0,088
-135,643	-200,000	-0,010	-0,034
-134,629	160,468	-0,049	0,050
-133,614	-115,185	0,148	-0,020
-132,599	-200,000	0,037	0,168
-131,585	104,874	0,015	-0,013
-130,570	477,779	0,048	-0,079
-129,556	717,326	0,032	-0,062
-128,541	344,633	-0,055	-0,079
-127,526	27,745	-0,132	0,081
-126,512	-140,214	0,070	-0,005
-125,497	-200,000	0,003	0,025
-124,483	181,635	0,064	0,069
-123,468	-100,426	0,029	0,005
-122,453	-11,533	0,074	-0,035
-121,439	749,474	-0,069	0,136
-120,424	-5,164	0,066	0,033
-119,410	-200,000	0,013	-0,101
-118,395	-118,712	-0,060	-0,008
-117,380	383,814	0,069	-0,104
-116,366	-94,402	-0,146	0,029
-115,351	74,149	-0,107	0,082
-114,337	536,205	-0,031	-0,054
-113,322	-81,916	0,050	0,012
-112,307	250,652	0,049	-0,061
-111,293	800,000	0,024	-0,063
-110,278	-200,000	0,010	-0,056
-109,264	-200,000	0,016	0,061
-108,249	-11,628	-0,133	-0,063
-107,234	298,080	-0,025	0,033
-106,220	-200,000	-0,004	0,035
-105,205	-58,952	-0,067	0,021
-104,191	173,453	-0,094	0,099
-103,176	32,043	-0,124	-0,077
-102,162	-172,423	0,136	0,003
-101,147	75,116	0,083	0,063
-100,132	128,910	-0,050	0,046
-99,118	69,876	-0,043	-0,032
-98,103	-200,000	0,001	-0,022
-97,089	-31,685	0,054	-0,022
-96,074	800,000	0,043	0,110
-95,059	-200,000	-0,016	-0,053
-94,045	-90,425	-0,063	-0,013
-93,030	46,419	-0,117	0,079
-92,016	-106,808	-0,201	0,032
-91,001	374,574	0,085	-0,126
-89,986	108,394	0,058	-0,051
-88,972	-127,026	-0,093	0,010
-87,957	-107,116	0,287	0,046
-86,943	199,716	-0,003	0,003
-85,928	188,268	-0,132	-0,143
-84,913	-111,145	0,038	-0,006
-83,899	-200,000	0,034	-0,150
-82,884	-70,800	0,063	-0,017
-81,870	390,274	0,019	0,028
-80,855	210,653	-0,069	0,079
-79,840	-17,082	0,006	0,003
-78,826	482,618	-0,043	0,071
-77,811	-200,000	0,007	-0,030
-76,797	449,848	0,063	0,102
-75,782	-200,000	-0,001	-0,044
-74,767	-108,870	0,032	0,005
-73,753	-50,380	0,035	-0,012
-72,738	-200,000	-0,010	0,066
-71,724	-54,915	-0,107	-0,035
-70,709	-200,000	0,010	-0,167
-69,694	-42,545	-0,050	-0,018
-68,680	-143,358	0,023	0,002
-67,665	0,429	0,090	0,047
-66,651	-152,562	0,022	0,001
-65,636	-45,078	-0,060	-0,021
-64,622	479,921	-0,088	-0,146
-63,607	533,483	0,018	-0,031
-62,592	-31,170	-0,004	0,002
-61,578	9,959	-0,110	0,060
-60,563	-140,099	0,050	-0,004
-59,549	-106,659	-0,035	-0,006
-58,534	-160,190	-1,180	-0,046
-57,519	591,913	-0,792	-1,426
-56,505	-200,000	-0,864	-4,365
-55,490	-2,551	0,606	-0,307
-54,476	800,000	4,838	11,879
-53,461	-200,000	13,231	253,150
-52,446	-200,000	688,432	2274,306
-51,432	599,398	1623,127	2935,260
-50,417	121,173	1637,272	1479,340
-49,403	73,580	1291,078	980,430
-48,388	38,512	1025,831	662,472
-47,373	24,645	983,351	589,377
-46,359	23,889	973,067	580,707
-45,344	22,959	968,881	575,142
-44,330	22,947	967,264	574,118
-43,315	22,829	965,906	572,905
-42,300	22,734	965,059	572,070
-41,286	22,747	964,014	571,469
-40,271	22,772	963,004	570,931
-39,257	22,731	962,067	570,218
-38,242	22,757	961,045	569,675
-37,227	22,722	960,288	569,091
-36,213	22,723	959,388	568,539
-35,198	22,744	958,432	568,017
-34,184	22,784	958,051	567,898
-33,169	22,804	956,932	567,276
-32,154	22,841	956,061	566,857
-31,140	22,810	955,044	566,131
-30,125	22,795	954,468	565,721
-29,111	22,751	953,685	565,091
-28,096	22,826	952,828	564,801
-27,082	22,777	952,211	564,256
-26,067	22,800	951,327	563,783
-25,052	22,783	950,751	563,366
-24,038	22,797	950,173	563,046
-23,023	22,766	949,576	562,569
-22,009	22,831	948,882	562,345
-20,994	22,891	947,868	561,915
-19,979	22,856	947,451	561,534
-18,965	22,752	946,968	560,891
-17,950	22,789	946,248	560,561
-16,936	22,791	945,437	560,066
-15,921	22,732	944,940	559,561
-14,906	22,666	944,349	558,976
-13,892	22,623	943,812	558,501
-12,877	22,681	942,820	558,077
-11,863	22,610	942,277	557,505
-10,848	22,668	941,605	557,272
-9,833	22,739	941,429	557,370
-8,819	22,721	940,650	556,829
-7,804	22,706	940,128	556,450
-6,790	22,681	939,418	555,930
-5,775	22,721	938,902	555,729
-4,760	22,734	938,324	555,406
-3,746	22,646	937,712	554,744
-2,731	22,518	936,905	553,839
-1,717	22,552	936,145	553,475
-0,702	22,506	935,658	553,019
0,313	22,333	934,782	552,789
1,327	25,416	932,874	561,320
2,342	35,189	797,510	505,942
3,356	33,352	452,097	284,017
4,371	2,049	293,604	153,243
5,386	-2,392	274,501	139,060
6,400	-4,136	268,506	134,394
7,415	-4,740	266,337	132,741
8,429	-4,180	265,108	132,630
9,444	-4,315	264,326	132,103
10,459	-4,240	263,766	131,880
11,473	-4,243	263,026	131,495
12,488	-4,418	262,414	131,019
13,502	-4,410	261,911	130,764
14,517	-4,167	261,400	130,716
15,531	-4,380	261,164	130,395
16,546	-4,333	260,937	130,313
17,561	-4,309	260,474	130,090
18,575	-4,287	260,162	129,943
19,590	-4,286	259,767	129,735
20,604	-4,190	259,496	129,674
21,619	-4,225	259,104	129,435
22,634	-4,305	258,806	129,204
23,648	-4,506	258,617	128,919
24,663	-4,386	258,300	128,856
25,677	-4,119	257,991	128,928
26,692	-4,325	257,899	128,688
27,707	-4,586	257,702	128,345
28,721	-4,431	257,343	128,293
29,736	-4,430	257,035	128,128
30,750	-4,482	256,808	127,958
31,765	-4,351	256,676	127,997
32,780	-4,483	256,353	127,708
33,794	-4,259	256,131	127,783
34,809	-4,458	255,886	127,474
35,823	-4,469	255,737	127,379
36,838	-4,486	255,479	127,224
37,853	-4,556	255,180	127,002
38,867	-4,427	255,031	127,030
39,882	-4,408	254,601	126,821
40,896	-4,417	254,550	126,777
41,911	-4,375	254,198	126,627
42,926	-4,514	254,105	126,448
43,940	-4,472	253,785	126,313
44,955	-4,555	253,613	126,145
45,969	-4,661	253,327	125,899
46,984	-4,760	253,109	125,693
47,999	-4,896	252,829	125,424
49,013	-4,988	252,551	125,195
50,028	-5,112	252,237	124,921
51,042	-5,230	252,130	124,754
52,057	-5,394	251,880	124,477
53,071	-5,186	251,697	124,556
54,086	-5,196	251,702	124,539
55,101	-4,960	251,318	124,541
56,115	-4,933	251,399	124,594
57,130	-4,368	251,111	124,927
58,144	-4,234	250,996	124,975
59,159	-4,094	250,694	124,934
60,174	-4,060	250,525	124,868
61,188	-4,373	250,350	124,501
62,203	-4,207	250,149	124,532
63,217	-4,357	249,982	124,309
64,232	-4,520	249,909	124,122
65,247	-4,249	249,450	124,115
66,261	-4,360	249,379	123,973
67,276	-4,467	249,141	123,752
68,290	-4,578	248,731	123,443
69,305	-4,713	248,474	123,189
70,320	-4,856	248,517	123,078
71,334	-4,503	248,227	123,224
72,349	-4,225	248,164	123,418
73,363	-4,028	247,986	123,486
74,378	-4,070	247,767	123,330
75,393	-4,350	247,577	122,988
76,407	-4,358	247,445	122,904
77,422	-4,438	247,149	122,678
78,436	-4,284	247,072	122,760
79,451	-4,258	246,683	122,577
80,466	-4,400	246,486	122,348
81,480	-4,556	246,309	122,118
82,495	-4,654	246,129	121,935
83,509	-4,363	245,854	122,034
84,524	-4,570	245,771	121,806
85,539	-4,707	245,433	121,513
86,553	-4,729	245,177	121,356
87,568	-4,539	245,055	121,445
88,582	-4,585	244,859	121,299
89,597	-4,504	244,749	121,301
90,611	-4,580	244,624	121,164
91,626	-4,320	244,370	121,246
92,641	-4,336	244,383	121,228
93,655	-4,273	243,979	121,070
94,670	-4,376	243,868	120,918
95,684	-4,554	243,808	120,729
96,699	-4,548	243,648	120,643
97,714	-4,460	243,347	120,557
98,728	-4,544	243,117	120,363
99,743	-4,748	242,859	120,054
100,757	-4,918	242,689	119,818
101,772	-4,851	242,608	119,823
102,787	-4,655	242,395	119,870
103,801	-4,507	242,144	119,858
104,816	-4,462	242,152	119,888
105,830	-4,530	242,120	119,805
106,845	-4,158	241,748	119,918
107,860	-4,432	241,570	119,594
108,874	-4,569	241,379	119,375
109,889	-4,664	241,206	119,200
110,903	-4,537	240,867	119,127
111,918	-4,780	240,747	118,856
112,933	-4,689	240,773	118,934
113,947	-4,578	240,464	118,862
114,962	-4,591	240,255	118,738
115,976	-4,389	240,158	118,844
116,991	-4,643	239,994	118,544
118,006	-4,364	239,746	118,640
119,020	-4,555	239,730	118,465
120,035	-4,407	239,490	118,457
121,049	-4,394	239,414	118,420
122,064	-4,460	239,201	118,250
123,079	-4,358	239,067	118,256
124,093	-4,482	238,655	117,940
125,108	-4,842	238,662	117,640
126,122	-4,729	238,300	117,543
127,137	-4,764	238,137	117,424
128,151	-4,943	238,064	117,232
129,166	-4,892	238,012	117,237
130,181	-4,876	237,686	117,079
131,195	-4,897	237,514	116,967
132,210	-4,707	237,386	117,048
133,224	-4,586	237,241	117,064
134,239	-4,358	236,950	117,094
135,254	-4,393	236,945	117,053
136,268	-4,596	236,643	116,729
137,283	-4,823	236,332	116,382
138,297	-4,745	236,027	116,284
139,312	-4,938	236,062	116,136
140,327	-4,549	235,988	116,403
141,341	-4,169	235,877	116,643
142,356	-4,136	235,721	116,582
143,370	-4,154	235,663	116,528
144,385	-4,196	235,482	116,395
145,400	-4,117	235,283	116,349
146,414	-4,013	235,181	116,372
147,429	-4,163	234,874	116,090
148,443	-4,088	234,633	116,020
149,458	-4,277	234,565	115,825
150,473	-4,039	234,398	115,922
151,487	-4,412	234,203	115,518
152,502	-4,244	234,134	115,607
153,516	-4,265	234,125	115,576
154,531	-4,188	233,831	115,482
155,546	-4,074	233,536	115,417
156,560	-4,192	233,481	115,285
157,575	-4,467	233,138	114,887
158,589	-4,215	232,987	115,002
159,604	-4,115	232,851	115,005
160,619	-4,036	232,807	115,035
161,633	-4,085	232,627	114,897
162,648	-4,041	232,618	114,917
163,662	-4,286	232,359	114,586
164,677	-4,219	232,144	114,523
165,692	-4,082	232,051	114,574
166,706	-3,942	231,970	114,635
167,721	-4,010	231,693	114,433
168,735	-3,994	231,636	114,408
169,750	-4,124	231,538	114,247
170,764	-3,960	231,304	114,250
171,779	-4,241	231,065	113,901
172,794	-3,939	230,966	114,079
173,808	-4,205	230,812	113,785
174,823	-4,618	230,528	113,310
175,837	-4,929	230,263	112,926
176,852	-4,485	230,265	113,265
177,867	-4,257	230,129	113,367
178,881	-4,002	230,078	113,531
179,896	-3,947	229,877	113,464
180,910	-3,837	229,645	113,426
181,925	-3,952	229,402	113,206
182,940	-3,972	229,334	113,147
183,954	-4,051	229,264	113,041
184,969	-4,087	229,275	113,008
185,983	-3,765	229,002	113,114
186,998	-3,927	228,918	112,936
188,013	-4,007	228,721	112,767
189,027	-3,983	228,539	112,686
190,042	-3,891	228,277	112,618
191,056	-4,061	228,159	112,418
192,071	-4,051	228,112	112,392
193,086	-3,901	227,894	112,391
194,100	-4,015	227,788	112,241
195,115	-4,431	227,275	111,657
196,129	-5,236	227,013	110,897
197,144	-1,978	228,047	113,914
198,159	2,089	229,179	117,626
199,173	4,004	229,623	119,329
200,188	4,195	229,610	119,460
201,202	4,316	229,431	119,450
202,217	4,356	229,252	119,377
203,232	4,493	229,243	119,468
204,246	4,557	229,017	119,388
205,261	4,931	228,773	119,540
206,275	4,810	228,816	119,458
207,290	4,948	228,661	119,473
208,304	5,068	228,421	119,429
209,319	4,784	228,392	119,185
210,334	4,667	228,126	118,945
211,348	4,587	227,848	118,728
212,363	4,143	227,612	118,254
213,377	3,899	227,371	117,931
214,392	3,871	227,349	117,888
215,407	4,286	227,190	118,113
216,421	4,208	227,035	117,962
217,436	4,120	226,868	117,797
218,450	3,921	226,622	117,507
219,465	3,897	226,466	117,398
220,480	3,796	226,387	117,269
221,494	3,969	226,264	117,326
222,509	3,829	226,203	117,178
223,523	3,906	226,081	117,162
224,538	3,914	225,815	117,020
225,553	3,832	225,716	116,897
226,567	4,135	225,457	116,982
227,582	4,351	225,529	117,173
228,596	4,543	225,366	117,224
229,611	4,176	225,018	116,754
230,626	3,737	225,084	116,445
231,640	3,730	224,880	116,324
232,655	4,161	224,650	116,521
233,669	4,504	224,699	116,794
234,684	4,539	224,550	116,733
235,699	4,424	224,311	116,512
236,713	4,203	224,151	116,252
237,728	4,016	223,934	115,988
238,742	3,692	223,717	115,621
239,757	4,007	223,560	115,766
240,772	4,093	223,422	115,750
241,786	3,980	223,217	115,548
242,801	4,189	223,320	115,748
243,815	4,411	223,209	115,847
244,830	4,287	223,054	115,663
245,844	4,492	222,814	115,682
246,859	4,042	222,667	115,259
247,874	4,451	222,415	115,424
248,888	4,194	222,364	115,195
249,903	4,180	222,185	115,082
250,917	4,122	222,025	114,945
251,932	4,147	221,813	114,844
252,947	3,791	221,738	114,529
253,961	4,054	221,484	114,583
254,976	3,999	221,416	114,497
255,990	4,243	221,413	114,667
257,005	4,203	221,225	114,529
258,020	4,291	221,175	114,559
259,034	4,386	221,016	114,537
260,049	4,197	220,919	114,336
261,063	4,169	220,679	114,181
262,078	4,209	220,743	114,234
263,093	4,384	220,557	114,257
264,107	4,508	220,259	114,184
265,122	4,258	220,196	113,956
266,136	4,437	220,032	113,993
267,151	4,363	219,984	113,904
268,166	3,990	219,690	113,466
269,180	3,766	219,373	113,128
270,195	3,869	219,275	113,143
271,209	3,863	219,275	113,128
272,224	4,088	218,995	113,139
273,239	4,037	218,989	113,088
274,253	4,128	218,769	113,032
275,268	3,808	218,502	112,649
276,282	3,883	218,292	112,586
277,297	3,716	218,185	112,399
278,312	3,628	218,152	112,306
279,326	3,980	217,995	112,474
280,341	4,105	217,806	112,457
281,355	3,956	217,741	112,305
282,370	4,074	217,630	112,324
283,384	3,955	217,357	112,085
284,399	3,807	217,169	111,871
285,414	3,694	217,144	111,765
286,428	3,988	217,022	111,907
287,443	4,012	217,001	111,904
288,457	4,165	216,902	111,954
289,472	4,064	216,551	111,690
290,487	3,554	216,388	111,225
291,501	3,516	216,201	111,092
292,516	3,933	216,172	111,369
293,530	3,767	216,065	111,184
294,545	3,735	215,872	111,051
295,560	4,069	215,756	111,223
296,574	4,097	215,724	111,217
297,589	3,926	215,652	111,047
298,603	4,176	215,380	111,077
299,618	4,226	215,155	110,987
300,633	3,935	215,305	110,845
301,647	4,079	215,275	110,923
302,662	4,337	214,991	110,953
303,676	4,304	214,871	110,857
304,691	4,012	214,728	110,563
305,706	4,217	214,543	110,606
306,720	4,400	214,270	110,586
307,735	4,058	214,241	110,316
308,749	3,992	214,129	110,202
309,764	4,139	214,005	110,233
310,779	4,412	213,884	110,356
311,793	4,272	213,666	110,134
312,808	4,237	213,581	110,055
313,822	3,987	213,432	109,790
314,837	4,131	213,263	109,796
315,852	3,966	213,026	109,547
316,866	3,982	212,912	109,490
317,881	4,057	212,970	109,563
318,895	4,174	212,813	109,556
319,910	3,961	212,559	109,264
320,925	3,953	212,308	109,119
321,939	3,522	212,117	108,706
322,954	3,332	212,221	108,615
323,968	3,808	212,187	108,926
324,983	4,161	211,905	109,021
325,997	4,246	211,857	109,047
327,012	4,249	211,594	108,904
328,027	3,966	211,387	108,588
329,041	4,224	211,575	108,857
330,056	4,422	211,395	108,894
331,070	4,117	211,117	108,527
332,085	3,759	210,831	108,118
333,100	3,964	210,801	108,237
334,114	3,993	210,665	108,178
335,129	4,173	210,512	108,216
336,143	3,854	210,224	107,835
337,158	3,933	210,216	107,876
338,173	3,998	210,066	107,835
339,187	3,912	209,872	107,666
340,202	3,857	209,720	107,540
341,216	3,900	209,644	107,522
342,231	3,860	209,456	107,387
343,246	3,616	209,349	107,153
344,260	3,907	209,265	107,303
345,275	3,979	209,232	107,327
346,289	3,985	209,248	107,329
347,304	3,987	209,243	107,319
348,319	4,112	208,830	107,185
349,333	4,096	208,684	107,089
350,348	4,219	208,543	107,093
351,362	4,202	208,466	107,031
352,377	4,162	208,412	106,966
353,392	4,191	208,073	106,803
354,406	4,109	208,163	106,783
355,421	194,432	1344,013	1434,617
356,435	155,153	1482,510	1434,731
