DTS Sentinel unit serial number:	SN410029Multiplexer serial number:	ORYXHardware model number:	OX2-SRSoftware version number:	ORYX F/W v4,00 Oryx Data Collector v3.7.2.0data status	okinstallation	B6 Nyhavnadifferential loss correction	single-endedforward channel	channel 2reverse channel	N/Adate	2023/12/07time	13:45:08forward acquisition time	300,00reverse acquisition time	0,00gamma	499,1914k internal	0,3201k external	0,3201temperature offset calibration	1,0000default loss term (dB/km)	0,3820temperature slope calibration	1,0000multiplexer offset coefficient	1,0000multiplexer slope coefficient	1,0000fibre end	0,00T internal ref (°C)	12,65T ext. ref 1 (°C)	-1,62T ext. ref 2 (°C)	-1,62length (m)	temperature (°C)	Stokes	anti-Stokes-744,400	-52,343	0,106	-0,035
-743,385	-118,892	-0,274	-0,035
-742,371	363,769	0,076	0,112
-741,356	-193,309	-0,296	0,002
-740,342	-141,738	0,149	0,011
-739,327	-124,150	-0,291	-0,033
-738,312	371,078	0,113	0,167
-737,298	-98,127	-0,415	-0,077
-736,283	59,987	0,191	0,137
-735,269	-71,029	-0,253	-0,069
-734,254	-122,493	0,162	0,019
-733,239	8,263	-0,485	-0,264
-732,225	-139,510	0,195	-0,015
-731,210	148,546	0,057	0,056
-730,196	622,036	-0,044	0,080
-729,181	800,000	-0,045	-0,109
-728,167	37,189	-0,138	0,089
-727,152	-70,194	-0,138	-0,038
-726,137	-37,967	-0,078	-0,030
-725,123	-200,000	-0,007	-0,046
-724,108	800,000	0,009	0,026
-723,094	-200,000	-0,002	-0,036
-722,079	-92,182	-0,090	0,018
-721,064	800,000	0,085	0,183
-720,050	171,763	-0,044	-0,046
-719,035	19,444	-0,050	0,029
-718,021	173,927	-0,046	-0,048
-717,006	50,448	-0,096	-0,066
-715,991	800,000	-0,041	-0,101
-714,977	3,820	0,065	0,034
-713,962	-118,375	-0,147	0,019
-712,948	-200,000	-0,015	-0,117
-711,933	-200,000	0,009	0,037
-710,918	800,000	-0,016	0,046
-709,904	681,380	-0,060	-0,114
-708,889	800,000	0,056	-0,129
-707,875	-47,810	-0,145	-0,051
-706,860	800,000	0,035	0,098
-705,845	384,621	0,034	0,051
-704,831	11,296	0,034	0,019
-703,816	170,092	0,130	0,135
-702,802	-22,800	-0,200	0,087
-701,787	-14,773	-0,138	0,064
-700,772	71,836	0,087	-0,065
-699,758	800,000	-0,048	-0,150
-698,743	-200,000	0,006	0,054
-697,729	456,575	-0,029	-0,047
-696,714	-200,000	0,038	-0,128
-695,699	-200,000	0,008	-0,032
-694,685	52,395	-0,091	-0,063
-693,670	143,572	-0,076	0,074
-692,656	171,005	-0,076	-0,079
-691,641	800,000	-0,027	0,085
-690,627	344,912	0,034	-0,048
-689,612	-97,971	0,049	0,009
-688,597	-52,432	0,073	-0,024
-687,583	3,930	-0,077	0,041
-686,568	266,566	-0,063	-0,080
-685,554	800,000	-0,091	-0,268
-684,539	-200,000	-0,029	0,116
-683,524	182,164	-0,074	0,079
-682,510	409,605	-0,038	0,058
-681,495	-26,107	-0,140	-0,059
-680,481	184,176	-0,109	0,117
-679,466	377,594	-0,051	-0,075
-678,451	-16,910	-0,103	0,047
-677,437	-94,200	-0,054	-0,011
-676,422	31,361	0,071	-0,044
-675,408	-77,752	-0,077	0,019
-674,393	14,066	0,017	0,009
-673,378	-102,539	-0,159	0,027
-672,364	-200,000	0,019	-0,120
-671,349	323,499	0,098	0,136
-670,335	658,126	-0,061	0,115
-669,320	800,000	0,034	-0,089
-668,305	-158,000	0,049	-0,002
-667,291	-52,650	-0,087	-0,029
-666,276	642,789	-0,055	-0,103
-665,262	800,000	0,051	-0,132
-664,247	30,960	0,105	-0,065
-663,232	122,160	0,019	0,017
-662,218	-200,000	0,017	-0,062
-661,203	800,000	-0,039	-0,122
-660,189	49,627	-0,084	0,057
-659,174	88,833	-0,079	0,064
-658,159	-200,000	-0,012	-0,116
-657,145	-58,410	-0,098	-0,031
-656,130	131,056	-0,062	-0,058
-655,116	-32,933	0,049	0,020
-654,101	800,000	-0,052	-0,115
-653,086	-200,000	-0,014	-0,067
-652,072	-24,818	-0,188	0,081
-651,057	-100,302	-0,112	0,020
-650,043	-200,000	0,010	-0,056
-649,028	0,126	-0,084	0,043
-648,014	60,203	0,085	-0,061
-646,999	479,708	0,073	0,121
-645,984	-200,000	-0,018	-0,070
-644,970	97,292	0,029	0,024
-643,955	-149,672	-0,052	-0,003
-642,941	322,130	0,038	-0,052
-641,926	15,990	-0,128	0,073
-640,911	125,237	0,036	-0,033
-639,897	-200,000	0,005	0,146
-638,882	57,292	-0,065	0,046
-637,868	-59,548	-0,047	-0,014
-636,853	-200,000	0,014	0,048
-635,838	29,659	-0,104	0,064
-634,824	380,763	0,025	-0,037
-633,809	222,692	0,090	0,105
-632,795	-200,000	0,008	0,094
-631,780	-47,999	0,043	-0,015
-630,765	512,272	0,030	-0,050
-629,751	27,815	-0,138	-0,084
-628,736	-81,996	-0,111	-0,026
-627,722	267,749	-0,013	-0,017
-626,707	800,000	-0,009	-0,025
-625,692	-80,823	-0,117	0,028
-624,678	331,842	0,116	-0,162
-623,663	237,489	-0,041	0,049
-622,649	-91,613	0,064	-0,013
-621,634	-200,000	-0,004	0,025
-620,619	37,812	-0,005	-0,003
-619,605	-200,000	0,029	-0,098
-618,590	-200,000	-0,018	0,155
-617,576	-98,310	0,119	-0,022
-616,561	294,062	0,024	-0,032
-615,546	-200,000	-0,029	-0,122
-614,532	183,281	-0,048	-0,051
-613,517	-63,270	-0,264	-0,078
-612,503	100,082	0,024	-0,020
-611,488	800,000	0,020	-0,048
-610,474	49,355	0,094	0,064
-609,459	507,958	-0,029	0,049
-608,444	-200,000	-0,012	-0,110
-607,430	87,625	-0,061	-0,049
-606,415	470,940	-0,011	0,018
-605,401	41,109	-0,044	-0,029
-604,386	684,693	0,043	-0,082
-603,371	800,000	0,021	0,051
-602,357	-60,459	-0,043	-0,013
-601,342	176,617	0,082	-0,086
-600,328	-200,000	0,005	0,105
-599,313	-51,813	-0,083	-0,028
-598,298	-34,851	0,055	0,022
-597,284	449,035	-0,048	0,078
-596,269	-200,000	0,008	0,201
-595,255	-36,881	-0,043	0,017
-594,240	800,000	-0,026	-0,069
-593,225	437,750	0,014	-0,023
-592,211	37,324	-0,141	-0,090
-591,196	800,000	-0,036	-0,085
-590,182	-200,000	0,014	-0,126
-589,167	-107,376	0,033	0,005
-588,152	-33,525	0,168	0,067
-587,138	538,598	-0,033	-0,057
-586,123	800,000	-0,055	-0,125
-585,109	156,363	-0,049	-0,049
-584,094	307,885	-0,103	0,139
-583,079	-60,355	-0,067	0,021
-582,065	65,564	0,031	0,022
-581,050	68,758	0,097	-0,072
-580,036	-200,000	-0,024	0,126
-579,021	475,040	-0,047	-0,076
-578,006	800,000	-0,017	-0,049
-576,992	-142,427	0,022	0,002
-575,977	-200,000	-0,005	-0,073
-574,963	-70,075	0,120	0,033
-573,948	504,621	0,032	0,053
-572,934	-89,920	0,128	0,027
-571,919	787,900	-0,016	-0,032
-570,904	-132,724	-0,062	-0,006
-569,890	800,000	-0,043	-0,089
-568,875	800,000	0,022	-0,061
-567,861	-50,660	-0,049	-0,016
-566,846	-82,791	-0,069	-0,016
-565,831	-27,961	-0,009	0,004
-564,817	546,706	-0,098	-0,170
-563,802	-53,394	0,069	-0,023
-562,788	154,891	0,052	0,052
-561,773	800,000	-0,016	-0,042
-560,758	800,000	-0,029	0,066
-559,744	80,910	-0,131	-0,102
-558,729	-53,933	-0,044	-0,014
-557,715	-134,312	-0,071	-0,006
-556,700	-165,701	0,077	0,002
-555,685	500,389	-0,048	0,079
-554,671	-40,795	0,021	0,008
-553,656	-6,307	-0,082	0,040
-552,642	-85,894	0,058	0,013
-551,627	467,124	-0,032	0,052
-550,612	-57,896	0,131	0,041
-549,598	61,243	-0,095	-0,068
-548,583	-39,864	-0,060	0,022
-547,569	102,195	0,007	0,006
-546,554	800,000	-0,042	0,129
-545,539	-11,580	0,093	0,044
-544,525	-122,048	-0,021	-0,002
-543,510	-200,000	0,020	-0,077
-542,496	800,000	0,054	-0,110
-541,481	-155,626	-0,047	-0,002
-540,466	430,621	-0,053	-0,084
-539,452	-66,987	0,072	0,020
-538,437	-165,803	0,159	0,005
-537,423	83,019	-0,039	0,030
-536,408	56,741	-0,110	-0,077
-535,393	468,976	0,037	-0,060
-534,379	-200,000	0,006	-0,048
-533,364	-18,770	-0,072	-0,032
-532,350	252,859	0,046	0,056
-531,335	-48,338	-0,139	-0,048
-530,321	525,289	-0,044	0,074
-529,306	29,452	-0,037	0,023
-528,291	-110,406	0,104	-0,015
-527,277	39,954	-0,075	0,048
-526,262	133,911	-0,051	0,047
-525,248	-200,000	-0,004	0,079
-524,233	-111,421	0,151	0,022
-523,218	800,000	-0,007	-0,019
-522,204	172,952	-0,052	-0,054
-521,189	326,465	0,012	-0,017
-520,175	32,244	0,102	-0,063
-519,160	-28,454	0,035	-0,014
-518,145	253,279	0,118	-0,146
-517,131	4,986	0,103	0,054
-516,116	-161,523	0,228	0,008
-515,102	-124,754	-0,044	0,005
-514,087	-200,000	0,000	-0,114
-513,072	422,513	-0,084	-0,131
-512,058	-18,175	-0,025	0,011
-511,043	-200,000	-0,042	-0,216
-510,029	-200,000	-0,004	-0,105
-509,014	-12,308	-0,028	-0,013
-507,999	168,976	0,067	0,069
-506,985	19,873	-0,080	-0,047
-505,970	-200,000	0,001	-0,063
-504,956	-113,881	0,108	0,015
-503,941	800,000	0,082	-0,181
-502,926	52,325	-0,100	-0,068
-501,912	457,152	0,029	-0,047
-500,897	419,666	-0,037	0,057
-499,883	-200,000	0,000	0,040
-498,868	-137,336	-0,146	0,012
-497,853	-27,824	0,098	0,041
-496,839	148,122	0,051	-0,049
-495,824	-15,855	0,052	0,024
-494,810	-74,598	-0,012	-0,003
-493,795	294,338	-0,137	0,180
-492,781	-93,141	-0,125	0,025
-491,766	29,370	-0,123	0,075
-490,751	174,867	-0,157	-0,164
-489,737	334,834	-0,071	-0,100
-488,722	247,546	-0,057	0,070
-487,708	800,000	0,019	0,058
-486,693	-29,377	0,058	-0,024
-485,678	678,777	0,040	-0,076
-484,664	191,081	0,073	-0,079
-483,649	800,000	-0,042	-0,118
-482,635	417,940	0,042	-0,064
-481,620	18,592	0,076	0,044
-480,605	-41,851	0,129	0,047
-479,591	-200,000	-0,007	0,057
-478,576	-200,000	0,022	-0,172
-477,562	121,331	-0,089	-0,079
-476,547	58,838	-0,035	0,025
-475,532	59,263	-0,083	-0,059
-474,518	-94,325	0,093	0,018
-473,503	800,000	-0,064	0,168
-472,489	-97,689	0,075	0,014
-471,474	800,000	0,036	-0,112
-470,459	86,187	0,016	-0,013
-469,445	434,898	-0,024	0,038
-468,430	-200,000	0,015	-0,080
-467,416	-200,000	0,005	0,016
-466,401	285,314	-0,022	-0,028
-465,386	-200,000	-0,008	0,189
-464,372	216,210	-0,172	0,197
-463,357	800,000	-0,030	-0,062
-462,343	175,062	0,033	-0,034
-461,328	-41,691	0,097	0,036
-460,313	57,503	0,077	-0,054
-459,299	-200,000	-0,000	0,126
-458,284	87,157	0,047	0,038
-457,270	37,512	-0,043	-0,027
-456,255	-153,991	-0,013	-0,001
-455,241	800,000	0,015	0,031
-454,226	123,963	-0,025	0,022
-453,211	-75,260	-0,075	-0,019
-452,197	33,211	0,108	0,067
-451,182	645,689	-0,046	0,085
-450,168	-140,705	0,123	-0,009
-449,153	-52,443	-0,189	0,063
-448,138	193,863	-0,089	-0,097
-447,124	152,021	0,052	-0,051
-446,109	711,490	-0,073	0,139
-445,095	-121,920	0,126	-0,015
-444,080	800,000	-0,023	0,064
-443,065	-200,000	-0,040	0,143
-442,051	800,000	0,072	0,148
-441,036	800,000	-0,032	0,090
-440,022	477,634	-0,012	-0,020
-439,007	-2,872	0,108	-0,054
-437,992	155,868	-0,070	-0,069
-436,978	800,000	0,043	0,092
-435,963	51,995	-0,095	0,065
-434,949	-200,000	0,006	0,100
-433,934	800,000	0,060	0,171
-432,919	136,266	0,067	0,063
-431,905	800,000	0,026	-0,054
-430,890	322,135	-0,060	-0,083
-429,876	-40,149	0,122	0,045
-428,861	7,414	-0,101	-0,054
-427,846	-200,000	0,008	0,077
-426,832	28,224	0,120	0,073
-425,817	535,049	0,046	-0,079
-424,803	-29,849	-0,134	0,055
-423,788	633,590	0,008	0,014
-422,773	-200,000	-0,012	0,044
-421,759	-88,964	-0,085	0,018
-420,744	697,160	-0,071	0,135
-419,730	-10,065	-0,125	0,059
-418,715	597,547	0,063	-0,112
-417,701	353,780	-0,046	0,066
-416,686	-200,000	0,006	0,040
-415,671	-200,000	0,001	0,089
-414,657	-23,135	0,047	-0,020
-413,642	32,773	0,077	-0,048
-412,628	-67,363	-0,048	0,013
-411,613	-200,000	-0,026	-0,190
-410,598	-95,107	0,124	-0,024
-409,584	61,974	-0,084	-0,060
-408,569	-200,000	0,030	0,100
-407,555	-84,112	0,052	0,012
-406,540	13,371	-0,061	-0,034
-405,525	-60,226	-0,104	-0,032
-404,511	-37,958	0,089	0,034
-403,496	37,848	-0,043	0,027
-402,482	-82,467	0,148	-0,034
-401,467	469,296	-0,041	0,066
-400,452	742,703	-0,020	-0,040
-399,438	-38,743	0,077	0,029
-398,423	149,186	0,073	0,071
-397,409	-200,000	-0,118	0,000
-396,394	564,293	-0,022	-0,038
-395,379	-200,000	-0,002	-0,080
-394,365	-65,707	0,056	0,016
-393,350	-144,880	0,193	-0,012
-392,336	647,451	-0,009	-0,016
-391,321	325,486	0,084	0,115
-390,306	-128,963	-0,054	-0,005
-389,292	154,867	-0,073	0,072
-388,277	-45,315	0,119	0,042
-387,263	-56,223	-0,085	-0,027
-386,248	87,444	0,108	0,085
-385,233	167,241	-0,106	0,108
-384,219	-82,414	-0,037	0,009
-383,204	800,000	0,009	0,024
-382,190	800,000	-0,007	0,021
-381,175	92,177	0,053	-0,043
-380,160	173,362	0,037	-0,038
-379,146	-200,000	0,001	-0,032
-378,131	800,000	0,032	-0,080
-377,117	-200,000	-0,006	-0,036
-376,102	-200,000	0,016	-0,137
-375,088	-114,271	0,060	-0,008
-374,073	-189,878	-0,151	-0,001
-373,058	162,537	0,052	-0,052
-372,044	110,473	0,106	0,091
-371,029	-200,000	0,022	-0,074
-370,015	410,139	-0,050	0,076
-369,000	-200,000	0,007	0,073
-367,985	-12,948	-0,062	0,029
-366,971	-71,072	-0,039	-0,010
-365,956	800,000	-0,017	-0,044
-364,942	-200,000	-0,004	0,033
-363,927	87,327	-0,090	0,071
-362,912	-200,000	-0,009	0,042
-361,898	0,792	-0,020	-0,010
-360,883	-196,593	-0,039	-0,000
-359,869	-84,142	-0,139	0,031
-358,854	-200,000	0,009	0,092
-357,839	39,862	0,113	0,072
-356,825	800,000	0,030	-0,074
-355,810	-149,353	-0,091	-0,005
-354,796	362,370	-0,046	-0,067
-353,781	-200,000	-0,031	-0,158
-352,766	-7,174	-0,027	-0,013
-351,752	-200,000	0,009	0,056
-350,737	79,476	0,045	0,034
-349,723	-141,284	0,164	0,012
-348,708	-200,000	-0,039	0,137
-347,693	-79,028	-0,038	-0,009
-346,679	-200,000	-0,040	-0,162
-345,664	616,102	-0,053	-0,096
-344,650	40,468	0,125	-0,081
-343,635	800,000	0,039	0,090
-342,620	-34,575	0,097	-0,038
-341,606	443,825	-0,074	0,116
-340,591	-125,729	-0,037	0,004
-339,577	144,793	-0,073	-0,070
-338,562	-35,711	-0,187	-0,072
-337,548	-200,000	-0,027	-0,105
-336,533	102,644	0,100	0,083
-335,518	-85,740	-0,117	0,026
-334,504	40,180	0,075	0,048
-333,489	2,654	-0,094	0,049
-332,475	52,003	0,071	0,048
-331,460	-24,901	-0,095	-0,040
-330,445	91,669	0,101	-0,082
-329,431	-200,000	0,019	0,097
-328,416	800,000	-0,034	0,100
-327,402	303,345	0,032	0,042
-326,387	-200,000	-0,001	0,007
-325,372	139,108	-0,077	0,072
-324,358	659,733	-0,032	0,059
-323,343	103,234	-0,012	0,010
-322,329	-200,000	0,010	0,100
-321,314	130,018	0,059	-0,054
-320,299	-200,000	-0,006	-0,054
-319,285	-14,667	-0,128	-0,059
-318,270	67,162	0,232	-0,169
-317,256	-200,000	-0,001	-0,157
-316,241	98,603	0,075	0,062
-315,226	530,246	0,135	0,230
-314,212	-200,000	0,072	-0,244
-313,197	540,597	-0,074	0,126
-312,183	-200,000	0,020	0,139
-311,168	-151,698	-0,061	-0,003
-310,153	624,804	0,020	0,036
-309,139	-200,000	0,001	-0,027
-308,124	-200,000	0,041	-0,205
-307,110	-200,000	-0,009	0,030
-306,095	-200,000	-0,010	-0,115
-305,080	606,024	-0,071	0,127
-304,066	-200,000	0,008	0,104
-303,051	-200,000	-0,023	-0,162
-302,037	14,010	0,133	0,074
-301,022	-200,000	0,005	0,042
-300,008	-200,000	-0,056	0,251
-298,993	52,189	0,070	0,047
-297,978	-27,315	-0,076	-0,031
-296,964	-142,098	0,170	-0,012
-295,949	-81,042	-0,119	-0,028
-294,935	-200,000	0,005	-0,108
-293,920	109,398	-0,045	0,038
-292,905	-55,050	-0,021	-0,007
-291,891	-136,643	-0,095	-0,008
-290,876	-200,000	0,025	0,119
-289,862	-200,000	-0,013	-0,074
-288,847	-200,000	-0,018	-0,110
-287,832	-144,577	-0,127	-0,008
-286,818	-100,967	0,034	-0,006
-285,803	137,632	-0,052	0,049
-284,789	-167,476	0,142	0,004
-283,774	-200,000	-0,010	0,149
-282,759	-34,594	-0,006	0,002
-281,745	407,161	-0,017	0,026
-280,730	-80,608	-0,121	0,029
-279,716	150,410	-0,035	-0,034
-278,701	800,000	-0,084	0,180
-277,686	42,343	0,101	0,065
-276,672	-200,000	-0,002	0,029
-275,657	-200,000	-0,007	-0,073
-274,643	-200,000	0,012	-0,121
-273,628	138,561	-0,093	-0,087
-272,613	472,248	-0,035	-0,057
-271,599	-200,000	0,001	0,010
-270,584	354,095	-0,106	0,151
-269,570	-42,871	0,078	0,028
-268,555	-200,000	-0,010	0,126
-267,540	-200,000	-0,008	-0,047
-266,526	669,708	0,029	-0,053
-265,511	800,000	-0,058	-0,127
-264,497	398,181	-0,020	0,030
-263,482	-71,148	0,136	0,036
-262,467	-200,000	0,035	0,126
-261,453	28,861	0,048	0,029
-260,438	18,794	-0,054	-0,031
-259,424	-141,134	-0,134	0,010
-258,409	659,158	0,063	-0,117
-257,395	-150,757	-0,095	-0,005
-256,380	-62,835	0,109	-0,032
-255,365	-200,000	-0,029	0,216
-254,351	24,296	0,040	0,023
-253,336	-71,924	0,108	0,029
-252,322	-146,271	-0,114	-0,007
-251,307	247,037	0,088	-0,107
-250,292	184,665	0,057	0,060
-249,278	331,862	0,030	0,042
-248,263	-175,118	-0,111	0,002
-247,249	-120,915	0,104	0,012
-246,234	-200,000	-0,002	-0,135
-245,219	-200,000	0,021	-0,083
-244,205	0,631	0,006	-0,003
-243,190	-200,000	-0,000	-0,024
-242,176	-18,817	0,085	0,038
-241,161	434,799	0,022	0,034
-240,146	-129,970	-0,123	0,012
-239,132	85,852	0,031	0,024
-238,117	-64,579	-0,074	-0,021
-237,103	800,000	-0,061	0,135
-236,088	138,557	-0,100	-0,094
-235,073	-200,000	-0,014	0,081
-234,059	338,633	0,027	-0,037
-233,044	-200,000	0,005	-0,022
-232,030	22,039	0,169	-0,098
-231,015	318,878	-0,016	-0,022
-230,000	-200,000	-0,002	-0,010
-228,986	661,226	-0,029	-0,053
-227,971	800,000	0,023	0,073
-226,957	220,127	0,014	-0,016
-225,942	53,130	-0,103	0,070
-224,927	354,881	-0,059	-0,084
-223,913	-200,000	-0,006	0,059
-222,898	-41,861	0,051	-0,018
-221,884	-200,000	-0,024	-0,106
-220,869	-47,120	0,095	-0,033
-219,855	-200,000	0,025	0,091
-218,840	-58,024	-0,090	0,028
-217,825	-20,011	0,124	0,054
-216,811	-47,175	-0,109	-0,038
-215,796	45,661	0,069	-0,045
-214,782	-2,735	0,047	0,023
-213,767	-33,024	0,028	0,011
-212,752	-200,000	-0,005	0,024
-211,738	469,536	0,024	0,038
-210,723	-66,474	0,050	-0,014
-209,709	800,000	-0,016	-0,036
-208,694	-200,000	0,009	-0,101
-207,679	-200,000	0,012	-0,045
-206,665	-5,593	0,062	-0,030
-205,650	320,929	0,084	0,114
-204,636	-166,953	-0,065	0,002
-203,621	800,000	0,041	-0,107
-202,606	-200,000	-0,003	-0,093
-201,592	800,000	0,029	0,077
-200,577	-200,000	-0,006	0,190
-199,563	-120,540	0,052	0,006
-198,548	-200,000	-0,012	0,136
-197,533	-101,595	0,092	0,016
-196,519	409,171	-0,046	0,069
-195,504	-200,000	0,012	0,049
-194,490	2,183	0,072	0,037
-193,475	162,417	-0,104	0,104
-192,460	800,000	0,019	-0,056
-191,446	400,048	0,044	-0,066
-190,431	800,000	0,022	0,069
-189,417	153,724	-0,013	-0,012
-188,402	-200,000	0,025	-0,088
-187,387	-200,000	0,014	-0,082
-186,373	119,455	0,061	-0,054
-185,358	800,000	-0,078	-0,179
-184,344	-46,960	-0,034	0,012
-183,329	321,357	0,048	0,065
-182,315	800,000	-0,072	0,169
-181,300	-4,952	0,070	-0,034
-180,285	-200,000	-0,008	-0,110
-179,271	303,845	0,064	-0,085
-178,256	-200,000	-0,004	0,044
-177,242	-4,237	0,095	0,047
-176,227	-200,000	0,016	-0,075
-175,212	-91,841	0,109	0,022
-174,198	240,413	-0,071	0,084
-173,183	226,632	-0,053	-0,062
-172,169	-200,000	0,031	-0,316
-171,154	83,074	0,044	0,034
-170,139	800,000	0,037	-0,089
-169,125	800,000	0,028	0,070
-168,110	800,000	0,018	0,051
-167,096	-144,603	-0,095	-0,006
-166,081	324,072	0,046	-0,063
-165,066	-200,000	-0,003	-0,112
-164,052	-42,789	0,142	-0,051
-163,037	48,530	-0,153	0,102
-162,023	467,279	0,065	0,105
-161,008	133,586	0,104	-0,096
-159,993	225,324	0,114	0,132
-158,979	800,000	0,020	-0,046
-157,964	167,774	-0,036	0,037
-156,950	-200,000	0,015	-0,115
-155,935	-200,000	-0,009	0,051
-154,920	507,498	-0,049	-0,081
-153,906	-36,926	0,133	0,050
-152,891	800,000	0,021	-0,047
-151,877	77,518	0,159	-0,120
-150,862	-104,508	-0,152	-0,025
-149,847	7,215	0,037	0,020
-148,833	-200,000	0,000	0,042
-147,818	800,000	-0,033	0,082
-146,804	28,207	0,134	0,080
-145,789	7,840	-0,153	0,081
-144,775	52,615	0,035	0,023
-143,760	-40,814	-0,091	-0,033
-142,745	-75,036	-0,055	0,014
-141,731	-111,897	-0,008	-0,001
-140,716	39,912	0,073	-0,047
-139,702	95,794	-0,206	0,167
-138,687	-88,181	0,166	0,035
-137,672	800,000	0,046	-0,112
-136,658	-200,000	0,015	-0,067
-135,643	-200,000	0,006	0,021
-134,629	800,000	0,026	0,059
-133,614	-0,249	0,032	0,016
-132,599	389,734	0,047	0,070
-131,585	156,090	0,005	-0,005
-130,570	151,632	-0,111	-0,107
-129,556	800,000	-0,011	-0,035
-128,541	-17,216	0,070	0,031
-127,526	-200,000	-0,000	-0,081
-126,512	4,869	0,047	-0,025
-125,497	800,000	0,047	0,094
-124,483	-67,497	0,179	-0,050
-123,468	-11,406	-0,095	-0,044
-122,453	-200,000	0,015	-0,065
-121,439	24,710	0,077	-0,045
-120,424	-200,000	0,007	-0,040
-119,410	-1,329	0,121	-0,061
-118,395	-100,329	-0,097	0,017
-117,380	9,676	0,013	-0,007
-116,366	-167,755	0,090	0,002
-115,351	-121,050	-0,033	-0,004
-114,337	-149,156	-0,021	0,001
-113,322	-95,879	-0,034	-0,006
-112,307	274,675	-0,068	-0,086
-111,293	148,416	-0,032	0,030
-110,278	419,839	0,052	-0,080
-109,264	117,378	-0,060	-0,052
-108,249	49,279	0,026	0,017
-107,234	-145,772	-0,106	0,007
-106,220	-136,342	-0,199	0,016
-105,205	35,884	-0,074	0,046
-104,191	-200,000	0,016	0,157
-103,176	-24,250	0,184	0,078
-102,162	-200,000	-0,012	0,084
-101,147	723,506	0,036	-0,069
-100,132	-200,000	-0,014	-0,054
-99,118	-200,000	-0,003	-0,054
-98,103	246,488	-0,061	0,073
-97,089	-64,445	-0,026	-0,008
-96,074	-200,000	0,010	0,136
-95,059	117,720	0,033	0,028
-94,045	5,571	-0,051	0,027
-93,030	254,139	0,053	0,064
-92,016	745,446	-0,048	-0,092
-91,001	-200,000	-0,010	0,034
-89,986	178,501	0,014	-0,015
-88,972	-28,607	0,028	0,011
-87,957	-200,000	0,007	0,124
-86,943	800,000	0,025	0,055
-85,928	126,483	-0,056	-0,050
-84,913	800,000	-0,051	-0,142
-83,899	640,570	0,066	0,120
-82,884	-200,000	0,002	0,011
-81,870	262,000	-0,079	0,098
-80,855	-200,000	0,000	0,075
-79,840	23,691	-0,074	0,043
-78,826	47,124	-0,082	0,054
-77,811	31,656	0,057	-0,035
-76,797	482,129	-0,063	0,102
-75,782	800,000	0,070	0,185
-74,767	-64,096	0,039	0,011
-73,753	800,000	-0,042	-0,103
-72,738	800,000	-0,034	-0,080
-71,724	10,759	-0,213	-0,115
-70,709	-27,591	-0,121	-0,049
-69,694	-200,000	-0,008	-0,053
-68,680	46,484	0,133	-0,087
-67,665	-11,867	0,072	0,033
-66,651	413,509	0,092	0,139
-65,636	-189,881	-0,082	0,001
-64,622	800,000	-0,054	-0,123
-63,607	-62,626	0,047	-0,014
-62,592	203,047	-0,034	0,037
-61,578	113,933	-0,090	0,078
-60,563	156,736	0,114	0,112
-59,549	111,870	-0,090	0,077
-58,534	51,368	-2,278	-1,530
-57,519	800,000	0,207	-0,624
-56,505	-200,000	-1,404	-5,210
-55,490	133,494	1,071	0,981
-54,476	800,000	5,259	11,793
-53,461	-200,000	18,901	324,550
-52,446	-200,000	741,108	2318,302
-51,432	551,890	1651,926	2819,251
-50,417	75,697	1678,081	1253,845
-49,403	19,725	1600,315	909,598
-48,388	14,322	1554,318	855,568
-47,373	17,781	1546,264	868,854
-46,359	16,342	1535,461	855,426
-45,344	12,814	1530,828	834,856
-44,330	12,760	1528,763	833,427
-43,315	12,687	1527,215	832,175
-42,300	12,577	1526,021	830,934
-41,286	12,601	1524,569	830,232
-40,271	12,710	1522,632	829,696
-39,257	12,664	1521,247	828,676
-38,242	12,707	1519,721	828,029
-37,227	12,666	1518,571	827,162
-36,213	12,654	1517,188	826,318
-35,198	12,661	1515,766	825,543
-34,184	12,669	1514,703	824,972
-33,169	12,721	1513,200	824,385
-32,154	12,744	1511,472	823,526
-31,140	12,720	1510,446	822,811
-30,125	12,708	1508,983	821,922
-29,111	12,729	1507,764	821,330
-28,096	12,722	1506,576	820,618
-27,082	12,659	1505,782	819,836
-26,067	12,701	1504,275	819,194
-25,052	12,708	1503,119	818,567
-24,038	12,687	1501,995	817,817
-23,023	12,717	1501,007	817,395
-22,009	12,704	1499,787	816,633
-20,994	12,710	1499,012	816,210
-19,979	12,709	1497,929	815,584
-18,965	12,660	1496,962	814,779
-17,950	12,679	1495,998	814,318
-16,936	12,597	1495,035	813,354
-15,921	12,600	1493,848	812,688
-14,906	12,573	1492,664	811,877
-13,892	12,537	1491,824	811,211
-12,877	12,575	1490,732	810,772
-11,863	12,531	1489,452	809,830
-10,848	12,544	1488,774	809,490
-9,833	12,641	1487,810	809,417
-8,819	12,621	1486,889	808,781
-7,804	12,562	1485,610	807,761
-6,790	12,572	1485,072	807,487
-5,775	12,596	1484,160	807,079
-4,760	12,616	1483,165	806,604
-3,746	12,581	1482,055	805,797
-2,731	12,505	1481,008	804,823
-1,717	12,406	1479,921	803,710
-0,702	12,400	1478,985	803,141
0,313	12,201	1477,988	802,834
1,327	16,038	1474,966	819,935
2,342	25,627	1241,263	729,260
3,356	22,122	698,164	402,090
4,371	-7,396	467,553	223,154
5,386	-10,839	439,044	204,426
6,400	-12,116	429,907	198,299
7,415	-12,199	426,321	196,508
8,429	-12,768	423,923	194,570
9,444	-12,822	422,410	193,781
10,459	-13,060	421,321	192,926
11,473	-13,228	420,495	192,292
12,488	-13,346	419,241	191,535
13,502	-13,697	418,453	190,661
14,517	-13,778	417,571	190,128
15,531	-13,911	416,796	189,571
16,546	-14,043	415,970	188,992
17,561	-14,040	415,524	188,777
18,575	-14,009	414,906	188,523
19,590	-14,130	414,315	188,069
20,604	-14,084	413,850	187,905
21,619	-14,171	413,213	187,477
22,634	-14,153	412,786	187,292
23,648	-14,155	412,197	187,006
24,663	-14,199	411,942	186,812
25,677	-14,205	411,464	186,570
26,692	-14,301	410,913	186,171
27,707	-14,194	410,432	186,085
28,721	-14,200	410,070	185,895
29,736	-14,362	409,616	185,449
30,750	-14,287	409,032	185,272
31,765	-14,402	408,927	185,048
32,780	-14,313	408,340	184,889
33,794	-14,277	407,933	184,738
34,809	-14,391	407,611	184,419
35,823	-14,279	407,064	184,309
36,838	-14,325	406,712	184,069
37,853	-14,347	406,309	183,841
38,867	-14,326	405,752	183,601
39,882	-14,400	405,505	183,372
40,896	-14,400	405,232	183,233
41,911	-14,507	404,719	182,838
42,926	-14,414	404,416	182,812
43,940	-14,475	404,053	182,548
44,955	-14,494	403,643	182,320
45,969	-14,579	403,292	182,031
46,984	-14,691	402,740	181,612
47,999	-14,921	402,322	181,096
49,013	-15,138	401,936	180,613
50,028	-15,180	401,472	180,332
51,042	-15,267	401,273	180,109
52,057	-15,143	400,727	180,014
53,071	-15,235	400,540	179,790
54,086	-15,133	400,267	179,789
55,101	-14,999	400,121	179,888
56,115	-14,671	399,683	180,117
57,130	-14,126	399,549	180,773
58,144	-13,890	399,463	181,036
59,159	-13,757	398,897	180,942
60,174	-13,942	398,618	180,550
61,188	-14,051	398,268	180,230
62,203	-14,032	397,988	180,113
63,217	-14,308	397,587	179,546
64,232	-14,030	397,142	179,700
65,247	-13,975	396,899	179,648
66,261	-13,944	396,450	179,470
67,276	-14,443	396,062	178,614
68,290	-14,711	395,606	178,035
69,305	-14,636	395,181	177,928
70,320	-14,738	394,692	177,557
71,334	-14,292	394,538	178,063
72,349	-13,900	394,554	178,574
73,363	-13,975	394,332	178,358
74,378	-13,973	393,919	178,159
75,393	-14,044	393,396	177,812
76,407	-14,201	393,111	177,460
77,422	-14,121	392,846	177,431
78,436	-14,111	392,503	177,273
79,451	-14,034	392,153	177,200
80,466	-14,215	391,678	176,731
81,480	-14,416	391,282	176,273
82,495	-14,496	390,924	175,991
83,509	-14,476	390,700	175,901
84,524	-14,578	390,352	175,595
85,539	-14,638	389,918	175,304
86,553	-14,649	389,561	175,114
87,568	-14,606	389,580	175,163
88,582	-14,598	389,189	174,982
89,597	-14,525	388,691	174,839
90,611	-14,381	388,647	174,990
91,626	-14,079	388,261	175,195
92,641	-14,315	388,068	174,785
93,655	-14,255	387,659	174,663
94,670	-14,372	387,350	174,356
95,684	-14,277	387,107	174,354
96,699	-14,277	386,839	174,219
97,714	-14,411	386,392	173,828
98,728	-14,577	386,019	173,429
99,743	-14,727	385,662	173,059
100,757	-14,550	385,209	173,070
101,772	-14,592	385,058	172,932
102,787	-14,448	384,795	172,984
103,801	-14,422	384,638	172,932
104,816	-14,215	384,398	173,076
105,830	-14,203	384,175	172,975
106,845	-14,080	383,911	172,999
107,860	-14,040	383,583	172,887
108,874	-14,234	383,111	172,409
109,889	-14,288	382,907	172,233
110,903	-14,243	382,589	172,133
111,918	-14,296	382,242	171,894
112,933	-14,218	381,945	171,844
113,947	-14,143	381,636	171,785
114,962	-14,131	381,491	171,721
115,976	-14,080	381,094	171,591
116,991	-14,174	380,858	171,351
118,006	-14,289	380,742	171,136
119,020	-14,226	380,422	171,057
120,035	-14,063	380,222	171,160
121,049	-14,000	379,887	171,074
122,064	-13,956	379,605	170,987
123,079	-14,143	379,239	170,570
124,093	-14,153	378,808	170,348
125,108	-14,395	378,381	169,835
126,122	-14,725	378,012	169,236
127,137	-14,831	377,724	168,958
128,151	-14,747	377,502	168,950
129,166	-14,572	377,278	169,056
130,181	-14,698	376,976	168,746
131,195	-14,615	376,673	168,701
132,210	-14,246	376,350	169,006
133,224	-14,171	376,115	168,979
134,239	-14,085	375,943	168,994
135,254	-14,108	375,715	168,848
136,268	-14,402	375,305	168,280
137,283	-14,629	374,873	167,787
138,297	-14,659	374,415	167,529
139,312	-14,596	374,246	167,518
140,327	-14,255	374,061	167,846
141,341	-13,843	374,080	168,355
142,356	-13,727	373,900	168,403
143,370	-13,754	373,588	168,215
144,385	-13,720	373,434	168,173
145,400	-13,613	372,938	168,067
146,414	-13,668	372,792	167,918
147,429	-13,908	372,534	167,488
148,443	-13,937	372,228	167,300
149,458	-13,815	371,800	167,244
150,473	-13,881	371,717	167,109
151,487	-14,073	371,328	166,682
152,502	-13,822	370,998	166,829
153,516	-13,695	370,664	166,822
154,531	-13,905	370,658	166,544
155,546	-13,815	370,107	166,394
156,560	-14,023	369,874	166,017
157,575	-13,953	369,577	165,955
158,589	-13,796	369,304	166,011
159,604	-13,595	369,107	166,155
160,619	-13,458	368,940	166,234
161,633	-13,468	368,804	166,145
162,648	-13,648	368,653	165,842
163,662	-13,644	368,140	165,600
164,677	-13,824	367,905	165,260
165,692	-13,718	367,527	165,205
166,706	-13,555	367,390	165,328
167,721	-13,505	367,361	165,361
168,735	-13,423	367,219	165,383
169,750	-13,592	366,853	164,996
170,764	-13,673	366,529	164,738
171,779	-13,539	366,334	164,798
172,794	-13,626	366,203	164,619
173,808	-13,787	365,807	164,229
174,823	-14,310	365,115	163,268
175,837	-14,497	364,770	162,872
176,852	-13,824	364,824	163,701
177,867	-13,694	364,611	163,748
178,881	-13,793	364,560	163,590
179,896	-13,604	364,265	163,672
180,910	-13,622	364,100	163,562
181,925	-13,755	364,006	163,344
182,940	-13,512	363,634	163,456
183,954	-13,473	363,258	163,320
184,969	-13,466	363,178	163,278
185,983	-13,511	362,880	163,075
186,998	-13,516	362,713	162,979
188,013	-13,383	362,403	162,986
189,027	-13,461	362,066	162,726
190,042	-13,557	361,818	162,485
191,056	-13,457	361,497	162,446
192,071	-13,237	361,254	162,587
193,086	-13,241	361,064	162,481
194,100	-12,874	361,193	162,966
195,115	-12,478	360,894	163,292
196,129	-12,026	361,187	163,953
197,144	-8,004	363,045	169,629
198,159	-4,485	364,863	174,719
199,173	-1,178	366,294	179,397
200,188	-0,410	366,386	180,355
201,202	-0,685	366,042	179,837
202,217	-0,690	365,677	179,635
203,232	-0,540	365,464	179,696
204,246	-0,355	365,293	179,820
205,261	-0,098	365,165	180,050
206,275	-0,071	365,248	180,108
207,290	0,007	364,797	179,963
208,304	-0,033	364,529	179,766
209,319	0,045	364,251	179,708
210,334	0,056	363,836	179,500
211,348	-0,237	363,613	179,022
212,363	-0,435	363,233	178,582
213,377	-0,323	363,134	178,652
214,392	-0,282	362,911	178,575
215,407	-0,137	362,704	178,631
216,421	-0,047	362,457	178,601
217,436	-0,335	362,332	178,178
218,450	-0,296	361,788	177,942
219,465	-0,466	361,697	177,678
220,480	-0,458	361,391	177,522
221,494	-0,368	361,134	177,487
222,509	-0,126	361,075	177,731
223,523	-0,102	360,805	177,610
224,538	-0,309	360,444	177,171
225,553	-0,341	360,387	177,089
226,567	-0,392	360,185	176,913
227,582	0,105	360,015	177,403
228,596	0,141	359,980	177,413
229,611	0,029	359,408	176,984
230,626	-0,446	359,095	176,252
231,640	-0,325	358,824	176,245
232,655	-0,044	358,844	176,572
233,669	0,341	358,559	176,870
234,684	0,321	358,545	176,824
235,699	0,223	358,013	176,431
236,713	-0,265	357,788	175,729
237,728	-0,296	357,415	175,494
238,742	-0,517	357,107	175,066
239,757	-0,030	356,940	175,541
240,772	-0,389	356,679	174,976
241,786	-0,334	356,453	174,914
242,801	-0,147	356,375	175,079
243,815	0,270	356,218	175,475
244,830	0,042	355,920	175,047
245,844	-0,311	355,449	174,386
246,859	-0,281	355,334	174,349
247,874	-0,177	355,283	174,430
248,888	-0,049	354,884	174,368
249,903	-0,024	354,644	174,263
250,917	-0,113	354,410	174,030
251,932	-0,247	354,122	173,716
252,947	-0,463	353,824	173,303
253,961	-0,431	353,615	173,223
254,976	-0,379	353,420	173,173
255,990	-0,041	353,333	173,508
257,005	0,007	353,162	173,463
258,020	-0,078	352,934	173,237
259,034	-0,192	352,751	173,000
260,049	0,132	352,415	173,195
261,063	0,023	352,262	172,978
262,078	0,143	352,108	173,025
263,093	0,444	351,990	173,300
264,107	0,238	351,621	172,865
265,122	0,195	351,456	172,719
266,136	0,175	351,328	172,617
267,151	0,254	350,915	172,491
268,166	-0,154	350,372	171,738
269,180	-0,504	350,100	171,188
270,195	-0,450	349,991	171,181
271,209	-0,295	349,771	171,237
272,224	-0,201	349,488	171,191
273,239	-0,149	349,655	171,317
274,253	-0,086	349,104	171,103
275,268	-0,290	348,735	170,674
276,282	-0,448	348,458	170,342
277,297	-0,361	348,316	170,357
278,312	-0,279	348,235	170,396
279,326	-0,079	347,992	170,490
280,341	-0,178	347,801	170,268
281,355	-0,157	347,763	170,258
282,370	-0,034	347,589	170,299
283,384	-0,287	347,160	169,785
284,399	-0,419	346,799	169,444
285,414	-0,314	346,479	169,392
286,428	-0,185	346,446	169,506
287,443	0,045	346,349	169,705
288,457	-0,120	346,208	169,434
289,472	-0,149	345,734	169,154
290,487	-0,562	345,371	168,493
291,501	-0,612	345,055	168,268
292,516	-0,505	344,942	168,318
293,530	-0,324	344,726	168,403
294,545	-0,235	344,665	168,458
295,560	-0,026	344,476	168,587
296,574	-0,153	344,251	168,318
297,589	-0,165	344,048	168,191
298,603	-0,157	343,733	168,031
299,618	-0,165	343,542	167,913
300,633	-0,074	343,514	167,987
301,647	0,110	343,426	168,135
302,662	0,192	343,069	168,038
303,676	0,153	342,841	167,867
304,691	0,268	342,559	167,843
305,706	0,010	342,410	167,467
306,720	-0,022	342,211	167,318
307,735	-0,253	341,800	166,845
308,749	-0,215	341,598	166,774
309,764	0,136	341,486	167,095
310,779	0,108	341,142	166,882
311,793	-0,183	340,897	166,423
312,808	-0,023	340,696	166,488
313,822	0,106	340,491	166,516
314,837	-0,051	340,353	166,259
315,852	-0,274	340,071	165,858
316,866	-0,018	339,914	166,052
317,881	0,040	339,839	166,065
318,895	-0,037	339,392	165,746
319,910	-0,259	339,107	165,346
320,925	-0,461	338,783	164,950
321,939	-0,825	338,589	164,437
322,954	-0,515	338,409	164,678
323,968	-0,023	338,543	165,273
324,983	0,185	338,282	165,361
325,997	0,506	338,067	165,596
327,012	0,400	337,713	165,291
328,027	0,088	337,647	164,899
329,041	0,472	337,484	165,228
330,056	0,164	337,324	164,796
331,070	-0,101	336,721	164,195
332,085	-0,514	336,545	163,641
333,100	-0,048	336,246	163,992
334,114	0,231	336,092	164,208
335,129	0,335	336,043	164,285
336,143	0,033	335,781	163,810
337,158	0,098	335,402	163,683
338,173	0,037	335,264	163,533
339,187	-0,140	335,022	163,208
340,202	-0,238	334,916	163,035
341,216	-0,150	334,565	162,944
342,231	0,060	334,407	163,082
343,246	-0,110	334,162	162,764
344,260	-0,180	333,926	162,558
345,275	0,070	333,913	162,808
346,289	0,130	333,669	162,740
347,304	-0,137	333,365	162,287
348,319	-0,074	333,253	162,287
349,333	0,252	333,015	162,510
350,348	0,393	332,799	162,543
351,362	0,553	332,739	162,673
352,377	0,276	332,499	162,241
353,392	0,119	332,317	161,968
354,406	0,236	332,093	161,972
355,421	197,606	1327,989	1392,544
356,435	161,788	1449,238	1392,485
