DTS Sentinel unit serial number:	SN410029Multiplexer serial number:	ORYXHardware model number:	OX2-SRSoftware version number:	ORYX F/W v4,00 Oryx Data Collector v3.7.2.0data status	okinstallation	B6 Nyhavnadifferential loss correction	single-endedforward channel	channel 2reverse channel	N/Adate	2023/12/10time	21:30:08forward acquisition time	300,00reverse acquisition time	0,00gamma	499,1914k internal	0,3123k external	0,3123temperature offset calibration	1,0000default loss term (dB/km)	0,3820temperature slope calibration	1,0000multiplexer offset coefficient	1,0000multiplexer slope coefficient	1,0000fibre end	0,00T internal ref (°C)	22,28T ext. ref 1 (°C)	6,05T ext. ref 2 (°C)	6,05length (m)	temperature (°C)	Stokes	anti-Stokes-744,400	380,938	-0,024	-0,036
-743,385	77,875	-0,295	0,234
-742,371	19,346	0,140	-0,084
-741,356	247,249	-0,151	0,190
-740,342	-200,000	0,013	-0,103
-739,327	107,632	-0,205	0,182
-738,312	-200,000	0,006	-0,079
-737,298	-44,615	-0,408	0,151
-736,283	-200,000	0,012	-0,189
-735,269	-106,334	-0,261	0,043
-734,254	431,340	0,056	0,091
-733,239	-168,773	-0,500	-0,014
-732,225	-129,348	0,131	-0,013
-731,210	408,086	0,040	0,063
-730,196	-12,701	0,094	-0,046
-729,181	-46,226	-0,055	0,020
-728,167	-200,000	-0,035	0,224
-727,152	-101,991	0,095	-0,017
-726,137	253,012	-0,089	0,113
-725,123	-200,000	0,012	-0,063
-724,108	-200,000	0,028	-0,098
-723,094	-200,000	-0,056	-0,269
-722,079	-200,000	0,005	-0,023
-721,064	-88,447	-0,145	-0,032
-720,050	-188,429	-0,099	-0,001
-719,035	262,176	-0,069	0,089
-718,021	29,014	-0,014	0,009
-717,006	-200,000	-0,020	-0,098
-715,991	186,761	-0,148	-0,164
-714,977	-130,568	-0,054	0,005
-713,962	-30,826	0,145	0,061
-712,948	-148,806	-0,114	0,007
-711,933	-84,924	0,097	-0,022
-710,918	-149,703	0,089	0,005
-709,904	-200,000	0,010	-0,045
-708,889	672,362	-0,075	-0,146
-707,875	-180,755	-0,126	-0,002
-706,860	410,371	-0,039	-0,061
-705,845	114,122	0,021	-0,019
-704,831	165,417	0,078	0,082
-703,816	-182,585	0,002	0,000
-702,802	-200,000	0,008	-0,046
-701,787	-200,000	-0,016	-0,100
-700,772	-200,000	-0,009	-0,067
-699,758	-200,000	-0,000	0,089
-698,743	-200,000	-0,028	-0,100
-697,729	82,223	0,141	0,113
-696,714	30,817	0,064	0,041
-695,699	151,082	-0,123	-0,125
-694,685	470,882	-0,021	0,035
-693,670	800,000	-0,019	-0,052
-692,656	55,378	-0,085	-0,061
-691,641	-95,050	-0,106	0,021
-690,627	-25,766	0,147	0,064
-689,612	637,263	0,013	0,025
-688,597	-108,282	-0,085	0,014
-687,583	-200,000	-0,035	-0,129
-686,568	243,543	0,047	0,059
-685,554	-166,707	-0,055	-0,002
-684,539	-200,000	0,035	0,155
-683,524	23,779	-0,133	0,081
-682,510	800,000	-0,032	0,068
-681,495	-82,357	-0,052	-0,012
-680,481	732,885	-0,076	-0,151
-679,466	388,801	-0,065	-0,101
-678,451	-85,445	-0,091	0,021
-677,437	-30,609	0,056	0,023
-676,422	800,000	-0,043	0,137
-675,408	156,144	0,093	-0,096
-674,393	-200,000	0,013	0,061
-673,378	17,519	-0,061	-0,036
-672,364	-0,921	-0,046	0,024
-671,349	289,495	0,083	-0,113
-670,335	-41,100	-0,053	-0,020
-669,320	-102,499	0,078	0,014
-668,305	-60,251	0,084	-0,026
-667,291	601,650	-0,022	-0,041
-666,276	-200,000	0,024	-0,079
-665,262	-70,132	-0,077	0,022
-664,247	-79,608	-0,142	0,035
-663,232	800,000	-0,027	-0,083
-662,218	199,569	-0,048	-0,054
-661,203	-119,907	0,076	0,010
-660,189	-200,000	0,005	-0,107
-659,174	-200,000	-0,051	-0,171
-658,159	-8,259	0,033	-0,017
-657,145	569,226	0,058	-0,106
-656,130	358,607	-0,052	-0,078
-655,116	-119,951	0,081	-0,010
-654,101	-102,929	0,128	-0,022
-653,086	-87,912	-0,026	-0,006
-652,072	-149,734	-0,048	-0,003
-651,057	-14,958	0,049	-0,023
-650,043	193,138	-0,042	-0,047
-649,028	412,247	0,096	0,152
-648,014	800,000	0,032	-0,088
-646,999	-73,266	0,061	0,017
-645,984	-54,150	0,055	0,018
-644,970	-200,000	0,005	0,085
-643,955	800,000	0,020	-0,056
-642,941	-200,000	0,007	-0,098
-641,926	-200,000	-0,012	0,070
-640,911	154,037	-0,044	-0,045
-639,897	-200,000	0,008	-0,026
-638,882	-200,000	-0,013	-0,045
-637,868	-78,164	-0,120	-0,030
-636,853	58,268	0,086	-0,062
-635,838	540,174	0,031	-0,055
-634,824	-60,231	-0,115	-0,036
-633,809	-77,129	0,040	-0,010
-632,795	-200,000	0,005	-0,062
-631,780	-200,000	-0,026	0,104
-630,765	800,000	0,037	0,085
-629,751	-36,217	-0,143	-0,057
-628,736	329,322	-0,045	-0,065
-627,722	-73,201	0,023	0,006
-626,707	-113,412	-0,049	-0,007
-625,692	-46,181	-0,074	0,027
-624,678	143,462	-0,026	0,026
-623,663	-109,230	0,127	0,020
-622,649	450,895	-0,094	-0,155
-621,634	-77,748	-0,035	0,009
-620,619	-124,686	0,094	0,011
-619,605	-68,576	-0,037	0,011
-618,590	-63,320	-0,042	-0,013
-617,576	153,069	0,066	0,067
-616,561	539,416	-0,040	-0,071
-615,546	800,000	-0,042	-0,089
-614,532	-200,000	0,000	-0,063
-613,517	-88,567	0,045	-0,010
-612,503	30,079	-0,030	-0,019
-611,488	-31,576	0,042	-0,017
-610,474	-31,313	0,125	0,052
-609,459	3,825	-0,019	-0,010
-608,444	-87,113	-0,081	0,018
-607,430	-200,000	-0,004	-0,128
-606,415	318,652	-0,083	-0,117
-605,401	-200,000	-0,019	-0,090
-604,386	-79,470	0,136	-0,034
-603,371	-23,877	-0,069	-0,030
-602,357	3,118	-0,040	0,022
-601,342	-200,000	-0,006	-0,099
-600,328	787,012	-0,035	-0,072
-599,313	-54,415	-0,025	-0,008
-598,298	93,402	0,081	0,068
-597,284	800,000	-0,039	0,083
-596,269	64,254	0,093	0,069
-595,255	-26,551	-0,035	0,015
-594,240	-200,000	0,001	-0,093
-593,225	800,000	-0,017	-0,036
-592,211	-200,000	0,012	0,093
-591,196	-200,000	-0,011	-0,087
-590,182	-55,890	0,093	-0,031
-589,167	-200,000	-0,004	0,076
-588,152	493,235	0,030	-0,051
-587,138	266,644	-0,037	0,048
-586,123	241,237	-0,061	-0,075
-585,109	-200,000	0,007	0,101
-584,094	-200,000	0,016	0,109
-583,079	24,199	-0,078	0,047
-582,065	455,377	0,103	0,169
-581,050	800,000	-0,037	0,117
-580,036	-22,993	-0,093	-0,041
-579,021	-200,000	-0,029	-0,115
-578,006	800,000	0,029	-0,064
-576,992	69,524	0,076	-0,058
-575,977	-21,827	0,049	0,022
-574,963	-200,000	-0,010	0,047
-573,948	-200,000	0,000	0,079
-572,934	-133,598	0,105	0,010
-571,919	108,302	-0,084	-0,075
-570,904	800,000	-0,037	0,120
-569,890	-13,327	0,175	-0,084
-568,875	239,904	-0,041	-0,051
-567,861	-23,510	0,149	0,066
-566,846	-200,000	0,029	0,178
-565,831	186,345	-0,009	-0,010
-564,817	339,935	-0,087	0,126
-563,802	497,102	-0,036	-0,062
-562,788	13,695	-0,127	-0,073
-561,773	48,817	-0,128	-0,088
-560,758	22,249	0,051	-0,031
-559,744	168,005	-0,034	0,036
-558,729	668,503	0,005	0,010
-557,715	800,000	-0,051	0,113
-556,700	-200,000	-0,007	-0,024
-555,685	646,084	-0,044	-0,084
-554,671	-200,000	-0,004	0,104
-553,656	-122,157	-0,006	-0,001
-552,642	-1,907	-0,035	-0,018
-551,627	-160,428	-0,032	0,001
-550,612	447,603	0,065	-0,107
-549,598	-200,000	0,010	-0,076
-548,583	22,865	0,128	-0,077
-547,569	800,000	0,017	-0,044
-546,554	-38,069	0,162	0,063
-545,539	-11,024	-0,052	0,025
-544,525	51,622	-0,061	-0,043
-543,510	-64,429	0,031	0,009
-542,496	222,807	-0,012	0,014
-541,481	-167,614	0,066	0,002
-540,466	-97,791	0,156	-0,030
-539,452	16,497	-0,044	0,025
-538,437	-200,000	-0,026	-0,163
-537,423	82,115	0,085	0,068
-536,408	-140,697	0,114	-0,009
-535,393	201,935	0,060	-0,068
-534,379	-200,000	-0,024	0,082
-533,364	-200,000	0,006	-0,078
-532,350	800,000	0,041	0,098
-531,335	800,000	-0,010	0,022
-530,321	-130,624	0,156	0,015
-529,306	-25,927	-0,085	-0,037
-528,291	38,164	-0,158	-0,104
-527,277	-48,249	-0,097	0,035
-526,262	800,000	0,011	0,035
-525,248	254,273	0,112	-0,142
-524,233	213,474	-0,021	0,025
-523,218	-73,667	0,180	0,048
-522,204	15,643	-0,094	-0,054
-521,189	298,027	-0,111	-0,152
-520,175	-200,000	-0,017	-0,173
-519,160	-200,000	0,012	0,107
-518,145	328,054	0,026	0,038
-517,131	47,468	-0,065	0,045
-516,116	32,441	0,171	0,109
-515,102	77,275	-0,096	-0,075
-514,087	-103,595	-0,049	0,008
-513,072	-51,105	-0,092	-0,032
-512,058	800,000	-0,019	0,040
-511,043	-200,000	0,004	0,031
-510,029	475,149	-0,007	0,012
-509,014	-200,000	-0,002	0,065
-507,999	482,094	-0,032	-0,054
-506,985	325,848	0,042	-0,059
-505,970	185,068	-0,038	0,042
-504,956	-29,473	-0,067	0,028
-503,941	800,000	-0,024	0,057
-502,926	-97,666	0,062	0,012
-501,912	76,768	0,058	0,045
-500,897	-200,000	0,014	0,080
-499,883	-42,329	0,010	-0,004
-498,868	-200,000	-0,027	-0,091
-497,853	800,000	-0,074	-0,187
-496,839	154,969	0,069	0,070
-495,824	-69,152	-0,107	0,030
-494,810	800,000	0,039	0,110
-493,795	-5,509	-0,089	0,045
-492,781	543,653	0,044	-0,078
-491,766	-58,665	0,046	-0,015
-490,751	594,850	0,044	0,080
-489,737	-200,000	0,005	-0,147
-488,722	800,000	0,029	-0,079
-487,708	217,836	-0,038	0,044
-486,693	-46,434	-0,067	-0,024
-485,678	-104,689	-0,055	-0,009
-484,664	-96,252	0,120	0,023
-483,649	-13,323	0,099	0,047
-482,635	-200,000	-0,022	0,129
-481,620	-12,022	-0,047	0,023
-480,605	187,820	0,041	0,045
-479,591	326,346	0,034	0,048
-478,576	-81,318	-0,058	-0,014
-477,562	-200,000	-0,018	0,168
-476,547	-116,288	-0,183	-0,025
-475,532	-84,763	-0,037	0,008
-474,518	-200,000	0,100	-0,000
-473,503	-123,055	0,116	-0,014
-472,489	-126,319	-0,035	0,004
-471,474	-125,765	0,066	-0,007
-470,459	800,000	0,042	0,110
-469,445	55,496	0,007	0,005
-468,430	-61,942	0,090	0,028
-467,416	-52,025	-0,047	-0,016
-466,401	-89,990	-0,069	-0,015
-465,386	119,567	0,100	-0,092
-464,372	-49,643	0,040	-0,014
-463,357	457,682	-0,074	0,122
-462,343	22,253	-0,105	0,063
-461,328	800,000	-0,032	0,066
-460,313	-11,757	-0,127	-0,061
-459,299	102,944	0,096	-0,083
-458,284	800,000	0,014	0,041
-457,270	-200,000	-0,017	-0,068
-456,255	66,426	-0,043	0,032
-455,241	800,000	-0,003	-0,011
-454,226	-47,050	-0,041	0,015
-453,211	770,391	-0,022	-0,044
-452,197	-40,320	-0,098	0,037
-451,182	19,207	0,106	0,063
-450,168	364,865	-0,009	0,014
-449,153	-200,000	0,011	-0,044
-448,138	-10,868	-0,058	-0,028
-447,124	70,429	0,112	-0,085
-446,109	-28,272	0,030	-0,013
-445,095	800,000	-0,037	0,088
-444,080	-69,128	0,080	0,023
-443,065	800,000	-0,039	0,104
-442,051	216,310	-0,045	-0,053
-441,036	-32,346	-0,055	0,022
-440,022	263,845	0,052	-0,067
-439,007	39,679	-0,078	0,052
-437,992	-19,982	0,065	-0,030
-436,978	-200,000	0,021	-0,080
-435,963	708,213	0,036	-0,070
-434,949	47,900	0,150	-0,103
-433,934	-104,349	-0,061	0,010
-432,919	800,000	0,046	0,118
-431,905	239,977	0,032	-0,039
-430,890	372,617	0,046	0,070
-429,876	108,720	0,042	0,037
-428,861	354,365	-0,087	0,127
-427,846	146,250	0,061	-0,060
-426,832	-137,800	-0,131	-0,011
-425,817	433,993	-0,059	-0,095
-424,803	-51,210	-0,058	0,020
-423,788	800,000	0,035	0,072
-422,773	-117,109	-0,014	-0,002
-421,759	-200,000	0,000	0,110
-420,744	800,000	0,011	-0,034
-419,730	800,000	0,035	-0,079
-418,715	-13,963	-0,236	-0,112
-417,701	83,099	-0,111	-0,088
-416,686	-6,329	0,116	-0,058
-415,671	94,187	-0,085	0,071
-414,657	544,141	-0,069	0,122
-413,642	-106,796	-0,125	-0,020
-412,628	-87,366	-0,130	-0,029
-411,613	-200,000	0,003	-0,103
-410,598	800,000	-0,058	0,138
-409,584	-109,047	-0,067	0,010
-408,569	-70,145	0,064	0,018
-407,555	-200,000	0,004	0,029
-406,540	409,759	0,041	0,065
-405,525	-135,791	-0,074	0,006
-404,511	772,839	0,010	-0,021
-403,496	-80,309	-0,060	-0,015
-402,482	248,320	0,038	0,048
-401,467	-200,000	0,001	0,104
-400,452	-56,894	-0,081	0,026
-399,438	0,041	0,204	0,107
-398,423	-3,984	0,052	0,026
-397,409	-131,096	0,077	-0,007
-396,394	-135,844	-0,083	-0,007
-395,379	-200,000	-0,015	0,083
-394,365	-117,406	0,168	0,022
-393,350	124,856	-0,025	-0,023
-392,336	-200,000	0,011	0,093
-391,321	198,662	-0,103	-0,116
-390,306	800,000	0,023	0,062
-389,292	-200,000	0,015	-0,112
-388,277	-11,502	0,065	-0,031
-387,263	100,446	0,073	0,062
-386,248	-88,907	0,084	0,018
-385,233	800,000	0,009	0,024
-384,219	-200,000	0,001	-0,121
-383,204	132,862	-0,059	0,056
-382,190	30,065	-0,088	-0,055
-381,175	-44,016	0,157	-0,058
-380,160	-200,000	-0,020	0,107
-379,146	-2,625	-0,106	0,054
-378,131	-41,355	-0,009	-0,003
-377,117	800,000	-0,032	-0,068
-376,102	-200,000	0,008	0,040
-375,088	-47,120	-0,063	-0,022
-374,073	26,910	0,020	0,012
-373,058	-142,795	0,061	0,004
-372,044	800,000	-0,067	0,142
-371,029	379,371	-0,090	0,135
-370,015	416,913	0,043	-0,068
-369,000	-200,000	0,005	0,057
-367,985	-95,323	-0,081	0,016
-366,971	800,000	0,014	-0,031
-365,956	-43,900	-0,126	0,046
-364,942	-200,000	0,007	0,104
-363,927	-162,884	-0,072	0,003
-362,912	-200,000	-0,009	0,052
-361,898	463,450	0,015	-0,025
-360,883	-139,049	-0,131	-0,010
-359,869	-33,583	-0,099	-0,040
-358,854	492,582	-0,079	-0,134
-357,839	745,455	0,052	-0,102
-356,825	-49,636	-0,073	0,025
-355,810	-160,430	-0,152	-0,006
-354,796	38,037	-0,056	-0,037
-353,781	303,326	0,084	-0,115
-352,766	535,449	0,030	-0,052
-351,752	800,000	-0,017	0,050
-350,737	800,000	-0,018	0,038
-349,723	97,562	-0,129	0,109
-348,708	-41,596	0,131	-0,049
-347,693	-200,000	0,017	-0,110
-346,679	-200,000	0,032	0,125
-345,664	-73,401	-0,101	-0,027
-344,650	-200,000	0,026	0,108
-343,635	-200,000	-0,026	0,152
-342,620	-200,000	-0,008	-0,053
-341,606	-64,724	-0,066	-0,019
-340,591	800,000	-0,048	-0,136
-339,577	-34,216	-0,011	-0,004
-338,562	167,883	0,090	0,094
-337,548	92,836	0,118	-0,098
-336,533	284,453	-0,006	0,008
-335,518	758,482	0,053	-0,106
-334,504	309,132	0,036	0,049
-333,489	-157,195	0,085	-0,004
-332,475	331,721	0,030	-0,043
-331,460	-33,827	0,042	-0,017
-330,445	-200,000	-0,003	-0,032
-329,431	98,280	0,050	-0,043
-328,416	-104,373	-0,044	0,007
-327,402	411,695	0,029	-0,045
-326,387	-200,000	-0,005	0,195
-325,372	800,000	-0,019	0,041
-324,358	-200,000	0,017	0,081
-323,343	-3,092	0,065	-0,033
-322,329	605,601	-0,044	-0,081
-321,314	78,889	0,062	-0,049
-320,299	395,115	0,052	-0,080
-319,285	-116,642	0,155	-0,021
-318,270	800,000	-0,026	-0,059
-317,256	6,756	0,054	-0,029
-316,241	-28,218	0,133	0,056
-315,226	-42,550	0,051	0,019
-314,212	800,000	0,033	0,072
-313,197	800,000	0,026	0,068
-312,183	-132,391	-0,042	0,004
-311,168	-185,563	-0,055	0,001
-310,153	335,357	0,057	-0,081
-309,139	-200,000	-0,037	-0,166
-308,124	-36,420	0,050	-0,020
-307,110	176,601	-0,040	0,042
-306,095	152,499	0,082	0,082
-305,080	469,970	-0,096	0,158
-304,066	-121,524	0,162	0,020
-303,051	281,823	-0,083	-0,109
-302,037	147,921	-0,040	-0,040
-301,022	8,180	0,111	0,061
-300,008	-200,000	-0,009	0,086
-298,993	-200,000	-0,003	-0,057
-297,978	-200,000	0,018	0,060
-296,964	-200,000	-0,002	-0,136
-295,949	-90,869	-0,111	-0,023
-294,935	-80,422	0,154	-0,037
-293,920	800,000	-0,023	-0,074
-292,905	389,141	0,039	0,059
-291,891	233,197	0,065	0,079
-290,876	38,292	-0,108	0,070
-289,862	-147,205	0,026	0,002
-288,847	-69,891	-0,131	0,036
-287,832	142,465	0,027	0,026
-286,818	-200,000	-0,015	0,086
-285,803	-200,000	0,014	0,216
-284,789	-103,605	-0,122	0,021
-283,774	800,000	0,019	-0,053
-282,759	-75,454	0,095	-0,025
-281,745	-6,284	0,056	0,028
-280,730	-95,976	-0,071	0,014
-279,716	-200,000	0,012	-0,045
-278,701	0,266	-0,096	-0,050
-277,686	58,552	0,088	0,063
-276,672	76,659	0,065	0,050
-275,657	-46,727	-0,072	-0,026
-274,643	-200,000	0,008	0,107
-273,628	-200,000	0,015	-0,052
-272,613	2,549	-0,138	0,073
-271,599	-200,000	-0,009	-0,043
-270,584	32,203	0,208	-0,131
-269,570	-127,890	0,051	0,005
-268,555	238,334	0,041	0,050
-267,540	218,517	-0,082	0,096
-266,526	31,821	-0,047	0,030
-265,511	161,989	0,109	0,112
-264,497	550,562	0,069	0,122
-263,482	166,853	-0,065	0,067
-262,467	-200,000	0,021	-0,096
-261,453	23,100	-0,041	0,025
-260,438	800,000	-0,035	0,096
-259,424	800,000	-0,035	0,083
-258,409	122,022	-0,086	-0,079
-257,395	212,494	0,072	0,083
-256,380	-200,000	-0,017	-0,145
-255,365	-200,000	-0,003	-0,202
-254,351	78,455	0,041	0,032
-253,336	112,172	-0,145	-0,128
-252,322	33,831	0,085	-0,054
-251,307	-200,000	0,023	-0,116
-250,292	420,225	0,061	-0,096
-249,278	152,231	0,096	-0,096
-248,263	-78,902	-0,047	0,012
-247,249	-200,000	0,006	-0,103
-246,234	86,593	-0,084	-0,068
-245,219	-79,242	-0,078	0,019
-244,205	68,674	0,094	-0,070
-243,190	479,218	-0,002	0,003
-242,176	-200,000	0,011	-0,043
-241,161	155,681	0,038	-0,039
-240,146	-41,247	0,093	-0,035
-239,132	111,087	-0,099	-0,087
-238,117	-150,407	-0,091	0,005
-237,103	93,322	-0,089	-0,074
-236,088	-71,630	-0,032	0,009
-235,073	70,628	0,093	-0,070
-234,059	-30,498	0,102	-0,042
-233,044	-34,304	-0,134	-0,053
-232,030	-59,087	-0,165	0,052
-231,015	-154,698	0,097	0,005
-230,000	-44,743	-0,078	-0,028
-228,986	-45,526	-0,021	-0,007
-227,971	-200,000	-0,004	0,058
-226,957	242,643	-0,015	0,018
-225,942	800,000	-0,030	0,085
-224,927	-12,536	-0,119	0,057
-223,913	124,225	-0,006	-0,005
-222,898	-152,784	-0,045	-0,002
-221,884	144,240	0,143	-0,139
-220,869	46,403	0,007	-0,005
-219,855	103,310	0,093	0,080
-218,840	800,000	-0,023	0,073
-217,825	-200,000	-0,033	0,169
-216,811	-200,000	0,003	-0,012
-215,796	-200,000	-0,015	-0,124
-214,782	-200,000	-0,080	0,000
-213,767	8,258	0,179	-0,098
-212,752	-7,646	0,134	0,066
-211,738	-43,396	0,117	0,043
-210,723	-77,997	0,069	0,017
-209,709	-21,053	-0,072	-0,032
-208,694	-200,000	-0,015	0,102
-207,679	-29,436	0,076	0,032
-206,665	-200,000	-0,007	-0,062
-205,650	-124,219	0,058	-0,007
-204,636	800,000	-0,061	0,126
-203,621	513,859	0,072	0,123
-202,606	-14,585	-0,080	0,037
-201,592	-200,000	-0,003	-0,057
-200,577	800,000	0,064	-0,155
-199,563	-200,000	0,012	0,132
-198,548	271,960	0,068	0,087
-197,533	666,437	0,055	0,103
-196,519	262,612	-0,042	-0,053
-195,504	16,153	-0,010	-0,006
-194,490	-98,512	-0,218	-0,040
-193,475	-10,686	-0,054	-0,026
-192,460	77,568	0,133	0,103
-191,446	-200,000	0,028	0,100
-190,431	-200,000	0,020	0,073
-189,417	482,130	-0,082	0,136
-188,402	-200,000	0,003	0,024
-187,387	156,525	0,075	-0,075
-186,373	800,000	-0,054	-0,113
-185,358	762,821	0,045	-0,090
-184,344	276,132	0,047	-0,061
-183,329	800,000	0,043	-0,103
-182,315	-164,410	0,039	0,001
-181,300	-200,000	-0,021	0,130
-180,285	-200,000	-0,000	-0,020
-179,271	-200,000	0,006	-0,168
-178,256	-200,000	-0,006	0,056
-177,242	-5,601	-0,065	0,032
-176,227	-92,789	0,177	0,036
-175,212	545,881	-0,011	-0,019
-174,198	-200,000	0,007	0,083
-173,183	-200,000	-0,040	-0,169
-172,169	-200,000	0,018	-0,068
-171,154	163,417	0,035	0,036
-170,139	-81,853	0,059	0,014
-169,125	-200,000	0,022	-0,165
-168,110	-122,964	-0,032	0,004
-167,096	-87,993	-0,172	0,037
-166,081	9,261	-0,093	-0,051
-165,066	-125,264	-0,028	-0,003
-164,052	-135,653	-0,190	0,016
-163,037	-47,942	0,109	-0,038
-162,023	800,000	0,005	-0,016
-161,008	-33,430	0,073	0,029
-159,993	-13,284	0,062	-0,029
-158,979	-118,098	-0,086	-0,011
-157,964	473,752	0,032	-0,053
-156,950	800,000	-0,017	-0,036
-155,935	61,391	0,088	-0,064
-154,920	-200,000	0,005	0,060
-153,906	-200,000	0,018	0,165
-152,891	-200,000	-0,002	0,018
-151,877	-200,000	0,008	-0,028
-150,862	-200,000	0,009	-0,088
-149,847	198,682	0,082	-0,092
-148,833	9,730	-0,088	-0,049
-147,818	265,306	0,020	-0,025
-146,804	7,963	-0,052	-0,028
-145,789	126,174	0,062	-0,057
-144,775	239,525	-0,074	0,090
-143,760	-64,525	0,032	0,009
-142,745	800,000	0,033	-0,099
-141,731	800,000	-0,034	0,071
-140,716	-74,312	0,044	-0,011
-139,702	-145,971	0,070	-0,004
-138,687	297,225	0,063	0,084
-137,672	202,729	-0,073	-0,083
-136,658	-62,954	0,090	-0,027
-135,643	800,000	0,021	0,055
-134,629	800,000	-0,084	-0,172
-133,614	-122,066	0,147	-0,017
-132,599	-91,651	-0,066	0,014
-131,585	800,000	-0,025	0,065
-130,570	-200,000	0,002	-0,055
-129,556	800,000	-0,052	-0,131
-128,541	-121,852	-0,203	0,024
-127,526	-69,001	-0,102	0,028
-126,512	-200,000	0,014	0,087
-125,497	-200,000	0,005	-0,056
-124,483	337,243	-0,057	0,081
-123,468	-35,607	0,059	0,023
-122,453	280,343	0,057	0,074
-121,439	-30,515	0,165	0,068
-120,424	800,000	-0,047	-0,094
-119,410	307,300	-0,014	-0,019
-118,395	-90,473	0,100	0,021
-117,380	-100,719	-0,075	0,013
-116,366	131,549	-0,028	-0,026
-115,351	-106,423	-0,125	0,020
-114,337	190,798	0,040	0,044
-113,322	-200,000	-0,006	-0,101
-112,307	-18,644	-0,022	-0,010
-111,293	-146,181	0,166	0,010
-110,278	158,114	-0,041	0,041
-109,264	800,000	-0,051	0,104
-108,249	-200,000	-0,008	-0,050
-107,234	-38,366	-0,067	-0,026
-106,220	231,948	0,011	0,014
-105,205	-114,233	-0,173	-0,024
-104,191	-200,000	0,007	0,149
-103,176	-200,000	0,019	0,176
-102,162	593,397	0,054	0,098
-101,147	7,653	-0,092	0,050
-100,132	-39,206	-0,075	0,029
-99,118	-145,797	-0,089	0,006
-98,103	800,000	0,044	0,097
-97,089	25,522	0,140	0,085
-96,074	-200,000	-0,019	-0,074
-95,059	-119,178	0,086	-0,011
-94,045	96,030	0,035	0,029
-93,030	-200,000	-0,018	-0,101
-92,016	-187,630	-0,075	-0,001
-91,001	-200,000	-0,010	-0,051
-89,986	176,456	0,037	-0,039
-88,972	-200,000	0,005	0,263
-87,957	193,458	-0,088	0,097
-86,943	-200,000	0,002	-0,163
-85,928	55,155	-0,073	0,051
-84,913	579,301	0,044	-0,079
-83,899	-200,000	-0,005	0,066
-82,884	94,329	0,112	-0,092
-81,870	63,418	0,054	0,039
-80,855	-13,375	-0,064	-0,030
-79,840	-200,000	-0,020	0,109
-78,826	263,052	0,062	-0,078
-77,811	-45,221	-0,119	-0,043
-76,797	-200,000	-0,058	0,216
-75,782	563,405	0,077	-0,136
-74,767	-28,195	0,021	-0,009
-73,753	22,965	0,069	-0,041
-72,738	800,000	0,024	-0,070
-71,724	154,450	-0,072	0,072
-70,709	-59,526	-0,191	-0,059
-69,694	800,000	0,032	0,071
-68,680	-105,422	0,128	-0,021
-67,665	800,000	0,029	0,067
-66,651	-130,021	0,069	-0,007
-65,636	-200,000	0,013	-0,096
-64,622	-107,857	0,140	-0,022
-63,607	255,969	-0,050	0,062
-62,592	40,991	-0,084	-0,055
-61,578	800,000	0,020	0,062
-60,563	-200,000	0,035	0,153
-59,549	-200,000	0,040	0,149
-58,534	-115,215	-1,303	-0,177
-57,519	480,477	-0,869	-1,436
-56,505	-200,000	-0,864	-4,500
-55,490	43,677	0,489	-0,324
-54,476	800,000	5,048	11,865
-53,461	-200,000	13,693	253,377
-52,446	-200,000	690,425	2257,517
-51,432	589,292	1622,977	2914,885
-50,417	118,912	1634,982	1466,276
-49,403	73,076	1288,752	976,447
-48,388	37,966	1024,372	659,563
-47,373	24,203	982,079	587,048
-46,359	23,479	971,587	578,379
-45,344	22,533	967,167	572,635
-44,330	22,385	965,943	571,404
-43,315	22,339	964,496	570,376
-42,300	22,346	963,462	569,763
-41,286	22,310	962,531	569,073
-40,271	22,238	961,717	568,336
-39,257	22,245	960,557	567,650
-38,242	22,289	959,615	567,214
-37,227	22,327	958,666	566,753
-36,213	22,254	957,851	566,014
-35,198	22,225	956,977	565,378
-34,184	22,338	956,356	565,357
-33,169	22,241	955,612	564,581
-32,154	22,322	954,604	564,222
-31,140	22,363	953,638	563,763
-30,125	22,311	952,913	563,144
-29,111	22,309	952,130	562,651
-28,096	22,295	951,532	562,233
-27,082	22,320	950,658	561,774
-26,067	22,309	949,961	561,303
-25,052	22,347	949,218	560,965
-24,038	22,323	948,674	560,544
-23,023	22,376	947,953	560,264
-22,009	22,323	947,353	559,718
-20,994	22,339	946,572	559,285
-19,979	22,386	946,045	559,102
-18,965	22,371	945,183	558,524
-17,950	22,305	944,811	558,069
-16,936	22,229	944,072	557,369
-15,921	22,235	943,623	557,102
-14,906	22,216	942,685	556,465
-13,892	22,230	941,964	556,062
-12,877	22,193	941,576	555,692
-11,863	22,193	940,792	555,207
-10,848	22,204	940,272	554,913
-9,833	22,299	939,888	554,967
-8,819	22,310	939,132	554,534
-7,804	22,197	938,706	553,901
-6,790	22,158	938,062	553,375
-5,775	22,238	937,408	553,223
-4,760	22,216	936,704	552,716
-3,746	22,204	936,186	552,350
-2,731	22,009	935,597	551,364
-1,717	22,008	934,692	550,807
-0,702	22,062	933,953	550,518
0,313	21,833	933,477	550,346
1,327	24,955	931,437	558,912
2,342	34,828	796,084	503,994
3,356	33,026	451,737	283,251
4,371	1,972	294,062	153,377
5,386	-2,730	275,055	138,996
6,400	-4,217	269,214	134,650
7,415	-4,657	266,791	133,022
8,429	-4,432	265,506	132,576
9,444	-4,655	264,611	131,913
10,459	-4,518	264,103	131,773
11,473	-4,405	263,336	131,481
12,488	-4,680	262,986	131,046
13,502	-4,809	262,451	130,650
14,517	-4,856	261,955	130,349
15,531	-4,711	261,711	130,347
16,546	-4,574	261,116	130,162
17,561	-4,718	260,916	129,921
18,575	-4,615	260,643	129,867
19,590	-4,772	260,144	129,465
20,604	-4,630	259,975	129,497
21,619	-4,655	259,552	129,252
22,634	-4,540	259,215	129,176
23,648	-4,648	258,915	128,918
24,663	-4,860	258,917	128,719
25,677	-4,692	258,449	128,624
26,692	-4,692	258,226	128,502
27,707	-4,638	257,830	128,341
28,721	-4,844	257,627	128,046
29,736	-4,658	257,389	128,081
30,750	-4,628	257,173	127,989
31,765	-4,758	256,860	127,706
32,780	-4,863	256,695	127,520
33,794	-4,651	256,427	127,563
34,809	-4,737	256,190	127,358
35,823	-4,828	256,043	127,193
36,838	-4,921	255,692	126,926
37,853	-4,720	255,477	126,985
38,867	-5,031	255,427	126,675
39,882	-4,948	255,180	126,613
40,896	-4,976	254,803	126,391
41,911	-4,712	254,560	126,490
42,926	-4,848	254,323	126,243
43,940	-5,018	254,184	126,013
44,955	-5,007	253,935	125,888
45,969	-4,980	253,691	125,780
46,984	-5,237	253,410	125,405
47,999	-5,388	253,306	125,210
49,013	-5,412	252,940	124,997
50,028	-5,538	252,780	124,798
51,042	-5,747	252,402	124,418
52,057	-5,711	252,173	124,326
53,071	-5,644	252,016	124,296
54,086	-5,502	251,972	124,386
55,101	-5,515	251,730	124,244
56,115	-5,216	251,536	124,396
57,130	-4,823	251,600	124,757
58,144	-4,557	251,343	124,848
59,159	-4,587	251,146	124,713
60,174	-4,614	250,798	124,506
61,188	-4,555	250,710	124,502
62,203	-4,704	250,559	124,287
63,217	-4,633	250,140	124,129
64,232	-4,540	250,223	124,240
65,247	-4,533	249,800	124,024
66,261	-4,525	249,595	123,918
67,276	-4,964	249,409	123,439
68,290	-5,242	249,160	123,067
69,305	-5,269	248,838	122,873
70,320	-5,075	248,702	122,961
71,334	-4,758	248,474	123,107
72,349	-4,688	248,576	123,208
73,363	-4,619	248,280	123,108
74,378	-4,567	248,030	123,017
75,393	-4,775	247,862	122,747
76,407	-4,661	247,741	122,772
77,422	-4,801	247,460	122,503
78,436	-4,513	247,173	122,595
79,451	-4,725	247,095	122,366
80,466	-4,914	246,919	122,107
81,480	-4,901	246,451	121,876
82,495	-4,927	246,432	121,834
83,509	-4,998	246,214	121,654
84,524	-4,927	246,082	121,639
85,539	-4,922	245,697	121,442
86,553	-5,081	245,514	121,207
87,568	-5,027	245,347	121,159
88,582	-5,092	245,362	121,101
89,597	-5,046	245,172	121,035
90,611	-4,780	244,998	121,162
91,626	-4,901	244,861	120,981
92,641	-4,617	244,517	121,039
93,655	-4,868	244,423	120,772
94,670	-4,870	244,182	120,640
95,684	-5,006	244,055	120,453
96,699	-4,971	243,830	120,359
97,714	-5,001	243,585	120,203
98,728	-5,189	243,486	119,986
99,743	-5,093	243,318	119,973
100,757	-5,135	242,976	119,759
101,772	-5,149	242,828	119,664
102,787	-5,267	242,700	119,492
103,801	-5,218	242,493	119,420
104,816	-4,883	242,362	119,623
105,830	-4,742	242,169	119,634
106,845	-4,897	242,200	119,510
107,860	-4,700	241,816	119,472
108,874	-5,070	241,629	119,064
109,889	-4,969	241,588	119,117
110,903	-5,065	241,282	118,875
111,918	-4,940	241,177	118,916
112,933	-4,941	240,926	118,782
113,947	-4,859	240,716	118,735
114,962	-4,967	240,796	118,675
115,976	-4,662	240,383	118,712
116,991	-5,022	240,314	118,371
118,006	-4,919	240,048	118,314
119,020	-4,864	239,868	118,260
120,035	-4,820	239,917	118,309
121,049	-4,604	239,656	118,347
122,064	-4,716	239,327	118,083
123,079	-4,854	239,295	117,944
124,093	-4,967	239,042	117,716
125,108	-5,052	238,782	117,508
126,122	-5,339	238,590	117,168
127,137	-5,470	238,341	116,929
128,151	-5,312	238,269	117,012
129,166	-5,231	238,295	117,081
130,181	-5,126	237,990	117,006
131,195	-5,195	237,782	116,837
132,210	-4,918	237,644	116,984
133,224	-4,811	237,489	116,983
134,239	-4,826	237,288	116,862
135,254	-4,637	237,111	116,917
136,268	-4,839	236,775	116,578
137,283	-5,059	236,595	116,301
138,297	-5,114	236,312	116,107
139,312	-5,270	236,228	115,930
140,327	-4,955	236,142	116,132
141,341	-4,663	236,312	116,440
142,356	-4,542	235,956	116,352
143,370	-4,488	235,800	116,308
144,385	-4,390	235,852	116,402
145,400	-4,493	235,495	116,133
146,414	-4,617	235,462	116,006
147,429	-4,525	235,079	115,881
148,443	-4,777	235,060	115,659
149,458	-4,684	234,929	115,660
150,473	-4,327	234,748	115,845
151,487	-4,637	234,550	115,490
152,502	-4,459	234,315	115,506
153,516	-4,537	234,219	115,386
154,531	-4,478	234,050	115,339
155,546	-4,508	233,713	115,139
156,560	-4,597	233,714	115,058
157,575	-4,757	233,427	114,779
158,589	-4,803	233,261	114,651
159,604	-4,512	233,150	114,817
160,619	-4,282	233,106	114,968
161,633	-4,449	232,890	114,719
162,648	-4,496	232,859	114,656
163,662	-4,641	232,558	114,383
164,677	-4,653	232,467	114,319
165,692	-4,513	232,386	114,380
166,706	-4,137	232,065	114,509
167,721	-4,534	232,128	114,215
168,735	-4,148	231,882	114,389
169,750	-4,404	231,830	114,151
170,764	-4,529	231,548	113,903
171,779	-4,513	231,481	113,873
172,794	-4,517	231,474	113,856
173,808	-4,621	231,096	113,578
174,823	-4,957	230,575	113,048
175,837	-4,891	230,550	113,078
176,852	-4,717	230,562	113,210
177,867	-4,616	230,494	113,246
178,881	-4,507	230,406	113,278
179,896	-4,369	230,184	113,267
180,910	-4,567	230,077	113,049
181,925	-4,384	229,885	113,087
182,940	-4,770	229,786	112,727
183,954	-4,377	229,488	112,878
184,969	-4,303	229,345	112,855
185,983	-4,405	229,297	112,741
186,998	-4,279	229,025	112,696
188,013	-4,257	228,969	112,675
189,027	-4,175	228,711	112,602
190,042	-4,099	228,525	112,559
191,056	-4,422	228,502	112,287
192,071	-4,302	228,200	112,222
193,086	-4,405	228,197	112,131
194,100	-4,339	228,037	112,093
195,115	-4,401	227,603	111,822
196,129	-5,346	227,411	110,988
197,144	-2,007	228,354	114,026
198,159	2,253	229,587	117,943
199,173	4,206	230,115	119,722
200,188	4,502	229,893	119,825
201,202	4,282	229,950	119,673
202,217	4,562	229,741	119,771
203,232	4,700	229,447	119,714
204,246	4,828	229,501	119,830
205,261	4,828	229,360	119,746
206,275	4,877	229,210	119,695
207,290	4,923	229,135	119,681
208,304	5,047	228,876	119,631
209,319	5,141	228,681	119,590
210,334	4,849	228,479	119,250
211,348	4,748	228,334	119,085
212,363	4,183	228,039	118,486
213,377	3,952	227,851	118,201
214,392	4,163	227,692	118,270
215,407	4,119	227,587	118,170
216,421	4,369	227,480	118,297
217,436	4,168	227,189	117,980
218,450	3,910	227,051	117,701
219,465	3,975	226,856	117,639
220,480	4,047	226,780	117,645
221,494	4,076	226,598	117,561
222,509	4,076	226,633	117,569
223,523	4,096	226,372	117,439
224,538	3,841	226,229	117,159
225,553	4,105	226,127	117,297
226,567	4,209	225,952	117,275
227,582	4,353	225,961	117,379
228,596	4,726	225,647	117,489
229,611	4,100	225,561	116,958
230,626	3,936	225,363	116,721
231,640	3,979	225,259	116,689
232,655	4,293	225,214	116,893
233,669	4,827	225,025	117,189
234,684	4,914	224,894	117,177
235,699	4,500	224,721	116,762
236,713	4,590	224,348	116,626
237,728	3,931	224,541	116,219
238,742	4,003	224,101	116,035
239,757	4,063	224,023	116,029
240,772	4,001	223,893	115,905
241,786	3,975	223,804	115,829
242,801	4,164	223,691	115,902
243,815	4,566	223,504	116,097
244,830	4,244	223,501	115,843
245,844	4,214	223,168	115,638
246,859	4,471	223,068	115,768
247,874	4,212	222,981	115,519
248,888	4,319	222,878	115,535
249,903	4,263	222,774	115,429
250,917	4,134	222,508	115,185
251,932	4,118	222,233	115,020
252,947	4,030	222,085	114,867
253,961	3,975	221,948	114,745
254,976	4,156	221,776	114,781
255,990	4,208	221,800	114,822
257,005	4,304	221,658	114,810
258,020	4,372	221,521	114,779
259,034	4,818	221,205	114,936
260,049	4,301	221,252	114,566
261,063	4,404	221,082	114,544
262,078	4,412	220,980	114,488
263,093	4,501	220,807	114,453
264,107	4,450	220,638	114,318
265,122	4,473	220,514	114,261
266,136	4,544	220,445	114,267
267,151	4,585	220,259	114,191
268,166	4,165	219,993	113,733
269,180	4,041	219,745	113,503
270,195	3,992	219,619	113,392
271,209	4,186	219,528	113,478
272,224	4,140	219,580	113,461
273,239	4,131	219,399	113,350
274,253	4,155	219,107	113,207
275,268	3,809	218,985	112,879
276,282	3,590	218,950	112,691
277,297	3,796	218,609	112,656
278,312	3,717	218,660	112,615
279,326	3,920	218,545	112,694
280,341	4,104	218,322	112,703
281,355	4,105	218,207	112,635
282,370	4,191	218,013	112,588
283,384	4,108	217,828	112,421
284,399	3,878	217,680	112,167
285,414	3,807	217,636	112,082
286,428	3,911	217,444	112,050
287,443	4,077	217,399	112,137
288,457	4,216	217,258	112,155
289,472	3,877	217,203	111,871
290,487	3,785	216,862	111,618
291,501	3,635	216,571	111,349
292,516	3,803	216,458	111,404
293,530	3,845	216,539	111,466
294,545	3,883	216,458	111,441
295,560	3,826	216,310	111,314
296,574	4,187	216,055	111,434
297,589	4,221	215,817	111,326
298,603	4,042	215,830	111,194
299,618	4,120	215,780	111,214
300,633	4,039	215,721	111,115
301,647	4,409	215,669	111,346
302,662	4,422	215,498	111,257
303,676	4,444	215,204	111,111
304,691	4,388	215,010	110,961
305,706	4,368	214,956	110,908
306,720	4,452	214,770	110,863
307,735	4,310	214,521	110,623
308,749	4,065	214,408	110,379
309,764	4,129	214,298	110,359
310,779	4,318	214,165	110,415
311,793	4,235	214,126	110,326
312,808	4,334	213,727	110,181
313,822	4,180	213,710	110,052
314,837	4,226	213,495	109,965
315,852	3,865	213,438	109,669
316,866	4,183	213,277	109,803
317,881	4,407	213,199	109,912
318,895	4,355	213,025	109,776
319,910	4,099	212,892	109,515
320,925	3,617	212,685	109,056
321,939	3,564	212,484	108,906
322,954	3,877	212,421	109,086
323,968	4,113	212,333	109,198
324,983	4,473	212,202	109,377
325,997	4,209	212,316	109,239
327,012	4,301	211,983	109,122
328,027	4,267	211,967	109,080
329,041	4,491	211,747	109,116
330,056	4,624	211,641	109,145
331,070	4,352	211,527	108,885
332,085	4,014	211,117	108,426
333,100	4,037	211,015	108,380
334,114	4,083	210,966	108,377
335,129	3,932	210,847	108,201
336,143	3,699	210,788	107,997
337,158	3,966	210,540	108,047
338,173	4,075	210,326	108,005
339,187	3,984	210,279	107,907
340,202	3,714	210,130	107,631
341,216	3,819	209,993	107,625
342,231	3,678	209,832	107,435
343,246	3,891	209,635	107,473
344,260	3,860	209,804	107,529
345,275	3,833	209,653	107,422
346,289	4,056	209,438	107,458
347,304	4,058	209,444	107,454
348,319	4,075	209,135	107,297
349,333	4,105	209,126	107,304
350,348	4,169	208,934	107,240
351,362	4,498	208,814	107,398
352,377	4,303	208,728	107,209
353,392	4,085	208,541	106,952
354,406	4,164	208,342	106,895
355,421	194,606	1345,634	1436,674
356,435	155,302	1484,299	1436,801
