DTS Sentinel unit serial number:	SN410029Multiplexer serial number:	ORYXHardware model number:	OX2-SRSoftware version number:	ORYX F/W v4,00 Oryx Data Collector v3.7.2.0data status	okinstallation	B6 Nyhavnadifferential loss correction	single-endedforward channel	channel 2reverse channel	N/Adate	2023/12/08time	10:35:08forward acquisition time	300,00reverse acquisition time	0,00gamma	499,1914k internal	0,3163k external	0,3163temperature offset calibration	1,0000default loss term (dB/km)	0,3820temperature slope calibration	1,0000multiplexer offset coefficient	1,0000multiplexer slope coefficient	1,0000fibre end	0,00T internal ref (°C)	14,49T ext. ref 1 (°C)	-1,28T ext. ref 2 (°C)	-1,24length (m)	temperature (°C)	Stokes	anti-Stokes-744,400	-122,920	0,091	0,011
-743,385	-115,028	-0,283	0,039
-742,371	-200,000	0,007	0,160
-741,356	-65,785	-0,273	0,080
-740,342	-200,000	-0,019	0,100
-739,327	-154,904	-0,286	-0,014
-738,312	-3,820	0,020	0,010
-737,298	-105,529	-0,381	-0,063
-736,283	-32,857	0,241	0,098
-735,269	-168,057	-0,301	-0,008
-734,254	-36,672	0,115	0,045
-733,239	-21,416	-0,375	-0,168
-732,225	-141,570	0,170	0,012
-731,210	34,613	0,060	0,038
-730,196	37,366	0,128	0,083
-729,181	-200,000	0,004	0,101
-728,167	-200,000	-0,003	0,027
-727,152	-105,163	-0,124	-0,021
-726,137	48,348	-0,032	-0,022
-725,123	800,000	-0,056	-0,118
-724,108	-200,000	-0,009	-0,133
-723,094	-46,307	-0,108	-0,039
-722,079	487,444	-0,048	-0,080
-721,064	-10,939	-0,100	-0,048
-720,050	-190,157	0,038	-0,000
-719,035	25,616	-0,082	0,050
-718,021	-52,446	-0,088	0,030
-717,006	-200,000	0,026	-0,116
-715,991	197,791	-0,026	-0,029
-714,977	-78,931	0,032	0,008
-713,962	-200,000	0,021	-0,183
-712,948	-200,000	0,052	-0,211
-711,933	1,659	0,005	0,003
-710,918	800,000	0,040	-0,092
-709,904	139,941	0,017	0,016
-708,889	9,154	-0,147	-0,081
-707,875	95,118	-0,058	-0,049
-706,860	-200,000	0,001	-0,022
-705,845	105,058	0,062	0,054
-704,831	280,322	-0,024	-0,032
-703,816	175,081	-0,033	0,036
-702,802	88,489	-0,078	0,063
-701,787	9,079	-0,161	-0,089
-700,772	253,320	-0,060	-0,075
-699,758	39,603	-0,080	0,052
-698,743	-5,464	0,021	0,010
-697,729	-200,000	0,000	-0,078
-696,714	800,000	0,035	0,087
-695,699	749,295	0,061	-0,121
-694,685	800,000	-0,004	-0,009
-693,670	-200,000	-0,020	-0,113
-692,656	-200,000	0,024	-0,116
-691,641	-200,000	0,008	-0,058
-690,627	-200,000	0,006	0,040
-689,612	800,000	-0,021	-0,068
-688,597	383,830	-0,098	0,149
-687,583	39,194	-0,162	-0,106
-686,568	-200,000	-0,019	-0,064
-685,554	-200,000	0,012	-0,120
-684,539	-144,749	0,055	0,004
-683,524	292,979	-0,025	-0,034
-682,510	187,753	-0,093	0,102
-681,495	689,356	-0,017	0,032
-680,481	-65,586	-0,126	0,037
-679,466	31,448	-0,064	-0,040
-678,451	-25,491	-0,104	0,045
-677,437	-20,768	0,041	-0,019
-676,422	-120,971	0,055	-0,007
-675,408	9,479	0,111	-0,062
-674,393	304,258	-0,099	-0,135
-673,378	-200,000	-0,014	-0,139
-672,364	205,935	-0,059	-0,068
-671,349	283,931	-0,083	-0,110
-670,335	800,000	0,039	-0,081
-669,320	117,300	-0,081	-0,073
-668,305	-200,000	0,011	-0,139
-667,291	109,586	0,213	0,187
-666,276	-200,000	-0,018	0,086
-665,262	-200,000	-0,009	-0,112
-664,247	755,769	0,053	-0,107
-663,232	-200,000	0,042	-0,143
-662,218	-200,000	-0,003	-0,014
-661,203	800,000	-0,091	0,221
-660,189	-200,000	-0,026	0,121
-659,174	65,743	-0,043	0,032
-658,159	-200,000	0,003	-0,061
-657,145	95,937	0,114	0,095
-656,130	60,353	0,047	-0,034
-655,116	-137,798	-0,118	0,010
-654,101	529,916	0,022	0,038
-653,086	12,364	-0,088	-0,050
-652,072	-200,000	-0,033	-0,108
-651,057	131,601	-0,168	-0,158
-650,043	20,172	0,033	0,019
-649,028	216,588	0,082	-0,096
-648,014	-51,297	-0,141	0,048
-646,999	37,325	0,116	0,075
-645,984	-50,297	-0,105	0,036
-644,970	187,552	-0,071	-0,078
-643,955	368,514	0,035	-0,052
-642,941	-79,894	-0,118	-0,029
-641,926	800,000	-0,009	0,027
-640,911	-200,000	0,004	0,041
-639,897	90,771	0,092	-0,076
-638,882	-200,000	-0,004	0,025
-637,868	-99,375	-0,050	-0,009
-636,853	321,417	0,021	-0,030
-635,838	50,651	-0,088	-0,061
-634,824	-100,764	-0,145	-0,026
-633,809	35,325	0,056	-0,036
-632,795	403,910	-0,047	-0,073
-631,780	-6,590	-0,075	0,037
-630,765	-200,000	-0,025	-0,084
-629,751	31,179	-0,064	-0,040
-628,736	-75,899	-0,076	-0,020
-627,722	-93,964	0,041	-0,008
-626,707	800,000	-0,034	-0,075
-625,692	362,075	0,034	0,050
-624,678	-200,000	0,003	0,052
-623,663	503,807	-0,041	-0,069
-622,649	500,511	0,050	0,085
-621,634	-40,044	0,079	0,030
-620,619	-12,506	0,045	-0,021
-619,605	-23,653	-0,075	-0,033
-618,590	637,744	0,098	0,184
-617,576	-200,000	-0,002	-0,021
-616,561	51,088	0,089	-0,062
-615,546	-200,000	-0,006	0,243
-614,532	-200,000	-0,017	-0,068
-613,517	-200,000	0,007	0,029
-612,503	-33,581	-0,106	-0,043
-611,488	-144,888	0,047	-0,003
-610,474	296,714	0,031	-0,042
-609,459	800,000	-0,004	0,010
-608,444	487,823	0,067	-0,113
-607,430	-200,000	-0,003	-0,145
-606,415	-200,000	-0,011	-0,050
-605,401	236,877	-0,031	0,037
-604,386	137,604	0,011	-0,011
-603,371	363,169	0,072	0,105
-602,357	-8,974	0,031	0,015
-601,342	71,692	0,050	-0,038
-600,328	657,292	-0,019	-0,036
-599,313	-200,000	0,004	-0,056
-598,298	227,332	0,038	-0,045
-597,284	735,342	0,052	0,103
-596,269	448,518	0,057	-0,092
-595,255	80,655	-0,071	-0,056
-594,240	-68,090	0,065	-0,018
-593,225	-200,000	0,036	-0,227
-592,211	-200,000	-0,006	-0,163
-591,196	197,072	0,024	0,027
-590,182	-40,413	-0,050	0,019
-589,167	-98,325	-0,060	0,011
-588,152	-50,671	-0,100	0,034
-587,138	90,880	-0,067	-0,055
-586,123	209,075	-0,028	-0,032
-585,109	19,084	-0,164	0,096
-584,094	800,000	0,025	0,066
-583,079	106,067	0,086	0,074
-582,065	-62,009	0,193	-0,059
-581,050	14,328	0,050	0,029
-580,036	203,475	0,016	0,019
-579,021	-200,000	-0,019	0,101
-578,006	270,461	0,054	-0,070
-576,992	165,837	-0,081	0,084
-575,977	-36,485	-0,156	-0,061
-574,963	610,582	0,061	0,111
-573,948	800,000	-0,023	-0,050
-572,934	69,599	-0,076	0,058
-571,919	-80,854	-0,012	0,003
-570,904	-152,342	0,024	0,001
-569,890	800,000	-0,037	-0,084
-568,875	-4,579	0,052	0,026
-567,861	-7,798	0,036	-0,018
-566,846	-200,000	-0,008	-0,040
-565,831	800,000	-0,017	-0,046
-564,817	-200,000	-0,017	-0,099
-563,802	-200,000	-0,010	0,103
-562,788	-154,516	0,008	0,000
-561,773	800,000	0,030	-0,088
-560,758	-200,000	0,045	0,160
-559,744	-74,613	-0,012	0,003
-558,729	-200,000	-0,024	-0,086
-557,715	63,206	-0,052	0,038
-556,700	-200,000	-0,016	-0,124
-555,685	-200,000	-0,002	-0,028
-554,671	-121,061	-0,029	-0,004
-553,656	32,651	0,066	0,042
-552,642	4,549	0,041	0,022
-551,627	-200,000	0,005	0,123
-550,612	-200,000	-0,046	0,159
-549,598	-200,000	-0,030	0,097
-548,583	-147,424	-0,040	-0,002
-547,569	-200,000	0,000	-0,155
-546,554	-200,000	0,040	0,137
-545,539	164,642	0,095	0,098
-544,525	152,230	0,062	0,062
-543,510	450,927	0,058	-0,093
-542,496	12,399	-0,066	-0,037
-541,481	-200,000	0,005	-0,034
-540,466	-200,000	-0,010	0,076
-539,452	501,500	-0,046	0,078
-538,437	800,000	0,076	0,163
-537,423	-51,481	-0,115	-0,039
-536,408	-182,445	-0,111	-0,001
-535,393	18,477	0,046	-0,027
-534,379	479,978	-0,092	-0,153
-533,364	-4,880	-0,102	-0,051
-532,350	-84,311	-0,052	-0,012
-531,335	800,000	0,038	0,087
-530,321	101,931	0,124	0,106
-529,306	-22,517	-0,033	0,014
-528,291	90,778	-0,091	0,074
-527,277	-200,000	0,001	0,032
-526,262	-200,000	-0,003	-0,019
-525,248	170,925	0,044	0,046
-524,233	-174,161	0,081	0,002
-523,218	341,038	-0,019	0,028
-522,204	-200,000	0,014	-0,072
-521,189	-200,000	0,016	-0,106
-520,175	-200,000	0,004	0,049
-519,160	-200,000	0,008	-0,037
-518,145	152,397	-0,075	0,075
-517,131	-200,000	-0,007	0,044
-516,116	800,000	-0,034	0,097
-515,102	449,013	-0,049	0,079
-514,087	800,000	0,017	-0,045
-513,072	81,288	-0,171	-0,135
-512,058	-38,500	-0,096	-0,037
-511,043	485,886	0,035	0,059
-510,029	-200,000	-0,009	-0,054
-509,014	-49,924	-0,102	-0,035
-507,999	27,649	0,050	-0,031
-506,985	-162,673	-0,061	-0,002
-505,970	-6,360	0,065	-0,032
-504,956	800,000	-0,025	-0,056
-503,941	132,252	-0,028	-0,026
-502,926	800,000	-0,017	0,049
-501,912	-86,414	0,170	0,038
-500,897	78,291	0,089	-0,069
-499,883	644,063	-0,040	-0,075
-498,868	800,000	0,009	0,020
-497,853	404,559	0,071	0,109
-496,839	-22,640	0,078	0,034
-495,824	-181,290	0,073	-0,001
-494,810	39,248	-0,010	0,006
-493,795	393,611	0,070	-0,106
-492,781	-74,519	-0,066	0,017
-491,766	433,353	-0,088	0,140
-490,751	77,131	0,007	-0,005
-489,737	567,431	-0,086	0,153
-488,722	-87,679	0,124	0,027
-487,708	-89,419	-0,124	-0,026
-486,693	-200,000	0,024	0,084
-485,678	56,638	0,032	0,022
-484,664	85,774	-0,080	0,064
-483,649	-200,000	0,001	0,043
-482,635	77,011	-0,051	0,040
-481,620	-38,308	0,129	-0,050
-480,605	-80,366	-0,082	-0,020
-479,591	-2,515	0,087	-0,044
-478,576	-112,559	-0,084	-0,012
-477,562	800,000	0,019	0,045
-476,547	800,000	-0,009	-0,020
-475,532	-111,882	-0,059	-0,009
-474,518	-121,261	0,057	0,007
-473,503	-200,000	0,002	-0,044
-472,489	-200,000	0,007	-0,046
-471,474	251,133	0,037	0,045
-470,459	336,732	0,008	0,012
-469,445	-162,665	-0,069	-0,002
-468,430	-104,833	-0,215	-0,036
-467,416	242,556	0,027	0,032
-466,401	117,876	0,140	-0,126
-465,386	-180,942	-0,102	0,001
-464,372	-200,000	-0,015	0,083
-463,357	20,410	-0,096	-0,057
-462,343	510,966	0,028	-0,047
-461,328	-59,137	0,042	-0,013
-460,313	-0,161	-0,058	-0,030
-459,299	-17,197	0,126	0,058
-458,284	-141,582	0,133	0,010
-457,270	37,691	-0,042	-0,027
-456,255	-138,124	-0,024	-0,002
-455,241	-105,994	-0,190	0,031
-454,226	208,859	0,052	0,060
-453,211	-147,672	0,089	-0,005
-452,197	431,821	-0,085	-0,135
-451,182	-200,000	0,001	-0,016
-450,168	133,623	-0,046	0,043
-449,153	-200,000	-0,012	-0,093
-448,138	-200,000	-0,018	-0,069
-447,124	-60,713	-0,062	-0,019
-446,109	-200,000	-0,002	-0,106
-445,095	62,479	0,055	-0,040
-444,080	146,148	0,128	0,125
-443,065	-122,143	0,110	-0,013
-442,051	82,227	-0,112	-0,089
-441,036	251,774	-0,057	-0,071
-440,022	-42,108	0,142	0,052
-439,007	-200,000	-0,007	-0,064
-437,992	358,751	0,042	-0,062
-436,978	-82,489	0,114	0,027
-435,963	63,512	-0,115	0,084
-434,949	-200,000	0,040	0,169
-433,934	-200,000	-0,001	-0,041
-432,919	134,624	-0,128	-0,121
-431,905	292,923	0,100	-0,133
-430,890	-64,625	-0,157	0,046
-429,876	-200,000	-0,022	0,085
-428,861	-70,163	-0,195	-0,054
-427,846	-200,000	0,005	0,098
-426,832	-200,000	-0,006	-0,051
-425,817	362,484	-0,060	-0,087
-424,803	-200,000	-0,003	0,075
-423,788	667,257	0,084	0,159
-422,773	4,857	0,087	-0,046
-421,759	14,086	0,151	-0,085
-420,744	388,919	0,053	-0,079
-419,730	-68,906	0,048	0,013
-418,715	-200,000	-0,009	-0,125
-417,701	150,812	0,049	-0,048
-416,686	-200,000	-0,005	-0,079
-415,671	-200,000	-0,010	0,114
-414,657	-65,482	0,058	-0,017
-413,642	800,000	0,029	-0,060
-412,628	-200,000	-0,015	-0,138
-411,613	-200,000	0,001	-0,082
-410,598	-12,243	-0,138	-0,065
-409,584	78,822	0,076	-0,059
-408,569	-200,000	-0,003	0,035
-407,555	-96,943	0,183	0,035
-406,540	95,021	-0,142	-0,118
-405,525	-200,000	0,014	0,098
-404,511	-200,000	-0,021	0,073
-403,496	-102,245	0,083	0,014
-402,482	-200,000	-0,007	-0,034
-401,467	-125,938	0,057	0,006
-400,452	-78,785	-0,036	0,009
-399,438	508,927	-0,088	-0,149
-398,423	53,133	-0,095	0,066
-397,409	-200,000	-0,009	-0,043
-396,394	268,393	-0,014	-0,018
-395,379	800,000	0,020	0,060
-394,365	144,802	-0,049	0,048
-393,350	210,915	0,092	0,105
-392,336	-200,000	0,020	0,068
-391,321	102,337	-0,047	0,040
-390,306	17,913	-0,063	-0,036
-389,292	-25,883	0,072	-0,031
-388,277	-124,611	-0,015	0,002
-387,263	-95,768	-0,066	-0,013
-386,248	81,518	0,126	0,099
-385,233	116,416	0,088	0,078
-384,219	-6,983	-0,079	-0,039
-383,204	218,519	0,094	-0,110
-382,190	800,000	-0,017	-0,039
-381,175	415,087	0,048	0,074
-380,160	800,000	-0,049	0,148
-379,146	265,476	0,082	0,104
-378,131	800,000	0,040	-0,091
-377,117	800,000	0,018	-0,044
-376,102	-7,757	-0,054	0,027
-375,088	-6,380	-0,159	-0,078
-374,073	327,758	-0,076	0,106
-373,058	-115,108	0,088	-0,012
-372,044	411,708	-0,109	0,169
-371,029	40,289	0,107	0,070
-370,015	-25,350	-0,061	-0,026
-369,000	4,317	-0,097	-0,051
-367,985	-155,420	0,146	0,007
-366,971	-200,000	0,026	0,123
-365,956	-184,072	0,106	0,001
-364,942	179,248	-0,045	-0,048
-363,927	42,817	-0,012	-0,008
-362,912	800,000	-0,044	0,125
-361,898	-8,361	-0,135	-0,065
-360,883	28,030	0,115	-0,070
-359,869	-200,000	0,034	-0,186
-358,854	-200,000	0,014	-0,092
-357,839	57,471	0,108	-0,077
-356,825	61,294	-0,147	0,106
-355,810	-200,000	0,008	0,144
-354,796	-65,281	-0,101	0,029
-353,781	-200,000	0,004	-0,023
-352,766	-110,651	0,039	0,006
-351,752	-106,800	0,185	0,029
-350,737	-102,997	-0,033	-0,006
-349,723	539,365	0,081	0,140
-348,708	37,756	-0,027	0,017
-347,693	-84,928	-0,073	0,016
-346,679	-38,707	-0,068	0,026
-345,664	123,648	-0,054	-0,049
-344,650	94,665	-0,053	-0,044
-343,635	-200,000	-0,011	-0,075
-342,620	71,668	0,099	0,075
-341,606	277,311	0,056	-0,073
-340,591	53,400	-0,041	0,029
-339,577	-105,495	0,088	-0,014
-338,562	-182,409	-0,023	-0,000
-337,548	55,915	0,036	-0,025
-336,533	157,449	0,072	0,072
-335,518	437,253	0,034	0,054
-334,504	234,261	-0,084	0,100
-333,489	81,877	0,052	0,041
-332,475	93,461	0,082	-0,067
-331,460	-200,000	0,004	-0,020
-330,445	183,668	-0,110	0,118
-329,431	9,822	0,141	0,077
-328,416	-166,699	-0,155	0,005
-327,402	-200,000	0,005	-0,018
-326,387	-200,000	0,048	0,163
-325,372	-27,923	0,049	-0,021
-324,358	-200,000	-0,027	-0,103
-323,343	-1,438	0,082	-0,042
-322,329	-42,251	0,111	0,041
-321,314	-18,047	0,087	0,039
-320,299	-200,000	-0,001	0,131
-319,285	290,149	-0,125	0,164
-318,270	-137,463	0,088	-0,007
-317,256	-149,115	-0,031	-0,002
-316,241	800,000	0,007	-0,020
-315,226	-38,269	-0,033	0,012
-314,212	122,176	-0,048	0,043
-313,197	-79,421	0,070	-0,017
-312,183	-200,000	-0,002	0,104
-311,168	37,898	0,179	-0,115
-310,153	78,794	-0,082	-0,063
-309,139	-200,000	-0,035	-0,137
-308,124	-110,289	0,048	-0,007
-307,110	433,604	-0,033	-0,052
-306,095	800,000	0,026	-0,063
-305,080	-200,000	0,011	-0,042
-304,066	-81,823	-0,157	-0,037
-303,051	-200,000	-0,012	0,108
-302,037	-104,417	0,013	0,002
-301,022	-200,000	0,010	-0,074
-300,008	291,779	0,084	0,111
-298,993	-37,816	0,081	-0,031
-297,978	-200,000	-0,004	-0,173
-296,964	12,126	-0,115	0,064
-295,949	-73,180	-0,095	-0,025
-294,935	-15,296	0,128	0,059
-293,920	-200,000	-0,023	-0,140
-292,905	-200,000	-0,055	0,197
-291,891	-23,073	0,031	0,014
-290,876	-62,818	0,177	0,053
-289,862	-167,096	-0,072	0,002
-288,847	-200,000	0,012	-0,061
-287,832	71,026	-0,018	0,013
-286,818	-200,000	0,020	-0,104
-285,803	800,000	-0,031	-0,089
-284,789	213,255	0,102	0,116
-283,774	792,962	-0,047	0,094
-282,759	71,729	0,040	0,030
-281,745	-200,000	0,003	-0,050
-280,730	196,546	-0,063	-0,069
-279,716	-187,807	0,014	0,000
-278,701	-200,000	-0,031	0,137
-277,686	800,000	0,053	0,156
-276,672	356,547	0,030	0,044
-275,657	-128,827	0,072	-0,007
-274,643	140,517	0,092	0,087
-273,628	800,000	0,033	-0,097
-272,613	42,942	-0,044	0,029
-271,599	16,791	0,141	0,080
-270,584	-200,000	-0,013	-0,075
-269,570	-45,443	0,052	-0,019
-268,555	-5,969	0,014	0,007
-267,540	-162,575	-0,095	-0,003
-266,526	86,963	0,071	-0,056
-265,511	-25,745	0,104	0,044
-264,497	-200,000	0,041	-0,165
-263,482	-200,000	-0,019	0,167
-262,467	-139,057	-0,048	-0,004
-261,453	-38,275	0,030	0,011
-260,438	62,020	-0,111	-0,080
-259,424	342,392	0,008	0,011
-258,409	-73,626	0,118	0,031
-257,395	423,327	-0,044	0,069
-256,380	-200,000	0,022	0,209
-255,365	11,661	0,091	0,050
-254,351	-83,366	0,096	0,022
-253,336	-200,000	-0,010	-0,062
-252,322	-56,942	-0,121	-0,038
-251,307	17,408	0,009	-0,005
-250,292	202,558	-0,046	0,052
-249,278	800,000	-0,018	-0,042
-248,263	220,086	-0,056	0,065
-247,249	-114,266	0,029	-0,004
-246,234	-200,000	-0,003	0,022
-245,219	-84,367	0,054	0,012
-244,205	-44,750	-0,077	-0,028
-243,190	291,578	-0,031	-0,041
-242,176	128,988	0,136	-0,125
-241,161	547,802	-0,049	-0,085
-240,146	-88,659	-0,052	-0,011
-239,132	-91,609	0,082	0,017
-238,117	-29,090	-0,031	-0,013
-237,103	-160,921	-0,070	0,003
-236,088	105,911	-0,120	-0,102
-235,073	800,000	-0,045	0,105
-234,059	-112,373	0,068	0,010
-233,044	90,340	0,093	0,075
-232,030	-138,877	-0,091	-0,007
-231,015	358,829	-0,127	0,183
-230,000	-200,000	-0,029	-0,099
-228,986	99,875	-0,151	0,126
-227,971	-200,000	0,010	0,051
-226,957	-98,454	0,034	0,006
-225,942	-200,000	-0,021	0,069
-224,927	800,000	0,028	0,068
-223,913	-32,721	-0,109	-0,043
-222,898	523,267	-0,035	-0,059
-221,884	-200,000	0,018	-0,098
-220,869	-88,317	0,046	0,010
-219,855	196,475	0,041	0,045
-218,840	-200,000	-0,014	0,102
-217,825	15,557	0,025	-0,014
-216,811	17,432	-0,117	-0,067
-215,796	137,353	0,143	-0,135
-214,782	246,956	-0,063	-0,077
-213,767	-200,000	0,022	0,137
-212,752	120,686	0,065	-0,058
-211,738	-200,000	0,010	-0,055
-210,723	-200,000	-0,004	0,062
-209,709	-200,000	-0,034	-0,148
-208,694	800,000	0,045	0,094
-207,679	-48,958	-0,111	0,038
-206,665	-200,000	-0,001	0,019
-205,650	-55,894	0,089	0,028
-204,636	-80,553	-0,041	-0,010
-203,621	800,000	-0,019	-0,041
-202,606	800,000	-0,020	0,061
-201,592	48,022	-0,098	-0,066
-200,577	350,380	0,040	-0,058
-199,563	6,574	0,090	-0,048
-198,548	-58,813	-0,032	-0,010
-197,533	-149,320	-0,014	0,001
-196,519	556,025	-0,057	-0,100
-195,504	-200,000	0,000	-0,050
-194,490	363,093	-0,070	-0,102
-193,475	-200,000	-0,000	-0,014
-192,460	236,476	0,074	0,088
-191,446	170,454	0,085	0,088
-190,431	800,000	-0,021	-0,052
-189,417	800,000	0,012	0,037
-188,402	448,734	-0,077	0,122
-187,387	84,812	-0,076	0,060
-186,373	800,000	-0,058	-0,117
-185,358	-200,000	0,019	-0,129
-184,344	-104,979	0,145	-0,024
-183,329	-90,348	0,083	0,017
-182,315	-76,507	-0,077	-0,019
-181,300	289,521	-0,078	0,103
-180,285	454,104	-0,052	0,082
-179,271	-200,000	0,040	-0,224
-178,256	142,027	0,029	-0,028
-177,242	173,730	0,060	-0,062
-176,227	-160,819	0,056	0,002
-175,212	507,904	0,036	-0,061
-174,198	614,510	0,076	-0,137
-173,183	800,000	-0,026	-0,056
-172,169	390,921	-0,123	-0,184
-171,154	-200,000	-0,027	-0,131
-170,139	61,712	0,108	-0,078
-169,125	800,000	0,038	0,088
-168,110	792,802	0,048	0,096
-167,096	101,570	0,030	0,026
-166,081	800,000	-0,020	0,041
-165,066	-200,000	-0,005	-0,128
-164,052	713,993	-0,007	0,014
-163,037	-159,333	0,108	0,004
-162,023	800,000	0,015	0,034
-161,008	-200,000	-0,002	0,028
-159,993	110,592	-0,033	0,029
-158,979	-200,000	0,003	0,036
-157,964	-200,000	-0,002	0,164
-156,950	-69,025	-0,083	0,023
-155,935	740,429	-0,003	0,006
-154,920	374,301	0,040	0,059
-153,906	79,107	-0,109	-0,084
-152,891	-200,000	-0,004	0,071
-151,877	87,914	0,042	-0,034
-150,862	-21,246	-0,126	0,055
-149,847	-133,804	0,055	-0,005
-148,833	-51,044	-0,042	-0,014
-147,818	113,586	0,023	-0,020
-146,804	122,996	0,066	0,059
-145,789	7,207	-0,070	-0,038
-144,775	-200,000	-0,005	0,171
-143,760	800,000	-0,035	-0,109
-142,745	800,000	-0,027	-0,073
-141,731	-200,000	-0,028	0,105
-140,716	-82,683	0,076	0,018
-139,702	11,051	0,131	0,072
-138,687	27,199	0,102	0,061
-137,672	305,491	0,074	-0,099
-136,658	-67,465	-0,097	-0,027
-135,643	800,000	0,025	0,051
-134,629	800,000	0,022	0,065
-133,614	-17,133	0,018	-0,008
-132,599	-162,021	0,135	0,005
-131,585	-88,586	0,142	0,030
-130,570	-18,066	0,068	0,030
-129,556	-200,000	-0,013	-0,044
-128,541	153,495	-0,080	-0,079
-127,526	-63,962	-0,166	0,048
-126,512	681,630	0,052	0,098
-125,497	162,801	0,095	0,096
-124,483	800,000	-0,062	0,170
-123,468	-86,935	0,081	-0,018
-122,453	-200,000	0,006	-0,028
-121,439	-73,621	0,068	0,018
-120,424	101,707	-0,132	-0,110
-119,410	-200,000	0,047	0,158
-118,395	800,000	-0,012	0,024
-117,380	-156,791	-0,122	0,005
-116,366	-200,000	0,026	-0,154
-115,351	-17,225	-0,030	0,014
-114,337	267,991	0,018	-0,023
-113,322	-200,000	0,011	-0,042
-112,307	-200,000	0,024	-0,133
-111,293	-108,607	0,192	-0,029
-110,278	-200,000	0,029	-0,115
-109,264	-3,853	-0,104	0,051
-108,249	453,319	0,058	-0,092
-107,234	-25,766	-0,085	-0,036
-106,220	595,379	-0,047	-0,083
-105,205	-40,517	-0,044	-0,016
-104,191	-23,064	-0,093	0,040
-103,176	-200,000	0,009	0,135
-102,162	800,000	-0,051	0,112
-101,147	197,985	0,067	0,074
-100,132	-200,000	-0,002	-0,024
-99,118	-200,000	0,009	-0,162
-98,103	800,000	-0,049	-0,135
-97,089	-48,927	0,086	0,030
-96,074	-200,000	-0,013	0,194
-95,059	166,689	0,063	-0,064
-94,045	504,533	0,088	-0,146
-93,030	-200,000	0,001	-0,038
-92,016	-117,363	0,115	0,015
-91,001	-153,529	0,082	0,004
-89,986	800,000	0,074	-0,165
-88,972	-162,395	0,022	0,001
-87,957	114,090	0,020	0,017
-86,943	54,402	0,116	-0,080
-85,928	-200,000	0,024	0,083
-84,913	-96,128	-0,039	-0,007
-83,899	142,947	0,082	-0,078
-82,884	-42,552	0,031	0,011
-81,870	-151,729	-0,109	0,006
-80,855	-200,000	-0,010	0,108
-79,840	800,000	-0,061	-0,137
-78,826	800,000	-0,072	-0,155
-77,811	-68,430	-0,180	-0,050
-76,797	-200,000	-0,005	0,093
-75,782	800,000	0,033	0,078
-74,767	137,780	0,115	-0,108
-73,753	-169,951	-0,067	0,002
-72,738	-193,812	-0,096	0,001
-71,724	8,745	-0,057	-0,031
-70,709	191,873	-0,044	0,047
-69,694	800,000	0,034	-0,069
-68,680	-119,503	0,145	0,018
-67,665	-14,965	0,089	-0,041
-66,651	-110,556	0,055	-0,008
-65,636	-200,000	-0,005	0,075
-64,622	44,559	-0,029	0,019
-63,607	-200,000	0,054	-0,225
-62,592	55,641	-0,055	-0,038
-61,578	-120,289	-0,091	0,011
-60,563	-200,000	-0,004	-0,051
-59,549	142,706	0,095	0,090
-58,534	22,530	-2,151	-1,258
-57,519	-200,000	-0,066	-0,750
-56,505	-200,000	-1,393	-5,152
-55,490	45,217	0,875	0,577
-54,476	800,000	5,381	12,204
-53,461	-200,000	18,181	292,933
-52,446	800,000	730,005	2225,209
-51,432	529,748	1642,425	2789,596
-50,417	108,021	1631,726	1392,960
-49,403	72,861	1283,712	959,283
-48,388	30,737	1024,988	627,088
-47,373	19,786	986,843	567,770
-46,359	17,875	974,495	554,404
-45,344	14,817	970,686	542,246
-44,330	15,123	969,184	542,385
-43,315	14,515	967,140	539,242
-42,300	14,474	966,370	538,656
-41,286	14,491	965,255	538,070
-40,271	14,442	964,436	537,432
-39,257	14,522	963,414	537,103
-38,242	14,497	962,631	536,563
-37,227	14,528	961,748	536,148
-36,213	14,521	960,982	535,679
-35,198	14,475	959,972	534,945
-34,184	14,527	959,239	534,684
-33,169	14,486	958,124	533,909
-32,154	14,525	957,380	533,600
-31,140	14,481	956,575	532,986
-30,125	14,539	955,653	532,639
-29,111	14,501	954,827	532,034
-28,096	14,576	954,183	531,895
-27,082	14,513	953,704	531,406
-26,067	14,539	952,776	530,951
-25,052	14,522	952,166	530,537
-24,038	14,519	951,305	530,025
-23,023	14,460	950,813	529,542
-22,009	14,628	949,990	529,597
-20,994	14,505	949,504	528,913
-19,979	14,560	948,827	528,690
-18,965	14,510	948,091	528,100
-17,950	14,489	947,754	527,827
-16,936	14,490	946,971	527,370
-15,921	14,480	946,273	526,930
-14,906	14,440	945,428	526,312
-13,892	14,436	944,954	526,015
-12,877	14,436	944,345	525,655
-11,863	14,385	943,580	525,045
-10,848	14,348	943,275	524,739
-9,833	14,540	942,537	524,916
-8,819	14,465	941,983	524,348
-7,804	14,428	941,490	523,934
-6,790	14,416	940,959	523,580
-5,775	14,443	940,470	523,374
-4,760	14,363	939,796	522,726
-3,746	14,409	939,033	522,425
-2,731	14,307	938,292	521,672
-1,717	14,203	937,747	521,020
-0,702	14,239	936,938	520,662
0,313	14,104	936,218	520,623
1,327	17,700	934,335	530,815
2,342	27,150	787,398	472,119
3,356	23,894	442,969	260,782
4,371	-5,553	295,197	144,433
5,386	-9,404	276,952	131,852
6,400	-10,823	271,310	127,840
7,415	-10,758	268,880	126,743
8,429	-10,749	267,688	126,177
9,444	-10,803	266,606	125,607
10,459	-10,808	266,129	125,367
11,473	-11,171	265,392	124,680
12,488	-11,258	264,858	124,339
13,502	-11,331	264,338	124,018
14,517	-11,400	264,061	123,814
15,531	-11,278	263,593	123,694
16,546	-11,142	263,146	123,595
17,561	-11,318	262,719	123,226
18,575	-11,363	262,553	123,097
19,590	-11,492	261,965	122,694
20,604	-11,328	261,855	122,779
21,619	-11,546	261,567	122,438
22,634	-11,559	261,105	122,199
23,648	-11,589	260,813	122,025
24,663	-11,420	260,504	122,020
25,677	-11,566	260,437	121,848
26,692	-11,439	260,039	121,764
27,707	-11,389	259,738	121,656
28,721	-11,590	259,439	121,328
29,736	-11,496	259,200	121,288
30,750	-11,485	258,912	121,152
31,765	-11,523	258,606	120,964
32,780	-11,644	258,494	120,794
33,794	-11,527	258,317	120,804
34,809	-11,573	258,040	120,624
35,823	-11,663	257,857	120,447
36,838	-11,701	257,514	120,243
37,853	-11,667	257,177	120,105
38,867	-11,598	256,957	120,052
39,882	-11,785	256,755	119,783
40,896	-11,644	256,472	119,765
41,911	-11,651	256,408	119,718
42,926	-11,617	256,059	119,574
43,940	-11,561	255,722	119,454
44,955	-11,668	255,592	119,290
45,969	-11,859	255,429	119,037
46,984	-12,145	255,187	118,665
47,999	-12,328	254,929	118,375
49,013	-12,358	254,509	118,143
50,028	-12,347	254,247	118,021
51,042	-12,267	254,083	118,004
52,057	-12,438	253,732	117,683
53,071	-12,410	253,707	117,685
54,086	-12,323	253,540	117,672
55,101	-12,279	253,373	117,621
56,115	-11,977	253,221	117,801
57,130	-11,534	253,273	118,197
58,144	-11,127	252,966	118,393
59,159	-11,283	252,797	118,169
60,174	-11,234	252,364	117,999
61,188	-11,334	252,293	117,869
62,203	-11,465	251,951	117,586
63,217	-11,580	251,861	117,436
64,232	-11,475	251,684	117,432
65,247	-11,333	251,450	117,434
66,261	-11,307	251,130	117,296
67,276	-11,792	250,979	116,801
68,290	-11,850	250,666	116,595
69,305	-12,048	250,359	116,274
70,320	-12,073	250,244	116,189
71,334	-11,598	249,997	116,468
72,349	-11,416	249,917	116,574
73,363	-11,121	249,721	116,723
74,378	-11,283	249,614	116,525
75,393	-11,244	249,228	116,368
76,407	-11,257	249,128	116,300
77,422	-11,421	248,829	116,011
78,436	-11,266	248,599	116,024
79,451	-11,492	248,526	115,789
80,466	-11,499	248,151	115,598
81,480	-11,741	248,045	115,334
82,495	-11,887	247,871	115,120
83,509	-11,725	247,675	115,156
84,524	-11,873	247,406	114,896
85,539	-11,904	247,133	114,732
86,553	-12,181	247,006	114,431
87,568	-11,826	246,757	114,602
88,582	-11,879	246,729	114,535
89,597	-11,812	246,397	114,427
90,611	-11,641	246,381	114,552
91,626	-11,405	246,172	114,642
92,641	-11,646	245,823	114,269
93,655	-11,704	245,687	114,146
94,670	-11,699	245,522	114,064
95,684	-11,501	245,282	114,107
96,699	-11,585	245,116	113,950
97,714	-11,635	244,885	113,791
98,728	-11,917	244,680	113,451
99,743	-11,837	244,438	113,395
100,757	-11,933	244,282	113,233
101,772	-12,009	244,080	113,067
102,787	-11,702	243,794	113,178
103,801	-11,783	243,775	113,092
104,816	-11,722	243,550	113,028
105,830	-11,510	243,511	113,175
106,845	-11,361	243,341	113,208
107,860	-11,339	243,200	113,151
108,874	-11,575	242,956	112,833
109,889	-11,379	242,610	112,824
110,903	-11,595	242,350	112,515
111,918	-11,658	242,292	112,426
112,933	-11,650	242,291	112,423
113,947	-11,716	242,021	112,233
114,962	-11,350	241,652	112,351
115,976	-11,478	241,648	112,235
116,991	-11,688	241,476	111,974
118,006	-11,599	241,201	111,908
119,020	-11,528	240,990	111,859
120,035	-11,532	241,174	111,930
121,049	-11,434	240,912	111,879
122,064	-11,371	240,647	111,798
123,079	-11,642	240,490	111,494
124,093	-11,658	240,262	111,365
125,108	-11,843	239,998	111,083
126,122	-11,962	239,813	110,891
127,137	-12,110	239,593	110,659
128,151	-11,902	239,385	110,721
129,166	-11,925	239,099	110,560
130,181	-11,940	239,084	110,532
131,195	-11,939	238,880	110,429
132,210	-11,804	238,766	110,474
133,224	-11,696	238,697	110,520
134,239	-11,544	238,522	110,552
135,254	-11,769	238,303	110,259
136,268	-11,532	237,869	110,239
137,283	-12,040	237,677	109,732
138,297	-12,148	237,618	109,608
139,312	-11,946	237,261	109,596
140,327	-11,552	237,222	109,885
141,341	-11,238	237,246	110,137
142,356	-11,115	237,188	110,199
143,370	-11,380	237,069	109,921
144,385	-10,907	236,721	110,129
145,400	-11,011	236,606	109,982
146,414	-11,070	236,459	109,857
147,429	-11,240	236,237	109,609
148,443	-11,382	235,994	109,373
149,458	-11,347	235,895	109,345
150,473	-11,233	235,708	109,339
151,487	-11,170	235,602	109,331
152,502	-11,296	235,346	109,102
153,516	-11,247	235,196	109,061
154,531	-11,145	234,990	109,037
155,546	-11,459	234,905	108,739
156,560	-11,376	234,697	108,699
157,575	-11,617	234,401	108,362
158,589	-11,391	234,286	108,477
159,604	-10,951	234,169	108,761
160,619	-11,242	234,002	108,444
161,633	-11,031	233,930	108,567
162,648	-11,203	233,906	108,411
163,662	-11,269	233,604	108,210
164,677	-11,111	233,391	108,226
165,692	-11,232	233,312	108,084
166,706	-11,034	233,168	108,163
167,721	-10,900	233,027	108,194
168,735	-10,974	232,862	108,049
169,750	-11,190	232,716	107,802
170,764	-11,129	232,580	107,777
171,779	-11,067	232,482	107,771
172,794	-10,972	232,260	107,732
173,808	-11,241	231,986	107,386
174,823	-11,921	231,724	106,724
175,837	-11,985	231,603	106,609
176,852	-11,404	231,396	106,957
177,867	-11,058	231,439	107,237
178,881	-10,974	231,270	107,215
179,896	-10,925	231,098	107,163
180,910	-10,978	230,970	107,053
181,925	-11,071	230,836	106,909
182,940	-11,084	230,636	106,797
183,954	-10,870	230,564	106,921
184,969	-10,916	230,303	106,754
185,983	-11,069	230,266	106,609
186,998	-10,853	229,975	106,632
188,013	-10,905	229,944	106,567
189,027	-10,953	229,659	106,389
190,042	-10,946	229,540	106,330
191,056	-11,035	229,495	106,231
192,071	-10,793	229,282	106,310
193,086	-10,737	229,113	106,265
194,100	-10,713	228,995	106,218
195,115	-10,890	228,553	105,868
196,129	-10,701	228,872	106,152
197,144	-5,973	230,280	110,451
198,159	-0,659	231,999	115,395
199,173	2,470	232,745	118,188
200,188	2,881	232,745	118,497
201,202	2,928	232,557	118,427
202,217	3,276	232,427	118,620
203,232	3,580	232,240	118,749
204,246	3,694	232,196	118,804
205,261	3,432	232,221	118,604
206,275	3,799	232,162	118,847
207,290	3,772	231,877	118,670
208,304	3,853	231,726	118,645
209,319	3,517	231,708	118,365
210,334	3,478	231,405	118,170
211,348	3,113	231,183	117,765
212,363	3,057	230,903	117,568
213,377	2,814	230,728	117,282
214,392	2,805	230,553	117,176
215,407	3,121	230,307	117,283
216,421	3,030	230,192	117,144
217,436	2,701	230,213	116,892
218,450	2,612	229,854	116,631
219,465	2,815	229,637	116,666
220,480	2,793	229,570	116,605
221,494	2,889	229,463	116,613
222,509	2,984	229,382	116,634
223,523	3,127	229,210	116,645
224,538	2,813	229,113	116,346
225,553	2,669	228,905	116,121
226,567	3,002	228,631	116,225
227,582	3,269	228,662	116,433
228,596	3,348	228,508	116,404
229,611	3,174	228,374	116,194
230,626	2,836	227,998	115,735
231,640	2,830	228,003	115,723
232,655	2,949	227,930	115,766
233,669	3,307	227,850	115,986
234,684	3,572	227,674	116,087
235,699	3,269	227,553	115,785
236,713	3,133	227,468	115,629
237,728	2,933	227,088	115,275
238,742	2,805	226,971	115,108
239,757	3,193	226,648	115,227
240,772	2,880	226,537	114,924
241,786	2,942	226,494	114,939
242,801	3,088	226,466	115,024
243,815	3,440	226,394	115,242
244,830	3,123	226,294	114,943
245,844	3,065	225,778	114,627
246,859	2,991	225,945	114,646
247,874	3,240	225,668	114,682
248,888	3,122	225,524	114,510
249,903	3,115	225,384	114,424
250,917	3,146	225,171	114,328
251,932	2,804	225,064	114,008
252,947	2,631	225,004	113,838
253,961	2,963	224,658	113,901
254,976	2,669	224,688	113,687
255,990	3,190	224,489	113,965
257,005	3,204	224,417	113,928
258,020	3,083	224,258	113,747
259,034	3,444	224,071	113,910
260,049	3,144	223,921	113,601
261,063	3,191	223,776	113,552
262,078	3,067	223,716	113,420
263,093	3,277	223,649	113,531
264,107	3,256	223,406	113,383
265,122	3,338	223,253	113,356
266,136	3,351	223,167	113,311
267,151	3,255	223,057	113,174
268,166	3,122	222,802	112,936
269,180	2,739	222,521	112,501
270,195	2,842	222,494	112,553
271,209	2,960	222,202	112,483
272,224	2,901	222,176	112,416
273,239	3,240	221,992	112,562
274,253	2,951	221,786	112,235
275,268	2,895	221,663	112,122
276,282	2,638	221,601	111,892
277,297	2,628	221,361	111,753
278,312	2,750	221,293	111,799
279,326	2,858	221,287	111,865
280,341	3,033	221,064	111,870
281,355	2,828	220,861	111,608
282,370	2,845	220,721	111,540
283,384	2,599	220,461	111,219
284,399	2,617	220,386	111,184
285,414	2,740	220,308	111,224
286,428	2,851	220,272	111,277
287,443	3,117	220,162	111,405
288,457	3,275	219,880	111,368
289,472	2,802	219,725	110,935
290,487	2,518	219,495	110,603
291,501	2,379	219,344	110,416
292,516	2,638	219,206	110,525
293,530	2,428	219,215	110,367
294,545	2,510	219,039	110,328
295,560	2,799	218,902	110,459
296,574	2,868	218,851	110,473
297,589	3,037	218,571	110,444
298,603	3,026	218,594	110,437
299,618	2,885	218,420	110,238
300,633	2,935	218,232	110,169
301,647	3,055	218,226	110,243
302,662	3,190	218,028	110,230
303,676	3,170	217,886	110,135
304,691	3,271	217,811	110,159
305,706	3,107	217,680	109,965
306,720	3,251	217,465	109,950
307,735	3,009	217,316	109,692
308,749	2,743	217,050	109,357
309,764	3,019	217,155	109,598
310,779	3,270	216,898	109,638
311,793	3,110	216,753	109,441
312,808	3,268	216,530	109,431
313,822	2,988	216,318	109,115
314,837	3,063	216,245	109,122
315,852	2,754	216,121	108,829
316,866	2,679	216,166	108,788
317,881	3,213	215,856	109,003
318,895	3,100	215,769	108,869
319,910	3,030	215,615	108,731
320,925	2,777	215,375	108,421
321,939	2,487	215,038	108,036
322,954	2,635	215,086	108,155
323,968	2,950	214,962	108,307
324,983	3,148	214,988	108,450
325,997	3,111	214,903	108,372
327,012	3,106	214,743	108,278
328,027	3,127	214,468	108,145
329,041	3,332	214,453	108,272
330,056	3,302	214,326	108,177
331,070	2,799	214,017	107,656
332,085	2,644	213,833	107,445
333,100	2,666	213,764	107,417
334,114	2,983	213,635	107,566
335,129	2,996	213,585	107,540
336,143	2,965	213,417	107,424
337,158	3,024	213,303	107,398
338,173	3,125	213,117	107,367
339,187	2,970	212,809	107,092
340,202	2,584	212,796	106,806
341,216	2,781	212,658	106,865
342,231	2,662	212,559	106,723
343,246	2,888	212,451	106,817
344,260	2,895	212,387	106,780
345,275	2,849	212,227	106,658
346,289	3,103	212,063	106,744
347,304	2,959	211,952	106,578
348,319	2,651	211,866	106,309
349,333	2,928	211,567	106,343
350,348	3,084	211,593	106,456
351,362	3,374	211,350	106,525
352,377	3,230	211,335	106,408
353,392	2,774	211,268	106,048
354,406	2,973	211,203	106,145
355,421	196,644	1337,924	1416,648
356,435	157,128	1475,156	1416,606
