DTS Sentinel unit serial number:	SN410029Multiplexer serial number:	ORYXHardware model number:	OX2-SRSoftware version number:	ORYX F/W v4,00 Oryx Data Collector v3.7.2.0data status	okinstallation	B6 Nyhavnadifferential loss correction	single-endedforward channel	channel 2reverse channel	N/Adate	2023/12/10time	11:55:08forward acquisition time	300,00reverse acquisition time	0,00gamma	499,1914k internal	0,3123k external	0,3123temperature offset calibration	1,0000default loss term (dB/km)	0,3820temperature slope calibration	1,0000multiplexer offset coefficient	1,0000multiplexer slope coefficient	1,0000fibre end	0,00T internal ref (°C)	22,73T ext. ref 1 (°C)	6,65T ext. ref 2 (°C)	6,64length (m)	temperature (°C)	Stokes	anti-Stokes-744,400	461,813	-0,036	-0,060
-743,385	-80,933	-0,201	0,049
-742,371	800,000	0,032	0,101
-741,356	254,702	-0,117	0,149
-740,342	-86,762	-0,043	-0,010
-739,327	-31,415	-0,227	0,095
-738,312	44,860	-0,019	0,013
-737,298	106,272	-0,199	0,176
-736,283	-112,041	0,086	-0,013
-735,269	-168,267	-0,125	0,004
-734,254	800,000	0,040	-0,086
-733,239	-104,075	-0,216	0,037
-732,225	-49,133	0,105	-0,037
-731,210	-200,000	-0,002	0,123
-730,196	-161,845	0,116	-0,004
-729,181	-200,000	-0,029	-0,103
-728,167	72,630	-0,061	-0,047
-727,152	-120,002	-0,070	-0,009
-726,137	-200,000	-0,026	-0,086
-725,123	498,186	-0,043	-0,074
-724,108	800,000	-0,065	-0,212
-723,094	-24,198	-0,171	-0,076
-722,079	800,000	-0,026	-0,080
-721,064	78,748	-0,048	0,038
-720,050	498,734	0,062	0,106
-719,035	-200,000	-0,014	-0,084
-718,021	800,000	0,019	-0,047
-717,006	-200,000	0,004	-0,014
-715,991	110,120	-0,039	0,035
-714,977	-200,000	-0,007	0,106
-713,962	800,000	-0,053	-0,137
-712,948	104,656	-0,101	-0,088
-711,933	800,000	-0,069	-0,177
-710,918	-200,000	0,005	-0,103
-709,904	800,000	0,064	0,133
-708,889	-200,000	0,079	0,000
-707,875	-97,276	-0,094	-0,018
-706,860	800,000	0,050	-0,120
-705,845	-113,228	0,029	0,004
-704,831	104,571	-0,022	0,019
-703,816	20,577	-0,087	-0,052
-702,802	298,980	0,039	-0,054
-701,787	5,013	0,067	0,037
-700,772	-200,000	-0,038	-0,124
-699,758	-11,371	-0,120	0,059
-698,743	800,000	-0,026	-0,057
-697,729	-72,569	-0,047	-0,013
-696,714	800,000	-0,036	-0,118
-695,699	800,000	0,053	-0,146
-694,685	-200,000	0,034	-0,252
-693,670	-200,000	-0,039	-0,160
-692,656	-162,150	-0,126	0,005
-691,641	-200,000	-0,008	-0,100
-690,627	-119,476	0,060	-0,008
-689,612	113,270	-0,046	0,042
-688,597	800,000	-0,029	-0,085
-687,583	-114,453	-0,112	-0,016
-686,568	16,779	-0,106	0,062
-685,554	-54,000	-0,035	-0,012
-684,539	-54,699	0,101	-0,034
-683,524	-81,514	0,071	-0,017
-682,510	126,113	-0,063	-0,059
-681,495	-49,098	0,063	0,022
-680,481	85,382	-0,098	-0,080
-679,466	160,760	-0,110	-0,114
-678,451	800,000	-0,040	-0,105
-677,437	800,000	0,033	0,095
-676,422	800,000	0,047	-0,128
-675,408	136,485	0,074	-0,072
-674,393	244,976	-0,048	-0,061
-673,378	-47,943	-0,045	-0,016
-672,364	398,357	-0,089	-0,139
-671,349	-200,000	0,029	-0,245
-670,335	800,000	0,053	-0,154
-669,320	500,115	0,085	-0,146
-668,305	800,000	-0,028	0,060
-667,291	800,000	-0,016	-0,045
-666,276	-127,853	-0,110	0,012
-665,262	102,226	-0,097	-0,084
-664,247	-200,000	-0,000	-0,030
-663,232	188,672	-0,082	-0,091
-662,218	-42,002	0,070	0,027
-661,203	-172,281	0,180	-0,004
-660,189	198,683	0,049	0,056
-659,174	-151,065	-0,080	-0,004
-658,159	-9,086	-0,110	-0,055
-657,145	-27,222	-0,061	-0,026
-656,130	13,575	0,078	0,045
-655,116	402,700	0,053	0,082
-654,101	-46,031	-0,045	-0,017
-653,086	800,000	0,049	-0,151
-652,072	800,000	-0,040	0,085
-651,057	398,483	-0,060	-0,094
-650,043	-96,817	0,100	-0,019
-649,028	-200,000	-0,022	-0,092
-648,014	202,926	0,053	0,061
-646,999	-200,000	0,038	-0,137
-645,984	-11,609	0,198	0,096
-644,970	266,524	-0,079	-0,103
-643,955	462,654	-0,058	-0,096
-642,941	-144,152	-0,150	-0,010
-641,926	-200,000	-0,002	0,056
-640,911	-99,177	-0,035	0,007
-639,897	-100,903	0,045	0,008
-638,882	126,428	-0,035	0,033
-637,868	578,429	0,046	-0,083
-636,853	-200,000	-0,011	-0,165
-635,838	31,807	-0,111	-0,071
-634,824	-105,106	-0,045	-0,008
-633,809	-200,000	0,002	0,056
-632,795	3,560	0,062	0,033
-631,780	-108,572	-0,117	0,019
-630,765	800,000	-0,034	0,087
-629,751	-96,606	-0,036	-0,007
-628,736	-83,273	-0,189	0,045
-627,722	-200,000	-0,020	0,073
-626,707	800,000	-0,040	-0,097
-625,692	800,000	-0,013	0,038
-624,678	74,558	0,073	0,057
-623,663	72,182	-0,086	0,066
-622,649	-200,000	0,004	-0,055
-621,634	205,518	-0,027	-0,031
-620,619	155,156	-0,126	-0,128
-619,605	-108,936	-0,135	0,021
-618,590	-200,000	-0,008	0,040
-617,576	-66,654	0,078	0,023
-616,561	-200,000	-0,015	0,084
-615,546	-200,000	-0,019	0,068
-614,532	800,000	-0,017	0,050
-613,517	139,049	-0,096	-0,094
-612,503	139,821	0,103	-0,101
-611,488	594,096	0,100	0,184
-610,474	800,000	0,048	0,114
-609,459	-142,770	0,039	-0,003
-608,444	127,182	-0,096	0,091
-607,430	-85,487	-0,073	-0,017
-606,415	800,000	-0,039	-0,092
-605,401	-153,162	-0,149	-0,008
-604,386	-135,685	-0,017	0,001
-603,371	95,321	0,069	-0,058
-602,357	-200,000	-0,024	-0,150
-601,342	15,719	-0,125	-0,073
-600,328	-200,000	0,021	-0,142
-599,313	800,000	0,010	-0,033
-598,298	-43,294	0,103	0,038
-597,284	-200,000	0,025	0,085
-596,269	-200,000	0,013	-0,045
-595,255	-200,000	0,002	-0,009
-594,240	-57,082	-0,049	-0,016
-593,225	-1,650	-0,082	0,043
-592,211	-200,000	-0,019	-0,185
-591,196	-151,738	0,162	-0,009
-590,182	800,000	0,038	-0,104
-589,167	-200,000	-0,002	0,153
-588,152	-67,310	0,067	-0,019
-587,138	-17,049	0,066	-0,031
-586,123	441,117	-0,072	-0,117
-585,109	-38,190	0,087	-0,034
-584,094	-164,758	-0,126	0,004
-583,079	193,365	0,018	-0,020
-582,065	68,105	0,036	-0,027
-581,050	-200,000	0,040	-0,133
-580,036	197,822	-0,100	-0,114
-579,021	-200,000	-0,034	-0,148
-578,006	-71,316	-0,191	-0,053
-576,992	300,223	-0,084	-0,115
-575,977	-200,000	0,015	0,059
-574,963	117,776	0,057	0,052
-573,948	-144,060	0,037	-0,003
-572,934	-200,000	-0,005	0,062
-571,919	-6,954	-0,021	-0,011
-570,904	351,500	-0,065	-0,096
-569,890	137,219	0,056	-0,054
-568,875	800,000	0,047	-0,110
-567,861	-49,338	0,063	0,022
-566,846	-200,000	-0,011	0,039
-565,831	-16,033	-0,043	0,020
-564,817	53,706	-0,104	0,074
-563,802	189,093	-0,040	0,044
-562,788	-200,000	0,012	-0,090
-561,773	-160,351	0,183	0,007
-560,758	-49,667	-0,156	-0,055
-559,744	273,347	0,087	0,114
-558,729	-31,666	-0,135	-0,056
-557,715	-200,000	-0,000	0,072
-556,700	-80,629	0,127	-0,031
-555,685	52,592	0,103	-0,073
-554,671	43,743	0,127	-0,086
-553,656	76,747	0,034	0,027
-552,642	-125,353	0,083	-0,009
-551,627	800,000	0,016	0,052
-550,612	-39,686	-0,093	0,036
-549,598	-200,000	0,025	0,102
-548,583	-200,000	0,002	-0,050
-547,569	-66,799	0,016	-0,005
-546,554	219,459	0,022	-0,027
-545,539	-200,000	0,001	0,064
-544,525	217,975	-0,016	0,019
-543,510	800,000	-0,029	0,089
-542,496	32,124	-0,060	-0,038
-541,481	591,721	0,017	-0,031
-540,466	147,806	-0,026	0,026
-539,452	171,035	0,103	-0,110
-538,437	131,264	0,109	-0,104
-537,423	-200,000	0,004	0,082
-536,408	113,017	-0,047	-0,042
-535,393	557,352	-0,020	0,037
-534,379	-200,000	-0,001	-0,045
-533,364	800,000	0,014	-0,036
-532,350	-25,417	0,066	-0,029
-531,335	125,359	-0,051	0,048
-530,321	-200,000	-0,006	0,106
-529,306	800,000	0,006	0,015
-528,291	564,719	-0,071	0,127
-527,277	358,832	-0,059	0,088
-526,262	-200,000	-0,019	-0,068
-525,248	800,000	0,028	-0,059
-524,233	115,454	0,073	0,066
-523,218	-142,558	0,053	0,004
-522,204	127,029	0,078	-0,073
-521,189	41,999	-0,120	-0,080
-520,175	27,134	-0,048	-0,030
-519,160	86,931	0,115	0,094
-518,145	142,078	0,062	0,061
-517,131	96,134	-0,024	0,020
-516,116	611,031	-0,067	0,124
-515,102	800,000	-0,036	0,089
-514,087	-87,470	0,060	0,013
-513,072	-144,399	-0,064	0,004
-512,058	47,618	-0,118	-0,081
-511,043	-16,596	-0,090	-0,042
-510,029	46,165	0,136	0,093
-509,014	-18,639	0,026	-0,012
-507,999	-200,000	0,005	0,043
-506,985	-123,202	-0,058	-0,007
-505,970	-200,000	0,001	-0,015
-504,956	-64,106	-0,080	0,024
-503,941	-200,000	-0,018	0,084
-502,926	247,680	0,057	0,072
-501,912	-194,059	0,044	-0,000
-500,897	118,628	-0,026	-0,024
-499,883	-75,885	0,090	-0,023
-498,868	800,000	-0,061	-0,174
-497,853	191,895	0,027	-0,030
-496,839	62,448	-0,038	0,028
-495,824	138,609	0,119	0,115
-494,810	17,772	0,026	0,015
-493,795	363,195	-0,071	0,106
-492,781	-200,000	0,028	-0,143
-491,766	-150,115	-0,154	-0,009
-490,751	105,665	0,074	-0,065
-489,737	-200,000	-0,016	-0,116
-488,722	323,153	0,062	0,087
-487,708	-75,513	0,103	0,027
-486,693	800,000	-0,037	0,091
-485,678	-8,581	-0,088	0,043
-484,664	800,000	0,022	-0,045
-483,649	-34,415	-0,071	-0,029
-482,635	-200,000	-0,006	-0,076
-481,620	70,651	0,011	0,008
-480,605	-66,615	0,152	0,044
-479,591	246,310	-0,060	0,075
-478,576	254,428	0,070	0,088
-477,562	-4,136	-0,058	0,030
-476,547	456,096	-0,109	0,179
-475,532	45,483	0,093	0,063
-474,518	405,884	-0,028	-0,043
-473,503	-200,000	0,033	0,140
-472,489	394,854	0,060	0,093
-471,474	-5,611	-0,156	-0,079
-470,459	-200,000	0,028	0,114
-469,445	-158,145	-0,091	0,004
-468,430	-200,000	0,035	-0,167
-467,416	-17,646	-0,095	-0,044
-466,401	40,297	0,125	0,083
-465,386	-104,493	0,057	-0,010
-464,372	-146,725	0,067	-0,004
-463,357	-126,644	0,142	0,015
-462,343	-200,000	-0,004	0,072
-461,328	-200,000	0,001	0,037
-460,313	247,767	0,133	0,166
-459,299	-200,000	0,025	0,091
-458,284	800,000	-0,059	-0,123
-457,270	-200,000	0,048	0,196
-456,255	-200,000	-0,019	-0,076
-455,241	-200,000	-0,000	-0,060
-454,226	672,348	-0,045	-0,086
-453,211	-25,893	0,055	0,024
-452,197	51,879	0,067	0,047
-451,182	-200,000	-0,007	-0,128
-450,168	30,539	-0,081	-0,051
-449,153	-61,055	0,071	-0,022
-448,138	-56,286	-0,083	-0,027
-447,124	439,582	-0,029	0,047
-446,109	-17,359	-0,062	-0,029
-445,095	-200,000	-0,005	0,057
-444,080	13,471	0,101	-0,058
-443,065	-59,282	0,173	0,054
-442,051	20,164	-0,046	0,027
-441,036	-10,138	-0,041	-0,020
-440,022	800,000	-0,039	0,097
-439,007	10,468	-0,074	-0,041
-437,992	-200,000	0,035	0,160
-436,978	65,915	-0,070	0,053
-435,963	35,134	0,089	-0,057
-434,949	233,338	0,060	-0,073
-433,934	-98,568	0,184	-0,034
-432,919	94,014	-0,060	-0,050
-431,905	-8,591	-0,041	-0,020
-430,890	206,760	0,056	0,065
-429,876	-110,317	0,013	-0,002
-428,861	-11,111	-0,023	0,011
-427,846	-200,000	0,012	0,093
-426,832	129,031	-0,123	-0,116
-425,817	-155,767	0,193	-0,009
-424,803	57,242	-0,052	-0,038
-423,788	-73,059	0,098	-0,026
-422,773	-0,467	0,033	-0,017
-421,759	-200,000	0,011	0,121
-420,744	800,000	0,047	0,101
-419,730	800,000	0,005	0,010
-418,715	138,554	-0,099	0,096
-417,701	537,370	0,039	0,069
-416,686	293,475	0,062	-0,084
-415,671	-200,000	-0,006	0,101
-414,657	102,018	0,116	0,099
-413,642	-200,000	-0,014	0,101
-412,628	-200,000	0,006	-0,021
-411,613	-9,754	-0,030	-0,015
-410,598	-200,000	0,008	-0,067
-409,584	800,000	-0,018	-0,042
-408,569	800,000	-0,043	0,126
-407,555	-200,000	0,003	-0,076
-406,540	-123,284	0,090	-0,010
-405,525	800,000	-0,020	-0,041
-404,511	-200,000	0,006	-0,064
-403,496	76,855	-0,102	-0,079
-402,482	0,384	0,050	-0,026
-401,467	-96,794	0,078	0,015
-400,452	800,000	0,049	-0,149
-399,438	109,945	0,068	0,060
-398,423	800,000	0,043	-0,098
-397,409	107,534	-0,054	0,047
-396,394	-200,000	0,012	0,118
-395,379	-200,000	-0,039	0,183
-394,365	800,000	0,028	0,090
-393,350	9,618	-0,115	0,064
-392,336	-200,000	-0,024	0,222
-391,321	-200,000	0,040	0,186
-390,306	-125,222	-0,128	0,014
-389,292	396,395	-0,037	-0,057
-388,277	800,000	-0,035	0,087
-387,263	-53,759	0,119	0,040
-386,248	800,000	-0,025	-0,072
-385,233	-200,000	-0,006	0,038
-384,219	-200,000	-0,024	-0,114
-383,204	149,030	-0,110	-0,110
-382,190	800,000	0,004	-0,009
-381,175	20,670	0,059	0,035
-380,160	398,396	0,039	0,059
-379,146	62,300	0,072	0,053
-378,131	-200,000	0,046	0,165
-377,117	800,000	0,013	-0,029
-376,102	98,372	0,125	-0,106
-375,088	143,483	-0,058	-0,057
-374,073	-108,583	-0,181	-0,028
-373,058	79,568	0,051	0,040
-372,044	-200,000	0,016	0,177
-371,029	-37,299	0,074	0,029
-370,015	231,588	0,080	-0,096
-369,000	-63,442	-0,087	0,026
-367,985	23,847	-0,163	-0,098
-366,971	162,536	-0,037	-0,038
-365,956	-200,000	0,038	0,180
-364,942	95,796	0,061	0,051
-363,927	631,564	-0,037	-0,069
-362,912	-200,000	0,034	0,136
-361,898	178,168	0,038	0,041
-360,883	-200,000	-0,006	-0,027
-359,869	-200,000	-0,019	-0,109
-358,854	-200,000	-0,024	0,093
-357,839	315,574	-0,054	0,075
-356,825	-100,141	0,086	-0,016
-355,810	41,702	0,054	0,036
-354,796	-200,000	0,018	0,102
-353,781	-85,100	-0,094	-0,021
-352,766	52,975	-0,168	0,118
-351,752	62,578	0,028	-0,021
-350,737	-200,000	0,021	0,098
-349,723	-200,000	0,012	-0,057
-348,708	-200,000	0,021	-0,163
-347,693	105,915	-0,042	0,037
-346,679	-56,997	-0,128	-0,041
-345,664	800,000	0,071	0,146
-344,650	55,156	0,097	-0,069
-343,635	800,000	-0,040	-0,122
-342,620	-200,000	-0,013	0,063
-341,606	-60,777	0,062	0,019
-340,591	458,049	-0,048	-0,079
-339,577	-165,521	-0,105	0,003
-338,562	281,526	-0,044	-0,058
-337,548	800,000	0,029	-0,064
-336,533	-122,801	0,133	0,016
-335,518	463,746	-0,040	-0,066
-334,504	800,000	-0,013	-0,030
-333,489	89,471	-0,039	0,032
-332,475	-200,000	-0,010	0,104
-331,460	-76,085	-0,173	0,045
-330,445	439,497	0,087	-0,140
-329,431	-200,000	-0,014	-0,054
-328,416	181,029	-0,056	-0,060
-327,402	245,914	-0,046	0,056
-326,387	531,216	0,105	-0,183
-325,372	186,602	0,056	0,062
-324,358	-100,522	-0,067	-0,012
-323,343	-200,000	-0,014	-0,128
-322,329	122,340	0,042	-0,038
-321,314	632,880	0,052	0,098
-320,299	-200,000	-0,000	0,090
-319,285	-160,757	-0,132	0,005
-318,270	-200,000	0,017	-0,096
-317,256	214,501	-0,178	-0,207
-316,241	235,484	-0,077	-0,093
-315,226	-34,127	0,097	0,039
-314,212	54,979	0,095	-0,067
-313,197	269,869	0,079	0,102
-312,183	-61,102	0,094	-0,029
-311,168	-50,185	0,014	-0,005
-310,153	-1,005	-0,164	-0,085
-309,139	99,718	0,057	-0,048
-308,124	-200,000	-0,005	-0,049
-307,110	26,814	0,072	-0,044
-306,095	314,737	0,059	0,081
-305,080	-55,079	0,044	-0,015
-304,066	-200,000	0,010	-0,073
-303,051	726,900	-0,017	0,034
-302,037	51,147	-0,055	0,038
-301,022	-91,350	-0,030	-0,006
-300,008	-114,016	0,114	-0,016
-298,993	246,111	-0,040	0,050
-297,978	-83,643	0,097	-0,023
-296,964	159,042	0,100	-0,102
-295,949	219,186	-0,015	0,018
-294,935	-7,763	-0,046	0,023
-293,920	-200,000	0,006	-0,060
-292,905	-116,711	0,106	0,014
-291,891	35,583	0,042	-0,027
-290,876	440,107	-0,013	0,020
-289,862	-192,138	0,020	0,000
-288,847	315,378	0,061	-0,085
-287,832	262,900	-0,048	0,061
-286,818	16,593	-0,102	-0,059
-285,803	-15,022	-0,027	0,013
-284,789	-200,000	0,012	-0,084
-283,774	800,000	-0,076	0,177
-282,759	76,040	-0,109	-0,085
-281,745	-38,318	0,060	-0,023
-280,730	-25,678	0,025	-0,011
-279,716	130,375	0,041	0,039
-278,701	800,000	0,038	0,078
-277,686	-140,348	0,212	-0,016
-276,672	-200,000	-0,014	-0,099
-275,657	-10,560	-0,080	0,039
-274,643	105,799	0,152	-0,132
-273,628	-138,225	-0,073	0,006
-272,613	-42,068	-0,036	-0,013
-271,599	-200,000	-0,009	0,091
-270,584	-160,837	0,104	0,004
-269,570	137,225	-0,031	-0,030
-268,555	352,368	0,053	-0,077
-267,540	-200,000	0,012	-0,086
-266,526	225,522	-0,068	-0,081
-265,511	59,727	0,059	-0,043
-264,497	799,994	-0,046	0,093
-263,482	800,000	-0,054	0,134
-262,467	513,191	-0,021	0,036
-261,453	-68,537	0,065	0,018
-260,438	-200,000	0,038	0,125
-259,424	800,000	-0,062	-0,179
-258,409	-145,857	0,155	0,010
-257,395	382,822	0,033	0,050
-256,380	136,951	0,020	0,019
-255,365	-200,000	0,021	-0,103
-254,351	64,964	0,077	0,057
-253,336	-200,000	-0,028	-0,116
-252,322	-56,534	-0,075	-0,024
-251,307	267,649	0,037	-0,047
-250,292	-200,000	-0,006	-0,035
-249,278	800,000	0,009	-0,026
-248,263	240,251	0,033	-0,040
-247,249	285,081	-0,085	0,112
-246,234	-126,089	0,044	-0,005
-245,219	800,000	0,029	-0,064
-244,205	134,155	0,017	0,016
-243,190	-200,000	-0,013	-0,065
-242,176	476,344	-0,043	0,071
-241,161	-200,000	0,019	0,066
-240,146	-200,000	0,023	0,076
-239,132	-200,000	0,012	0,043
-238,117	800,000	0,027	-0,071
-237,103	84,851	-0,066	-0,053
-236,088	635,334	0,101	0,189
-235,073	800,000	0,044	0,099
-234,059	-200,000	0,015	0,080
-233,044	-200,000	0,003	0,062
-232,030	154,032	-0,016	0,016
-231,015	48,521	0,056	-0,038
-230,000	122,006	-0,034	-0,031
-228,986	-95,513	0,087	-0,017
-227,971	258,913	0,049	-0,062
-226,957	4,347	-0,095	0,051
-225,942	-101,886	0,043	-0,007
-224,927	-135,366	-0,113	0,010
-223,913	-86,720	-0,103	-0,023
-222,898	38,599	-0,048	-0,031
-221,884	191,460	0,049	-0,053
-220,869	113,576	0,022	-0,020
-219,855	-19,640	-0,063	0,028
-218,840	-200,000	0,013	0,122
-217,825	107,329	-0,029	-0,025
-216,811	-200,000	-0,015	-0,162
-215,796	800,000	-0,015	-0,033
-214,782	-200,000	0,030	-0,104
-213,767	92,537	-0,107	-0,088
-212,752	-200,000	0,023	0,083
-211,738	-14,378	0,048	-0,022
-210,723	100,156	-0,043	0,037
-209,709	-190,050	-0,101	-0,001
-208,694	-140,239	-0,136	0,010
-207,679	312,097	0,037	-0,050
-206,665	70,672	0,058	-0,044
-205,650	-9,695	-0,061	-0,030
-204,636	503,799	-0,052	0,087
-203,621	-200,000	-0,016	0,079
-202,606	-120,455	-0,140	-0,017
-201,592	-200,000	-0,010	-0,056
-200,577	-67,424	0,073	-0,021
-199,563	-200,000	-0,022	-0,104
-198,548	800,000	-0,005	-0,010
-197,533	-200,000	-0,020	0,160
-196,519	-49,545	-0,111	0,038
-195,504	800,000	-0,053	0,149
-194,490	-60,327	-0,095	0,029
-193,475	-131,662	-0,060	0,006
-192,460	-116,944	-0,137	-0,018
-191,446	141,879	0,158	-0,152
-190,431	80,491	-0,035	-0,028
-189,417	-200,000	0,011	-0,105
-188,402	31,037	0,107	0,067
-187,387	800,000	0,037	-0,076
-186,373	15,581	-0,024	-0,014
-185,358	-200,000	-0,010	-0,060
-184,344	61,716	-0,043	-0,031
-183,329	-200,000	0,035	0,211
-182,315	-25,994	0,109	0,047
-181,300	800,000	0,054	-0,118
-180,285	-63,727	-0,072	-0,021
-179,271	202,466	-0,040	-0,045
-178,256	-200,000	-0,008	-0,099
-177,242	96,875	-0,085	0,071
-176,227	-104,685	0,118	0,020
-175,212	-116,453	0,182	-0,024
-174,198	-3,641	-0,070	0,035
-173,183	-113,992	-0,025	0,004
-172,169	518,204	-0,121	-0,207
-171,154	800,000	0,025	0,054
-170,139	38,139	-0,088	0,057
-169,125	45,457	0,146	-0,098
-168,110	90,083	0,071	-0,057
-167,096	-200,000	-0,016	0,078
-166,081	411,951	-0,079	0,123
-165,066	-166,471	-0,125	0,004
-164,052	31,375	-0,033	0,020
-163,037	98,118	0,109	0,092
-162,023	132,463	-0,075	0,070
-161,008	-125,363	0,049	0,005
-159,993	-9,623	0,059	-0,029
-158,979	-200,000	-0,003	-0,047
-157,964	-59,976	0,097	-0,030
-156,950	117,474	-0,057	0,051
-155,935	-200,000	-0,015	0,186
-154,920	-200,000	0,012	-0,134
-153,906	-171,857	0,182	0,004
-152,891	27,336	-0,053	-0,032
-151,877	800,000	-0,016	0,045
-150,862	703,845	0,058	-0,113
-149,847	44,640	-0,055	0,037
-148,833	31,170	0,137	0,085
-147,818	192,405	0,028	0,031
-146,804	95,980	0,112	0,093
-145,789	-54,612	-0,057	0,019
-144,775	-46,378	-0,054	-0,019
-143,760	-200,000	-0,004	-0,035
-142,745	-19,648	0,056	0,025
-141,731	191,357	0,039	0,043
-140,716	395,304	-0,036	0,055
-139,702	800,000	-0,082	0,205
-138,687	800,000	-0,024	0,062
-137,672	10,185	0,066	-0,036
-136,658	-200,000	0,004	0,016
-135,643	-200,000	0,021	0,087
-134,629	-23,545	-0,124	0,054
-133,614	-200,000	0,030	0,108
-132,599	800,000	0,065	0,184
-131,585	417,800	-0,022	-0,034
-130,570	132,328	-0,026	0,024
-129,556	84,637	-0,064	-0,051
-128,541	376,231	-0,036	-0,053
-127,526	234,646	0,031	0,037
-126,512	559,764	-0,054	0,095
-125,497	221,517	0,121	0,141
-124,483	800,000	-0,027	0,056
-123,468	726,419	-0,087	0,171
-122,453	585,088	-0,049	0,088
-121,439	418,685	-0,074	-0,115
-120,424	-200,000	-0,006	-0,146
-119,410	-109,397	0,048	0,007
-118,395	49,076	-0,056	0,038
-117,380	-200,000	-0,040	0,143
-116,366	150,376	0,105	-0,104
-115,351	98,510	-0,031	0,026
-114,337	800,000	-0,108	-0,228
-113,322	-121,340	0,071	0,008
-112,307	-33,261	-0,097	0,039
-111,293	-83,851	0,120	0,028
-110,278	800,000	-0,033	0,076
-109,264	-9,769	0,082	0,039
-108,249	-122,214	0,066	-0,008
-107,234	406,694	-0,018	0,028
-106,220	800,000	0,038	0,096
-105,205	-139,754	0,154	-0,012
-104,191	-28,030	0,112	-0,047
-103,176	800,000	-0,047	0,144
-102,162	144,423	0,028	-0,027
-101,147	-200,000	0,055	0,000
-100,132	757,142	0,067	-0,133
-99,118	293,701	0,048	-0,064
-98,103	-200,000	-0,010	-0,035
-97,089	605,992	0,075	-0,136
-96,074	-200,000	0,000	0,024
-95,059	-200,000	-0,004	0,047
-94,045	-77,237	0,122	-0,031
-93,030	403,880	-0,047	-0,072
-92,016	127,643	0,091	0,084
-91,001	-200,000	0,003	-0,104
-89,986	-26,513	0,077	0,033
-88,972	-200,000	0,039	0,215
-87,957	800,000	0,055	0,130
-86,943	-108,566	-0,115	0,018
-85,928	-142,231	-0,127	0,009
-84,913	-200,000	-0,005	-0,032
-83,899	-86,658	0,046	-0,010
-82,884	-200,000	0,005	-0,039
-81,870	-200,000	0,002	0,196
-80,855	738,173	0,120	0,234
-79,840	630,573	-0,020	-0,038
-78,826	-200,000	0,030	-0,148
-77,811	-200,000	-0,040	-0,135
-76,797	-9,079	0,050	0,024
-75,782	324,180	0,033	-0,046
-74,767	-28,484	0,239	0,100
-73,753	-200,000	0,083	0,000
-72,738	-2,584	-0,101	0,051
-71,724	800,000	-0,076	-0,174
-70,709	-130,826	-0,093	-0,009
-69,694	-118,740	-0,043	0,005
-68,680	800,000	-0,027	0,062
-67,665	441,327	0,088	-0,140
-66,651	-200,000	-0,013	-0,079
-65,636	-200,000	0,004	0,017
-64,622	243,776	-0,095	-0,116
-63,607	800,000	0,068	0,198
-62,592	-180,238	0,082	0,001
-61,578	-200,000	0,014	0,071
-60,563	800,000	-0,038	0,102
-59,549	-200,000	-0,020	0,175
-58,534	-142,636	-1,357	-0,095
-57,519	667,081	-0,882	-1,663
-56,505	-200,000	-0,837	-4,310
-55,490	58,748	0,657	-0,468
-54,476	800,000	4,986	11,884
-53,461	-200,000	13,439	252,965
-52,446	-200,000	688,500	2273,367
-51,432	598,789	1623,090	2933,244
-50,417	121,180	1637,009	1478,745
-49,403	73,528	1291,228	980,071
-48,388	38,491	1025,791	662,201
-47,373	24,641	983,092	589,054
-46,359	23,922	972,776	580,489
-45,344	22,966	968,690	574,898
-44,330	22,857	967,095	573,573
-43,315	22,775	965,751	572,487
-42,300	22,726	964,752	571,713
-41,286	22,792	963,755	571,313
-40,271	22,713	962,963	570,564
-39,257	22,774	961,868	570,092
-38,242	22,724	960,953	569,364
-37,227	22,702	960,249	568,854
-36,213	22,745	959,144	568,313
-35,198	22,670	958,389	567,603
-34,184	22,817	957,686	567,638
-33,169	22,681	956,897	566,710
-32,154	22,751	956,037	566,404
-31,140	22,777	955,132	565,929
-30,125	22,729	954,292	565,252
-29,111	22,741	953,565	564,838
-28,096	22,736	952,818	564,357
-27,082	22,804	952,209	564,193
-26,067	22,773	951,350	563,563
-25,052	22,789	950,599	563,148
-24,038	22,801	949,940	562,773
-23,023	22,755	949,338	562,245
-22,009	22,834	948,419	561,931
-20,994	22,801	948,080	561,603
-19,979	22,845	947,567	561,417
-18,965	22,734	946,954	560,679
-17,950	22,787	946,133	560,340
-16,936	22,731	945,460	559,738
-15,921	22,658	945,028	559,227
-14,906	22,639	944,141	558,621
-13,892	22,639	943,472	558,203
-12,877	22,638	942,874	557,823
-11,863	22,654	942,220	557,465
-10,848	22,622	941,733	557,055
-9,833	22,768	941,227	557,196
-8,819	22,751	940,552	556,719
-7,804	22,643	939,734	555,870
-6,790	22,651	939,442	555,703
-5,775	22,755	938,450	555,424
-4,760	22,647	938,156	554,885
-3,746	22,655	937,495	554,495
-2,731	22,530	936,731	553,628
-1,717	22,514	936,118	553,192
-0,702	22,456	935,478	552,609
0,313	22,273	934,861	552,501
1,327	25,354	932,863	560,970
2,342	35,209	797,505	505,858
3,356	33,501	452,168	284,209
4,371	2,387	293,779	153,635
5,386	-2,237	274,530	139,184
6,400	-3,588	268,740	134,984
7,415	-4,211	266,288	133,168
8,429	-3,892	265,054	132,831
9,444	-3,970	264,257	132,349
10,459	-3,855	263,446	132,036
11,473	-4,097	263,056	131,608
12,488	-4,122	262,483	131,287
13,502	-4,200	261,873	130,900
14,517	-4,334	261,486	130,574
15,531	-4,236	260,999	130,408
16,546	-4,406	260,944	130,216
17,561	-4,290	260,319	129,996
18,575	-4,054	260,069	130,071
19,590	-4,156	259,767	129,817
20,604	-4,110	259,341	129,634
21,619	-4,149	259,110	129,472
22,634	-4,196	258,688	129,208
23,648	-4,097	258,257	129,069
24,663	-4,274	258,202	128,873
25,677	-4,190	258,020	128,845
26,692	-4,328	257,807	128,605
27,707	-4,353	257,454	128,395
28,721	-4,306	257,227	128,312
29,736	-4,201	256,915	128,238
30,750	-4,384	256,645	127,929
31,765	-4,243	256,357	127,899
32,780	-4,416	256,323	127,718
33,794	-4,308	256,085	127,683
34,809	-4,361	255,822	127,494
35,823	-4,354	255,523	127,340
36,838	-4,171	255,228	127,343
37,853	-4,345	255,029	127,079
38,867	-4,337	254,716	126,919
39,882	-4,311	254,512	126,828
40,896	-4,300	254,328	126,735
41,911	-4,494	254,289	126,535
42,926	-4,448	253,981	126,410
43,940	-4,293	253,629	126,359
44,955	-4,392	253,339	126,117
45,969	-4,502	253,301	125,991
46,984	-4,521	252,944	125,786
47,999	-4,972	252,777	125,299
49,013	-5,038	252,514	125,100
50,028	-5,086	252,201	124,892
51,042	-5,122	251,920	124,711
52,057	-5,153	251,745	124,586
53,071	-5,222	251,589	124,438
54,086	-4,903	251,318	124,569
55,101	-5,145	251,298	124,339
56,115	-4,723	251,204	124,646
57,130	-4,353	251,145	124,925
58,144	-4,210	250,855	124,892
59,159	-3,978	250,707	125,008
60,174	-4,216	250,477	124,677
61,188	-4,357	250,200	124,407
62,203	-4,036	250,020	124,582
63,217	-4,167	249,716	124,307
64,232	-3,999	249,642	124,403
65,247	-4,204	249,512	124,152
66,261	-3,922	249,226	124,240
67,276	-4,418	248,844	123,614
68,290	-4,516	248,679	123,438
69,305	-4,596	248,344	123,192
70,320	-4,556	248,142	123,115
71,334	-4,321	248,197	123,331
72,349	-4,079	248,000	123,428
73,363	-4,017	247,989	123,465
74,378	-4,025	247,593	123,249
75,393	-4,204	247,460	123,021
76,407	-4,223	247,215	122,872
77,422	-4,436	247,018	122,583
78,436	-4,043	246,698	122,745
79,451	-4,346	246,664	122,461
80,466	-4,352	246,427	122,327
81,480	-4,406	246,107	122,112
82,495	-4,439	245,841	121,941
83,509	-4,359	245,771	121,964
84,524	-4,499	245,520	121,710
85,539	-4,620	245,316	121,496
86,553	-4,683	245,056	121,304
87,568	-4,613	244,891	121,270
88,582	-4,716	244,858	121,156
89,597	-4,631	244,611	121,095
90,611	-4,512	244,567	121,162
91,626	-4,260	244,277	121,218
92,641	-4,170	244,222	121,256
93,655	-4,232	243,904	121,035
94,670	-4,396	243,740	120,806
95,684	-4,499	243,615	120,647
96,699	-4,384	243,509	120,679
97,714	-4,438	243,161	120,452
98,728	-4,695	242,864	120,080
99,743	-4,617	242,709	120,058
100,757	-4,722	242,503	119,858
101,772	-4,652	242,416	119,862
102,787	-4,608	242,332	119,846
103,801	-4,521	242,133	119,810
104,816	-4,282	241,933	119,898
105,830	-4,314	241,809	119,799
106,845	-4,222	241,640	119,780
107,860	-4,080	241,526	119,830
108,874	-4,369	241,229	119,434
109,889	-4,321	241,015	119,357
110,903	-4,624	240,858	119,019
111,918	-4,529	240,645	118,981
112,933	-4,551	240,592	118,926
113,947	-4,308	240,363	119,002
114,962	-4,232	240,224	118,986
115,976	-4,214	239,902	118,830
116,991	-4,353	239,911	118,710
118,006	-4,192	239,625	118,690
119,020	-4,481	239,611	118,436
120,035	-4,362	239,603	118,519
121,049	-4,119	239,270	118,542
122,064	-4,170	239,000	118,356
123,079	-4,324	238,855	118,148
124,093	-4,449	238,734	117,976
125,108	-4,595	238,513	117,737
126,122	-4,715	238,179	117,464
127,137	-4,958	238,020	117,177
128,151	-4,695	237,809	117,276
129,166	-4,677	237,752	117,252
130,181	-4,547	237,492	117,220
131,195	-4,657	237,409	117,079
132,210	-4,534	237,223	117,077
133,224	-4,456	237,067	117,052
134,239	-4,238	236,838	117,104
135,254	-4,613	236,884	116,814
136,268	-4,560	236,468	116,641
137,283	-4,549	236,314	116,564
138,297	-4,833	235,923	116,132
139,312	-4,808	235,813	116,087
140,327	-4,628	235,908	116,268
141,341	-3,899	235,759	116,771
142,356	-4,004	235,702	116,648
143,370	-4,063	235,458	116,470
144,385	-4,133	235,459	116,404
145,400	-3,888	235,083	116,403
146,414	-3,817	234,936	116,378
147,429	-3,987	234,671	116,099
148,443	-4,072	234,730	116,050
149,458	-3,987	234,391	115,940
150,473	-4,290	234,489	115,737
151,487	-3,859	234,169	115,912
152,502	-3,952	234,071	115,779
153,516	-3,992	233,901	115,652
154,531	-3,976	233,686	115,549
155,546	-3,978	233,342	115,367
156,560	-4,098	233,217	115,199
157,575	-4,221	233,106	115,037
158,589	-4,293	232,943	114,889
159,604	-4,056	232,736	114,965
160,619	-3,908	232,765	115,086
161,633	-3,713	232,481	115,089
162,648	-3,774	232,367	114,975
163,662	-3,934	232,283	114,796
164,677	-4,108	232,045	114,531
165,692	-3,925	231,882	114,585
166,706	-3,730	231,749	114,663
167,721	-3,774	231,615	114,552
168,735	-3,710	231,408	114,489
169,750	-4,095	231,388	114,166
170,764	-4,002	231,271	114,171
171,779	-4,109	231,051	113,968
172,794	-3,825	230,838	114,076
173,808	-4,016	230,698	113,847
174,823	-4,720	230,334	113,106
175,837	-4,590	230,164	113,113
176,852	-4,226	230,082	113,348
177,867	-4,066	230,133	113,488
178,881	-3,770	229,905	113,597
179,896	-3,824	229,828	113,507
180,910	-3,880	229,578	113,329
181,925	-3,788	229,454	113,330
182,940	-3,892	229,351	113,188
183,954	-3,659	229,162	113,266
184,969	-3,922	228,983	112,962
185,983	-3,834	228,872	112,966
186,998	-3,700	228,723	112,987
188,013	-3,872	228,505	112,736
189,027	-3,747	228,312	112,727
190,042	-3,856	228,125	112,540
191,056	-3,590	227,945	112,647
192,071	-3,973	227,863	112,301
193,086	-3,841	227,878	112,400
194,100	-3,757	227,575	112,305
195,115	-3,707	227,095	112,097
196,129	-4,214	227,037	111,668
197,144	-1,006	228,110	114,667
198,159	2,639	229,222	118,043
199,173	3,792	229,590	119,116
200,188	4,306	229,369	119,389
201,202	4,167	229,136	119,150
202,217	4,371	229,121	119,289
203,232	4,571	228,937	119,337
204,246	4,670	228,927	119,398
205,261	4,669	228,752	119,295
206,275	5,007	228,570	119,450
207,290	5,095	228,477	119,459
208,304	5,025	228,392	119,350
209,319	4,812	228,207	119,079
210,334	4,932	228,007	119,055
211,348	4,574	227,737	118,629
212,363	4,268	227,537	118,280
213,377	4,109	227,239	117,993
214,392	4,022	227,121	117,854
215,407	3,763	227,074	117,621
216,421	4,176	226,880	117,826
217,436	4,195	226,588	117,678
218,450	3,861	226,520	117,377
219,465	3,841	226,215	117,194
220,480	3,819	226,291	117,205
221,494	3,672	226,130	117,000
222,509	4,150	225,918	117,243
223,523	3,873	225,780	116,951
224,538	3,844	225,651	116,851
225,553	3,950	225,506	116,847
226,567	4,105	225,426	116,912
227,582	4,231	225,327	116,947
228,596	4,381	225,190	116,978
229,611	4,134	224,981	116,672
230,626	3,846	224,789	116,344
231,640	3,794	224,706	116,251
232,655	4,208	224,578	116,488
233,669	4,565	224,509	116,712
234,684	4,676	224,497	116,779
235,699	4,268	224,251	116,333
236,713	4,156	223,925	116,068
237,728	4,007	223,727	115,844
238,742	4,040	223,546	115,764
239,757	3,951	223,535	115,681
240,772	3,900	223,333	115,528
241,786	3,887	223,068	115,371
242,801	4,036	223,154	115,517
243,815	4,387	223,050	115,716
244,830	4,460	222,916	115,691
245,844	4,175	222,567	115,286
246,859	4,188	222,455	115,228
247,874	4,173	222,515	115,238
248,888	4,267	222,298	115,185
249,903	4,079	222,193	114,980
250,917	3,988	221,950	114,776
251,932	3,993	221,703	114,642
252,947	3,748	221,506	114,347
253,961	3,988	221,448	114,485
254,976	3,750	221,398	114,273
255,990	3,939	221,159	114,279
257,005	4,126	221,012	114,332
258,020	4,323	221,034	114,480
259,034	4,444	220,988	114,535
260,049	4,325	220,678	114,276
261,063	4,268	220,569	114,167
262,078	4,385	220,441	114,178
263,093	4,536	220,298	114,205
264,107	4,585	220,115	114,136
265,122	4,532	219,947	114,000
266,136	4,613	219,985	114,069
267,151	4,586	219,710	113,896
268,166	4,111	219,491	113,423
269,180	3,685	219,261	112,981
270,195	3,865	219,147	113,044
271,209	3,902	218,981	112,975
272,224	4,066	218,742	112,963
273,239	4,115	218,734	112,984
274,253	3,985	218,479	112,747
275,268	3,838	218,404	112,591
276,282	3,683	218,192	112,358
277,297	3,882	217,995	112,392
278,312	3,839	218,006	112,356
279,326	3,997	217,878	112,396
280,341	3,909	217,901	112,333
281,355	4,301	217,493	112,398
282,370	3,996	217,442	112,140
283,384	3,804	217,363	111,950
284,399	3,948	217,173	111,946
285,414	3,955	216,930	111,816
286,428	3,933	216,962	111,807
287,443	4,179	216,912	111,950
288,457	4,165	216,803	111,873
289,472	4,074	216,460	111,620
290,487	3,732	216,168	111,213
291,501	3,608	216,044	111,049
292,516	3,693	215,959	111,056
293,530	4,020	215,800	111,201
294,545	3,575	215,879	110,910
295,560	3,962	215,654	111,064
296,574	3,991	215,477	110,984
297,589	4,005	215,359	110,924
298,603	3,989	215,333	110,889
299,618	4,044	215,317	110,910
300,633	4,100	214,967	110,760
301,647	4,400	214,988	110,977
302,662	4,123	214,841	110,692
303,676	4,071	214,747	110,597
304,691	4,216	214,621	110,626
305,706	4,261	214,431	110,551
306,720	4,302	214,232	110,468
307,735	4,018	214,080	110,176
308,749	3,873	213,846	109,942
309,764	4,021	213,989	110,111
310,779	4,455	213,704	110,265
311,793	4,205	213,486	109,964
312,808	4,352	213,334	109,981
313,822	4,205	213,249	109,822
314,837	4,123	213,060	109,657
315,852	4,038	212,764	109,434
316,866	4,013	212,801	109,426
317,881	4,126	212,754	109,473
318,895	4,215	212,658	109,476
319,910	4,063	212,425	109,239
320,925	3,824	212,152	108,920
321,939	3,447	212,008	108,569
322,954	3,562	212,034	108,654
323,968	4,114	211,783	108,906
324,983	4,400	211,739	109,076
325,997	4,095	211,840	108,903
327,012	4,153	211,452	108,735
328,027	4,279	211,257	108,713
329,041	4,483	211,278	108,858
330,056	4,525	211,290	108,884
331,070	4,295	210,989	108,557
332,085	3,615	210,796	107,970
333,100	3,965	210,578	108,095
334,114	4,100	210,531	108,156
335,129	4,025	210,293	107,971
336,143	3,892	210,230	107,836
337,158	3,792	210,243	107,763
338,173	3,853	210,040	107,692
339,187	3,748	209,833	107,502
340,202	3,808	209,622	107,427
341,216	3,652	209,454	107,222
342,231	3,959	209,479	107,440
343,246	3,904	209,303	107,302
344,260	3,768	209,135	107,111
345,275	3,779	209,107	107,095
346,289	3,932	208,967	107,120
347,304	4,158	208,810	107,188
348,319	3,980	208,737	107,017
349,333	3,791	208,703	106,858
350,348	4,139	208,552	107,013
351,362	4,330	208,278	106,996
352,377	4,403	208,265	107,030
353,392	4,063	207,950	106,623
354,406	4,057	207,835	106,551
355,421	193,067	1347,159	1433,109
356,435	153,986	1486,080	1433,233
