DTS Sentinel unit serial number:	SN410029Multiplexer serial number:	ORYXHardware model number:	OX2-SRSoftware version number:	ORYX F/W v4,00 Oryx Data Collector v3.7.2.0data status	okinstallation	B6 Nyhavnadifferential loss correction	single-endedforward channel	channel 2reverse channel	N/Adate	2023/12/09time	02:55:08forward acquisition time	300,00reverse acquisition time	0,00gamma	499,1914k internal	0,3154k external	0,3154temperature offset calibration	1,0000default loss term (dB/km)	0,3820temperature slope calibration	1,0000multiplexer offset coefficient	1,0000multiplexer slope coefficient	1,0000fibre end	0,00T internal ref (°C)	16,13T ext. ref 1 (°C)	-0,04T ext. ref 2 (°C)	-0,06length (m)	temperature (°C)	Stokes	anti-Stokes-744,400	-200,000	0,014	-0,069
-743,385	-97,788	-0,325	0,061
-742,371	-119,508	0,108	0,014
-741,356	-68,059	-0,236	0,068
-740,342	131,698	0,140	-0,133
-739,327	-117,585	-0,374	0,049
-738,312	71,687	0,088	0,067
-737,298	-100,364	-0,402	0,073
-736,283	-200,000	0,009	0,051
-735,269	-49,201	-0,304	0,107
-734,254	-105,450	0,098	0,016
-733,239	-72,243	-0,420	-0,114
-732,225	-110,802	0,096	0,014
-731,210	61,946	0,007	0,005
-730,196	-200,000	0,003	-0,101
-729,181	-91,152	-0,061	-0,013
-728,167	-109,346	-0,061	0,009
-727,152	-101,211	-0,085	-0,015
-726,137	7,200	-0,090	-0,049
-725,123	800,000	-0,035	-0,080
-724,108	-200,000	0,045	-0,172
-723,094	800,000	-0,081	-0,165
-722,079	-200,000	-0,046	-0,182
-721,064	-46,065	-0,066	0,024
-720,050	-31,447	0,106	-0,044
-719,035	259,053	-0,104	-0,133
-718,021	-49,580	0,080	-0,028
-717,006	543,741	-0,066	-0,116
-715,991	611,073	0,056	0,104
-714,977	6,436	0,040	0,022
-713,962	340,619	0,041	0,059
-712,948	19,215	-0,063	-0,037
-711,933	99,526	-0,071	0,060
-710,918	800,000	-0,023	-0,054
-709,904	800,000	0,008	0,018
-708,889	697,863	-0,050	-0,097
-707,875	62,366	-0,089	-0,065
-706,860	451,964	0,048	-0,078
-705,845	656,778	0,073	-0,139
-704,831	37,822	-0,060	0,039
-703,816	231,716	0,009	0,010
-702,802	-97,145	0,020	0,004
-701,787	800,000	-0,045	-0,109
-700,772	800,000	-0,026	-0,065
-699,758	-200,000	0,008	-0,088
-698,743	456,083	0,070	0,115
-697,729	-200,000	-0,012	-0,082
-696,714	211,834	-0,050	0,058
-695,699	-10,785	-0,149	-0,072
-694,685	30,263	-0,212	-0,133
-693,670	-10,920	-0,059	-0,029
-692,656	800,000	0,033	0,070
-691,641	-124,596	0,072	0,008
-690,627	-200,000	0,016	-0,136
-689,612	201,841	-0,084	0,096
-688,597	800,000	-0,017	0,039
-687,583	249,670	-0,064	-0,080
-686,568	-136,294	-0,054	-0,005
-685,554	283,743	-0,064	-0,084
-684,539	-120,045	-0,120	0,015
-683,524	-75,917	-0,037	-0,009
-682,510	61,334	-0,024	0,018
-681,495	-200,000	0,046	-0,174
-680,481	-200,000	-0,009	-0,079
-679,466	-200,000	0,018	-0,186
-678,451	23,869	-0,055	0,033
-677,437	-200,000	-0,014	-0,093
-676,422	800,000	-0,021	0,048
-675,408	519,570	0,050	-0,087
-674,393	-200,000	-0,018	0,096
-673,378	-145,876	-0,113	0,007
-672,364	-200,000	0,008	0,031
-671,349	800,000	0,074	0,232
-670,335	164,004	0,092	0,095
-669,320	-200,000	-0,044	-0,207
-668,305	-0,018	0,167	0,087
-667,291	79,640	-0,073	-0,057
-666,276	-200,000	-0,006	-0,093
-665,262	-200,000	-0,003	-0,142
-664,247	316,868	0,063	-0,088
-663,232	317,152	0,050	-0,070
-662,218	655,716	0,059	0,113
-661,203	800,000	-0,014	0,037
-660,189	-200,000	-0,014	-0,053
-659,174	-70,576	-0,043	-0,012
-658,159	800,000	-0,045	0,105
-657,145	497,708	-0,031	-0,053
-656,130	11,962	-0,067	0,038
-655,116	-125,785	0,085	-0,009
-654,101	212,021	0,037	0,043
-653,086	800,000	-0,013	-0,030
-652,072	-200,000	0,009	-0,101
-651,057	-200,000	0,009	0,135
-650,043	186,781	-0,101	0,111
-649,028	800,000	0,087	0,187
-648,014	-200,000	0,005	-0,048
-646,999	78,873	-0,069	-0,054
-645,984	800,000	0,029	0,070
-644,970	27,007	-0,059	-0,036
-643,955	-200,000	0,002	0,177
-642,941	336,436	-0,031	0,044
-641,926	268,299	-0,064	-0,083
-640,911	39,991	-0,171	0,113
-639,897	800,000	0,031	0,068
-638,882	-37,810	-0,153	0,060
-637,868	-20,567	-0,029	0,013
-636,853	-8,384	-0,035	-0,017
-635,838	253,530	-0,094	-0,119
-634,824	-10,643	-0,010	-0,005
-633,809	-200,000	0,000	-0,012
-632,795	800,000	0,013	0,027
-631,780	257,128	-0,008	0,011
-630,765	128,335	0,031	0,029
-629,751	-171,117	-0,065	0,002
-628,736	-33,635	-0,175	-0,070
-627,722	-66,583	0,053	-0,015
-626,707	-66,689	0,093	-0,027
-625,692	75,300	-0,113	0,088
-624,678	-50,917	0,132	0,045
-623,663	513,405	-0,003	-0,004
-622,649	-200,000	-0,005	-0,139
-621,634	800,000	-0,049	0,130
-620,619	232,183	0,058	-0,071
-619,605	379,193	0,009	0,014
-618,590	-29,298	-0,129	0,054
-617,576	-38,092	0,088	-0,034
-616,561	127,221	-0,042	0,039
-615,546	-69,133	-0,179	-0,050
-614,532	170,909	-0,037	-0,039
-613,517	-123,730	-0,191	0,022
-612,503	-31,532	0,145	0,059
-611,488	-97,677	-0,212	-0,040
-610,474	249,065	0,049	0,060
-609,459	800,000	-0,052	0,120
-608,444	800,000	0,017	-0,034
-607,430	606,770	0,048	-0,089
-606,415	-139,815	-0,135	0,010
-605,401	47,029	-0,086	-0,058
-604,386	-27,561	-0,056	-0,024
-603,371	311,045	0,131	0,181
-602,357	-200,000	-0,015	-0,079
-601,342	800,000	0,016	-0,043
-600,328	-200,000	-0,001	-0,023
-599,313	-139,862	0,108	0,008
-598,298	-22,476	-0,118	0,052
-597,284	-9,112	0,053	0,026
-596,269	8,683	0,128	-0,070
-595,255	-200,000	-0,007	0,052
-594,240	26,250	-0,192	-0,118
-593,225	-200,000	-0,021	-0,154
-592,211	-174,120	-0,135	0,003
-591,196	-40,477	-0,031	-0,012
-590,182	-126,433	-0,106	-0,011
-589,167	41,784	0,174	0,115
-588,152	4,469	-0,057	0,031
-587,138	19,403	-0,076	-0,045
-586,123	-74,996	-0,107	-0,028
-585,109	-99,981	-0,078	0,014
-584,094	56,032	0,133	-0,095
-583,079	417,215	0,068	-0,108
-582,065	115,591	-0,037	-0,033
-581,050	135,675	-0,065	0,062
-580,036	784,540	-0,102	-0,206
-579,021	51,066	0,116	0,081
-578,006	-200,000	0,001	0,060
-576,992	63,664	0,058	0,042
-575,977	2,633	-0,126	0,067
-574,963	99,310	0,029	0,024
-573,948	-34,928	0,038	0,015
-572,934	5,645	-0,065	0,035
-571,919	-200,000	-0,001	-0,157
-570,904	-200,000	0,003	-0,039
-569,890	315,602	-0,038	-0,052
-568,875	197,410	0,023	-0,025
-567,861	800,000	0,063	0,138
-566,846	-200,000	-0,001	0,028
-565,831	87,016	0,046	-0,037
-564,817	-24,892	0,007	0,003
-563,802	-87,680	-0,091	0,020
-562,788	-107,346	-0,076	0,012
-561,773	-37,147	0,020	0,008
-560,758	173,809	0,122	0,129
-559,744	279,700	0,068	0,089
-558,729	132,116	0,101	0,095
-557,715	39,602	-0,120	-0,079
-556,700	432,475	-0,058	-0,092
-555,685	-37,682	-0,075	0,029
-554,671	-73,780	0,026	-0,007
-553,656	450,850	-0,058	-0,095
-552,642	405,359	0,114	0,177
-551,627	13,629	-0,140	-0,079
-550,612	578,834	0,055	-0,099
-549,598	-200,000	-0,039	-0,170
-548,583	29,274	-0,041	0,026
-547,569	-200,000	0,000	0,004
-546,554	-40,521	0,104	0,039
-545,539	156,274	0,023	-0,024
-544,525	404,517	-0,067	-0,104
-543,510	800,000	-0,037	-0,098
-542,496	-200,000	0,008	-0,140
-541,481	-167,488	-0,110	0,003
-540,466	430,449	0,046	-0,073
-539,452	335,350	0,027	-0,039
-538,437	800,000	0,099	0,223
-537,423	-200,000	-0,037	0,163
-536,408	-200,000	0,004	0,160
-535,393	112,186	-0,064	0,057
-534,379	-200,000	-0,008	-0,037
-533,364	-200,000	0,030	-0,131
-532,350	800,000	0,029	-0,080
-531,335	-94,554	-0,059	0,012
-530,321	-94,603	0,086	-0,017
-529,306	-22,165	-0,035	-0,016
-528,291	-0,283	-0,126	-0,065
-527,277	142,730	-0,089	0,087
-526,262	-200,000	0,019	-0,130
-525,248	-200,000	0,001	-0,171
-524,233	-99,025	-0,136	0,025
-523,218	23,468	-0,033	-0,020
-522,204	-67,280	-0,074	-0,021
-521,189	470,253	-0,054	-0,090
-520,175	302,717	0,092	-0,124
-519,160	-72,230	-0,155	-0,042
-518,145	-200,000	0,018	-0,080
-517,131	-200,000	0,012	0,100
-516,116	-72,788	-0,050	-0,013
-515,102	361,427	0,041	0,060
-514,087	244,665	0,074	0,091
-513,072	-200,000	-0,001	-0,046
-512,058	-54,594	0,106	0,035
-511,043	46,286	-0,159	-0,108
-510,029	114,048	-0,098	-0,088
-509,014	634,859	0,065	0,122
-507,999	-200,000	0,047	-0,182
-506,985	-192,027	-0,076	-0,001
-505,970	130,448	0,015	-0,014
-504,956	-200,000	-0,000	-0,063
-503,941	-48,460	0,087	0,030
-502,926	800,000	0,014	-0,034
-501,912	-86,474	-0,044	0,010
-500,897	551,552	-0,052	0,092
-499,883	-107,534	-0,183	0,029
-498,868	-200,000	-0,032	-0,128
-497,853	-200,000	0,008	-0,054
-496,839	221,789	-0,057	-0,067
-495,824	131,785	0,085	-0,080
-494,810	-83,223	-0,094	0,022
-493,795	800,000	-0,075	0,164
-492,781	25,323	0,143	0,087
-491,766	598,420	0,096	-0,175
-490,751	123,383	0,032	-0,029
-489,737	800,000	0,016	-0,045
-488,722	281,332	0,013	-0,017
-487,708	5,222	-0,014	0,007
-486,693	-200,000	-0,006	0,064
-485,678	-98,196	-0,066	-0,012
-484,664	-200,000	-0,004	0,063
-483,649	-200,000	-0,004	-0,069
-482,635	209,001	-0,014	-0,016
-481,620	209,250	0,044	-0,050
-480,605	-200,000	0,025	0,136
-479,591	-200,000	0,015	0,050
-478,576	-200,000	0,002	0,044
-477,562	-39,466	0,099	-0,038
-476,547	-200,000	-0,016	-0,066
-475,532	-24,322	-0,069	0,030
-474,518	121,900	0,057	-0,052
-473,503	152,293	0,114	-0,114
-472,489	800,000	-0,098	0,236
-471,474	145,418	0,026	0,026
-470,459	-24,069	-0,065	0,028
-469,445	49,318	-0,129	-0,088
-468,430	125,564	-0,154	-0,142
-467,416	174,771	0,108	0,114
-466,401	170,891	0,029	0,030
-465,386	56,573	-0,031	-0,022
-464,372	45,585	-0,112	0,075
-463,357	800,000	-0,012	-0,030
-462,343	-200,000	-0,012	-0,097
-461,328	21,369	0,143	-0,085
-460,313	-128,908	0,053	0,005
-459,299	-200,000	0,053	0,203
-458,284	800,000	-0,058	0,121
-457,270	470,454	-0,080	-0,132
-456,255	-13,052	0,038	0,018
-455,241	-200,000	0,016	0,068
-454,226	-16,039	0,079	0,037
-453,211	252,200	0,071	0,089
-452,197	-7,148	0,105	0,052
-451,182	-200,000	0,004	-0,151
-450,168	-200,000	0,032	-0,108
-449,153	-132,976	-0,050	-0,005
-448,138	-179,933	0,051	0,001
-447,124	-200,000	-0,002	0,047
-446,109	80,158	0,080	0,063
-445,095	800,000	0,031	0,069
-444,080	-53,328	0,116	-0,039
-443,065	-10,758	0,110	0,053
-442,051	15,689	-0,021	-0,012
-441,036	50,859	-0,120	-0,083
-440,022	-96,219	-0,110	-0,021
-439,007	-200,000	-0,024	-0,078
-437,992	-132,157	0,124	-0,012
-436,978	222,100	0,122	0,143
-435,963	299,321	0,100	0,134
-434,949	-200,000	-0,032	0,118
-433,934	-65,052	-0,046	-0,013
-432,919	3,965	-0,113	-0,060
-431,905	-124,141	-0,044	0,005
-430,890	800,000	0,023	-0,068
-429,876	20,367	0,091	-0,053
-428,861	-71,050	0,084	-0,023
-427,846	-64,044	0,033	0,010
-426,832	-200,000	-0,022	-0,143
-425,817	77,376	0,026	0,021
-424,803	9,871	0,120	-0,066
-423,788	-37,899	-0,039	-0,015
-422,773	328,442	0,094	-0,132
-421,759	-43,090	0,056	0,021
-420,744	91,050	0,094	0,077
-419,730	-157,759	-0,056	0,002
-418,715	250,620	0,063	-0,078
-417,701	1,258	0,084	0,044
-416,686	19,120	0,080	0,046
-415,671	266,982	0,053	0,068
-414,657	800,000	-0,041	-0,123
-413,642	-79,847	-0,150	0,037
-412,628	800,000	-0,045	-0,137
-411,613	800,000	-0,041	0,108
-410,598	-200,000	0,056	0,188
-409,584	-173,863	0,199	-0,004
-408,569	800,000	-0,053	0,127
-407,555	-55,491	-0,094	-0,031
-406,540	74,432	-0,011	0,008
-405,525	800,000	-0,009	-0,025
-404,511	-9,851	-0,036	-0,018
-403,496	78,052	-0,154	-0,120
-402,482	41,279	0,074	-0,048
-401,467	-103,992	0,220	-0,037
-400,452	152,271	-0,084	0,084
-399,438	-200,000	-0,001	-0,085
-398,423	59,757	-0,023	0,016
-397,409	335,073	-0,008	-0,011
-396,394	800,000	0,034	-0,096
-395,379	189,054	-0,075	0,082
-394,365	-43,481	-0,028	0,010
-393,350	-200,000	0,013	-0,101
-392,336	-200,000	0,001	0,106
-391,321	-62,882	0,024	-0,007
-390,306	-200,000	0,007	-0,070
-389,292	-149,209	-0,102	0,006
-388,277	142,723	0,101	0,098
-387,263	269,593	0,052	0,066
-386,248	-44,821	0,159	0,057
-385,233	226,034	-0,032	-0,037
-384,219	-18,054	0,113	0,051
-383,204	104,526	-0,023	0,020
-382,190	-200,000	0,004	-0,014
-381,175	-93,736	0,059	-0,012
-380,160	312,188	-0,066	-0,090
-379,146	99,484	0,059	0,049
-378,131	-71,997	-0,057	-0,015
-377,117	303,648	-0,088	-0,118
-376,102	87,835	0,117	0,095
-375,088	15,874	-0,013	-0,007
-374,073	-200,000	0,002	-0,125
-373,058	-200,000	-0,019	-0,097
-372,044	-15,640	0,116	0,054
-371,029	-15,602	0,164	-0,076
-370,015	19,516	-0,075	-0,044
-369,000	-200,000	0,024	0,077
-367,985	-200,000	-0,012	0,102
-366,971	43,073	-0,030	-0,020
-365,956	5,931	-0,058	0,031
-364,942	235,390	-0,016	0,019
-363,927	410,232	-0,072	0,112
-362,912	17,097	0,041	-0,023
-361,898	248,920	0,025	-0,031
-360,883	464,637	0,075	0,123
-359,869	-76,050	-0,096	0,024
-358,854	-200,000	0,001	0,082
-357,839	800,000	-0,041	0,104
-356,825	-200,000	0,032	0,114
-355,810	-38,511	0,073	0,028
-354,796	-149,154	-0,128	-0,007
-353,781	-200,000	0,003	-0,118
-352,766	-200,000	0,015	-0,142
-351,752	76,408	-0,084	0,065
-350,737	-61,429	0,074	0,022
-349,723	800,000	-0,025	0,081
-348,708	-200,000	-0,038	-0,137
-347,693	297,107	0,056	-0,076
-346,679	624,494	-0,035	-0,065
-345,664	497,618	-0,073	-0,123
-344,650	204,012	0,083	0,094
-343,635	-10,931	-0,063	-0,030
-342,620	-200,000	0,021	0,111
-341,606	116,298	0,072	0,064
-340,591	309,654	-0,053	-0,072
-339,577	-171,872	-0,062	-0,001
-338,562	219,365	-0,175	0,204
-337,548	-200,000	0,041	0,137
-336,533	-52,162	0,147	0,049
-335,518	-200,000	0,004	0,065
-334,504	-96,270	0,046	0,009
-333,489	-101,590	-0,021	0,004
-332,475	800,000	0,024	-0,060
-331,460	-200,000	-0,024	-0,163
-330,445	-181,048	-0,130	0,002
-329,431	55,034	0,111	0,078
-328,416	800,000	-0,007	0,021
-327,402	-200,000	0,028	0,197
-326,387	-66,563	0,121	0,035
-325,372	-8,286	-0,022	-0,011
-324,358	526,615	0,061	0,104
-323,343	-97,227	-0,147	-0,028
-322,329	280,693	0,021	0,027
-321,314	36,300	0,178	-0,114
-320,299	605,852	0,051	-0,092
-319,285	747,449	-0,044	0,087
-318,270	352,470	-0,033	-0,048
-317,256	104,565	-0,097	-0,083
-316,241	338,042	0,100	-0,142
-315,226	51,118	-0,097	-0,067
-314,212	-200,000	0,010	0,036
-313,197	-200,000	-0,012	-0,067
-312,183	-10,028	0,133	-0,064
-311,168	-31,282	-0,062	-0,025
-310,153	106,255	-0,087	-0,074
-309,139	136,676	0,090	-0,086
-308,124	165,342	-0,027	0,028
-307,110	485,148	0,041	-0,068
-306,095	800,000	0,017	0,043
-305,080	181,701	0,041	-0,044
-304,066	-200,000	0,006	-0,041
-303,051	800,000	0,054	-0,130
-302,037	800,000	-0,059	-0,186
-301,022	-167,722	0,095	0,003
-300,008	2,494	0,017	-0,009
-298,993	379,545	-0,037	0,056
-297,978	-86,040	-0,095	0,021
-296,964	232,918	-0,069	-0,083
-295,949	-200,000	-0,015	-0,170
-294,935	-200,000	0,048	0,157
-293,920	-98,724	0,120	0,022
-292,905	-200,000	0,023	0,085
-291,891	-0,547	0,020	0,010
-290,876	-200,000	0,019	0,139
-289,862	-200,000	0,003	0,052
-288,847	-85,164	-0,042	0,009
-287,832	-28,806	0,145	-0,060
-286,818	398,516	-0,028	0,042
-285,803	-200,000	0,002	0,077
-284,789	-1,284	-0,039	0,020
-283,774	-154,535	-0,098	0,005
-282,759	-23,474	0,077	0,033
-281,745	-94,678	0,028	-0,005
-280,730	-200,000	0,026	-0,148
-279,716	-200,000	-0,025	0,146
-278,701	485,664	-0,097	0,161
-277,686	422,001	-0,027	0,043
-276,672	-49,442	-0,089	0,030
-275,657	-61,623	0,067	0,020
-274,643	61,379	0,083	-0,060
-273,628	304,367	0,066	-0,089
-272,613	339,582	-0,053	-0,075
-271,599	11,715	0,086	0,048
-270,584	-8,584	0,073	-0,035
-269,570	-200,000	0,164	0,000
-268,555	-193,874	0,097	-0,001
-267,540	800,000	-0,031	0,079
-266,526	-33,338	-0,054	-0,022
-265,511	-200,000	0,020	-0,117
-264,497	-200,000	0,014	0,134
-263,482	42,278	0,151	0,099
-262,467	-200,000	0,014	0,081
-261,453	-200,000	0,016	-0,056
-260,438	402,851	-0,053	-0,081
-259,424	40,260	0,075	-0,049
-258,409	-200,000	-0,007	-0,046
-257,395	-200,000	-0,021	-0,117
-256,380	-200,000	-0,027	0,105
-255,365	-200,000	0,043	0,139
-254,351	-27,535	0,179	0,075
-253,336	-92,809	0,191	0,038
-252,322	189,202	-0,063	-0,069
-251,307	107,654	-0,039	-0,033
-250,292	-78,597	-0,094	0,023
-249,278	110,736	0,016	-0,014
-248,263	32,974	0,166	0,104
-247,249	-14,416	-0,065	-0,030
-246,234	84,989	-0,088	-0,070
-245,219	-200,000	0,000	-0,053
-244,205	-200,000	-0,007	-0,059
-243,190	800,000	0,080	0,168
-242,176	248,736	-0,057	0,070
-241,161	397,146	0,069	0,104
-240,146	-200,000	-0,003	0,079
-239,132	-24,767	0,053	0,023
-238,117	-159,293	-0,078	0,003
-237,103	800,000	-0,040	0,107
-236,088	267,593	-0,074	-0,093
-235,073	-200,000	-0,006	-0,271
-234,059	-200,000	0,025	0,087
-233,044	73,354	0,091	0,069
-232,030	607,941	-0,035	0,064
-231,015	-89,796	0,133	-0,028
-230,000	-169,324	0,040	0,001
-228,986	-200,000	0,002	0,082
-227,971	-143,010	0,007	-0,000
-226,957	800,000	-0,028	0,058
-225,942	-66,441	-0,053	-0,015
-224,927	-200,000	0,008	0,093
-223,913	-116,007	-0,136	-0,018
-222,898	477,437	-0,019	-0,032
-221,884	-200,000	0,013	0,066
-220,869	800,000	-0,061	0,126
-219,855	-144,960	0,182	0,012
-218,840	800,000	0,030	-0,064
-217,825	319,694	-0,027	0,037
-216,811	800,000	-0,059	-0,131
-215,796	289,867	-0,026	0,034
-214,782	149,992	0,112	-0,110
-213,767	-159,574	-0,040	0,002
-212,752	-200,000	0,012	0,230
-211,738	343,562	-0,043	0,060
-210,723	566,211	0,077	0,135
-209,709	363,019	-0,037	-0,055
-208,694	-200,000	0,011	-0,074
-207,679	800,000	-0,024	-0,063
-206,665	800,000	0,055	-0,157
-205,650	677,936	0,016	0,030
-204,636	-21,485	-0,012	-0,005
-203,621	-200,000	-0,025	0,124
-202,606	220,017	-0,033	0,038
-201,592	536,900	-0,036	-0,063
-200,577	-200,000	-0,003	-0,019
-199,563	-200,000	-0,006	-0,096
-198,548	-200,000	0,019	0,000
-197,533	62,259	0,117	0,084
-196,519	195,101	-0,053	0,059
-195,504	-200,000	-0,057	-0,199
-194,490	-30,148	0,079	-0,032
-193,475	-200,000	-0,048	-0,172
-192,460	-17,638	-0,057	-0,026
-191,446	800,000	0,043	0,088
-190,431	800,000	-0,003	-0,007
-189,417	-90,792	-0,065	-0,013
-188,402	-200,000	0,112	0,000
-187,387	-15,006	-0,098	-0,045
-186,373	-126,881	-0,077	-0,008
-185,358	60,143	-0,048	0,034
-184,344	-67,971	-0,071	0,020
-183,329	-82,242	-0,097	-0,023
-182,315	-122,542	0,045	0,005
-181,300	224,872	0,069	-0,080
-180,285	12,655	-0,039	-0,022
-179,271	67,404	0,079	0,058
-178,256	51,619	0,107	0,073
-177,242	92,102	0,032	-0,026
-176,227	97,368	0,094	0,078
-175,212	-200,000	0,013	0,174
-174,198	-92,228	0,118	0,024
-173,183	698,267	0,013	-0,026
-172,169	-200,000	-0,012	-0,133
-171,154	-73,526	-0,074	-0,019
-170,139	800,000	0,033	0,093
-169,125	-200,000	0,006	0,031
-168,110	800,000	0,053	0,110
-167,096	800,000	-0,042	-0,094
-166,081	-200,000	0,002	-0,064
-165,066	-200,000	-0,020	-0,116
-164,052	9,712	0,084	0,046
-163,037	187,056	-0,058	-0,063
-162,023	249,579	0,089	0,109
-161,008	-122,991	-0,029	0,003
-159,993	-88,688	-0,038	-0,008
-158,979	-27,916	-0,049	-0,020
-157,964	-200,000	-0,020	-0,092
-156,950	-154,405	0,028	-0,001
-155,935	800,000	-0,034	0,069
-154,920	99,837	-0,060	0,051
-153,906	-10,547	-0,070	0,033
-152,891	-200,000	0,000	0,026
-151,877	-200,000	0,002	-0,027
-150,862	-200,000	-0,010	-0,040
-149,847	-200,000	0,025	-0,183
-148,833	32,210	0,111	0,069
-147,818	-200,000	0,004	0,082
-146,804	800,000	0,037	-0,080
-145,789	12,826	-0,054	0,030
-144,775	777,405	0,066	-0,131
-143,760	459,013	0,069	-0,110
-142,745	417,255	-0,084	-0,130
-141,731	-200,000	-0,044	0,178
-140,716	581,674	-0,079	0,140
-139,702	11,536	0,107	-0,059
-138,687	295,795	0,037	-0,049
-137,672	-200,000	0,014	0,084
-136,658	-30,354	-0,029	0,012
-135,643	284,214	-0,073	-0,095
-134,629	-44,124	0,046	0,017
-133,614	800,000	0,033	-0,074
-132,599	200,971	-0,047	0,052
-131,585	205,123	0,115	0,129
-130,570	-6,269	0,101	0,050
-129,556	190,997	0,100	0,108
-128,541	-49,763	-0,029	-0,010
-127,526	51,508	0,046	0,031
-126,512	142,489	0,035	-0,033
-125,497	-138,989	0,061	-0,005
-124,483	19,720	-0,051	0,029
-123,468	721,589	-0,022	-0,043
-122,453	-200,000	-0,024	-0,161
-121,439	-200,000	-0,042	-0,169
-120,424	209,428	-0,099	-0,112
-119,410	-200,000	-0,004	-0,060
-118,395	27,321	-0,071	0,043
-117,380	-101,750	0,086	0,015
-116,366	358,016	0,020	0,029
-115,351	44,523	-0,087	0,057
-114,337	-200,000	-0,010	-0,045
-113,322	230,714	-0,022	0,026
-112,307	60,476	0,075	0,053
-111,293	762,082	0,012	-0,023
-110,278	-93,674	-0,137	0,027
-109,264	760,822	-0,040	-0,079
-108,249	102,676	-0,066	0,055
-107,234	51,691	-0,064	-0,044
-106,220	-6,436	0,087	0,042
-105,205	-93,506	0,156	0,031
-104,191	-200,000	0,011	0,142
-103,176	-200,000	0,082	0,000
-102,162	-200,000	-0,029	0,154
-101,147	-29,746	0,139	-0,057
-100,132	564,631	0,043	0,075
-99,118	405,484	0,063	-0,095
-98,103	-131,990	-0,067	-0,006
-97,089	800,000	-0,018	0,039
-96,074	-39,847	0,150	-0,056
-95,059	40,595	0,134	0,087
-94,045	-6,193	0,097	0,047
-93,030	-179,491	-0,041	-0,001
-92,016	-13,619	0,088	0,041
-91,001	-158,450	-0,043	0,002
-89,986	-200,000	-0,030	0,119
-88,972	-93,619	0,083	0,016
-87,957	120,800	-0,050	-0,045
-86,943	-200,000	-0,015	-0,054
-85,928	80,778	-0,046	-0,036
-84,913	513,638	-0,062	0,104
-83,899	-183,610	0,105	0,001
-82,884	71,977	0,099	-0,074
-81,870	21,429	0,128	0,075
-80,855	188,086	-0,079	0,085
-79,840	800,000	-0,012	0,026
-78,826	648,251	-0,084	-0,155
-77,811	800,000	-0,023	0,051
-76,797	800,000	-0,034	0,106
-75,782	-200,000	-0,005	0,105
-74,767	240,503	0,031	-0,038
-73,753	558,173	-0,010	0,017
-72,738	-200,000	-0,001	-0,010
-71,724	-39,987	-0,084	-0,031
-70,709	557,162	0,057	-0,100
-69,694	208,812	-0,051	-0,058
-68,680	-88,354	0,087	0,018
-67,665	79,024	0,079	0,061
-66,651	-200,000	-0,016	0,061
-65,636	-200,000	0,016	0,067
-64,622	610,338	-0,050	-0,089
-63,607	-200,000	0,007	-0,024
-62,592	76,897	0,027	0,021
-61,578	287,470	0,122	0,159
-60,563	-200,000	-0,001	-0,135
-59,549	402,593	0,081	0,123
-58,534	36,520	-1,738	-1,100
-57,519	800,000	-0,300	-0,910
-56,505	-200,000	-1,232	-5,065
-55,490	-4,431	0,671	0,332
-54,476	800,000	5,491	12,235
-53,461	-200,000	17,277	278,594
-52,446	800,000	720,451	2196,608
-51,432	530,087	1633,312	2782,604
-50,417	111,868	1626,693	1410,891
-49,403	75,357	1285,902	973,613
-48,388	32,889	1031,117	639,952
-47,373	20,174	993,020	574,213
-46,359	18,763	981,363	562,800
-45,344	16,414	977,344	552,754
-44,330	16,630	975,835	552,587
-43,315	16,225	974,138	550,277
-42,300	16,146	973,152	549,439
-41,286	16,151	972,232	548,912
-40,271	16,226	971,014	548,449
-39,257	16,251	970,288	548,098
-38,242	16,140	969,543	547,295
-37,227	16,185	968,621	546,899
-36,213	16,197	967,753	546,425
-35,198	16,147	966,718	545,657
-34,184	16,204	966,158	545,505
-33,169	16,131	965,191	544,700
-32,154	16,164	964,272	544,266
-31,140	16,268	963,051	543,891
-30,125	16,166	962,612	543,293
-29,111	16,174	961,570	542,709
-28,096	16,227	960,991	542,531
-27,082	16,109	960,582	541,900
-26,067	16,105	959,690	541,362
-25,052	16,133	958,989	541,033
-24,038	16,150	958,126	540,581
-23,023	16,171	957,588	540,325
-22,009	16,193	956,829	539,946
-20,994	16,159	956,299	539,515
-19,979	16,153	955,714	539,144
-18,965	16,172	955,024	538,795
-17,950	16,150	954,311	538,299
-16,936	16,082	953,684	537,707
-15,921	16,076	953,082	537,327
-14,906	16,070	952,280	536,834
-13,892	16,067	951,681	536,464
-12,877	16,018	951,159	535,992
-11,863	15,963	950,465	535,405
-10,848	16,059	949,873	535,358
-9,833	16,128	949,298	535,232
-8,819	16,096	948,784	534,819
-7,804	16,049	948,155	534,293
-6,790	16,055	947,459	533,900
-5,775	16,102	946,764	533,636
-4,760	16,138	946,270	533,450
-3,746	16,053	945,790	532,888
-2,731	15,895	945,104	531,979
-1,717	15,902	944,473	531,625
-0,702	15,867	943,801	531,113
0,313	15,683	943,218	531,003
1,327	19,193	941,024	540,827
2,342	28,481	795,332	481,731
3,356	25,315	448,045	266,634
4,371	-4,481	296,674	146,648
5,386	-8,443	278,121	133,695
6,400	-9,417	272,254	129,954
7,415	-9,822	270,052	128,518
8,429	-9,937	268,694	127,754
9,444	-9,924	267,772	127,315
10,459	-9,921	267,183	127,027
11,473	-10,183	266,590	126,495
12,488	-10,278	266,064	126,147
13,502	-10,337	265,348	125,743
14,517	-10,160	264,932	125,696
15,531	-10,125	264,550	125,534
16,546	-10,317	264,113	125,142
17,561	-10,357	263,818	124,956
18,575	-10,118	263,636	125,074
19,590	-10,254	262,985	124,632
20,604	-10,169	262,803	124,610
21,619	-10,385	262,504	124,264
22,634	-10,518	262,120	123,951
23,648	-10,512	261,837	123,812
24,663	-10,482	261,736	123,780
25,677	-10,488	261,393	123,601
26,692	-10,516	261,136	123,444
27,707	-10,470	260,820	123,325
28,721	-10,372	260,491	123,245
29,736	-10,520	260,177	122,954
30,750	-10,520	259,940	122,831
31,765	-10,470	259,743	122,771
32,780	-10,434	259,440	122,649
33,794	-10,453	259,249	122,531
34,809	-10,515	259,098	122,393
35,823	-10,657	258,589	122,017
36,838	-10,566	258,532	122,060
37,853	-10,577	258,277	121,918
38,867	-10,607	258,068	121,782
39,882	-10,582	257,826	121,679
40,896	-10,604	257,599	121,542
41,911	-10,405	257,276	121,554
42,926	-10,694	256,938	121,130
43,940	-10,720	256,919	121,087
44,955	-10,841	256,514	120,780
45,969	-10,788	256,344	120,735
46,984	-11,021	256,169	120,438
47,999	-11,409	256,039	120,027
49,013	-11,402	255,675	119,852
50,028	-11,325	255,300	119,732
51,042	-11,451	255,026	119,483
52,057	-11,226	254,722	119,526
53,071	-11,384	254,764	119,397
54,086	-11,329	254,481	119,302
55,101	-11,176	254,385	119,379
56,115	-10,856	254,252	119,584
57,130	-10,623	254,273	119,785
58,144	-10,160	254,095	120,092
59,159	-10,182	253,740	119,894
60,174	-10,273	253,487	119,686
61,188	-10,180	253,385	119,707
62,203	-10,380	253,081	119,380
63,217	-10,450	252,884	119,216
64,232	-10,351	252,718	119,212
65,247	-10,135	252,476	119,274
66,261	-10,351	252,289	118,989
67,276	-10,509	251,910	118,664
68,290	-10,934	251,677	118,179
69,305	-10,871	251,418	118,101
70,320	-10,909	251,260	117,984
71,334	-10,861	251,198	117,985
72,349	-10,350	250,954	118,297
73,363	-10,317	250,749	118,218
74,378	-10,221	250,747	118,289
75,393	-10,387	250,395	117,970
76,407	-10,518	250,370	117,836
77,422	-10,323	249,913	117,776
78,436	-10,603	249,839	117,493
79,451	-10,349	249,414	117,498
80,466	-10,748	249,533	117,206
81,480	-10,794	249,065	116,936
82,495	-10,842	248,842	116,780
83,509	-10,835	248,668	116,694
84,524	-10,848	248,507	116,597
85,539	-10,979	248,154	116,310
86,553	-10,976	247,987	116,224
87,568	-10,685	247,876	116,407
88,582	-10,973	247,810	116,123
89,597	-10,901	247,531	116,042
90,611	-10,871	247,366	115,980
91,626	-10,688	247,367	116,125
92,641	-10,573	247,195	116,130
93,655	-10,721	246,904	115,859
94,670	-10,542	246,383	115,754
95,684	-10,646	246,338	115,635
96,699	-10,589	246,295	115,652
97,714	-10,730	246,024	115,397
98,728	-11,007	245,776	115,039
99,743	-11,056	245,562	114,888
100,757	-11,015	245,370	114,822
101,772	-10,950	245,040	114,711
102,787	-10,765	244,967	114,821
103,801	-10,741	244,995	114,844
104,816	-10,612	244,676	114,791
105,830	-10,413	244,545	114,885
106,845	-10,538	244,508	114,753
107,860	-10,673	244,235	114,503
108,874	-10,647	243,908	114,361
109,889	-10,644	243,769	114,288
110,903	-10,789	243,703	114,126
111,918	-10,864	243,585	114,000
112,933	-10,714	243,333	113,996
113,947	-10,703	243,144	113,906
114,962	-10,632	242,966	113,871
115,976	-10,505	242,657	113,820
116,991	-10,615	242,573	113,680
118,006	-10,767	242,486	113,505
119,020	-10,512	242,397	113,662
120,035	-10,593	242,122	113,457
121,049	-10,333	242,036	113,620
122,064	-10,487	241,820	113,382
123,079	-10,567	241,583	113,195
124,093	-10,614	241,247	112,989
125,108	-10,912	241,013	112,626
126,122	-11,162	240,820	112,321
127,137	-11,246	240,645	112,161
128,151	-11,033	240,447	112,232
129,166	-10,854	240,369	112,332
130,181	-10,921	240,177	112,178
131,195	-11,016	239,948	111,984
132,210	-10,877	239,740	111,989
133,224	-10,588	239,645	112,170
134,239	-10,649	239,648	112,112
135,254	-10,496	239,360	112,091
136,268	-10,860	239,164	111,694
137,283	-10,970	238,854	111,451
138,297	-11,078	238,706	111,284
139,312	-11,103	238,435	111,127
140,327	-10,608	238,430	111,515
141,341	-10,078	238,433	111,935
142,356	-10,257	238,344	111,738
143,370	-10,109	238,070	111,719
144,385	-10,272	237,959	111,526
145,400	-10,036	237,728	111,597
146,414	-10,325	237,683	111,334
147,429	-10,198	237,231	111,214
148,443	-10,199	237,133	111,158
149,458	-10,302	237,080	111,040
150,473	-10,167	236,763	110,990
151,487	-10,191	236,591	110,880
152,502	-10,353	236,535	110,714
153,516	-10,412	236,433	110,610
154,531	-10,325	236,165	110,544
155,546	-10,303	236,068	110,506
156,560	-10,234	235,656	110,359
157,575	-10,577	235,631	110,063
158,589	-10,223	235,353	110,206
159,604	-10,229	235,341	110,185
160,619	-10,183	235,188	110,141
161,633	-9,824	234,966	110,312
162,648	-10,049	234,836	110,063
163,662	-10,116	234,606	109,892
164,677	-10,389	234,512	109,621
165,692	-10,162	234,463	109,768
166,706	-10,216	234,305	109,642
167,721	-10,002	234,119	109,714
168,735	-9,832	233,981	109,774
169,750	-9,996	233,927	109,610
170,764	-10,089	233,752	109,445
171,779	-9,942	233,529	109,447
172,794	-10,065	233,320	109,242
173,808	-10,305	233,178	108,976
174,823	-10,943	232,790	108,284
175,837	-10,864	232,522	108,211
176,852	-10,875	232,686	108,270
177,867	-10,137	232,576	108,788
178,881	-10,097	232,485	108,768
179,896	-10,048	232,262	108,691
180,910	-10,095	232,019	108,531
181,925	-10,058	231,997	108,540
182,940	-10,115	231,662	108,330
183,954	-9,913	231,648	108,471
184,969	-10,074	231,502	108,268
185,983	-10,059	231,334	108,191
186,998	-9,994	231,279	108,206
188,013	-9,769	230,985	108,235
189,027	-9,827	230,939	108,158
190,042	-9,786	230,571	108,008
191,056	-9,784	230,627	108,026
192,071	-9,762	230,416	107,935
193,086	-10,044	230,307	107,655
194,100	-9,798	230,190	107,782
195,115	-9,882	229,854	107,550
196,129	-9,744	229,990	107,711
197,144	-4,923	231,486	112,158
198,159	0,421	232,756	116,938
199,173	3,162	233,842	119,618
200,188	3,621	233,769	119,930
201,202	3,447	233,675	119,734
202,217	3,754	233,414	119,830
203,232	3,804	233,420	119,861
204,246	4,145	233,219	120,013
205,261	4,071	233,083	119,875
206,275	4,068	233,023	119,831
207,290	4,181	232,909	119,850
208,304	4,354	232,714	119,873
209,319	4,196	232,525	119,642
210,334	4,197	232,186	119,458
211,348	3,862	231,993	119,088
212,363	3,343	231,902	118,629
213,377	3,273	231,505	118,361
214,392	3,221	231,428	118,271
215,407	3,272	231,360	118,265
216,421	3,452	231,261	118,343
217,436	3,578	231,008	118,300
218,450	3,159	230,696	117,807
219,465	3,061	230,625	117,685
220,480	3,129	230,517	117,671
221,494	3,150	230,391	117,613
222,509	3,358	230,341	117,737
223,523	3,375	230,176	117,655
224,538	3,222	230,010	117,442
225,553	3,224	229,839	117,346
226,567	3,280	229,860	117,389
227,582	3,743	229,650	117,626
228,596	3,657	229,597	117,523
229,611	3,385	229,256	117,130
230,626	3,125	228,996	116,788
231,640	3,153	228,777	116,687
232,655	3,532	228,749	116,952
233,669	4,007	228,786	117,322
234,684	3,918	228,826	117,264
235,699	3,774	228,448	116,950
236,713	3,528	228,214	116,633
237,728	3,498	228,082	116,532
238,742	3,327	227,806	116,251
239,757	3,360	227,640	116,181
240,772	3,391	227,527	116,136
241,786	3,321	227,401	116,009
242,801	3,466	227,357	116,086
243,815	3,668	227,400	116,251
244,830	3,726	227,127	116,145
245,844	3,427	226,906	115,795
246,859	3,383	226,649	115,621
247,874	3,598	226,563	115,729
248,888	3,604	226,410	115,645
249,903	3,450	226,384	115,505
250,917	3,518	226,116	115,410
251,932	3,446	225,948	115,259
252,947	3,208	225,826	115,007
253,961	3,137	225,628	114,843
254,976	3,045	225,626	114,763
255,990	3,466	225,511	115,010
257,005	3,496	225,335	114,933
258,020	3,627	225,253	114,978
259,034	3,688	225,121	114,947
260,049	3,626	224,837	114,745
261,063	3,596	224,749	114,668
262,078	3,751	224,558	114,675
263,093	3,638	224,634	114,620
264,107	3,586	224,401	114,451
265,122	3,693	224,231	114,434
266,136	3,756	224,101	114,406
267,151	3,760	223,726	114,206
268,166	3,451	223,642	113,924
269,180	3,074	223,418	113,519
270,195	3,125	223,337	113,506
271,209	3,265	223,124	113,492
272,224	3,214	223,157	113,461
273,239	3,572	222,948	113,609
274,253	3,437	222,736	113,391
275,268	3,046	222,595	113,020
276,282	2,991	222,564	112,953
277,297	3,000	222,300	112,816
278,312	3,066	222,267	112,838
279,326	3,259	221,975	112,822
280,341	3,212	221,995	112,788
281,355	3,611	221,745	112,944
282,370	3,415	221,538	112,684
283,384	3,159	221,523	112,478
284,399	3,065	221,267	112,269
285,414	3,223	221,123	112,302
286,428	3,266	221,037	112,280
287,443	3,449	220,994	112,382
288,457	3,410	220,913	112,303
289,472	3,231	220,600	112,002
290,487	2,904	220,363	111,633
291,501	2,744	220,150	111,399
292,516	2,873	220,232	111,524
293,530	3,107	219,935	111,534
294,545	3,026	219,963	111,479
295,560	3,164	219,802	111,489
296,574	3,192	219,666	111,430
297,589	3,284	219,526	111,417
298,603	3,319	219,386	111,361
299,618	3,571	219,252	111,466
300,633	3,287	219,136	111,191
301,647	3,470	218,978	111,233
302,662	3,181	219,036	111,043
303,676	3,786	218,682	111,293
304,691	3,652	218,579	111,133
305,706	3,797	218,559	111,218
306,720	3,677	218,258	110,968
307,735	3,356	217,962	110,576
308,749	3,154	218,053	110,467
309,764	3,566	217,881	110,667
310,779	3,717	217,636	110,641
311,793	3,494	217,660	110,483
312,808	3,578	217,471	110,437
313,822	3,260	217,239	110,081
314,837	3,096	217,197	109,932
315,852	3,200	216,997	109,896
316,866	3,499	216,899	110,051
317,881	3,391	216,777	109,902
318,895	3,618	216,516	109,923
319,910	3,216	216,469	109,600
320,925	2,913	216,164	109,220
321,939	2,792	216,090	109,086
322,954	3,395	216,079	109,502
323,968	3,555	215,996	109,564
324,983	3,538	215,787	109,436
325,997	3,587	215,780	109,458
327,012	3,439	215,502	109,202
328,027	3,246	215,491	109,049
329,041	3,596	215,395	109,240
330,056	3,943	215,295	109,427
331,070	3,315	215,170	108,907
332,085	3,270	214,772	108,663
333,100	3,130	214,696	108,516
334,114	3,431	214,368	108,553
335,129	3,706	214,330	108,720
336,143	3,309	214,277	108,402
337,158	3,513	214,123	108,459
338,173	3,471	214,061	108,388
339,187	3,320	213,811	108,145
340,202	2,959	213,606	107,777
341,216	2,988	213,624	107,797
342,231	3,064	213,481	107,768
343,246	3,200	213,251	107,739
344,260	3,242	213,111	107,688
345,275	3,157	213,018	107,571
346,289	3,475	212,953	107,753
347,304	3,513	212,844	107,714
348,319	3,211	212,814	107,478
349,333	3,629	212,523	107,614
350,348	3,634	212,353	107,522
351,362	3,545	212,364	107,455
352,377	3,873	212,123	107,554
353,392	3,349	212,074	107,152
354,406	3,494	212,044	107,229
355,421	195,497	1340,660	1419,816
356,435	156,180	1478,152	1419,811
