DTS Sentinel unit serial number:	SN410029Multiplexer serial number:	ORYXHardware model number:	OX2-SRSoftware version number:	ORYX F/W v4,00 Oryx Data Collector v3.7.2.0data status	okinstallation	B6 Nyhavnadifferential loss correction	single-endedforward channel	channel 2reverse channel	N/Adate	2023/12/10time	06:35:08forward acquisition time	300,00reverse acquisition time	0,00gamma	499,1914k internal	0,3123k external	0,3123temperature offset calibration	1,0000default loss term (dB/km)	0,3820temperature slope calibration	1,0000multiplexer offset coefficient	1,0000multiplexer slope coefficient	1,0000fibre end	0,00T internal ref (°C)	22,60T ext. ref 1 (°C)	6,44T ext. ref 2 (°C)	6,43length (m)	temperature (°C)	Stokes	anti-Stokes-744,400	-164,562	0,101	0,003
-743,385	89,902	-0,144	0,120
-742,371	-29,378	0,142	0,060
-741,356	55,859	-0,142	0,102
-740,342	-135,016	-0,039	0,003
-739,327	800,000	-0,049	0,155
-738,312	-200,000	-0,004	-0,096
-737,298	-154,544	-0,234	0,011
-736,283	-200,000	0,020	-0,191
-735,269	110,223	-0,307	0,275
-734,254	-200,000	-0,013	0,079
-733,239	-146,573	-0,412	-0,026
-732,225	44,038	0,140	0,096
-731,210	766,653	-0,070	0,142
-730,196	314,584	-0,083	0,116
-729,181	18,662	-0,085	0,050
-728,167	557,572	0,023	0,041
-727,152	202,758	0,019	0,022
-726,137	-114,531	-0,217	-0,031
-725,123	21,215	-0,127	-0,077
-724,108	-37,167	-0,081	-0,032
-723,094	-55,249	-0,226	-0,075
-722,079	-110,547	0,071	0,011
-721,064	-200,000	-0,008	0,143
-720,050	392,083	-0,070	0,109
-719,035	-8,048	0,034	0,017
-718,021	-80,112	-0,051	-0,013
-717,006	-88,921	-0,065	-0,014
-715,991	-32,118	-0,183	0,076
-714,977	11,813	-0,088	-0,050
-713,962	-48,626	0,093	0,033
-712,948	309,127	0,064	-0,089
-711,933	-200,000	0,001	-0,106
-710,918	610,629	-0,068	-0,127
-709,904	-126,122	-0,111	-0,012
-708,889	345,176	0,032	-0,047
-707,875	-90,059	-0,095	0,020
-706,860	209,568	-0,047	-0,055
-705,845	322,788	-0,054	-0,077
-704,831	185,182	-0,074	0,082
-703,816	-200,000	0,001	0,014
-702,802	800,000	-0,047	-0,121
-701,787	-16,190	-0,127	0,060
-700,772	-200,000	0,018	0,072
-699,758	69,429	0,060	0,046
-698,743	-94,151	-0,090	-0,018
-697,729	-19,770	-0,038	-0,017
-696,714	380,936	-0,062	0,095
-695,699	-46,933	-0,035	0,013
-694,685	121,112	-0,040	0,037
-693,670	-200,000	0,014	-0,098
-692,656	15,940	0,024	0,014
-691,641	-200,000	0,000	-0,043
-690,627	140,318	0,070	0,069
-689,612	-59,740	-0,036	0,011
-688,597	-89,072	-0,065	-0,014
-687,583	-200,000	-0,006	-0,185
-686,568	108,034	-0,059	-0,052
-685,554	395,949	-0,091	0,142
-684,539	22,504	0,081	0,049
-683,524	-104,641	0,020	0,003
-682,510	-138,301	-0,122	-0,010
-681,495	317,293	-0,018	0,026
-680,481	73,624	0,095	-0,074
-679,466	6,379	-0,052	-0,029
-678,451	-11,604	-0,070	-0,034
-677,437	459,599	-0,042	0,070
-676,422	487,260	0,049	-0,084
-675,408	800,000	-0,038	-0,093
-674,393	-200,000	-0,013	-0,044
-673,378	207,626	-0,015	0,017
-672,364	-200,000	-0,008	-0,097
-671,349	746,746	0,038	-0,076
-670,335	-200,000	0,015	-0,060
-669,320	310,634	-0,108	0,151
-668,305	-79,331	-0,138	0,035
-667,291	-94,751	-0,082	-0,016
-666,276	-200,000	-0,018	-0,155
-665,262	239,649	-0,066	0,082
-664,247	800,000	-0,044	-0,109
-663,232	174,495	-0,052	-0,056
-662,218	261,386	0,014	0,017
-661,203	-38,686	-0,113	0,044
-660,189	-200,000	0,034	0,122
-659,174	322,999	0,030	0,043
-658,159	81,157	-0,026	0,021
-657,145	-128,665	-0,122	-0,013
-656,130	-200,000	0,005	0,098
-655,116	-200,000	-0,035	0,158
-654,101	191,745	-0,044	0,049
-653,086	-200,000	0,027	0,170
-652,072	-42,686	-0,059	-0,022
-651,057	121,400	0,040	-0,037
-650,043	269,720	-0,028	-0,037
-649,028	-87,488	-0,144	0,032
-648,014	742,042	0,079	0,158
-646,999	-2,236	-0,023	0,012
-645,984	-200,000	-0,001	0,024
-644,970	800,000	-0,046	-0,112
-643,955	744,379	-0,018	-0,036
-642,941	217,644	-0,049	-0,058
-641,926	581,110	0,119	-0,217
-640,911	-181,641	-0,031	-0,000
-639,897	-82,168	-0,108	-0,026
-638,882	7,052	0,061	0,034
-637,868	28,505	0,097	-0,061
-636,853	307,962	-0,023	0,033
-635,838	-115,306	-0,171	-0,024
-634,824	-70,484	-0,031	0,009
-633,809	96,409	0,065	-0,055
-632,795	383,608	-0,026	0,039
-631,780	-200,000	-0,019	0,063
-630,765	-200,000	0,017	-0,113
-629,751	648,189	-0,035	-0,067
-628,736	-43,553	-0,143	-0,053
-627,722	521,013	0,109	-0,191
-626,707	86,424	-0,055	-0,045
-625,692	800,000	-0,050	0,120
-624,678	-200,000	0,016	0,064
-623,663	280,878	-0,068	-0,090
-622,649	370,886	0,009	0,014
-621,634	111,750	0,072	-0,064
-620,619	178,259	0,084	-0,091
-619,605	253,364	0,093	-0,118
-618,590	558,146	0,007	-0,012
-617,576	-65,939	0,118	0,035
-616,561	-200,000	-0,025	0,084
-615,546	-113,146	-0,165	-0,024
-614,532	144,450	-0,065	0,065
-613,517	-200,000	-0,020	-0,193
-612,503	63,781	0,089	-0,066
-611,488	31,973	0,051	-0,033
-610,474	800,000	-0,039	0,081
-609,459	279,908	-0,065	-0,087
-608,444	-200,000	-0,008	-0,131
-607,430	331,932	-0,030	0,043
-606,415	-65,285	-0,066	-0,020
-605,401	-200,000	-0,034	0,120
-604,386	800,000	-0,028	-0,060
-603,371	-52,978	-0,075	0,025
-602,357	-41,039	-0,140	0,053
-601,342	-200,000	-0,021	-0,103
-600,328	-84,509	-0,043	-0,010
-599,313	-44,280	-0,081	0,030
-598,298	38,767	0,116	0,076
-597,284	555,923	0,023	0,041
-596,269	-102,948	0,059	-0,010
-595,255	-200,000	-0,000	0,047
-594,240	-200,000	0,016	-0,215
-593,225	-50,264	-0,026	-0,009
-592,211	172,129	0,045	-0,048
-591,196	282,853	-0,048	-0,064
-590,182	800,000	-0,040	-0,121
-589,167	800,000	0,026	0,064
-588,152	-200,000	0,021	0,115
-587,138	343,346	0,090	0,131
-586,123	-54,145	-0,039	-0,013
-585,109	172,289	-0,135	0,144
-584,094	108,516	-0,025	0,022
-583,079	-200,000	-0,015	-0,122
-582,065	800,000	-0,051	-0,112
-581,050	56,404	-0,125	0,090
-580,036	-200,000	0,011	-0,083
-579,021	95,066	-0,092	-0,077
-578,006	-183,270	-0,119	0,002
-576,992	635,462	-0,081	-0,154
-575,977	-200,000	-0,032	0,130
-574,963	71,333	0,150	0,115
-573,948	-200,000	0,009	-0,085
-572,934	405,785	-0,080	0,125
-571,919	135,492	-0,141	-0,136
-570,904	98,188	-0,068	0,058
-569,890	686,373	-0,034	-0,066
-568,875	-200,000	-0,015	0,071
-567,861	71,863	-0,040	0,031
-566,846	99,749	-0,055	-0,047
-565,831	48,124	-0,121	0,083
-564,817	-200,000	0,009	-0,114
-563,802	-4,276	-0,101	-0,051
-562,788	-200,000	-0,018	-0,133
-561,773	75,040	0,097	-0,076
-560,758	800,000	0,026	-0,080
-559,744	-200,000	0,000	0,011
-558,729	-200,000	0,007	0,066
-557,715	325,905	-0,110	-0,156
-556,700	-200,000	-0,027	-0,130
-555,685	641,444	-0,045	0,086
-554,671	800,000	-0,050	-0,135
-553,656	800,000	0,019	-0,061
-552,642	65,021	0,086	0,064
-551,627	-113,042	-0,179	-0,026
-550,612	800,000	-0,011	-0,029
-549,598	100,107	-0,125	0,107
-548,583	-39,077	0,033	0,013
-547,569	400,293	-0,048	-0,075
-546,554	-133,704	0,042	-0,004
-545,539	94,859	0,153	0,129
-544,525	800,000	0,038	-0,098
-543,510	-200,000	0,013	-0,056
-542,496	-85,967	-0,049	-0,011
-541,481	240,598	-0,007	0,009
-540,466	-107,558	0,069	0,011
-539,452	-200,000	-0,002	0,106
-538,437	-175,025	0,151	-0,003
-537,423	97,259	0,039	-0,033
-536,408	800,000	-0,051	0,145
-535,393	800,000	0,043	0,120
-534,379	605,083	-0,031	-0,057
-533,364	800,000	0,025	-0,074
-532,350	-121,746	0,101	-0,012
-531,335	-12,229	-0,088	0,042
-530,321	-200,000	0,017	-0,114
-529,306	-200,000	-0,026	0,090
-528,291	176,559	-0,032	0,034
-527,277	-150,125	-0,035	-0,002
-526,262	436,108	0,059	0,095
-525,248	-200,000	0,019	0,130
-524,233	-200,000	0,030	0,114
-523,218	800,000	0,070	0,166
-522,204	151,176	0,065	-0,065
-521,189	248,013	0,053	-0,066
-520,175	170,506	0,037	0,039
-519,160	-55,074	-0,033	-0,011
-518,145	115,249	-0,050	0,046
-517,131	-200,000	0,019	-0,085
-516,116	543,784	-0,025	-0,045
-515,102	8,368	0,039	0,021
-514,087	800,000	0,034	-0,073
-513,072	800,000	0,005	0,014
-512,058	-200,000	-0,002	-0,064
-511,043	191,343	0,061	-0,067
-510,029	-46,147	0,061	0,022
-509,014	800,000	-0,044	-0,122
-507,999	-200,000	0,035	-0,143
-506,985	-200,000	0,013	0,063
-505,970	87,283	-0,088	-0,072
-504,956	800,000	0,063	-0,131
-503,941	-100,678	-0,155	0,028
-502,926	-200,000	0,023	0,083
-501,912	-89,749	0,022	-0,005
-500,897	-58,718	0,027	0,009
-499,883	-83,889	-0,082	0,019
-498,868	800,000	-0,060	-0,129
-497,853	-200,000	0,012	0,047
-496,839	-83,447	0,150	-0,035
-495,824	-200,000	0,012	-0,059
-494,810	-82,574	0,115	0,027
-493,795	-200,000	0,022	-0,138
-492,781	-164,137	-0,042	-0,001
-491,766	-103,304	0,015	-0,003
-490,751	-119,649	-0,114	0,014
-489,737	-200,000	-0,003	0,038
-488,722	-164,288	0,081	0,003
-487,708	97,725	0,061	-0,051
-486,693	39,810	0,032	0,021
-485,678	24,994	-0,094	0,058
-484,664	80,547	-0,092	0,073
-483,649	800,000	0,012	-0,036
-482,635	-200,000	-0,002	-0,134
-481,620	243,380	-0,021	0,026
-480,605	154,335	-0,004	0,004
-479,591	506,871	0,041	0,070
-478,576	58,395	-0,077	-0,055
-477,562	-200,000	-0,006	-0,036
-476,547	42,273	-0,043	0,029
-475,532	227,480	0,015	0,018
-474,518	325,234	0,056	0,079
-473,503	-200,000	-0,011	0,146
-472,489	800,000	0,046	-0,116
-471,474	-36,239	0,079	0,031
-470,459	-25,361	0,086	-0,037
-469,445	-168,410	-0,086	-0,002
-468,430	304,049	0,041	-0,056
-467,416	-140,038	0,045	0,003
-466,401	123,739	0,080	-0,074
-465,386	-200,000	0,017	0,227
-464,372	-200,000	0,001	0,194
-463,357	800,000	-0,026	-0,077
-462,343	-200,000	-0,038	0,146
-461,328	37,308	0,090	0,058
-460,313	89,901	0,067	0,055
-459,299	482,698	0,058	0,098
-458,284	-135,289	0,130	0,011
-457,270	245,917	0,030	-0,037
-456,255	-16,203	-0,052	-0,024
-455,241	800,000	-0,045	-0,133
-454,226	-200,000	0,008	-0,082
-453,211	-200,000	-0,009	0,082
-452,197	67,339	0,121	-0,091
-451,182	283,831	-0,035	-0,047
-450,168	800,000	-0,017	0,055
-449,153	113,081	-0,054	0,049
-448,138	-150,657	-0,145	-0,008
-447,124	-200,000	0,038	0,126
-446,109	-33,553	0,065	0,026
-445,095	346,094	-0,027	0,040
-444,080	-200,000	0,042	0,156
-443,065	41,863	0,095	0,063
-442,051	108,657	0,067	-0,059
-441,036	-184,181	-0,098	0,001
-440,022	41,207	0,035	0,023
-439,007	268,750	-0,046	0,059
-437,992	800,000	0,056	0,155
-436,978	-86,242	0,126	0,028
-435,963	379,985	0,033	-0,050
-434,949	-200,000	-0,003	0,025
-433,934	87,887	0,145	-0,118
-432,919	240,199	0,043	-0,053
-431,905	51,902	0,012	-0,008
-430,890	5,705	0,068	0,037
-429,876	-158,153	-0,008	-0,000
-428,861	152,750	-0,021	0,021
-427,846	-54,408	-0,014	0,005
-426,832	753,469	0,075	-0,149
-425,817	0,386	-0,039	-0,021
-424,803	119,141	-0,041	0,037
-423,788	351,017	0,057	-0,083
-422,773	84,731	0,101	0,081
-421,759	690,648	0,015	0,029
-420,744	800,000	0,027	0,069
-419,730	-92,766	-0,112	-0,023
-418,715	-110,917	-0,087	0,013
-417,701	406,757	-0,063	-0,099
-416,686	-62,022	0,146	0,045
-415,671	76,689	0,141	0,110
-414,657	-200,000	0,021	-0,172
-413,642	-200,000	0,003	-0,013
-412,628	800,000	0,028	0,058
-411,613	-200,000	0,030	0,120
-410,598	-103,552	-0,110	0,019
-409,584	302,834	-0,054	0,073
-408,569	-200,000	0,010	0,058
-407,555	800,000	0,036	-0,079
-406,540	528,530	-0,050	-0,087
-405,525	383,492	-0,016	-0,024
-404,511	-4,505	-0,016	-0,008
-403,496	-51,075	0,132	-0,045
-402,482	109,994	-0,056	0,049
-401,467	428,794	0,112	-0,179
-400,452	-163,317	0,082	-0,003
-399,438	38,531	0,095	0,062
-398,423	-96,839	-0,116	0,022
-397,409	800,000	0,008	0,024
-396,394	-122,525	-0,156	-0,018
-395,379	-95,701	0,119	-0,023
-394,365	480,683	0,071	0,119
-393,350	-200,000	0,020	0,071
-392,336	-128,296	0,083	0,009
-391,321	307,705	-0,114	0,156
-390,306	-25,606	-0,119	-0,051
-389,292	373,396	-0,092	-0,137
-388,277	-200,000	0,047	0,206
-387,263	-200,000	-0,011	0,061
-386,248	59,696	0,069	-0,050
-385,233	660,630	0,013	0,025
-384,219	800,000	-0,032	-0,090
-383,204	195,910	-0,119	-0,133
-382,190	141,526	-0,059	-0,057
-381,175	2,070	-0,113	-0,060
-380,160	492,186	0,074	0,125
-379,146	-59,402	0,060	-0,019
-378,131	302,472	0,020	-0,027
-377,117	131,495	-0,093	0,088
-376,102	-173,207	-0,143	-0,003
-375,088	800,000	-0,037	0,078
-374,073	142,587	0,065	-0,064
-373,058	-200,000	0,027	0,125
-372,044	-91,209	0,121	0,025
-371,029	800,000	-0,042	0,109
-370,015	683,669	0,010	-0,019
-369,000	142,782	-0,067	0,066
-367,985	800,000	0,008	0,025
-366,971	-2,943	-0,084	0,043
-365,956	-57,396	0,142	-0,046
-364,942	-200,000	-0,019	0,088
-363,927	42,505	0,085	-0,057
-362,912	-123,357	0,153	0,018
-361,898	800,000	-0,068	0,153
-360,883	-66,119	-0,121	-0,035
-359,869	26,181	-0,049	-0,030
-358,854	460,539	0,011	-0,017
-357,839	-122,422	0,091	-0,011
-356,825	187,595	0,022	-0,024
-355,810	192,378	-0,091	0,101
-354,796	-14,084	0,055	0,026
-353,781	-170,647	-0,122	-0,003
-352,766	800,000	0,023	-0,066
-351,752	-56,029	0,102	-0,033
-350,737	-200,000	0,006	0,116
-349,723	800,000	-0,023	-0,058
-348,708	104,932	0,032	0,027
-347,693	90,032	0,055	-0,045
-346,679	-200,000	0,013	-0,106
-345,664	-64,720	0,131	-0,039
-344,650	-200,000	0,009	-0,101
-343,635	-131,405	-0,062	0,006
-342,620	-12,844	0,091	-0,043
-341,606	505,812	-0,067	0,115
-340,591	6,130	-0,080	-0,043
-339,577	11,728	0,058	-0,032
-338,562	-148,516	-0,031	-0,002
-337,548	-100,597	-0,059	0,011
-336,533	-33,321	0,042	0,017
-335,518	721,945	0,065	0,127
-334,504	171,792	0,033	0,034
-333,489	281,528	0,036	-0,047
-332,475	800,000	-0,034	0,105
-331,460	22,292	-0,102	-0,061
-330,445	-110,612	0,039	0,006
-329,431	-194,104	0,052	0,000
-328,416	-200,000	0,008	-0,102
-327,402	85,096	0,053	0,042
-326,387	-200,000	-0,003	-0,070
-325,372	25,443	-0,112	-0,068
-324,358	-23,164	-0,100	-0,044
-323,343	-70,348	0,019	-0,005
-322,329	111,432	0,070	-0,062
-321,314	296,324	0,042	0,057
-320,299	-192,119	0,031	0,000
-319,285	49,920	0,051	-0,035
-318,270	-86,202	-0,122	-0,027
-317,256	-200,000	-0,019	0,077
-316,241	-200,000	-0,006	0,022
-315,226	-99,135	-0,163	0,030
-314,212	-44,713	0,015	-0,005
-313,197	341,245	0,084	0,121
-312,183	97,754	0,109	0,091
-311,168	-145,140	-0,097	0,006
-310,153	-113,750	0,021	-0,003
-309,139	-200,000	-0,004	0,018
-308,124	451,174	-0,042	-0,068
-307,110	800,000	-0,045	0,135
-306,095	-200,000	0,006	0,064
-305,080	-200,000	0,014	0,076
-304,066	-200,000	0,036	0,172
-303,051	70,974	-0,108	-0,082
-302,037	43,950	0,085	-0,057
-301,022	-200,000	-0,002	0,023
-300,008	-200,000	0,019	-0,073
-298,993	528,601	0,056	0,096
-297,978	-73,426	0,115	-0,031
-296,964	53,741	-0,049	0,034
-295,949	-200,000	0,009	-0,133
-294,935	-200,000	0,057	-0,239
-293,920	113,754	-0,063	0,056
-292,905	-66,038	0,082	0,024
-291,891	544,950	-0,059	-0,104
-290,876	187,660	-0,016	0,018
-289,862	-200,000	-0,035	0,190
-288,847	597,200	-0,077	0,139
-287,832	-72,660	0,110	-0,029
-286,818	733,737	-0,024	-0,047
-285,803	-200,000	0,001	-0,100
-284,789	458,299	0,107	0,174
-283,774	214,096	0,047	0,054
-282,759	303,945	0,053	0,072
-281,745	-150,370	-0,051	0,003
-280,730	-190,991	-0,017	-0,000
-279,716	17,996	-0,233	0,136
-278,701	388,128	0,019	-0,030
-277,686	-200,000	-0,076	0,000
-276,672	263,508	0,010	0,012
-275,657	-85,557	0,050	0,011
-274,643	-36,595	0,109	-0,043
-273,628	-71,427	0,124	0,034
-272,613	-97,841	0,117	-0,022
-271,599	-200,000	0,002	-0,064
-270,584	-127,975	-0,062	0,006
-269,570	358,633	-0,053	0,078
-268,555	253,801	-0,057	0,071
-267,540	-46,551	-0,057	0,020
-266,526	-200,000	0,004	-0,037
-265,511	-200,000	0,021	0,086
-264,497	-21,910	-0,041	-0,018
-263,482	-8,734	0,081	0,040
-262,467	202,146	0,053	0,059
-261,453	157,013	0,140	0,142
-260,438	-200,000	0,005	0,069
-259,424	-149,267	0,077	-0,004
-258,409	229,086	-0,058	-0,070
-257,395	249,986	-0,057	0,071
-256,380	380,215	0,039	-0,059
-255,365	-63,313	0,052	-0,016
-254,351	-68,009	-0,065	0,019
-253,336	800,000	0,038	0,107
-252,322	-200,000	0,031	-0,118
-251,307	-25,238	0,011	-0,005
-250,292	164,671	-0,041	0,043
-249,278	178,043	0,085	0,091
-248,263	-200,000	-0,001	-0,085
-247,249	368,104	0,088	0,130
-246,234	-200,000	0,012	-0,046
-245,219	800,000	0,057	0,128
-244,205	594,032	0,092	0,167
-243,190	-25,667	0,170	-0,073
-242,176	3,074	-0,116	-0,062
-241,161	-163,686	-0,083	0,003
-240,146	-8,464	-0,107	0,052
-239,132	-200,000	-0,001	-0,066
-238,117	77,244	0,095	-0,074
-237,103	-200,000	0,044	-0,159
-236,088	122,692	-0,095	-0,087
-235,073	-113,714	0,132	0,019
-234,059	-38,306	0,132	-0,051
-233,044	800,000	-0,041	0,103
-232,030	-200,000	0,009	-0,147
-231,015	800,000	0,021	0,044
-230,000	564,955	0,043	-0,076
-228,986	116,965	-0,015	0,014
-227,971	12,401	0,119	0,067
-226,957	47,837	-0,070	0,048
-225,942	-134,744	0,085	-0,007
-224,927	323,794	-0,076	0,106
-223,913	466,410	0,014	-0,024
-222,898	800,000	0,029	-0,080
-221,884	307,299	-0,051	-0,070
-220,869	-64,212	0,037	0,011
-219,855	170,296	0,058	-0,061
-218,840	-14,899	0,074	0,034
-217,825	-200,000	-0,011	0,227
-216,811	36,112	-0,143	-0,092
-215,796	-200,000	0,020	-0,064
-214,782	-10,204	-0,046	0,022
-213,767	6,497	-0,062	0,034
-212,752	-200,000	0,011	-0,111
-211,738	-28,752	0,219	-0,091
-210,723	-200,000	-0,019	-0,069
-209,709	-36,888	-0,096	-0,037
-208,694	195,971	-0,046	0,051
-207,679	505,514	-0,058	0,099
-206,665	-63,741	-0,012	-0,004
-205,650	-105,843	0,077	-0,013
-204,636	800,000	-0,015	-0,041
-203,621	187,604	-0,030	0,033
-202,606	800,000	0,031	0,066
-201,592	-88,885	-0,110	-0,024
-200,577	-64,905	0,031	0,009
-199,563	800,000	-0,011	0,027
-198,548	-52,162	0,072	0,024
-197,533	800,000	-0,045	-0,105
-196,519	-89,301	-0,081	-0,017
-195,504	158,328	0,014	-0,014
-194,490	-56,712	-0,056	-0,018
-193,475	800,000	-0,036	-0,092
-192,460	15,363	0,076	-0,043
-191,446	-50,824	0,070	0,024
-190,431	22,678	-0,163	0,097
-189,417	800,000	-0,039	-0,097
-188,402	-17,551	0,048	-0,022
-187,387	388,807	-0,047	-0,071
-186,373	16,152	-0,047	-0,027
-185,358	-123,569	-0,110	-0,013
-184,344	-200,000	0,002	0,139
-183,329	-125,062	0,142	-0,016
-182,315	-200,000	-0,031	0,114
-181,300	177,838	-0,061	0,065
-180,285	478,844	-0,026	-0,043
-179,271	460,424	-0,103	-0,168
-178,256	-26,517	-0,054	-0,023
-177,242	-91,752	0,070	-0,014
-176,227	273,747	-0,050	-0,064
-175,212	121,537	-0,047	0,043
-174,198	18,471	-0,082	-0,047
-173,183	800,000	-0,010	-0,021
-172,169	-200,000	0,008	0,035
-171,154	96,856	0,048	0,040
-170,139	234,674	0,085	-0,102
-169,125	-30,985	0,079	-0,032
-168,110	800,000	-0,008	-0,018
-167,096	-99,493	-0,051	0,009
-166,081	79,668	-0,041	-0,032
-165,066	-109,549	-0,112	-0,017
-164,052	157,457	-0,064	-0,064
-163,037	-50,346	0,108	0,037
-162,023	-95,791	-0,103	-0,020
-161,008	-200,000	-0,019	0,107
-159,993	-200,000	0,010	-0,079
-158,979	174,216	-0,011	-0,012
-157,964	-51,299	0,170	-0,058
-156,950	37,244	-0,162	0,104
-155,935	-189,128	0,051	-0,000
-154,920	800,000	-0,018	0,043
-153,906	-126,126	0,030	-0,003
-152,891	-200,000	-0,008	0,122
-151,877	800,000	-0,046	-0,095
-150,862	321,112	0,050	-0,070
-149,847	214,645	-0,059	-0,069
-148,833	-49,343	0,091	0,031
-147,818	-91,683	0,118	0,024
-146,804	-32,496	-0,103	-0,042
-145,789	187,391	0,055	0,060
-144,775	-200,000	-0,019	0,146
-143,760	800,000	-0,026	-0,069
-142,745	-76,336	-0,129	-0,033
-141,731	108,638	0,049	-0,043
-140,716	-134,674	-0,038	0,003
-139,702	-93,432	0,109	0,022
-138,687	-200,000	-0,013	0,081
-137,672	-136,703	0,068	0,006
-136,658	192,863	0,118	-0,130
-135,643	218,814	0,125	0,145
-134,629	-117,603	0,181	-0,023
-133,614	419,437	-0,019	-0,030
-132,599	-200,000	-0,004	0,170
-131,585	800,000	0,026	0,068
-130,570	-200,000	0,020	0,106
-129,556	94,017	-0,079	0,065
-128,541	-55,268	-0,061	0,020
-127,526	398,531	0,042	0,064
-126,512	18,297	0,039	-0,023
-125,497	-68,064	-0,099	-0,028
-124,483	-129,893	0,112	0,011
-123,468	189,475	0,077	-0,084
-122,453	114,243	0,075	0,066
-121,439	-200,000	0,028	0,090
-120,424	-31,280	0,064	-0,026
-119,410	193,964	0,093	0,102
-118,395	-200,000	-0,020	0,211
-117,380	3,525	-0,048	0,025
-116,366	159,312	0,084	-0,085
-115,351	301,519	0,027	-0,036
-114,337	-89,323	0,030	0,006
-113,322	-27,959	-0,095	-0,040
-112,307	800,000	0,028	-0,075
-111,293	763,716	0,086	-0,171
-110,278	-10,583	0,087	0,042
-109,264	379,318	-0,101	0,151
-108,249	-43,415	-0,101	0,037
-107,234	-200,000	0,002	-0,072
-106,220	-73,201	-0,091	0,024
-105,205	800,000	0,016	0,047
-104,191	-152,910	0,143	0,007
-103,176	-81,364	-0,069	0,017
-102,162	634,042	-0,014	-0,025
-101,147	-134,260	-0,061	0,005
-100,132	-112,291	0,035	-0,005
-99,118	42,517	-0,082	-0,054
-98,103	80,750	-0,060	-0,047
-97,089	496,787	-0,081	0,136
-96,074	23,449	0,076	0,046
-95,059	800,000	-0,027	0,073
-94,045	-55,100	-0,157	-0,051
-93,030	-127,489	-0,198	0,021
-92,016	437,766	0,092	-0,146
-91,001	-200,000	-0,024	-0,145
-89,986	-42,313	-0,086	-0,032
-88,972	-200,000	-0,011	0,072
-87,957	-159,381	0,087	-0,003
-86,943	63,509	-0,092	-0,067
-85,928	111,186	0,095	0,083
-84,913	335,312	-0,047	0,066
-83,899	-129,547	-0,085	0,008
-82,884	647,858	0,023	-0,043
-81,870	-45,260	-0,030	-0,011
-80,855	22,674	0,071	-0,042
-79,840	800,000	-0,051	-0,142
-78,826	572,656	-0,040	-0,071
-77,811	27,218	0,057	-0,035
-76,797	-74,897	0,056	-0,014
-75,782	-200,000	0,014	0,060
-74,767	-200,000	-0,001	0,101
-73,753	276,654	-0,031	-0,040
-72,738	-200,000	0,018	0,168
-71,724	-18,376	-0,107	0,049
-70,709	413,306	-0,048	0,074
-69,694	483,843	-0,036	0,060
-68,680	-121,515	0,233	0,028
-67,665	250,914	0,033	-0,041
-66,651	148,854	-0,051	-0,050
-65,636	192,690	0,046	0,050
-64,622	-11,717	0,091	-0,043
-63,607	800,000	-0,063	-0,174
-62,592	-33,403	-0,121	-0,048
-61,578	-88,777	0,045	0,010
-60,563	3,885	0,048	-0,025
-59,549	800,000	-0,024	0,049
-58,534	-126,000	-1,241	-0,134
-57,519	668,767	-0,810	-1,527
-56,505	-200,000	-0,817	-4,482
-55,490	108,458	0,520	-0,450
-54,476	800,000	5,012	11,793
-53,461	-200,000	13,484	252,600
-52,446	-200,000	688,634	2268,357
-51,432	596,499	1622,693	2927,639
-50,417	120,950	1636,194	1476,677
-49,403	73,559	1290,367	979,389
-48,388	38,410	1025,125	661,388
-47,373	24,531	982,468	588,220
-46,359	23,701	972,319	579,397
-45,344	22,814	968,036	573,922
-44,330	22,736	966,574	572,776
-43,315	22,603	965,198	571,504
-42,300	22,645	964,091	570,963
-41,286	22,605	963,289	570,337
-40,271	22,608	962,277	569,722
-39,257	22,593	961,338	569,097
-38,242	22,568	960,582	568,546
-37,227	22,622	959,445	568,026
-36,213	22,564	958,874	567,475
-35,198	22,546	957,784	566,752
-34,184	22,688	957,097	566,782
-33,169	22,595	956,394	566,042
-32,154	22,600	955,260	565,364
-31,140	22,597	954,633	564,959
-30,125	22,667	953,732	564,630
-29,111	22,644	952,756	563,956
-28,096	22,653	952,095	563,572
-27,082	22,652	951,434	563,156
-26,067	22,682	950,668	562,776
-25,052	22,651	949,961	562,236
-24,038	22,616	949,465	561,808
-23,023	22,616	948,773	561,376
-22,009	22,630	948,212	561,067
-20,994	22,627	947,426	560,570
-19,979	22,601	947,027	560,227
-18,965	22,663	946,150	559,886
-17,950	22,669	945,470	559,480
-16,936	22,584	944,874	558,832
-15,921	22,613	944,193	558,500
-14,906	22,570	943,435	557,894
-13,892	22,527	942,849	557,387
-12,877	22,520	941,999	556,840
-11,863	22,527	941,597	556,603
-10,848	22,517	941,011	556,203
-9,833	22,629	940,470	556,217
-8,819	22,608	939,888	555,785
-7,804	22,557	939,384	555,302
-6,790	22,547	938,702	554,844
-5,775	22,512	938,026	554,312
-4,760	22,576	937,438	554,145
-3,746	22,531	936,930	553,679
-2,731	22,392	936,118	552,739
-1,717	22,362	935,469	552,241
-0,702	22,265	934,937	551,599
0,313	22,138	934,188	551,589
1,327	25,161	932,178	559,862
2,342	34,727	796,644	503,951
3,356	32,643	451,790	282,634
4,371	1,742	293,672	152,902
5,386	-2,716	274,521	138,704
6,400	-4,072	268,727	134,507
7,415	-4,122	266,313	133,241
8,429	-4,158	264,958	132,518
9,444	-4,274	264,335	132,089
10,459	-4,155	263,688	131,862
11,473	-4,454	263,211	131,340
12,488	-4,211	262,487	131,187
13,502	-4,435	262,031	130,745
14,517	-4,428	261,596	130,523
15,531	-4,447	261,148	130,271
16,546	-4,308	260,854	130,238
17,561	-4,486	260,474	129,877
18,575	-4,368	260,225	129,847
19,590	-4,510	259,902	129,547
20,604	-4,410	259,609	129,479
21,619	-4,387	259,324	129,345
22,634	-4,231	258,903	129,263
23,648	-4,477	258,520	128,842
24,663	-4,156	258,256	128,984
25,677	-4,451	258,165	128,664
26,692	-4,263	257,684	128,580
27,707	-4,257	257,466	128,465
28,721	-4,369	257,230	128,237
29,736	-4,424	256,994	128,059
30,750	-4,430	256,628	127,860
31,765	-4,502	256,571	127,756
32,780	-4,402	256,314	127,705
33,794	-4,325	255,956	127,584
34,809	-4,353	255,831	127,485
35,823	-4,459	255,622	127,276
36,838	-4,551	255,437	127,092
37,853	-4,269	255,049	127,135
38,867	-4,401	254,819	126,893
39,882	-4,322	254,739	126,912
40,896	-4,472	254,408	126,604
41,911	-4,477	254,279	126,524
42,926	-4,389	253,959	126,430
43,940	-4,606	253,880	126,191
44,955	-4,491	253,503	126,092
45,969	-4,562	253,369	125,952
46,984	-4,840	253,220	125,624
47,999	-4,884	252,776	125,356
49,013	-4,972	252,546	125,154
50,028	-5,105	252,270	124,890
51,042	-5,468	252,259	124,558
52,057	-5,133	251,813	124,617
53,071	-5,155	251,580	124,472
54,086	-5,044	251,431	124,483
55,101	-4,842	251,323	124,593
56,115	-4,684	251,232	124,673
57,130	-4,485	251,133	124,785
58,144	-4,086	250,915	125,009
59,159	-4,074	250,616	124,859
60,174	-4,149	250,443	124,697
61,188	-4,299	250,381	124,527
62,203	-4,491	250,083	124,202
63,217	-4,180	249,782	124,308
64,232	-4,522	249,652	123,939
65,247	-4,296	249,556	124,075
66,261	-4,402	249,306	123,849
67,276	-4,507	248,939	123,566
68,290	-4,701	248,733	123,287
69,305	-4,854	248,447	123,003
70,320	-4,846	248,309	122,931
71,334	-4,548	248,343	123,191
72,349	-4,187	248,182	123,407
73,363	-4,128	247,771	123,242
74,378	-4,324	247,671	123,015
75,393	-4,230	247,405	122,951
76,407	-4,210	247,163	122,838
77,422	-4,577	247,225	122,546
78,436	-4,502	246,893	122,434
79,451	-4,318	246,690	122,478
80,466	-4,372	246,420	122,287
81,480	-4,518	246,238	122,063
82,495	-4,616	245,946	121,825
83,509	-4,497	245,807	121,845
84,524	-4,581	245,695	121,708
85,539	-4,643	245,373	121,486
86,553	-4,933	245,430	121,259
87,568	-4,710	245,118	121,282
88,582	-4,578	244,948	121,297
89,597	-4,732	244,613	120,992
90,611	-4,532	244,533	121,109
91,626	-4,292	244,281	121,174
92,641	-4,281	244,145	121,105
93,655	-4,526	244,047	120,840
94,670	-4,471	243,921	120,813
95,684	-4,352	243,640	120,763
96,699	-4,399	243,400	120,594
97,714	-4,628	243,299	120,342
98,728	-4,659	243,012	120,164
99,743	-4,642	242,728	120,027
100,757	-4,818	242,624	119,818
101,772	-4,646	242,460	119,869
102,787	-4,630	242,270	119,779
103,801	-4,584	242,010	119,677
104,816	-4,511	241,918	119,681
105,830	-4,480	241,799	119,638
106,845	-4,259	241,744	119,782
107,860	-4,386	241,339	119,466
108,874	-4,246	241,164	119,484
109,889	-4,326	241,125	119,388
110,903	-4,440	240,862	119,154
111,918	-4,468	240,584	118,983
112,933	-4,583	240,502	118,837
113,947	-4,494	240,375	118,837
114,962	-4,461	240,194	118,763
115,976	-4,391	240,129	118,778
116,991	-4,422	239,942	118,650
118,006	-4,362	239,670	118,553
119,020	-4,319	239,650	118,569
120,035	-4,375	239,461	118,419
121,049	-4,215	239,347	118,483
122,064	-4,409	239,086	118,184
123,079	-4,205	238,763	118,181
124,093	-4,584	238,737	117,848
125,108	-4,845	238,485	117,501
126,122	-4,679	238,228	117,498
127,137	-4,866	238,203	117,324
128,151	-4,871	237,975	117,196
129,166	-4,752	237,840	117,216
130,181	-4,760	237,583	117,072
131,195	-4,582	237,355	117,095
132,210	-4,473	237,189	117,090
133,224	-4,306	237,009	117,126
134,239	-4,499	237,054	116,981
135,254	-4,411	236,827	116,930
136,268	-4,538	236,535	116,674
137,283	-4,616	236,369	116,518
138,297	-4,773	236,091	116,244
139,312	-4,882	235,872	116,038
140,327	-4,779	235,878	116,113
141,341	-4,006	235,851	116,712
142,356	-4,175	235,715	116,498
143,370	-4,113	235,533	116,447
144,385	-4,006	235,299	116,407
145,400	-4,160	235,253	116,251
146,414	-4,230	234,974	116,047
147,429	-3,954	234,780	116,162
148,443	-4,113	234,559	115,915
149,458	-4,383	234,580	115,699
150,473	-3,939	234,154	115,832
151,487	-4,179	234,088	115,598
152,502	-4,174	233,968	115,532
153,516	-4,102	233,887	115,539
154,531	-4,043	233,601	115,435
155,546	-4,062	233,496	115,358
156,560	-4,036	233,428	115,334
157,575	-4,430	233,211	114,904
158,589	-4,403	232,951	114,786
159,604	-4,009	232,868	115,048
160,619	-3,971	232,620	114,946
161,633	-3,915	232,517	114,929
162,648	-3,931	232,343	114,820
163,662	-3,967	232,147	114,685
164,677	-4,251	232,040	114,397
165,692	-4,145	231,999	114,450
166,706	-3,920	231,833	114,536
167,721	-3,857	231,569	114,444
168,735	-4,198	231,559	114,161
169,750	-4,089	231,325	114,121
170,764	-4,022	231,145	114,075
171,779	-4,063	230,906	113,915
172,794	-4,214	230,859	113,763
173,808	-4,236	230,651	113,633
174,823	-4,759	230,434	113,106
175,837	-4,665	230,095	113,002
176,852	-4,284	230,115	113,301
177,867	-4,175	230,163	113,399
178,881	-4,109	229,863	113,293
179,896	-4,036	229,890	113,354
180,910	-4,057	229,611	113,189
181,925	-4,103	229,513	113,095
182,940	-3,996	229,297	113,062
183,954	-3,968	229,147	113,000
184,969	-4,038	229,092	112,908
185,983	-3,918	228,830	112,862
186,998	-3,810	228,641	112,843
188,013	-3,739	228,467	112,802
189,027	-3,647	228,283	112,772
190,042	-3,766	228,204	112,631
191,056	-3,936	228,172	112,474
192,071	-3,839	228,026	112,466
193,086	-3,942	227,719	112,226
194,100	-4,107	227,657	112,057
195,115	-4,121	227,164	111,794
196,129	-4,717	227,076	111,281
197,144	-2,312	227,707	113,438
198,159	1,296	228,945	116,842
199,173	3,927	229,599	119,206
200,188	4,525	229,320	119,514
201,202	4,316	229,210	119,285
202,217	4,305	229,231	119,276
203,232	4,507	228,897	119,248
204,246	4,549	228,892	119,267
205,261	4,642	228,751	119,255
206,275	4,832	228,660	119,343
207,290	4,597	228,562	119,100
208,304	4,800	228,372	119,147
209,319	4,850	228,085	119,025
210,334	4,734	228,026	118,894
211,348	4,571	227,718	118,598
212,363	4,341	227,451	118,272
213,377	3,821	227,321	117,795
214,392	3,922	227,174	117,786
215,407	3,906	227,160	117,756
216,421	3,993	226,919	117,687
217,436	3,879	226,738	117,495
218,450	3,811	226,502	117,311
219,465	4,062	226,286	117,380
220,480	3,810	226,213	117,140
221,494	3,660	226,230	117,023
222,509	3,945	226,034	117,129
223,523	3,939	225,859	117,023
224,538	3,867	225,693	116,872
225,553	3,716	225,405	116,597
226,567	3,956	225,369	116,751
227,582	4,389	225,325	117,046
228,596	4,332	225,230	116,943
229,611	3,977	224,984	116,536
230,626	3,777	224,619	116,185
231,640	3,901	224,468	116,191
232,655	4,212	224,379	116,369
233,669	4,580	224,440	116,668
234,684	4,621	224,365	116,650
235,699	4,240	224,161	116,246
236,713	3,991	223,976	115,952
237,728	4,036	223,548	115,754
238,742	3,925	223,425	115,597
239,757	3,838	223,419	115,518
240,772	3,959	223,186	115,478
241,786	4,051	222,999	115,440
242,801	4,162	223,168	115,601
243,815	4,228	223,036	115,571
244,830	4,262	222,893	115,512
245,844	3,944	222,768	115,199
246,859	3,892	222,636	115,082
247,874	3,950	222,461	115,024
248,888	4,122	222,360	115,090
249,903	3,934	221,965	114,736
250,917	3,898	221,913	114,671
251,932	3,813	221,774	114,526
252,947	3,906	221,535	114,461
253,961	3,715	221,383	114,231
254,976	3,871	221,341	114,315
255,990	3,931	221,177	114,264
257,005	4,371	220,996	114,487
258,020	4,363	220,876	114,409
259,034	4,364	220,833	114,377
260,049	4,194	220,696	114,170
261,063	4,167	220,458	114,017
262,078	4,285	220,397	114,063
263,093	4,428	220,182	114,046
264,107	4,327	220,081	113,910
265,122	4,437	219,754	113,812
266,136	4,294	219,766	113,702
267,151	4,574	219,691	113,859
268,166	4,119	219,377	113,352
269,180	3,716	219,240	112,974
270,195	3,675	219,111	112,868
271,209	3,739	218,982	112,838
272,224	3,896	218,847	112,873
273,239	4,199	218,753	113,037
274,253	3,973	218,638	112,802
275,268	3,673	218,395	112,447
276,282	3,858	218,188	112,465
277,297	3,628	218,142	112,264
278,312	3,723	218,083	112,293
279,326	3,775	218,016	112,287
280,341	3,965	217,718	112,262
281,355	4,122	217,605	112,308
282,370	3,976	217,478	112,126
283,384	3,651	217,295	111,784
284,399	3,646	217,083	111,662
285,414	3,445	217,084	111,506
286,428	3,948	216,928	111,782
287,443	4,090	216,755	111,786
288,457	4,108	216,634	111,726
289,472	4,272	216,427	111,729
290,487	3,753	216,081	111,165
291,501	3,413	216,082	110,909
292,516	3,627	215,984	111,004
293,530	3,573	215,927	110,925
294,545	3,534	215,754	110,799
295,560	3,757	215,583	110,862
296,574	3,885	215,443	110,872
297,589	3,688	215,525	110,762
298,603	4,063	215,304	110,909
299,618	3,866	215,227	110,718
300,633	3,875	214,999	110,597
301,647	4,147	214,912	110,738
302,662	4,222	214,811	110,730
303,676	4,264	214,703	110,695
304,691	4,213	214,443	110,514
305,706	4,107	214,382	110,396
306,720	4,085	214,326	110,342
307,735	4,039	214,149	110,208
308,749	3,919	213,926	109,998
309,764	3,976	213,883	110,007
310,779	4,203	213,627	110,027
311,793	3,935	213,597	109,811
312,808	4,028	213,486	109,810
313,822	3,944	213,174	109,580
314,837	3,984	213,008	109,514
315,852	3,953	212,887	109,420
316,866	3,857	212,729	109,261
317,881	3,969	212,804	109,369
318,895	4,178	212,475	109,338
319,910	4,122	212,387	109,244
320,925	3,649	212,156	108,780
321,939	3,536	211,959	108,589
322,954	3,567	211,969	108,607
323,968	3,965	211,866	108,826
324,983	4,032	211,739	108,798
325,997	4,044	211,740	108,797
327,012	4,139	211,428	108,695
328,027	4,326	211,236	108,718
329,041	4,421	211,296	108,806
330,056	4,445	211,163	108,745
331,070	3,894	210,940	108,233
332,085	3,987	210,715	108,173
333,100	4,048	210,501	108,097
334,114	4,030	210,480	108,063
335,129	4,032	210,366	107,996
336,143	3,930	210,167	107,813
337,158	3,875	209,932	107,644
338,173	3,816	210,009	107,633
339,187	3,704	209,807	107,441
340,202	3,465	209,617	107,167
341,216	3,694	209,570	107,294
342,231	3,828	209,389	107,285
343,246	3,785	209,194	107,145
344,260	3,741	209,025	107,019
345,275	3,948	208,986	107,134
346,289	4,084	209,058	107,255
347,304	4,134	208,787	107,141
348,319	4,022	208,757	107,039
349,333	3,988	208,375	106,810
350,348	4,007	208,423	106,838
351,362	4,225	208,218	106,875
352,377	4,275	208,159	106,869
353,392	4,221	207,989	106,735
354,406	4,058	207,834	106,534
355,421	194,887	1345,922	1437,534
356,435	155,518	1484,696	1437,662
