DTS Sentinel unit serial number:	SN410029Multiplexer serial number:	ORYXHardware model number:	OX2-SRSoftware version number:	ORYX F/W v4,00 Oryx Data Collector v3.7.2.0data status	okinstallation	B6 Nyhavnadifferential loss correction	single-endedforward channel	channel 2reverse channel	N/Adate	2023/12/09time	21:45:08forward acquisition time	300,00reverse acquisition time	0,00gamma	499,1914k internal	0,3127k external	0,3127temperature offset calibration	1,0000default loss term (dB/km)	0,3820temperature slope calibration	1,0000multiplexer offset coefficient	1,0000multiplexer slope coefficient	1,0000fibre end	0,00T internal ref (°C)	21,61T ext. ref 1 (°C)	5,45T ext. ref 2 (°C)	5,45length (m)	temperature (°C)	Stokes	anti-Stokes-744,400	-8,851	-0,100	-0,050
-743,385	-23,136	-0,127	0,057
-742,371	800,000	0,017	-0,054
-741,356	179,731	-0,149	0,163
-740,342	800,000	0,036	0,083
-739,327	164,197	-0,095	0,100
-738,312	-6,221	0,141	-0,071
-737,298	199,553	-0,198	0,226
-736,283	131,367	0,064	-0,062
-735,269	93,507	-0,150	0,126
-734,254	-50,120	0,144	0,051
-733,239	-161,420	-0,463	0,017
-732,225	62,868	0,061	0,045
-731,210	99,757	0,093	0,080
-730,196	-130,982	-0,079	-0,008
-729,181	-194,457	-0,119	-0,001
-728,167	-114,908	0,158	-0,022
-727,152	-12,187	-0,094	-0,046
-726,137	-99,294	-0,040	0,007
-725,123	165,674	-0,086	-0,091
-724,108	-200,000	0,007	0,029
-723,094	280,728	-0,065	-0,087
-722,079	-200,000	-0,014	-0,060
-721,064	-38,414	0,029	-0,011
-720,050	-90,045	-0,053	-0,011
-719,035	-155,182	0,112	0,005
-718,021	800,000	-0,032	-0,094
-717,006	13,296	-0,068	0,039
-715,991	381,841	-0,085	-0,131
-714,977	115,470	0,023	-0,021
-713,962	-200,000	0,019	-0,154
-712,948	-100,066	0,040	-0,007
-711,933	800,000	0,033	0,070
-710,918	79,868	0,042	-0,034
-709,904	237,744	-0,076	-0,094
-708,889	81,403	0,089	-0,071
-707,875	706,720	-0,063	-0,124
-706,860	-200,000	-0,006	0,052
-705,845	-43,563	-0,091	0,034
-704,831	-79,818	-0,169	0,042
-703,816	800,000	0,014	-0,039
-702,802	-200,000	0,013	-0,059
-701,787	-200,000	-0,036	-0,122
-700,772	800,000	-0,029	0,066
-699,758	-59,496	0,142	0,045
-698,743	-138,903	0,162	0,013
-697,729	756,038	0,018	0,035
-696,714	-200,000	0,001	0,140
-695,699	800,000	0,020	-0,063
-694,685	800,000	0,021	0,054
-693,670	157,798	-0,108	-0,112
-692,656	800,000	0,028	-0,073
-691,641	7,844	0,022	-0,012
-690,627	58,643	0,075	0,055
-689,612	-1,710	-0,065	-0,034
-688,597	-21,404	-0,058	0,026
-687,583	-113,384	0,176	-0,025
-686,568	65,349	-0,041	-0,031
-685,554	-14,105	-0,118	-0,056
-684,539	-94,617	0,003	0,001
-683,524	-200,000	-0,026	-0,203
-682,510	417,111	0,043	-0,068
-681,495	110,491	-0,060	0,054
-680,481	-51,398	0,070	-0,024
-679,466	800,000	-0,022	0,050
-678,451	-200,000	-0,005	0,040
-677,437	23,649	-0,068	-0,041
-676,422	-41,858	0,057	0,022
-675,408	800,000	-0,029	0,068
-674,393	694,392	-0,081	-0,159
-673,378	800,000	-0,072	-0,167
-672,364	140,317	-0,073	-0,072
-671,349	298,844	0,084	-0,116
-670,335	800,000	0,021	-0,056
-669,320	-87,771	-0,058	0,013
-668,305	158,771	0,086	-0,089
-667,291	800,000	-0,058	-0,120
-666,276	368,246	0,051	-0,076
-665,262	202,785	-0,072	-0,082
-664,247	-51,562	-0,026	0,009
-663,232	-200,000	0,031	0,116
-662,218	304,274	0,033	0,046
-661,203	-200,000	-0,023	0,000
-660,189	47,522	0,056	0,039
-659,174	177,635	0,031	0,034
-658,159	-7,368	-0,127	-0,064
-657,145	-84,466	0,128	-0,030
-656,130	17,888	0,096	-0,057
-655,116	800,000	0,016	-0,041
-654,101	137,629	0,070	0,068
-653,086	-170,243	0,119	0,003
-652,072	800,000	-0,042	-0,129
-651,057	-67,048	-0,250	0,073
-650,043	-200,000	-0,026	-0,147
-649,028	800,000	-0,046	0,103
-648,014	-200,000	0,007	0,031
-646,999	-65,951	-0,055	-0,016
-645,984	107,605	0,065	0,057
-644,970	232,341	-0,038	-0,046
-643,955	240,802	-0,036	0,045
-642,941	18,561	0,025	0,015
-641,926	800,000	-0,019	-0,049
-640,911	-175,199	-0,126	0,003
-639,897	-140,415	0,076	0,006
-638,882	284,415	0,018	0,023
-637,868	-113,361	-0,066	-0,010
-636,853	800,000	-0,063	-0,172
-635,838	-57,750	-0,132	-0,042
-634,824	214,310	0,035	-0,041
-633,809	274,873	-0,033	-0,043
-632,795	61,555	-0,050	0,037
-631,780	-200,000	0,018	0,067
-630,765	481,838	-0,030	0,050
-629,751	-48,385	-0,051	0,018
-628,736	45,641	0,121	-0,083
-627,722	-64,571	0,204	0,061
-626,707	516,257	0,057	0,100
-625,692	800,000	0,026	0,063
-624,678	-200,000	0,035	-0,122
-623,663	-135,687	0,064	-0,006
-622,649	-200,000	-0,011	0,073
-621,634	-21,649	0,169	-0,076
-620,619	29,963	-0,049	-0,031
-619,605	-132,186	0,136	0,013
-618,590	650,607	0,031	0,058
-617,576	-200,000	-0,007	0,060
-616,561	-100,080	-0,069	0,013
-615,546	11,821	-0,092	0,052
-614,532	-21,970	-0,179	0,080
-613,517	-200,000	0,015	-0,096
-612,503	-123,940	-0,155	-0,018
-611,488	-1,655	0,040	-0,021
-610,474	333,563	-0,020	-0,029
-609,459	572,966	0,050	-0,091
-608,444	11,692	-0,130	0,073
-607,430	-142,629	0,097	-0,007
-606,415	800,000	0,041	-0,086
-605,401	-200,000	0,021	-0,076
-604,386	-200,000	-0,038	0,146
-603,371	55,005	0,170	0,122
-602,357	-91,018	-0,055	-0,012
-601,342	15,269	-0,077	-0,045
-600,328	-126,573	-0,106	0,011
-599,313	291,611	-0,078	0,106
-598,298	800,000	0,072	0,158
-597,284	-200,000	-0,063	-0,000
-596,269	800,000	0,023	0,064
-595,255	-200,000	-0,000	-0,033
-594,240	95,820	-0,070	0,059
-593,225	689,067	0,025	-0,049
-592,211	800,000	-0,061	-0,138
-591,196	-123,033	-0,050	0,006
-590,182	421,605	0,067	0,107
-589,167	46,634	-0,077	0,053
-588,152	257,241	0,073	-0,093
-587,138	597,331	-0,026	-0,048
-586,123	176,174	0,024	-0,026
-585,109	287,771	-0,160	-0,215
-584,094	431,441	0,062	-0,099
-583,079	-77,548	0,056	0,014
-582,065	350,641	0,117	0,171
-581,050	142,248	0,040	-0,040
-580,036	-78,446	-0,053	0,013
-579,021	800,000	0,015	-0,047
-578,006	800,000	0,040	-0,087
-576,992	-23,135	-0,237	0,105
-575,977	8,075	0,132	0,073
-574,963	800,000	0,013	0,035
-573,948	468,143	-0,053	0,088
-572,934	218,044	-0,093	-0,110
-571,919	259,808	-0,055	-0,070
-570,904	-28,397	0,024	0,010
-569,890	-4,944	-0,098	-0,050
-568,875	692,551	0,048	0,093
-567,861	800,000	-0,016	-0,042
-566,846	189,511	-0,088	0,098
-565,831	-200,000	-0,008	-0,148
-564,817	-42,949	-0,113	0,042
-563,802	-63,349	-0,082	-0,025
-562,788	-95,464	-0,094	0,019
-561,773	800,000	-0,072	0,152
-560,758	800,000	0,050	0,158
-559,744	-152,853	0,068	0,003
-558,729	-81,136	-0,069	-0,017
-557,715	320,466	0,054	-0,076
-556,700	-136,705	-0,163	0,014
-555,685	-127,018	-0,074	0,008
-554,671	-3,568	0,119	-0,061
-553,656	-8,444	0,062	0,031
-552,642	45,768	-0,057	-0,039
-551,627	-12,863	0,108	-0,052
-550,612	-200,000	0,006	-0,042
-549,598	-55,410	0,098	0,032
-548,583	-76,787	0,094	-0,024
-547,569	246,724	-0,014	-0,017
-546,554	96,460	0,068	0,057
-545,539	48,974	0,079	-0,055
-544,525	98,552	-0,098	0,083
-543,510	-104,691	-0,087	0,015
-542,496	317,487	0,078	-0,109
-541,481	-200,000	-0,002	-0,152
-540,466	143,234	-0,152	-0,149
-539,452	-200,000	0,005	-0,071
-538,437	226,793	-0,011	0,013
-537,423	-161,485	-0,131	0,005
-536,408	-200,000	-0,006	0,078
-535,393	-200,000	0,005	-0,123
-534,379	-200,000	0,008	-0,108
-533,364	-8,595	0,017	0,008
-532,350	-173,052	0,065	-0,001
-531,335	800,000	0,009	0,027
-530,321	378,502	-0,043	-0,065
-529,306	-109,145	0,120	0,019
-528,291	203,812	-0,081	-0,093
-527,277	477,079	0,087	-0,145
-526,262	130,861	0,135	-0,128
-525,248	-171,561	0,080	-0,002
-524,233	-40,463	-0,083	0,032
-523,218	63,569	0,027	0,020
-522,204	18,240	-0,033	-0,019
-521,189	-56,041	-0,065	-0,021
-520,175	-18,942	0,042	-0,019
-519,160	-24,871	0,057	0,025
-518,145	678,189	0,046	-0,089
-517,131	264,314	0,117	-0,151
-516,116	800,000	0,022	0,047
-515,102	-5,061	0,042	-0,021
-514,087	800,000	0,061	-0,132
-513,072	-163,828	-0,141	0,005
-512,058	-126,678	-0,049	-0,005
-511,043	800,000	-0,020	-0,045
-510,029	-50,534	0,097	0,033
-509,014	-85,268	0,063	0,014
-507,999	-200,000	0,013	-0,123
-506,985	-200,000	0,008	-0,090
-505,970	-111,003	-0,179	0,027
-504,956	152,407	0,096	0,097
-503,941	275,346	-0,119	-0,156
-502,926	-200,000	-0,043	0,142
-501,912	-34,926	0,161	0,065
-500,897	-200,000	-0,024	-0,100
-499,883	800,000	-0,031	-0,082
-498,868	-147,793	-0,052	0,003
-497,853	250,685	-0,035	0,044
-496,839	-200,000	-0,041	0,147
-495,824	21,438	-0,019	-0,011
-494,810	-121,312	-0,075	-0,009
-493,795	-200,000	0,017	-0,141
-492,781	-67,530	-0,028	-0,008
-491,766	-200,000	0,002	0,038
-490,751	-200,000	0,007	-0,146
-489,737	-200,000	-0,005	-0,052
-488,722	-42,900	0,064	0,024
-487,708	800,000	-0,034	-0,085
-486,693	-56,855	-0,114	-0,037
-485,678	-156,095	-0,065	0,003
-484,664	214,738	-0,146	-0,171
-483,649	-1,401	0,145	0,075
-482,635	800,000	0,041	0,103
-481,620	-200,000	-0,017	0,086
-480,605	632,175	0,029	0,054
-479,591	-32,591	-0,049	-0,020
-478,576	-93,461	-0,028	-0,006
-477,562	64,061	0,052	-0,038
-476,547	-144,406	-0,103	0,007
-475,532	-43,705	-0,148	0,055
-474,518	800,000	0,026	-0,074
-473,503	-200,000	-0,010	0,042
-472,489	53,859	0,077	-0,055
-471,474	86,580	-0,031	-0,025
-470,459	355,028	0,056	0,082
-469,445	105,327	-0,066	-0,057
-468,430	-170,058	-0,014	0,000
-467,416	-200,000	-0,008	-0,078
-466,401	597,553	0,053	0,098
-465,386	-57,627	0,103	-0,033
-464,372	-200,000	-0,029	0,208
-463,357	35,574	-0,028	-0,018
-462,343	744,501	0,062	-0,124
-461,328	-139,224	0,033	0,003
-460,313	11,295	-0,042	0,024
-459,299	-200,000	0,001	-0,039
-458,284	-92,576	0,059	0,012
-457,270	-200,000	-0,002	0,023
-456,255	-200,000	-0,043	-0,146
-455,241	-136,019	-0,103	0,009
-454,226	-200,000	-0,020	0,104
-453,211	800,000	-0,009	-0,025
-452,197	-69,503	0,031	-0,009
-451,182	9,048	0,097	0,054
-450,168	119,104	0,069	0,063
-449,153	289,898	-0,079	0,106
-448,138	-52,507	0,114	0,039
-447,124	-200,000	0,045	-0,206
-446,109	34,072	0,107	0,069
-445,095	50,952	-0,056	0,039
-444,080	-200,000	-0,008	-0,035
-443,065	214,030	-0,066	0,076
-442,051	127,298	-0,025	0,023
-441,036	-200,000	-0,003	-0,111
-440,022	-98,386	0,151	0,028
-439,007	192,129	0,029	-0,032
-437,992	800,000	0,037	0,103
-436,978	61,900	0,124	0,091
-435,963	511,098	0,019	-0,033
-434,949	308,419	0,091	0,126
-433,934	72,116	0,031	-0,024
-432,919	396,745	0,041	-0,063
-431,905	18,838	0,065	0,038
-430,890	-138,394	-0,136	-0,011
-429,876	81,032	-0,120	0,095
-428,861	-108,509	0,184	0,029
-427,846	800,000	-0,039	-0,124
-426,832	195,260	0,042	-0,047
-425,817	358,710	-0,115	-0,170
-424,803	-138,495	-0,139	0,011
-423,788	800,000	-0,011	0,034
-422,773	800,000	0,011	0,031
-421,759	588,601	0,043	0,078
-420,744	-49,825	0,037	-0,013
-419,730	126,352	0,094	-0,088
-418,715	-200,000	-0,022	0,126
-417,701	224,742	0,013	0,015
-416,686	28,991	0,067	-0,042
-415,671	-200,000	-0,010	-0,093
-414,657	321,453	0,064	0,090
-413,642	182,899	-0,053	0,057
-412,628	-200,000	-0,002	0,035
-411,613	800,000	-0,047	0,100
-410,598	-200,000	-0,027	-0,096
-409,584	-170,591	0,029	-0,001
-408,569	46,640	0,125	-0,085
-407,555	141,137	-0,046	-0,045
-406,540	800,000	-0,041	0,117
-405,525	86,262	-0,109	-0,088
-404,511	405,688	0,060	-0,093
-403,496	800,000	0,035	-0,095
-402,482	272,263	-0,045	0,059
-401,467	218,550	-0,051	0,060
-400,452	103,119	0,058	0,050
-399,438	280,283	0,060	-0,079
-398,423	-43,588	0,087	-0,032
-397,409	-6,463	-0,102	-0,051
-396,394	147,317	-0,055	-0,055
-395,379	-11,849	0,095	-0,046
-394,365	800,000	0,029	-0,090
-393,350	573,503	-0,051	-0,092
-392,336	-200,000	0,009	-0,056
-391,321	-94,286	0,078	0,015
-390,306	-25,111	0,069	0,030
-389,292	-13,038	-0,018	-0,009
-388,277	18,993	0,065	0,038
-387,263	-97,402	0,074	0,014
-386,248	-200,000	0,051	0,181
-385,233	472,431	-0,045	0,075
-384,219	273,404	0,046	0,060
-383,204	-200,000	0,014	0,053
-382,190	-59,637	-0,143	-0,045
-381,175	-200,000	0,022	-0,076
-380,160	-200,000	0,010	0,082
-379,146	24,378	0,099	0,060
-378,131	49,230	0,135	-0,093
-377,117	-200,000	-0,012	-0,081
-376,102	-37,862	0,096	-0,037
-375,088	57,109	-0,188	-0,134
-374,073	-132,696	-0,100	0,009
-373,058	-200,000	-0,058	-0,000
-372,044	-200,000	0,009	0,043
-371,029	-54,444	0,096	0,032
-370,015	-105,589	-0,019	0,003
-369,000	-200,000	-0,011	-0,092
-367,985	12,951	-0,063	0,036
-366,971	124,497	0,086	0,079
-365,956	800,000	0,014	0,032
-364,942	525,348	0,052	0,090
-363,927	670,801	-0,087	0,167
-362,912	232,944	0,062	-0,075
-361,898	-200,000	-0,015	-0,074
-360,883	794,669	-0,035	0,072
-359,869	456,986	0,057	0,094
-358,854	-200,000	-0,002	-0,009
-357,839	-200,000	-0,027	0,097
-356,825	-38,565	-0,121	0,047
-355,810	326,463	0,046	0,065
-354,796	-75,045	-0,103	0,027
-353,781	-68,480	-0,034	-0,010
-352,766	132,607	0,012	0,012
-351,752	-60,900	-0,064	-0,020
-350,737	-71,759	0,107	-0,029
-349,723	164,802	0,041	0,043
-348,708	-200,000	-0,016	0,055
-347,693	-200,000	0,023	-0,084
-346,679	150,153	-0,040	-0,040
-345,664	-200,000	0,015	0,116
-344,650	-200,000	0,001	0,095
-343,635	800,000	0,036	-0,078
-342,620	-43,112	0,003	-0,001
-341,606	-200,000	0,017	0,143
-340,591	-82,476	0,035	-0,008
-339,577	99,315	-0,060	-0,051
-338,562	166,005	0,054	-0,056
-337,548	-90,964	0,029	-0,006
-336,533	-11,876	0,183	0,087
-335,518	-200,000	-0,007	0,047
-334,504	-96,398	-0,135	-0,026
-333,489	99,775	-0,062	-0,052
-332,475	-117,094	-0,044	-0,006
-331,460	-154,216	0,066	0,003
-330,445	-174,229	-0,009	-0,000
-329,431	-200,000	0,043	0,181
-328,416	-10,450	-0,160	0,078
-327,402	763,493	-0,063	0,125
-326,387	171,021	0,131	0,137
-325,372	83,896	-0,068	0,055
-324,358	800,000	-0,023	-0,059
-323,343	138,254	0,043	-0,042
-322,329	-200,000	0,007	0,094
-321,314	-191,573	-0,112	-0,001
-320,299	-85,868	0,138	-0,031
-319,285	-200,000	0,023	0,103
-318,270	-65,728	-0,114	0,033
-317,256	339,015	-0,053	-0,075
-316,241	126,146	0,020	-0,019
-315,226	-128,104	0,115	0,012
-314,212	800,000	-0,049	0,127
-313,197	30,002	0,100	-0,062
-312,183	-95,595	0,103	-0,020
-311,168	-61,835	-0,103	0,031
-310,153	800,000	-0,019	-0,056
-309,139	-102,551	-0,089	-0,015
-308,124	800,000	-0,056	-0,140
-307,110	-200,000	0,005	0,042
-306,095	49,904	-0,027	-0,019
-305,080	-156,913	0,112	0,005
-304,066	131,045	0,093	0,088
-303,051	335,371	-0,084	-0,120
-302,037	-92,639	0,069	-0,014
-301,022	-200,000	-0,021	-0,071
-300,008	-200,000	-0,028	-0,114
-298,993	-67,151	-0,074	-0,021
-297,978	-101,516	0,046	0,008
-296,964	800,000	0,005	-0,015
-295,949	-11,078	-0,121	-0,058
-294,935	157,384	0,036	-0,036
-293,920	-200,000	-0,009	0,122
-292,905	109,152	0,054	0,047
-291,891	-20,569	0,043	0,019
-290,876	-114,490	0,022	0,003
-289,862	-200,000	0,012	-0,048
-288,847	26,211	0,044	0,027
-287,832	183,211	-0,052	-0,056
-286,818	-165,146	0,074	0,002
-285,803	800,000	-0,013	-0,036
-284,789	-87,186	0,064	-0,014
-283,774	-67,854	0,053	0,015
-282,759	197,625	-0,037	-0,041
-281,745	-94,142	0,042	0,008
-280,730	258,175	-0,082	-0,103
-279,716	319,092	0,054	-0,076
-278,701	212,102	0,058	-0,067
-277,686	-81,595	0,176	0,042
-276,672	-33,412	0,046	0,019
-275,657	-50,212	0,087	-0,030
-274,643	-144,977	-0,098	0,006
-273,628	-125,404	-0,058	0,006
-272,613	-116,260	-0,100	0,013
-271,599	447,001	0,065	-0,104
-270,584	68,577	-0,070	0,052
-269,570	141,221	0,047	0,045
-268,555	800,000	-0,038	0,080
-267,540	-200,000	-0,003	-0,047
-266,526	578,311	-0,088	-0,157
-265,511	592,217	0,015	-0,027
-264,497	102,928	0,074	0,063
-263,482	-160,454	0,198	0,008
-262,467	-27,674	0,069	0,029
-261,453	33,110	-0,111	0,070
-260,438	-99,743	0,061	0,011
-259,424	-85,570	-0,039	0,009
-258,409	800,000	-0,051	-0,117
-257,395	114,342	0,024	0,021
-256,380	-80,836	-0,064	0,015
-255,365	-200,000	0,033	0,118
-254,351	79,409	0,178	0,139
-253,336	203,392	-0,073	-0,082
-252,322	-0,198	0,081	-0,042
-251,307	-57,256	0,102	0,032
-250,292	800,000	-0,024	0,067
-249,278	360,726	-0,008	0,011
-248,263	126,590	-0,006	0,006
-247,249	-200,000	0,016	0,103
-246,234	-147,485	-0,142	0,009
-245,219	800,000	0,010	0,026
-244,205	800,000	0,017	0,035
-243,190	-200,000	0,022	-0,074
-242,176	800,000	-0,013	-0,034
-241,161	62,660	0,106	0,078
-240,146	339,835	-0,033	-0,048
-239,132	59,352	-0,118	-0,084
-238,117	800,000	-0,066	-0,204
-237,103	306,034	-0,074	-0,101
-236,088	570,101	0,068	-0,122
-235,073	18,030	0,064	-0,037
-234,059	-200,000	0,017	0,149
-233,044	12,913	-0,140	0,079
-232,030	-200,000	-0,005	-0,095
-231,015	538,307	-0,085	0,147
-230,000	800,000	-0,023	0,062
-228,986	-200,000	0,001	0,024
-227,971	50,381	0,013	0,009
-226,957	643,100	0,046	0,085
-225,942	800,000	-0,027	-0,064
-224,927	32,041	-0,138	0,086
-223,913	8,752	-0,172	0,094
-222,898	-200,000	0,010	-0,138
-221,884	-200,000	-0,020	0,079
-220,869	274,142	-0,046	0,059
-219,855	800,000	0,049	0,106
-218,840	-174,685	0,084	-0,002
-217,825	-200,000	0,026	-0,110
-216,811	-200,000	0,012	0,091
-215,796	669,289	-0,042	-0,079
-214,782	-69,098	0,165	-0,046
-213,767	16,340	-0,121	-0,069
-212,752	-110,636	-0,022	-0,003
-211,738	-200,000	0,013	0,116
-210,723	42,736	-0,141	0,093
-209,709	607,016	-0,004	-0,007
-208,694	114,372	0,064	-0,057
-207,679	35,615	0,162	-0,103
-206,665	-56,256	0,105	0,034
-205,650	134,473	-0,066	0,063
-204,636	135,298	-0,104	-0,098
-203,621	-79,963	0,006	0,001
-202,606	-200,000	-0,024	0,111
-201,592	-131,850	-0,063	0,006
-200,577	-128,618	-0,135	0,014
-199,563	-200,000	0,005	0,054
-198,548	448,779	0,049	-0,079
-197,533	-200,000	-0,008	-0,093
-196,519	-66,547	0,067	0,019
-195,504	232,863	0,024	0,028
-194,490	-41,535	-0,170	-0,063
-193,475	-11,586	-0,097	-0,046
-192,460	181,738	0,104	-0,112
-191,446	-33,364	0,037	0,015
-190,431	63,632	0,088	0,064
-189,417	-7,121	-0,113	0,056
-188,402	-9,044	0,043	-0,021
-187,387	44,290	-0,003	0,002
-186,373	-200,000	-0,029	-0,112
-185,358	-200,000	0,001	-0,031
-184,344	-101,500	0,088	-0,016
-183,329	-200,000	0,014	0,065
-182,315	1,449	-0,073	-0,038
-181,300	-200,000	-0,005	0,050
-180,285	67,216	-0,036	0,027
-179,271	149,169	0,059	-0,058
-178,256	-200,000	0,024	0,122
-177,242	-160,128	-0,063	0,002
-176,227	-93,023	0,142	-0,029
-175,212	-20,860	-0,048	0,021
-174,198	66,905	0,041	0,030
-173,183	-64,735	0,075	-0,022
-172,169	-200,000	-0,012	0,045
-171,154	2,245	0,071	0,037
-170,139	-200,000	0,028	0,128
-169,125	303,523	-0,023	0,031
-168,110	-200,000	0,014	-0,051
-167,096	-44,492	0,121	0,044
-166,081	-70,510	-0,174	0,048
-165,066	80,748	-0,086	0,068
-164,052	-75,992	-0,050	-0,013
-163,037	-200,000	0,010	0,111
-162,023	43,959	-0,101	0,067
-161,008	-101,460	0,067	0,012
-159,993	201,781	-0,030	0,033
-158,979	-6,414	0,080	-0,040
-157,964	16,669	-0,132	-0,076
-156,950	13,545	0,104	0,059
-155,935	-120,533	0,053	0,006
-154,920	-101,061	0,113	0,020
-153,906	-119,616	-0,079	0,010
-152,891	110,433	0,040	-0,035
-151,877	82,747	0,094	-0,074
-150,862	-16,096	-0,139	-0,064
-149,847	-119,115	0,084	0,011
-148,833	800,000	0,067	0,189
-147,818	-200,000	0,002	0,179
-146,804	-85,270	0,189	-0,042
-145,789	-115,452	-0,067	-0,009
-144,775	239,315	-0,021	0,025
-143,760	29,366	-0,086	-0,053
-142,745	-200,000	-0,024	0,079
-141,731	-200,000	-0,000	0,119
-140,716	179,329	0,072	0,077
-139,702	-101,618	0,050	0,009
-138,687	793,942	0,025	0,050
-137,672	28,836	0,051	-0,031
-136,658	467,716	-0,037	0,061
-135,643	-200,000	-0,015	-0,059
-134,629	96,679	-0,077	0,064
-133,614	-84,253	0,184	0,042
-132,599	-200,000	0,014	0,074
-131,585	800,000	0,049	0,103
-130,570	89,176	-0,088	-0,071
-129,556	-123,951	-0,095	-0,011
-128,541	-97,690	-0,165	-0,031
-127,526	-58,687	0,029	0,009
-126,512	89,740	0,043	-0,035
-125,497	-64,092	0,065	0,019
-124,483	69,267	0,079	0,059
-123,468	215,903	-0,026	-0,030
-122,453	800,000	0,051	-0,147
-121,439	144,432	-0,092	0,090
-120,424	8,583	0,080	0,044
-119,410	-40,743	0,078	-0,029
-118,395	-128,951	-0,109	0,011
-117,380	-60,937	-0,123	0,038
-116,366	314,327	0,036	0,049
-115,351	-72,189	-0,055	0,015
-114,337	-6,422	0,132	0,065
-113,322	175,549	-0,050	0,052
-112,307	800,000	0,036	0,099
-111,293	-172,006	-0,041	-0,001
-110,278	-10,122	-0,081	-0,039
-109,264	-30,819	0,086	0,035
-108,249	8,043	-0,131	-0,071
-107,234	310,245	-0,047	0,064
-106,220	5,082	-0,191	-0,102
-105,205	160,681	0,021	0,021
-104,191	-23,600	-0,071	0,031
-103,176	60,197	0,100	-0,072
-102,162	800,000	0,068	-0,141
-101,147	-16,482	-0,082	-0,038
-100,132	17,715	-0,030	-0,017
-99,118	248,576	-0,075	-0,093
-98,103	-56,290	0,174	-0,056
-97,089	39,882	-0,069	-0,045
-96,074	600,301	0,048	0,087
-95,059	140,494	0,115	0,111
-94,045	-64,358	-0,195	0,057
-93,030	800,000	-0,031	-0,075
-92,016	800,000	-0,031	-0,085
-91,001	59,299	-0,023	-0,016
-89,986	-200,000	0,088	0,000
-88,972	-42,872	0,096	-0,035
-87,957	-68,370	-0,131	0,037
-86,943	46,019	0,141	-0,094
-85,928	204,550	-0,065	-0,073
-84,913	-200,000	0,020	0,143
-83,899	-200,000	-0,019	0,172
-82,884	164,170	-0,053	-0,054
-81,870	69,137	-0,126	0,094
-80,855	-200,000	0,013	-0,095
-79,840	-24,467	-0,052	0,022
-78,826	-69,998	-0,099	0,027
-77,811	800,000	0,014	-0,034
-76,797	-200,000	0,013	-0,257
-75,782	800,000	0,041	0,130
-74,767	-11,551	0,067	-0,032
-73,753	-200,000	-0,036	0,151
-72,738	98,986	0,034	-0,028
-71,724	-26,515	-0,181	0,077
-70,709	-200,000	-0,001	-0,035
-69,694	-81,485	-0,062	-0,015
-68,680	187,591	-0,041	0,045
-67,665	-133,932	-0,023	0,002
-66,651	800,000	0,038	0,098
-65,636	-200,000	0,007	-0,076
-64,622	-55,741	-0,130	0,042
-63,607	112,381	-0,042	0,037
-62,592	-200,000	0,019	0,099
-61,578	-36,115	-0,035	0,013
-60,563	73,505	0,151	0,114
-59,549	-200,000	-0,006	0,154
-58,534	-67,774	-1,417	-0,399
-57,519	583,772	-0,740	-1,323
-56,505	-200,000	-0,980	-4,526
-55,490	6,625	0,651	-0,350
-54,476	800,000	5,115	11,715
-53,461	-200,000	14,165	254,304
-52,446	-200,000	696,400	2230,736
-51,432	566,127	1624,708	2867,398
-50,417	116,854	1630,812	1450,541
-49,403	72,968	1284,554	971,358
-48,388	37,406	1022,196	655,268
-47,373	23,622	980,793	583,473
-46,359	22,850	970,273	574,663
-45,344	21,872	965,815	568,811
-44,330	21,802	964,366	567,707
-43,315	21,675	962,964	566,446
-42,300	21,683	961,945	565,853
-41,286	21,625	960,966	565,064
-40,271	21,634	959,890	564,440
-39,257	21,646	958,895	563,870
-38,242	21,610	958,095	563,261
-37,227	21,594	957,281	562,708
-36,213	21,586	956,273	562,067
-35,198	21,557	955,580	561,545
-34,184	21,645	954,937	561,428
-33,169	21,595	953,841	560,599
-32,154	21,662	953,091	560,352
-31,140	21,639	952,206	559,736
-30,125	21,670	951,454	559,372
-29,111	21,601	950,804	558,746
-28,096	21,666	949,772	558,325
-27,082	21,633	949,243	557,887
-26,067	21,648	948,365	557,397
-25,052	21,686	947,687	557,098
-24,038	21,623	947,328	556,662
-23,023	21,647	946,451	556,201
-22,009	21,753	945,684	556,067
-20,994	21,674	945,166	555,488
-19,979	21,671	944,492	555,062
-18,965	21,626	943,869	554,529
-17,950	21,710	943,230	554,399
-16,936	21,625	942,700	553,795
-15,921	21,577	941,913	553,159
-14,906	21,515	941,300	552,581
-13,892	21,516	940,651	552,180
-12,877	21,566	939,985	551,926
-11,863	21,522	939,267	551,344
-10,848	21,537	938,889	551,146
-9,833	21,574	938,559	551,049
-8,819	21,630	937,807	550,763
-7,804	21,531	937,218	550,083
-6,790	21,489	936,523	549,518
-5,775	21,555	935,844	549,307
-4,760	21,517	935,363	548,884
-3,746	21,480	934,709	548,363
-2,731	21,381	934,036	547,634
-1,717	21,305	933,316	546,950
-0,702	21,276	932,731	546,495
0,313	21,156	931,756	546,370
1,327	24,037	930,113	554,399
2,342	33,147	793,623	497,233
3,356	30,675	450,831	278,716
4,371	0,666	294,980	152,299
5,386	-3,744	276,036	138,316
6,400	-4,907	270,343	134,367
7,415	-5,130	267,883	132,927
8,429	-4,990	266,782	132,497
9,444	-4,981	265,823	132,018
10,459	-4,978	265,268	131,734
11,473	-4,961	264,585	131,398
12,488	-5,014	264,132	131,113
13,502	-5,454	263,708	130,491
14,517	-5,310	263,178	130,347
15,531	-5,086	262,753	130,329
16,546	-5,227	262,281	129,955
17,561	-5,289	262,161	129,828
18,575	-5,118	261,777	129,780
19,590	-5,388	261,462	129,369
20,604	-4,963	261,025	129,524
21,619	-5,137	260,797	129,243
22,634	-5,275	260,408	128,915
23,648	-5,405	260,129	128,649
24,663	-5,265	259,909	128,654
25,677	-5,362	259,635	128,420
26,692	-5,218	259,286	128,364
27,707	-5,260	259,235	128,290
28,721	-5,190	258,803	128,127
29,736	-5,382	258,650	127,869
30,750	-5,236	258,384	127,856
31,765	-5,386	258,180	127,610
32,780	-5,211	257,880	127,607
33,794	-5,197	257,626	127,481
34,809	-5,345	257,264	127,160
35,823	-5,266	257,128	127,152
36,838	-5,373	256,970	126,967
37,853	-5,254	256,664	126,910
38,867	-5,376	256,470	126,695
39,882	-5,398	256,288	126,575
40,896	-5,254	256,004	126,549
41,911	-5,365	255,779	126,329
42,926	-5,414	255,601	126,187
43,940	-5,425	255,317	126,026
44,955	-5,390	255,107	125,942
45,969	-5,656	254,911	125,601
46,984	-5,674	254,648	125,444
47,999	-5,868	254,331	125,107
49,013	-5,915	254,190	124,986
50,028	-6,007	253,872	124,738
51,042	-6,147	253,563	124,453
52,057	-6,114	253,400	124,391
53,071	-6,031	253,221	124,364
54,086	-5,978	253,172	124,375
55,101	-5,820	252,897	124,366
56,115	-5,700	252,707	124,366
57,130	-5,249	252,777	124,781
58,144	-5,129	252,658	124,815
59,159	-5,082	252,314	124,675
60,174	-5,084	251,979	124,496
61,188	-5,359	251,943	124,230
62,203	-5,369	251,781	124,130
63,217	-5,096	251,416	124,174
64,232	-5,151	251,273	124,045
65,247	-5,253	251,096	123,859
66,261	-5,218	250,786	123,725
67,276	-5,473	250,505	123,356
68,290	-5,562	250,253	123,145
69,305	-5,799	250,060	122,836
70,320	-5,730	250,071	122,890
71,334	-5,379	249,674	122,984
72,349	-5,140	249,637	123,159
73,363	-5,076	249,343	123,057
74,378	-5,135	249,215	122,933
75,393	-5,341	248,975	122,628
76,407	-5,271	248,869	122,625
77,422	-5,330	248,647	122,454
78,436	-5,150	248,467	122,508
79,451	-5,216	248,227	122,323
80,466	-5,112	247,846	122,212
81,480	-5,365	247,678	121,903
82,495	-5,423	247,448	121,730
83,509	-5,446	247,397	121,674
84,524	-5,515	247,179	121,499
85,539	-5,713	247,068	121,265
86,553	-5,715	246,847	121,145
87,568	-5,473	246,514	121,174
88,582	-5,394	246,274	121,113
89,597	-5,531	246,236	120,967
90,611	-5,491	246,125	120,936
91,626	-5,364	245,932	120,937
92,641	-5,190	245,553	120,886
93,655	-5,397	245,608	120,729
94,670	-5,308	245,255	120,619
95,684	-5,307	245,028	120,497
96,699	-5,205	245,028	120,572
97,714	-5,620	244,780	120,091
98,728	-5,510	244,471	120,021
99,743	-5,684	244,263	119,763
100,757	-5,362	244,034	119,909
101,772	-5,464	243,966	119,780
102,787	-5,391	243,698	119,698
103,801	-5,437	243,639	119,620
104,816	-5,299	243,474	119,644
105,830	-5,186	243,392	119,687
106,845	-5,316	243,174	119,460
107,860	-5,040	242,817	119,504
108,874	-5,412	242,655	119,105
109,889	-5,533	242,376	118,857
110,903	-5,345	242,264	118,947
111,918	-5,335	242,168	118,898
112,933	-5,192	241,975	118,910
113,947	-5,384	241,884	118,696
114,962	-5,192	241,597	118,703
115,976	-5,466	241,330	118,336
116,991	-5,393	241,368	118,405
118,006	-5,268	241,247	118,438
119,020	-5,398	241,026	118,211
120,035	-5,428	241,039	118,182
121,049	-5,224	240,701	118,174
122,064	-5,305	240,513	118,005
123,079	-5,415	240,454	117,875
124,093	-5,299	240,147	117,809
125,108	-5,521	239,906	117,498
126,122	-5,768	239,645	117,158
127,137	-5,695	239,516	117,144
128,151	-5,623	239,399	117,135
129,166	-5,374	239,154	117,208
130,181	-5,645	239,100	116,950
131,195	-5,532	238,795	116,882
132,210	-5,686	238,701	116,701
133,224	-5,263	238,585	116,977
134,239	-5,351	238,457	116,833
135,254	-5,309	238,391	116,824
136,268	-5,535	238,020	116,449
137,283	-5,427	237,814	116,425
138,297	-5,642	237,562	116,117
139,312	-5,809	237,458	115,921
140,327	-5,356	237,268	116,184
141,341	-5,161	237,416	116,404
142,356	-4,979	237,121	116,396
143,370	-4,977	236,928	116,292
144,385	-5,090	236,807	116,132
145,400	-5,112	236,718	116,059
146,414	-4,867	236,456	116,119
147,429	-5,017	236,317	115,919
148,443	-5,106	236,067	115,715
149,458	-5,187	236,087	115,649
150,473	-4,957	235,783	115,674
151,487	-4,971	235,613	115,569
152,502	-4,980	235,395	115,445
153,516	-5,163	235,218	115,201
154,531	-5,132	235,089	115,153
155,546	-4,948	234,868	115,181
156,560	-5,043	234,703	115,015
157,575	-5,213	234,399	114,720
158,589	-5,187	234,228	114,647
159,604	-4,836	234,217	114,910
160,619	-4,990	234,061	114,701
161,633	-5,080	233,964	114,571
162,648	-5,113	233,894	114,500
163,662	-5,030	233,581	114,404
164,677	-5,164	233,404	114,200
165,692	-4,942	233,340	114,334
166,706	-4,994	233,352	114,289
167,721	-4,797	232,863	114,195
168,735	-4,942	232,889	114,083
169,750	-4,800	232,680	114,083
170,764	-5,027	232,636	113,872
171,779	-5,093	232,415	113,701
172,794	-4,830	232,266	113,826
173,808	-5,100	232,013	113,479
174,823	-5,325	231,686	113,132
175,837	-5,542	231,501	112,861
176,852	-5,214	231,448	113,082
177,867	-5,058	231,428	113,185
178,881	-5,248	231,401	113,012
179,896	-4,965	231,188	113,121
180,910	-4,973	231,031	113,027
181,925	-4,736	230,821	113,101
182,940	-4,794	230,543	112,908
183,954	-4,809	230,436	112,835
184,969	-4,835	230,445	112,808
185,983	-4,699	230,178	112,774
186,998	-4,761	230,023	112,640
188,013	-4,657	229,862	112,632
189,027	-4,887	229,687	112,357
190,042	-4,578	229,556	112,523
191,056	-4,638	229,500	112,439
192,071	-4,690	229,233	112,258
193,086	-4,750	229,201	112,186
194,100	-4,828	228,850	111,943
195,115	-4,912	228,697	111,793
196,129	-5,248	228,565	111,458
197,144	-2,357	229,391	114,099
198,159	1,960	230,587	118,049
199,173	3,736	231,009	119,639
200,188	4,046	230,914	119,820
201,202	3,969	230,902	119,743
202,217	3,899	230,786	119,618
203,232	4,401	230,652	119,928
204,246	4,489	230,417	119,863
205,261	4,576	230,298	119,858
206,275	4,569	230,287	119,837
207,290	4,503	230,189	119,724
208,304	4,580	229,944	119,646
209,319	4,414	229,734	119,397
210,334	4,625	229,593	119,476
211,348	4,245	229,331	119,036
212,363	3,895	229,165	118,669
213,377	3,732	228,834	118,361
214,392	3,630	228,549	118,125
215,407	3,937	228,571	118,362
216,421	3,802	228,379	118,148
217,436	3,872	228,304	118,153
218,450	3,581	227,934	117,728
219,465	3,401	227,872	117,547
220,480	3,332	227,773	117,433
221,494	3,424	227,594	117,400
222,509	3,747	227,468	117,572
223,523	3,638	227,427	117,456
224,538	3,499	227,257	117,252
225,553	3,584	227,107	117,229
226,567	3,522	227,044	117,139
227,582	3,856	226,934	117,327
228,596	3,989	226,944	117,423
229,611	3,900	226,594	117,164
230,626	3,453	226,222	116,621
231,640	3,631	226,164	116,716
232,655	3,902	226,281	116,972
233,669	4,266	226,092	117,140
234,684	4,435	225,949	117,185
235,699	3,977	225,812	116,755
236,713	3,684	225,620	116,424
237,728	3,995	225,285	116,475
238,742	3,672	225,142	116,146
239,757	3,576	225,075	116,030
240,772	3,892	224,882	116,158
241,786	3,456	224,628	115,687
242,801	3,927	224,701	116,070
243,815	3,885	224,730	116,043
244,830	4,028	224,437	115,990
245,844	3,887	224,229	115,766
246,859	3,631	223,981	115,435
247,874	3,855	223,950	115,576
248,888	4,000	223,785	115,591
249,903	3,827	223,511	115,309
250,917	3,787	223,499	115,262
251,932	3,666	223,309	115,063
252,947	3,683	223,023	114,918
253,961	3,718	222,967	114,905
254,976	3,544	222,782	114,669
255,990	3,866	222,724	114,870
257,005	3,951	222,517	114,817
258,020	3,974	222,475	114,802
259,034	4,175	222,444	114,926
260,049	3,823	222,280	114,568
261,063	4,070	222,046	114,621
262,078	3,953	221,960	114,480
263,093	4,229	221,781	114,582
264,107	4,007	221,551	114,289
265,122	4,104	221,288	114,215
266,136	4,060	221,531	114,297
267,151	4,115	221,248	114,182
268,166	3,897	220,987	113,875
269,180	3,673	220,712	113,558
270,195	3,567	220,634	113,429
271,209	3,573	220,565	113,388
272,224	3,641	220,415	113,351
273,239	3,716	220,287	113,330
274,253	3,678	220,138	113,216
275,268	3,485	219,846	112,913
276,282	3,543	219,795	112,920
277,297	3,626	219,623	112,882
278,312	3,594	219,418	112,743
279,326	3,624	219,369	112,730
280,341	3,734	219,203	112,715
281,355	4,148	219,102	112,957
282,370	3,896	218,986	112,703
283,384	3,450	218,735	112,237
284,399	3,416	218,669	112,168
285,414	3,603	218,504	112,211
286,428	3,757	218,433	112,276
287,443	3,925	218,433	112,389
288,457	4,016	218,295	112,374
289,472	3,661	218,055	111,982
290,487	3,279	217,705	111,514
291,501	3,144	217,563	111,333
292,516	3,285	217,471	111,379
293,530	3,430	217,370	111,422
294,545	3,277	217,376	111,304
295,560	3,678	217,067	111,427
296,574	3,592	216,999	111,320
297,589	3,546	216,906	111,229
298,603	3,956	216,807	111,465
299,618	3,923	216,625	111,338
300,633	3,481	216,642	111,017
301,647	4,007	216,483	111,306
302,662	4,123	216,281	111,276
303,676	4,112	216,257	111,246
304,691	4,054	216,126	111,126
305,706	4,077	215,871	111,002
306,720	4,119	215,734	110,952
307,735	3,990	215,503	110,730
308,749	3,676	215,316	110,399
309,764	4,029	215,252	110,610
310,779	4,034	215,125	110,538
311,793	4,010	214,877	110,384
312,808	3,888	214,894	110,295
313,822	3,767	214,851	110,176
314,837	3,876	214,623	110,128
315,852	3,338	214,484	109,661
316,866	3,507	214,383	109,721
317,881	4,054	214,285	110,052
318,895	3,866	213,930	109,726
319,910	3,788	213,848	109,618
320,925	3,518	213,689	109,335
321,939	3,078	213,481	108,905
322,954	3,382	213,358	109,049
323,968	3,864	213,307	109,356
324,983	3,913	213,173	109,312
325,997	4,147	213,118	109,441
327,012	3,876	212,977	109,166
328,027	3,853	212,893	109,098
329,041	4,172	212,801	109,267
330,056	4,006	212,819	109,148
331,070	4,117	212,394	108,999
332,085	3,707	212,068	108,533
333,100	3,484	212,131	108,397
334,114	3,834	212,011	108,574
335,129	3,690	211,773	108,340
336,143	3,511	211,654	108,144
337,158	3,595	211,517	108,123
338,173	3,634	211,388	108,075
339,187	3,528	211,236	107,913
340,202	3,471	211,037	107,762
341,216	3,231	210,953	107,541
342,231	3,311	210,856	107,537
343,246	3,462	210,559	107,483
344,260	3,616	210,617	107,611
345,275	3,768	210,622	107,710
346,289	3,826	210,285	107,569
347,304	3,881	210,302	107,606
348,319	3,631	210,147	107,342
349,333	3,416	210,076	107,146
350,348	3,753	209,769	107,215
351,362	3,912	209,774	107,320
352,377	4,001	209,663	107,315
353,392	3,713	209,504	107,023
354,406	3,702	209,455	106,981
355,421	193,155	1345,506	1429,605
356,435	154,118	1484,004	1429,718
