DTS Sentinel unit serial number:	SN410029Multiplexer serial number:	ORYXHardware model number:	OX2-SRSoftware version number:	ORYX F/W v4,00 Oryx Data Collector v3.7.2.0data status	okinstallation	B6 Nyhavnadifferential loss correction	single-endedforward channel	channel 2reverse channel	N/Adate	2023/12/08time	06:20:08forward acquisition time	300,00reverse acquisition time	0,00gamma	499,1914k internal	0,3165k external	0,3165temperature offset calibration	1,0000default loss term (dB/km)	0,3820temperature slope calibration	1,0000multiplexer offset coefficient	1,0000multiplexer slope coefficient	1,0000fibre end	0,00T internal ref (°C)	13,00T ext. ref 1 (°C)	-3,78T ext. ref 2 (°C)	-3,80length (m)	temperature (°C)	Stokes	anti-Stokes-744,400	-119,254	0,047	0,006
-743,385	-110,285	-0,299	0,045
-742,371	-200,000	0,043	0,172
-741,356	-73,015	-0,277	-0,074
-740,342	458,778	0,117	0,191
-739,327	-20,097	-0,324	-0,146
-738,312	-94,926	0,140	0,028
-737,298	-39,566	-0,324	-0,124
-736,283	-24,425	0,209	0,091
-735,269	-106,705	-0,337	0,055
-734,254	48,534	0,106	0,073
-733,239	-24,493	-0,465	-0,203
-732,225	45,579	0,065	0,044
-731,210	-200,000	-0,027	0,117
-730,196	34,063	0,037	-0,024
-729,181	-26,889	-0,121	-0,052
-728,167	-200,000	0,004	-0,091
-727,152	79,347	0,030	0,023
-726,137	266,798	-0,124	-0,160
-725,123	800,000	-0,049	-0,114
-724,108	64,120	-0,162	-0,120
-723,094	-19,323	-0,158	-0,072
-722,079	-94,142	-0,120	0,024
-721,064	241,827	0,063	0,077
-720,050	-200,000	0,008	0,065
-719,035	-71,612	0,065	-0,018
-718,021	83,905	-0,082	-0,065
-717,006	-200,000	-0,008	-0,186
-715,991	800,000	-0,049	-0,110
-714,977	100,910	0,107	0,091
-713,962	11,334	-0,077	-0,043
-712,948	-60,833	0,098	-0,030
-711,933	8,692	-0,039	0,022
-710,918	82,615	-0,030	-0,024
-709,904	105,635	-0,085	-0,074
-708,889	124,470	-0,055	0,051
-707,875	144,160	-0,066	-0,064
-706,860	68,815	-0,096	-0,072
-705,845	53,547	0,034	-0,024
-704,831	-200,000	-0,020	0,090
-703,816	-200,000	-0,026	-0,182
-702,802	182,615	-0,089	0,096
-701,787	-38,826	-0,136	-0,052
-700,772	800,000	0,066	-0,154
-699,758	-119,770	-0,037	0,005
-698,743	-200,000	-0,014	0,048
-697,729	-200,000	0,007	0,046
-696,714	-77,927	0,032	-0,008
-695,699	289,400	-0,071	0,095
-694,685	-98,549	0,020	-0,004
-693,670	-200,000	-0,033	0,110
-692,656	-200,000	0,000	-0,010
-691,641	292,583	0,011	-0,015
-690,627	-11,132	0,086	-0,042
-689,612	800,000	-0,066	0,160
-688,597	-71,830	0,057	-0,016
-687,583	144,645	0,013	-0,013
-686,568	-134,743	-0,060	-0,005
-685,554	-6,792	0,038	-0,019
-684,539	467,838	0,033	-0,054
-683,524	210,593	-0,071	-0,082
-682,510	-0,139	-0,160	-0,083
-681,495	-106,319	-0,117	-0,019
-680,481	54,610	-0,152	-0,108
-679,466	800,000	-0,012	-0,030
-678,451	640,471	0,019	0,036
-677,437	-200,000	-0,000	-0,023
-676,422	-200,000	-0,012	-0,042
-675,408	155,078	0,065	-0,065
-674,393	-149,022	-0,099	0,006
-673,378	190,863	-0,077	0,085
-672,364	-165,050	-0,054	0,002
-671,349	215,171	-0,041	-0,047
-670,335	76,766	0,083	-0,064
-669,320	42,947	-0,030	-0,020
-668,305	54,306	-0,054	0,038
-667,291	106,100	0,053	-0,046
-666,276	-52,633	0,061	-0,021
-665,262	108,837	-0,106	0,093
-664,247	-5,263	0,037	-0,018
-663,232	17,548	0,022	0,013
-662,218	800,000	0,025	0,057
-661,203	800,000	0,073	0,207
-660,189	-200,000	0,014	0,057
-659,174	-42,092	-0,097	-0,036
-658,159	-55,733	-0,074	-0,024
-657,145	-90,587	0,045	0,009
-656,130	800,000	0,036	-0,087
-655,116	-54,589	0,020	0,006
-654,101	-64,922	0,048	-0,014
-653,086	-200,000	0,019	-0,130
-652,072	70,498	-0,102	-0,077
-651,057	800,000	-0,055	-0,115
-650,043	582,959	0,055	-0,100
-649,028	126,094	-0,069	-0,064
-648,014	-139,807	0,075	-0,006
-646,999	800,000	-0,069	-0,177
-645,984	-4,444	0,086	-0,043
-644,970	-10,302	-0,094	-0,046
-643,955	-17,786	-0,155	-0,071
-642,941	495,262	-0,055	-0,093
-641,926	-103,501	0,058	-0,010
-640,911	-77,508	-0,117	-0,030
-639,897	-171,574	0,064	0,002
-638,882	26,268	-0,060	-0,037
-637,868	23,516	0,030	-0,018
-636,853	6,595	-0,036	-0,019
-635,838	-200,000	-0,006	-0,100
-634,824	800,000	0,027	-0,079
-633,809	-197,074	0,141	0,001
-632,795	533,808	0,095	0,165
-631,780	-156,330	-0,137	-0,006
-630,765	-200,000	-0,014	-0,099
-629,751	95,445	0,023	-0,019
-628,736	-200,000	0,026	-0,118
-627,722	-158,235	-0,085	0,004
-626,707	-200,000	-0,002	-0,053
-625,692	655,463	0,038	-0,071
-624,678	-4,895	0,042	-0,021
-623,663	62,102	-0,038	-0,028
-622,649	346,955	-0,019	-0,027
-621,634	60,257	-0,053	0,038
-620,619	415,392	0,045	0,070
-619,605	800,000	-0,058	0,133
-618,590	-45,503	0,106	-0,038
-617,576	-81,222	0,051	-0,012
-616,561	-39,632	-0,021	-0,008
-615,546	336,804	-0,079	0,112
-614,532	-108,945	-0,127	-0,020
-613,517	313,596	-0,041	-0,057
-612,503	-200,000	0,013	0,067
-611,488	-200,000	0,023	0,150
-610,474	800,000	0,014	0,031
-609,459	-118,911	-0,167	0,021
-608,444	371,562	-0,019	0,028
-607,430	-200,000	-0,007	-0,062
-606,415	800,000	0,012	0,040
-605,401	89,734	0,103	0,084
-604,386	1,803	0,199	0,104
-603,371	469,984	-0,037	-0,061
-602,357	57,960	0,043	-0,031
-601,342	-200,000	-0,005	0,025
-600,328	-31,692	0,075	-0,031
-599,313	-200,000	0,001	-0,131
-598,298	157,287	-0,037	0,037
-597,284	800,000	-0,023	-0,051
-596,269	800,000	0,058	0,170
-595,255	-200,000	0,000	-0,138
-594,240	31,737	0,035	-0,022
-593,225	-1,764	-0,135	-0,069
-592,211	-145,503	-0,113	0,007
-591,196	195,906	-0,014	0,015
-590,182	-56,617	0,176	0,057
-589,167	253,092	0,053	0,066
-588,152	800,000	-0,045	0,124
-587,138	-91,315	0,081	0,017
-586,123	423,005	-0,098	-0,154
-585,109	129,611	0,050	0,047
-584,094	111,558	-0,077	-0,068
-583,079	51,076	-0,077	-0,053
-582,065	-28,022	0,155	0,065
-581,050	-148,973	0,129	0,007
-580,036	-46,531	0,057	0,020
-579,021	-200,000	0,014	-0,100
-578,006	45,151	-0,048	-0,032
-576,992	-200,000	0,009	0,052
-575,977	-0,359	-0,054	-0,028
-574,963	-200,000	0,038	0,143
-573,948	-21,458	0,131	0,058
-572,934	124,946	-0,024	0,022
-571,919	614,099	-0,099	0,181
-570,904	324,460	0,019	0,027
-569,890	464,189	-0,024	-0,039
-568,875	256,310	-0,088	-0,110
-567,861	-200,000	0,041	0,140
-566,846	-157,406	-0,115	-0,005
-565,831	22,813	-0,145	-0,087
-564,817	-200,000	-0,010	-0,055
-563,802	77,519	-0,145	0,113
-562,788	775,203	0,035	-0,071
-561,773	-200,000	-0,013	-0,094
-560,758	800,000	-0,011	0,027
-559,744	-197,663	0,114	0,000
-558,729	-60,978	-0,088	0,027
-557,715	125,192	0,047	-0,043
-556,700	-200,000	0,007	0,143
-555,685	489,266	0,038	-0,063
-554,671	-128,618	-0,107	0,011
-553,656	800,000	-0,010	-0,022
-552,642	-200,000	0,009	0,043
-551,627	82,089	0,058	0,046
-550,612	91,694	-0,009	-0,007
-549,598	-5,222	0,049	-0,025
-548,583	-106,427	-0,118	0,019
-547,569	-200,000	0,017	0,073
-546,554	-200,000	-0,026	0,145
-545,539	-85,191	-0,051	0,012
-544,525	800,000	0,025	0,061
-543,510	31,181	-0,081	0,050
-542,496	123,399	0,022	0,020
-541,481	61,501	-0,024	-0,017
-540,466	221,149	-0,048	0,057
-539,452	682,694	0,068	0,130
-538,437	800,000	0,003	0,007
-537,423	28,684	0,045	0,028
-536,408	-69,453	-0,044	-0,012
-535,393	454,346	-0,062	-0,101
-534,379	60,289	-0,108	-0,078
-533,364	800,000	-0,042	0,097
-532,350	471,938	0,064	0,105
-531,335	-200,000	-0,011	-0,087
-530,321	76,055	0,090	-0,070
-529,306	184,298	0,066	0,072
-528,291	103,856	-0,154	0,132
-527,277	283,266	-0,047	0,061
-526,262	-100,266	-0,048	-0,009
-525,248	-14,447	-0,132	-0,062
-524,233	-200,000	-0,012	0,118
-523,218	365,445	-0,024	0,035
-522,204	-200,000	0,014	0,137
-521,189	-57,866	-0,226	-0,072
-520,175	-146,903	-0,070	0,004
-519,160	12,587	0,165	0,092
-518,145	566,502	0,059	-0,105
-517,131	-81,115	0,128	0,031
-516,116	800,000	-0,019	0,042
-515,102	-36,969	-0,041	-0,016
-514,087	84,746	0,049	-0,039
-513,072	-200,000	-0,021	-0,086
-512,058	-200,000	-0,011	0,052
-511,043	39,762	0,063	-0,041
-510,029	77,394	0,087	-0,067
-509,014	106,735	0,022	-0,019
-507,999	321,924	0,008	-0,011
-506,985	800,000	-0,012	0,035
-505,970	800,000	-0,060	-0,136
-504,956	27,774	-0,146	-0,090
-503,941	-86,302	0,097	0,021
-502,926	-200,000	0,017	0,140
-501,912	-81,805	-0,048	-0,011
-500,897	-10,464	0,075	0,036
-499,883	-171,837	-0,060	0,001
-498,868	91,567	-0,086	-0,070
-497,853	800,000	0,017	0,038
-496,839	198,870	-0,087	-0,097
-495,824	25,760	0,114	-0,069
-494,810	31,828	0,029	-0,018
-493,795	-200,000	0,003	-0,025
-492,781	60,917	0,070	-0,050
-491,766	-9,151	-0,028	0,013
-490,751	152,472	-0,086	-0,086
-489,737	100,361	-0,064	0,054
-488,722	-200,000	0,021	0,074
-487,708	-131,012	-0,064	-0,006
-486,693	-200,000	-0,008	-0,198
-485,678	43,411	-0,117	-0,077
-484,664	-200,000	0,015	-0,078
-483,649	800,000	0,014	-0,029
-482,635	-200,000	0,047	-0,213
-481,620	44,841	-0,035	-0,023
-480,605	-98,062	0,060	0,011
-479,591	787,852	-0,041	0,083
-478,576	800,000	-0,030	0,082
-477,562	-51,952	0,108	0,036
-476,547	-44,178	-0,093	0,034
-475,532	800,000	-0,031	-0,095
-474,518	800,000	0,045	0,093
-473,503	608,529	0,031	0,057
-472,489	-200,000	-0,016	-0,059
-471,474	-164,882	0,051	0,002
-470,459	-82,077	-0,064	0,015
-469,445	800,000	-0,057	-0,136
-468,430	800,000	-0,075	-0,160
-467,416	95,205	0,157	0,130
-466,401	-142,888	0,086	0,006
-465,386	532,884	0,034	0,058
-464,372	800,000	0,024	-0,054
-463,357	-200,000	-0,055	-0,215
-462,343	236,329	-0,148	0,178
-461,328	-200,000	-0,003	-0,022
-460,313	-200,000	0,035	0,148
-459,299	-200,000	0,035	0,136
-458,284	48,326	0,023	0,016
-457,270	-44,349	0,143	0,052
-456,255	23,109	-0,153	-0,091
-455,241	15,700	0,094	-0,054
-454,226	-34,846	0,088	-0,035
-453,211	-17,873	0,040	0,018
-452,197	120,599	0,082	-0,074
-451,182	-161,252	0,023	-0,001
-450,168	-200,000	0,008	0,108
-449,153	29,568	-0,088	-0,054
-448,138	436,623	-0,063	-0,099
-447,124	-200,000	-0,003	-0,029
-446,109	-200,000	0,016	0,061
-445,095	50,404	0,037	0,025
-444,080	-12,052	0,069	-0,033
-443,065	654,571	0,027	0,050
-442,051	800,000	0,076	-0,162
-441,036	-200,000	0,035	-0,146
-440,022	-200,000	-0,030	0,162
-439,007	342,439	0,043	0,061
-437,992	2,820	0,041	0,021
-436,978	142,511	0,077	0,074
-435,963	-121,455	-0,057	0,007
-434,949	-200,000	0,015	0,122
-433,934	87,200	0,067	0,054
-432,919	116,126	0,036	-0,032
-431,905	486,513	-0,031	-0,051
-430,890	-200,000	-0,009	0,062
-429,876	-200,000	0,014	0,205
-428,861	226,385	0,043	0,051
-427,846	24,545	-0,057	-0,034
-426,832	-200,000	-0,017	-0,066
-425,817	-200,000	-0,040	0,138
-424,803	800,000	-0,022	0,052
-423,788	148,973	0,059	-0,058
-422,773	800,000	0,063	0,184
-421,759	43,911	0,061	-0,041
-420,744	800,000	-0,035	0,106
-419,730	-200,000	0,007	0,040
-418,715	-2,555	-0,068	-0,034
-417,701	800,000	0,029	-0,079
-416,686	57,139	-0,092	0,065
-415,671	415,739	0,136	0,211
-414,657	358,423	-0,034	-0,049
-413,642	-105,805	0,084	-0,014
-412,628	-86,583	0,100	0,022
-411,613	313,319	-0,023	-0,031
-410,598	-121,391	0,050	-0,006
-409,584	42,097	0,034	-0,022
-408,569	-2,184	-0,044	0,022
-407,555	-162,705	0,057	-0,002
-406,540	184,100	-0,098	-0,105
-405,525	-200,000	-0,002	0,033
-404,511	-53,176	0,043	-0,014
-403,496	-39,500	-0,103	0,039
-402,482	147,792	0,064	-0,063
-401,467	-141,676	0,055	0,004
-400,452	-184,271	-0,139	-0,002
-399,438	509,952	0,006	0,009
-398,423	73,036	0,104	0,079
-397,409	-8,739	-0,106	-0,051
-396,394	50,062	0,114	-0,078
-395,379	800,000	0,057	-0,129
-394,365	216,369	0,034	-0,040
-393,350	696,878	-0,036	-0,068
-392,336	-92,134	-0,090	0,018
-391,321	-100,378	-0,091	0,016
-390,306	-16,030	-0,083	-0,038
-389,292	-52,522	0,067	0,022
-388,277	-30,548	0,214	0,088
-387,263	157,541	-0,050	0,050
-386,248	800,000	0,040	-0,107
-385,233	61,876	0,055	0,040
-384,219	-200,000	0,030	-0,130
-383,204	800,000	0,048	-0,135
-382,190	800,000	-0,009	0,022
-381,175	224,851	-0,044	-0,052
-380,160	-64,202	0,147	0,043
-379,146	686,174	0,077	0,147
-378,131	12,696	-0,141	-0,079
-377,117	-104,878	-0,075	-0,012
-376,102	26,521	0,026	0,016
-375,088	-21,888	0,134	-0,059
-374,073	800,000	0,041	-0,090
-373,058	452,361	-0,007	-0,011
-372,044	-200,000	0,035	-0,136
-371,029	69,785	0,130	0,097
-370,015	-128,127	0,037	0,004
-369,000	800,000	-0,022	-0,046
-367,985	71,197	-0,073	0,055
-366,971	330,243	-0,053	0,075
-365,956	800,000	0,028	-0,064
-364,942	265,024	0,121	0,153
-363,927	-200,000	0,006	-0,078
-362,912	-200,000	0,017	-0,112
-361,898	-200,000	0,010	-0,095
-360,883	-200,000	0,006	-0,084
-359,869	800,000	-0,025	-0,057
-358,854	210,753	-0,108	0,123
-357,839	128,838	-0,139	0,128
-356,825	-83,199	0,113	0,026
-355,810	161,926	-0,046	-0,046
-354,796	120,090	-0,094	0,084
-353,781	-60,555	-0,042	-0,013
-352,766	-70,028	0,036	0,010
-351,752	-60,944	-0,122	0,037
-350,737	241,347	0,080	0,097
-349,723	605,824	0,039	0,071
-348,708	70,194	0,023	-0,017
-347,693	384,748	-0,049	0,073
-346,679	-77,743	-0,084	-0,021
-345,664	-200,000	0,031	-0,113
-344,650	-170,124	0,045	0,001
-343,635	-200,000	-0,004	0,094
-342,620	171,362	0,124	0,129
-341,606	800,000	0,041	0,090
-340,591	-168,766	-0,127	0,003
-339,577	-200,000	-0,106	0,000
-338,562	32,713	0,116	-0,072
-337,548	84,564	0,089	-0,070
-336,533	800,000	-0,019	-0,056
-335,518	477,463	-0,049	0,081
-334,504	-57,524	-0,098	-0,031
-333,489	-18,187	0,058	-0,026
-332,475	800,000	0,050	-0,152
-331,460	-200,000	0,024	-0,193
-330,445	-200,000	-0,015	-0,084
-329,431	386,109	-0,055	0,082
-328,416	-32,131	0,115	0,046
-327,402	50,130	-0,103	-0,070
-326,387	56,823	-0,071	-0,050
-325,372	81,895	-0,044	0,034
-324,358	495,079	0,018	-0,030
-323,343	258,195	-0,060	-0,075
-322,329	-114,562	-0,061	-0,008
-321,314	-71,671	-0,052	-0,014
-320,299	-200,000	-0,005	-0,119
-319,285	-80,624	-0,167	-0,040
-318,270	711,724	-0,048	0,093
-317,256	35,616	0,070	0,044
-316,241	-79,868	0,072	-0,017
-315,226	-200,000	-0,029	0,214
-314,212	-200,000	-0,001	0,006
-313,197	-27,952	0,091	-0,038
-312,183	-200,000	0,007	-0,049
-311,168	42,629	-0,083	0,055
-310,153	-5,220	-0,077	-0,038
-309,139	76,547	0,069	-0,052
-308,124	-200,000	-0,002	-0,028
-307,110	800,000	0,019	0,048
-306,095	405,450	0,043	-0,066
-305,080	694,241	0,049	0,094
-304,066	781,233	-0,047	-0,094
-303,051	116,392	-0,080	0,071
-302,037	800,000	0,005	0,014
-301,022	800,000	0,011	0,023
-300,008	-164,213	-0,095	0,003
-298,993	-0,115	0,115	0,059
-297,978	485,546	-0,032	-0,053
-296,964	-150,038	-0,080	-0,004
-295,949	800,000	-0,094	-0,214
-294,935	796,282	-0,010	-0,020
-293,920	800,000	-0,030	0,079
-292,905	-187,595	-0,034	0,000
-291,891	-79,620	-0,099	-0,024
-290,876	800,000	0,039	0,082
-289,862	-15,444	-0,141	0,065
-288,847	-117,368	0,174	-0,023
-287,832	539,127	0,070	-0,120
-286,818	-200,000	-0,052	-0,225
-285,803	-200,000	0,016	-0,094
-284,789	41,680	-0,065	0,042
-283,774	-53,127	-0,085	-0,028
-282,759	800,000	0,021	-0,052
-281,745	-54,533	-0,123	-0,040
-280,730	159,030	-0,035	-0,036
-279,716	-200,000	-0,004	-0,064
-278,701	800,000	0,030	0,091
-277,686	800,000	0,045	0,091
-276,672	-200,000	-0,043	0,141
-275,657	-115,923	-0,100	0,013
-274,643	-94,463	-0,012	0,002
-273,628	-200,000	0,006	0,062
-272,613	-52,876	-0,140	0,046
-271,599	540,503	0,036	0,062
-270,584	-200,000	0,005	-0,041
-269,570	800,000	-0,041	-0,089
-268,555	-76,126	-0,105	-0,026
-267,540	-139,185	0,061	0,005
-266,526	-200,000	-0,003	0,090
-265,511	-120,350	0,210	-0,026
-264,497	-55,293	0,070	-0,023
-263,482	-107,838	0,111	0,017
-262,467	224,853	-0,054	-0,063
-261,453	-200,000	0,008	0,052
-260,438	566,814	0,044	-0,077
-259,424	-200,000	0,026	-0,106
-258,409	-152,117	-0,057	-0,003
-257,395	-200,000	0,024	0,124
-256,380	197,015	0,016	0,018
-255,365	6,484	0,199	0,107
-254,351	114,613	0,049	-0,043
-253,336	211,312	0,038	0,043
-252,322	346,494	0,030	-0,043
-251,307	-45,706	-0,038	0,013
-250,292	262,503	-0,072	-0,090
-249,278	800,000	0,038	0,085
-248,263	83,562	-0,054	0,042
-247,249	-200,000	-0,004	0,125
-246,234	800,000	0,025	-0,080
-245,219	-112,394	0,085	-0,012
-244,205	11,340	-0,140	-0,077
-243,190	-6,087	-0,034	-0,016
-242,176	133,033	-0,162	0,151
-241,161	-200,000	0,019	0,103
-240,146	-175,903	0,184	0,003
-239,132	800,000	-0,015	-0,032
-238,117	54,883	-0,036	-0,025
-237,103	194,194	-0,080	-0,088
-236,088	4,215	0,116	-0,061
-235,073	40,473	-0,127	-0,082
-234,059	12,455	-0,058	0,032
-233,044	361,225	-0,087	0,126
-232,030	-200,000	-0,051	0,175
-231,015	312,394	-0,036	0,049
-230,000	-142,563	0,068	-0,005
-228,986	800,000	-0,043	0,100
-227,971	-200,000	0,015	-0,048
-226,957	800,000	-0,013	0,027
-225,942	-66,044	0,102	-0,029
-224,927	-200,000	-0,016	-0,098
-223,913	259,316	0,129	-0,161
-222,898	-200,000	-0,043	-0,151
-221,884	119,303	0,154	0,138
-220,869	752,912	-0,084	-0,164
-219,855	800,000	0,047	-0,120
-218,840	20,271	0,072	0,042
-217,825	-200,000	-0,004	0,085
-216,811	-26,186	-0,121	0,051
-215,796	-200,000	0,010	0,040
-214,782	110,383	0,078	-0,068
-213,767	344,610	0,055	0,078
-212,752	-200,000	0,024	0,083
-211,738	-83,953	0,104	-0,024
-210,723	-200,000	0,004	-0,030
-209,709	-183,251	0,097	-0,001
-208,694	64,182	0,092	-0,067
-207,679	563,286	-0,086	-0,151
-206,665	585,445	-0,066	-0,118
-205,650	-117,824	0,132	-0,017
-204,636	800,000	-0,032	0,085
-203,621	8,908	0,098	0,053
-202,606	58,052	0,089	0,063
-201,592	-2,208	-0,110	-0,056
-200,577	122,822	0,053	-0,048
-199,563	8,146	0,026	-0,014
-198,548	800,000	-0,024	0,061
-197,533	800,000	0,032	0,090
-196,519	51,093	-0,055	0,038
-195,504	18,216	0,088	-0,051
-194,490	800,000	0,005	-0,016
-193,475	45,460	-0,097	-0,064
-192,460	581,038	-0,040	0,071
-191,446	52,733	0,144	0,099
-190,431	-175,119	-0,102	-0,002
-189,417	-200,000	-0,015	0,057
-188,402	-83,909	0,063	-0,014
-187,387	93,816	-0,092	-0,075
-186,373	389,867	0,031	0,046
-185,358	636,905	0,029	0,053
-184,344	800,000	0,024	0,072
-183,329	502,512	0,048	-0,080
-182,315	146,756	0,041	-0,040
-181,300	777,560	-0,052	-0,104
-180,285	95,386	-0,071	0,058
-179,271	103,302	-0,045	0,038
-178,256	99,973	0,094	0,078
-177,242	-88,350	0,156	0,033
-176,227	-200,000	0,043	0,265
-175,212	287,301	0,034	-0,044
-174,198	-93,303	0,131	0,026
-173,183	-27,637	-0,088	-0,037
-172,169	95,857	0,042	0,035
-171,154	-54,911	-0,090	-0,029
-170,139	-47,464	0,104	-0,036
-169,125	800,000	-0,040	-0,081
-168,110	157,165	0,030	-0,030
-167,096	30,095	0,005	-0,003
-166,081	112,524	0,054	0,047
-165,066	800,000	-0,022	0,047
-164,052	-200,000	-0,007	0,093
-163,037	212,481	0,057	0,065
-162,023	-200,000	0,002	-0,009
-161,008	312,679	-0,044	0,059
-159,993	-61,352	-0,118	0,036
-158,979	-99,764	0,156	0,028
-157,964	800,000	-0,046	-0,114
-156,950	57,500	-0,180	-0,126
-155,935	17,418	-0,103	-0,059
-154,920	162,128	0,060	0,060
-153,906	-48,916	-0,021	0,007
-152,891	102,826	0,049	0,041
-151,877	-71,856	-0,165	-0,044
-150,862	-200,000	0,001	-0,032
-149,847	-140,438	0,080	-0,006
-148,833	-200,000	0,019	-0,127
-147,818	60,930	-0,057	0,041
-146,804	-0,363	0,129	0,066
-145,789	275,416	-0,086	0,110
-144,775	340,552	0,051	0,072
-143,760	-200,000	0,006	0,076
-142,745	-108,643	-0,113	0,017
-141,731	-91,663	-0,119	0,024
-140,716	456,555	0,047	0,075
-139,702	41,167	0,113	0,073
-138,687	-3,374	-0,091	0,045
-137,672	25,333	0,132	0,079
-136,658	290,790	-0,094	-0,123
-135,643	800,000	0,030	0,089
-134,629	196,014	-0,084	-0,092
-133,614	786,502	-0,053	0,105
-132,599	800,000	0,057	0,165
-131,585	-154,696	0,045	0,002
-130,570	-200,000	0,013	0,139
-129,556	-200,000	-0,004	-0,016
-128,541	-115,070	0,057	0,008
-127,526	116,231	-0,073	-0,065
-126,512	-200,000	-0,047	-0,165
-125,497	640,416	0,032	-0,059
-124,483	260,522	0,021	0,026
-123,468	800,000	0,029	-0,071
-122,453	129,287	0,051	0,047
-121,439	-153,031	0,088	-0,004
-120,424	-144,432	-0,053	-0,003
-119,410	-60,563	-0,038	0,012
-118,395	800,000	-0,031	-0,090
-117,380	-100,455	0,156	0,027
-116,366	-129,680	0,024	-0,002
-115,351	630,368	0,026	-0,048
-114,337	-179,161	-0,186	0,003
-113,322	-7,259	0,010	-0,005
-112,307	28,604	-0,120	0,072
-111,293	-200,000	0,016	-0,057
-110,278	-102,864	0,077	-0,013
-109,264	51,393	-0,091	-0,062
-108,249	800,000	-0,057	-0,166
-107,234	31,551	-0,013	0,008
-106,220	-200,000	0,022	-0,083
-105,205	27,275	-0,055	-0,033
-104,191	-200,000	-0,026	0,124
-103,176	800,000	-0,010	0,027
-102,162	21,895	-0,082	0,048
-101,147	-200,000	0,027	-0,119
-100,132	129,599	-0,041	-0,037
-99,118	361,607	-0,062	-0,089
-98,103	184,130	-0,078	-0,083
-97,089	-165,316	0,121	0,004
-96,074	661,986	0,081	0,151
-95,059	151,281	-0,036	0,035
-94,045	202,869	0,082	-0,091
-93,030	172,232	-0,135	-0,139
-92,016	800,000	-0,019	-0,047
-91,001	-76,773	-0,020	-0,005
-89,986	-91,437	0,164	0,033
-88,972	-107,454	0,137	-0,021
-87,957	800,000	-0,019	-0,040
-86,943	59,224	-0,170	-0,120
-85,928	-137,683	0,113	0,009
-84,913	111,193	0,093	0,081
-83,899	151,046	0,069	-0,067
-82,884	-78,286	0,145	-0,035
-81,870	12,726	-0,055	-0,030
-80,855	40,118	-0,102	0,065
-79,840	708,829	0,042	0,081
-78,826	-196,386	-0,055	-0,000
-77,811	370,658	-0,052	-0,076
-76,797	-200,000	0,012	0,120
-75,782	179,814	0,149	0,157
-74,767	390,603	0,058	-0,086
-73,753	-115,868	0,048	0,006
-72,738	-70,025	-0,132	-0,036
-71,724	-109,041	0,073	-0,011
-70,709	159,894	-0,065	0,065
-69,694	800,000	-0,029	0,075
-68,680	-59,292	0,068	0,021
-67,665	419,918	-0,070	0,107
-66,651	-200,000	0,003	0,031
-65,636	71,081	0,047	-0,035
-64,622	228,593	0,024	0,028
-63,607	-8,592	-0,115	-0,055
-62,592	-29,446	-0,096	-0,039
-61,578	-200,000	0,022	0,146
-60,563	77,362	0,088	0,067
-59,549	753,647	-0,037	0,072
-58,534	52,204	-2,229	-1,519
-57,519	-200,000	0,044	-0,728
-56,505	-200,000	-1,403	-5,244
-55,490	79,876	1,000	0,769
-54,476	800,000	5,345	12,233
-53,461	-200,000	19,049	321,476
-52,446	800,000	742,549	2325,306
-51,432	547,835	1654,876	2847,638
-50,417	109,553	1637,261	1404,112
-49,403	73,124	1287,663	962,659
-48,388	29,364	1029,425	624,715
-47,373	19,572	992,585	569,988
-46,359	16,835	980,341	553,944
-45,344	13,393	976,667	540,555
-44,330	13,728	974,878	540,642
-43,315	13,077	972,980	537,435
-42,300	13,007	971,934	536,606
-41,286	13,029	971,080	536,187
-40,271	13,001	970,244	535,611
-39,257	12,990	969,204	534,981
-38,242	13,046	968,308	534,647
-37,227	13,023	967,727	534,231
-36,213	13,057	966,524	533,655
-35,198	12,929	965,684	532,755
-34,184	13,035	964,913	532,651
-33,169	12,958	964,127	531,948
-32,154	13,065	963,010	531,657
-31,140	13,009	962,370	531,101
-30,125	13,006	961,491	530,587
-29,111	13,028	960,586	530,137
-28,096	13,061	959,872	529,827
-27,082	13,046	959,191	529,382
-26,067	13,079	958,605	529,145
-25,052	12,999	957,813	528,428
-24,038	13,006	957,227	528,108
-23,023	13,012	956,495	527,701
-22,009	13,089	955,889	527,592
-20,994	13,025	955,329	527,058
-19,979	13,094	954,456	526,778
-18,965	13,083	954,046	526,494
-17,950	13,106	953,533	526,265
-16,936	13,004	952,893	525,562
-15,921	12,990	952,147	525,087
-14,906	12,915	951,473	524,453
-13,892	12,913	950,656	523,976
-12,877	12,902	950,154	523,643
-11,863	12,862	949,495	523,130
-10,848	12,926	948,994	523,039
-9,833	13,046	948,176	522,950
-8,819	12,992	947,764	522,531
-7,804	12,958	947,069	522,019
-6,790	12,952	946,591	521,713
-5,775	12,954	946,052	521,402
-4,760	12,928	945,384	520,933
-3,746	12,939	944,750	520,596
-2,731	12,801	944,151	519,809
-1,717	12,771	943,310	519,228
-0,702	12,717	942,713	518,710
0,313	12,605	942,141	518,823
1,327	16,052	940,066	528,524
2,342	25,460	790,272	469,098
3,356	21,480	445,121	258,296
4,371	-7,805	298,456	143,639
5,386	-11,693	280,516	131,269
6,400	-12,951	274,673	127,342
7,415	-12,981	272,406	126,252
8,429	-13,050	270,863	125,462
9,444	-13,170	269,989	124,934
10,459	-13,188	269,363	124,617
11,473	-13,497	268,871	124,095
12,488	-13,414	268,215	123,857
13,502	-13,551	267,548	123,413
14,517	-13,423	267,125	123,323
15,531	-13,471	266,753	123,097
16,546	-13,310	266,337	123,041
17,561	-13,327	265,984	122,851
18,575	-13,232	265,665	122,779
19,590	-13,375	265,313	122,476
20,604	-13,192	264,922	122,450
21,619	-13,468	264,522	122,005
22,634	-13,298	264,281	122,037
23,648	-13,364	263,982	121,828
24,663	-13,481	263,783	121,619
25,677	-13,345	263,556	121,626
26,692	-13,262	263,158	121,507
27,707	-13,509	262,815	121,116
28,721	-13,418	262,460	121,023
29,736	-13,521	262,372	120,879
30,750	-13,470	262,147	120,811
31,765	-13,502	261,920	120,667
32,780	-13,564	261,618	120,461
33,794	-13,459	261,401	120,444
34,809	-13,387	261,229	120,418
35,823	-13,505	260,943	120,171
36,838	-13,731	260,659	119,828
37,853	-13,518	260,270	119,828
38,867	-13,567	260,220	119,751
39,882	-13,796	259,954	119,415
40,896	-13,633	259,770	119,464
41,911	-13,507	259,298	119,348
42,926	-13,684	259,217	119,144
43,940	-13,540	258,932	119,128
44,955	-13,714	258,748	118,880
45,969	-13,796	258,631	118,743
46,984	-13,892	258,263	118,479
47,999	-14,242	258,002	118,041
49,013	-14,230	257,626	117,870
50,028	-14,443	257,460	117,596
51,042	-14,280	256,986	117,512
52,057	-14,624	257,070	117,238
53,071	-14,427	256,866	117,307
54,086	-14,207	256,621	117,377
55,101	-14,157	256,296	117,262
56,115	-13,979	256,217	117,370
57,130	-13,408	256,236	117,867
58,144	-13,212	255,944	117,893
59,159	-13,121	255,723	117,859
60,174	-13,271	255,560	117,644
61,188	-13,240	255,311	117,546
62,203	-13,343	255,225	117,406
63,217	-13,410	254,833	117,156
64,232	-13,229	254,503	117,152
65,247	-13,378	254,485	117,003
66,261	-13,480	254,272	116,807
67,276	-13,637	253,867	116,475
68,290	-13,819	253,694	116,229
69,305	-13,916	253,319	115,963
70,320	-13,958	253,272	115,894
71,334	-13,778	253,184	115,999
72,349	-13,349	253,075	116,307
73,363	-13,199	252,775	116,289
74,378	-13,367	252,538	116,025
75,393	-13,313	252,115	115,866
76,407	-13,612	252,184	115,631
77,422	-13,545	251,934	115,564
78,436	-13,313	251,713	115,651
79,451	-13,549	251,582	115,378
80,466	-13,670	251,271	115,122
81,480	-13,679	250,770	114,875
82,495	-13,854	250,787	114,723
83,509	-13,726	250,447	114,666
84,524	-13,757	250,337	114,580
85,539	-13,975	250,060	114,258
86,553	-13,968	249,961	114,208
87,568	-13,888	249,690	114,142
88,582	-13,834	249,760	114,210
89,597	-13,715	249,303	114,091
90,611	-13,691	249,402	114,146
91,626	-13,504	248,974	114,099
92,641	-13,359	248,867	114,161
93,655	-13,547	248,661	113,898
94,670	-13,775	248,419	113,585
95,684	-13,699	248,213	113,545
96,699	-13,743	248,125	113,457
97,714	-13,609	247,826	113,423
98,728	-13,887	247,526	113,042
99,743	-13,949	247,473	112,956
100,757	-14,129	247,242	112,690
101,772	-13,872	247,049	112,807
102,787	-13,537	246,737	112,934
103,801	-13,699	246,744	112,793
104,816	-13,703	246,538	112,684
105,830	-13,444	246,456	112,854
106,845	-13,587	246,288	112,647
107,860	-13,436	245,947	112,607
108,874	-13,751	245,752	112,245
109,889	-13,557	245,444	112,256
110,903	-13,794	245,443	112,048
111,918	-13,884	245,245	111,873
112,933	-13,541	245,002	112,037
113,947	-13,409	244,813	112,051
114,962	-13,756	244,674	111,689
115,976	-13,504	244,602	111,855
116,991	-13,538	244,354	111,704
118,006	-13,506	244,210	111,654
119,020	-13,512	243,954	111,522
120,035	-13,240	243,861	111,695
121,049	-13,454	243,748	111,455
122,064	-13,401	243,544	111,396
123,079	-13,584	243,322	111,134
124,093	-13,831	242,977	110,764
125,108	-13,762	242,736	110,701
126,122	-14,039	242,518	110,364
127,137	-14,207	242,353	110,141
128,151	-14,033	242,282	110,242
129,166	-13,944	242,026	110,189
130,181	-13,945	241,860	110,102
131,195	-13,961	241,750	110,029
132,210	-13,700	241,491	110,114
133,224	-13,734	241,451	110,059
134,239	-13,619	241,189	110,023
135,254	-13,598	241,144	110,010
136,268	-13,706	240,814	109,762
137,283	-13,831	240,471	109,494
138,297	-13,950	240,252	109,288
139,312	-14,055	240,158	109,150
140,327	-13,832	240,144	109,315
141,341	-13,351	240,013	109,636
142,356	-13,211	239,945	109,708
143,370	-13,140	239,795	109,688
144,385	-12,969	239,406	109,638
145,400	-12,985	239,258	109,547
146,414	-13,266	239,234	109,300
147,429	-13,326	239,001	109,135
148,443	-13,227	238,732	109,082
149,458	-13,239	238,725	109,060
150,473	-13,466	238,510	108,769
151,487	-13,404	238,348	108,736
152,502	-13,411	238,197	108,651
153,516	-13,207	237,908	108,674
154,531	-13,305	237,921	108,591
155,546	-13,345	237,655	108,427
156,560	-13,282	237,388	108,347
157,575	-13,557	237,232	108,046
158,589	-13,473	237,051	108,021
159,604	-13,017	237,015	108,360
160,619	-12,846	236,687	108,336
161,633	-13,144	236,596	108,048
162,648	-13,207	236,625	108,001
163,662	-13,159	236,306	107,884
164,677	-13,241	236,101	107,716
165,692	-13,395	236,006	107,540
166,706	-13,081	235,919	107,740
167,721	-13,042	235,674	107,650
168,735	-12,889	235,530	107,696
169,750	-12,926	235,375	107,586
170,764	-13,206	235,282	107,312
171,779	-13,189	235,129	107,246
172,794	-12,973	234,938	107,321
173,808	-13,213	234,726	107,024
174,823	-13,825	234,279	106,328
175,837	-14,068	234,249	106,113
176,852	-13,319	234,202	106,673
177,867	-13,178	234,116	106,736
178,881	-13,139	233,946	106,679
179,896	-12,965	233,802	106,741
180,910	-12,957	233,649	106,668
181,925	-13,150	233,524	106,450
182,940	-13,139	233,438	106,409
183,954	-12,805	233,099	106,508
184,969	-13,001	233,114	106,351
185,983	-12,952	232,882	106,274
186,998	-12,867	232,640	106,221
188,013	-12,920	232,663	106,181
189,027	-12,772	232,338	106,138
190,042	-12,914	232,177	105,944
191,056	-12,701	231,972	106,007
192,071	-12,785	231,814	105,860
193,086	-12,887	231,649	105,696
194,100	-13,040	231,628	105,558
195,115	-13,319	231,174	105,124
196,129	-13,123	231,493	105,413
197,144	-6,935	233,251	111,051
198,159	-1,007	235,197	116,635
199,173	2,647	236,055	119,930
200,188	3,130	236,068	120,306
201,202	3,036	235,983	120,178
202,217	3,134	235,777	120,139
203,232	3,329	235,674	120,229
204,246	3,425	235,489	120,200
205,261	3,413	235,500	120,185
206,275	3,608	235,262	120,205
207,290	3,638	235,120	120,145
208,304	3,707	235,024	120,140
209,319	3,304	234,911	119,756
210,334	3,581	234,582	119,794
211,348	3,121	234,425	119,344
212,363	2,943	234,212	119,086
213,377	2,935	233,999	118,961
214,392	2,677	233,799	118,648
215,407	2,731	233,690	118,624
216,421	2,927	233,510	118,675
217,436	2,824	233,379	118,518
218,450	2,627	233,209	118,268
219,465	2,671	232,936	118,152
220,480	2,372	232,840	117,862
221,494	2,480	232,734	117,881
222,509	2,577	232,702	117,930
223,523	2,674	232,489	117,886
224,538	2,746	232,343	117,858
225,553	2,737	232,200	117,767
226,567	2,812	232,001	117,713
227,582	3,152	231,919	117,924
228,596	3,001	231,899	117,786
229,611	2,769	231,699	117,496
230,626	2,498	231,318	117,084
231,640	2,720	231,114	117,140
232,655	2,744	231,251	117,218
233,669	3,159	231,246	117,524
234,684	3,406	230,955	117,555
235,699	2,917	230,812	117,097
236,713	2,942	230,553	116,974
237,728	2,882	230,297	116,788
238,742	2,723	230,088	116,550
239,757	2,747	230,192	116,611
240,772	2,778	229,940	116,497
241,786	2,662	229,696	116,274
242,801	2,822	229,699	116,387
243,815	3,150	229,663	116,608
244,830	3,466	229,475	116,744
245,844	3,078	229,111	116,253
246,859	2,886	229,027	116,054
247,874	2,993	228,889	116,055
248,888	3,154	228,781	116,112
249,903	3,081	228,680	115,995
250,917	2,789	228,477	115,660
251,932	2,720	228,294	115,505
252,947	2,716	228,163	115,425
253,961	2,636	227,907	115,225
254,976	2,754	227,714	115,206
255,990	3,113	227,636	115,427
257,005	3,105	227,535	115,360
258,020	2,957	227,492	115,216
259,034	2,944	227,328	115,113
260,049	2,998	227,034	114,995
261,063	2,998	226,887	114,910
262,078	3,067	226,944	114,981
263,093	3,081	226,900	114,959
264,107	3,037	226,582	114,754
265,122	3,110	226,472	114,743
266,136	3,291	226,479	114,872
267,151	3,005	226,237	114,525
268,166	2,898	225,952	114,290
269,180	2,673	225,595	113,931
270,195	2,427	225,733	113,807
271,209	2,691	225,491	113,872
272,224	2,916	225,367	113,967
273,239	2,656	225,304	113,731
274,253	2,699	225,020	113,610
275,268	2,533	224,889	113,409
276,282	2,588	224,727	113,359
277,297	2,428	224,642	113,187
278,312	2,582	224,414	113,176
279,326	2,588	224,406	113,166
280,341	2,781	224,289	113,241
281,355	2,902	224,174	113,263
282,370	2,778	223,812	112,977
283,384	2,570	223,746	112,781
284,399	2,545	223,560	112,658
285,414	2,710	223,428	112,703
286,428	3,015	223,219	112,813
287,443	2,934	223,230	112,748
288,457	3,064	223,098	112,768
289,472	2,774	222,995	112,492
290,487	2,290	222,622	111,937
291,501	2,364	222,529	111,935
292,516	2,373	222,303	111,818
293,530	2,618	222,193	111,933
294,545	2,603	222,156	111,893
295,560	2,704	222,113	111,936
296,574	2,946	221,885	111,988
297,589	2,711	221,744	111,735
298,603	2,779	221,552	111,678
299,618	2,727	221,500	111,604
300,633	3,001	221,417	111,752
301,647	3,092	221,365	111,783
302,662	2,961	221,081	111,534
303,676	3,061	221,132	111,622
304,691	3,154	220,858	111,542
305,706	2,898	220,832	111,333
306,720	3,059	220,571	111,308
307,735	2,845	220,384	111,048
308,749	2,870	220,088	110,907
309,764	3,085	220,060	111,039
310,779	2,923	220,128	110,946
311,793	2,998	219,873	110,862
312,808	3,056	219,627	110,770
313,822	2,977	219,447	110,612
314,837	2,540	219,343	110,233
315,852	2,594	219,144	110,163
316,866	2,628	219,099	110,154
317,881	2,925	219,078	110,349
318,895	2,967	218,907	110,284
319,910	2,695	218,602	109,924
320,925	2,445	218,452	109,659
321,939	2,359	218,228	109,474
322,954	2,189	218,244	109,350
323,968	2,684	218,272	109,711
324,983	3,077	218,021	109,857
325,997	3,257	217,944	109,938
327,012	2,628	217,898	109,453
328,027	2,976	217,613	109,550
329,041	2,847	217,603	109,443
330,056	3,132	217,531	109,601
331,070	2,807	217,207	109,195
332,085	2,597	216,859	108,861
333,100	2,714	216,788	108,899
334,114	2,533	216,621	108,676
335,129	2,693	216,389	108,664
336,143	2,801	216,493	108,784
337,158	2,895	216,428	108,809
338,173	3,073	216,299	108,860
339,187	2,853	216,058	108,573
340,202	2,763	215,798	108,369
341,216	2,439	215,664	108,062
342,231	2,573	215,527	108,078
343,246	2,760	215,470	108,173
344,260	2,975	215,297	108,228
345,275	2,968	215,325	108,228
346,289	2,958	215,214	108,156
347,304	2,777	214,894	107,858
348,319	2,747	214,740	107,749
349,333	2,827	214,600	107,726
350,348	2,970	214,446	107,740
351,362	3,051	214,493	107,812
352,377	2,958	214,314	107,646
353,392	2,896	214,133	107,501
354,406	2,986	214,012	107,495
355,421	197,957	1312,832	1393,289
356,435	158,438	1446,652	1393,220
