DTS Sentinel unit serial number:	SN410029Multiplexer serial number:	ORYXHardware model number:	OX2-SRSoftware version number:	ORYX F/W v4,00 Oryx Data Collector v3.7.2.0data status	okinstallation	B6 Nyhavnadifferential loss correction	single-endedforward channel	channel 2reverse channel	N/Adate	2023/12/11time	02:40:08forward acquisition time	300,00reverse acquisition time	0,00gamma	499,1914k internal	0,3123k external	0,3123temperature offset calibration	1,0000default loss term (dB/km)	0,3820temperature slope calibration	1,0000multiplexer offset coefficient	1,0000multiplexer slope coefficient	1,0000fibre end	0,00T internal ref (°C)	21,64T ext. ref 1 (°C)	4,47T ext. ref 2 (°C)	4,50length (m)	temperature (°C)	Stokes	anti-Stokes-744,400	-200,000	-0,011	-0,045
-743,385	-199,546	-0,206	0,001
-742,371	-139,309	0,134	-0,011
-741,356	-137,623	-0,136	0,011
-740,342	-67,612	-0,049	-0,014
-739,327	-113,323	-0,393	0,057
-738,312	184,433	-0,036	0,040
-737,298	-89,481	-0,245	0,053
-736,283	265,548	-0,076	-0,099
-735,269	-2,663	-0,161	0,084
-734,254	-200,000	-0,003	-0,139
-733,239	-84,948	-0,290	-0,067
-732,225	-57,318	0,247	0,081
-731,210	-26,850	-0,198	-0,086
-730,196	-181,724	0,121	0,002
-729,181	-200,000	0,031	-0,186
-728,167	-95,877	-0,026	0,005
-727,152	-200,000	-0,009	0,075
-726,137	155,357	0,023	-0,023
-725,123	-200,000	-0,002	0,054
-724,108	-41,829	-0,139	-0,053
-723,094	-200,000	-0,008	-0,174
-722,079	233,288	-0,131	-0,161
-721,064	275,535	0,034	-0,045
-720,050	208,704	0,050	0,059
-719,035	524,521	-0,039	0,069
-718,021	-7,485	-0,101	0,051
-717,006	-45,639	-0,111	-0,041
-715,991	58,034	-0,034	-0,025
-714,977	-200,000	-0,027	-0,091
-713,962	-11,974	-0,128	0,062
-712,948	-200,000	-0,032	0,108
-711,933	454,562	-0,060	-0,100
-710,918	311,206	-0,079	-0,111
-709,904	340,953	-0,059	-0,086
-708,889	15,390	-0,034	0,020
-707,875	411,474	-0,038	0,060
-706,860	800,000	0,043	0,097
-705,845	800,000	-0,036	0,097
-704,831	15,285	0,048	0,028
-703,816	-191,324	-0,054	0,000
-702,802	-200,000	0,003	-0,060
-701,787	800,000	-0,054	0,126
-700,772	631,204	-0,034	-0,064
-699,758	-200,000	0,005	-0,074
-698,743	101,354	0,100	0,087
-697,729	-200,000	0,034	0,115
-696,714	261,287	-0,064	0,083
-695,699	-128,795	-0,079	-0,008
-694,685	-17,994	-0,125	0,058
-693,670	-51,595	-0,100	0,035
-692,656	-31,743	0,075	-0,031
-691,641	28,753	0,057	-0,036
-690,627	261,884	0,060	-0,078
-689,612	800,000	-0,028	-0,061
-688,597	127,120	-0,160	0,151
-687,583	120,973	-0,021	0,019
-686,568	-200,000	-0,013	0,044
-685,554	-18,653	0,104	0,048
-684,539	-53,653	0,112	-0,038
-683,524	429,993	0,038	-0,062
-682,510	242,313	-0,038	0,047
-681,495	800,000	-0,022	-0,049
-680,481	268,268	-0,079	0,103
-679,466	-144,676	-0,169	-0,011
-678,451	-200,000	0,002	-0,069
-677,437	-200,000	-0,007	0,205
-676,422	642,718	0,115	0,219
-675,408	88,069	-0,031	0,026
-674,393	99,239	0,026	0,022
-673,378	-111,865	-0,215	-0,032
-672,364	-200,000	0,010	0,033
-671,349	475,010	-0,027	-0,046
-670,335	-124,904	0,049	-0,005
-669,320	-57,729	-0,019	0,006
-668,305	800,000	-0,060	0,140
-667,291	-200,000	0,004	0,159
-666,276	-76,279	0,030	0,008
-665,262	713,718	-0,013	0,026
-664,247	-200,000	-0,007	-0,238
-663,232	-134,859	-0,062	-0,006
-662,218	-28,592	0,100	0,043
-661,203	64,307	0,041	0,030
-660,189	138,669	-0,065	0,063
-659,174	-83,302	-0,161	-0,038
-658,159	233,365	-0,030	-0,037
-657,145	219,086	0,163	-0,194
-656,130	-16,499	-0,021	0,010
-655,116	197,165	0,040	-0,045
-654,101	-72,638	-0,125	-0,034
-653,086	-103,470	-0,093	-0,016
-652,072	643,590	-0,107	-0,204
-651,057	-200,000	-0,011	-0,177
-650,043	167,258	-0,047	-0,050
-649,028	800,000	0,045	0,093
-648,014	117,433	-0,063	0,057
-646,999	-200,000	0,013	-0,045
-645,984	-62,306	0,190	-0,059
-644,970	48,464	-0,129	-0,090
-643,955	256,124	-0,109	-0,139
-642,941	-200,000	-0,097	0,000
-641,926	800,000	-0,014	-0,044
-640,911	-33,099	0,122	-0,050
-639,897	800,000	0,042	-0,090
-638,882	-200,000	0,005	-0,016
-637,868	198,033	0,032	-0,036
-636,853	-104,932	-0,018	0,003
-635,838	553,493	0,061	-0,109
-634,824	52,713	0,060	-0,042
-633,809	-200,000	0,014	-0,083
-632,795	119,199	0,101	0,092
-631,780	-200,000	-0,000	-0,171
-630,765	-48,423	-0,146	0,052
-629,751	28,132	-0,151	-0,095
-628,736	511,565	0,034	-0,060
-627,722	-106,800	0,097	0,016
-626,707	-1,122	0,114	0,060
-625,692	127,578	-0,035	-0,033
-624,678	-52,179	0,110	-0,038
-623,663	502,405	0,054	-0,093
-622,649	800,000	0,009	-0,025
-621,634	-33,422	0,037	-0,015
-620,619	800,000	-0,045	-0,109
-619,605	624,096	0,067	-0,125
-618,590	-200,000	-0,010	0,125
-617,576	-132,027	0,034	-0,003
-616,561	558,946	-0,041	-0,074
-615,546	-22,950	-0,159	-0,071
-614,532	-15,789	0,056	-0,026
-613,517	-64,302	0,077	-0,023
-612,503	-13,893	-0,119	0,057
-611,488	-200,000	-0,008	0,088
-610,474	-137,021	-0,051	0,004
-609,459	206,296	0,046	0,053
-608,444	-137,403	0,065	0,005
-607,430	-200,000	0,020	-0,078
-606,415	800,000	-0,035	0,095
-605,401	-200,000	0,013	-0,064
-604,386	-200,000	0,000	0,061
-603,371	127,654	0,083	-0,079
-602,357	-13,970	-0,086	0,041
-601,342	200,810	0,076	-0,087
-600,328	-200,000	0,010	-0,092
-599,313	407,925	-0,073	-0,115
-598,298	800,000	-0,034	0,096
-597,284	187,839	0,033	-0,037
-596,269	-200,000	0,031	0,153
-595,255	82,525	0,115	-0,092
-594,240	-67,485	-0,112	-0,032
-593,225	301,835	0,021	-0,029
-592,211	605,171	-0,027	-0,050
-591,196	-200,000	0,001	0,060
-590,182	232,749	-0,012	-0,015
-589,167	-156,046	-0,040	-0,002
-588,152	174,849	0,048	0,052
-587,138	21,964	-0,033	-0,020
-586,123	-200,000	-0,008	0,064
-585,109	557,519	0,029	0,053
-584,094	83,323	-0,062	-0,050
-583,079	21,139	0,019	0,011
-582,065	729,254	0,071	0,142
-581,050	-18,128	0,049	0,022
-580,036	-129,135	0,017	-0,002
-579,021	-91,188	-0,070	-0,015
-578,006	52,214	0,058	0,041
-576,992	-60,331	-0,129	-0,040
-575,977	-193,164	0,141	-0,001
-574,963	29,864	0,117	0,074
-573,948	280,478	-0,032	0,043
-572,934	240,326	0,015	-0,019
-571,919	-75,805	0,028	0,007
-570,904	-81,522	0,036	0,009
-569,890	-112,493	-0,117	0,017
-568,875	800,000	-0,015	-0,031
-567,861	-16,532	0,068	-0,032
-566,846	-20,703	0,108	0,049
-565,831	-200,000	0,008	0,050
-564,817	408,041	0,037	0,058
-563,802	800,000	-0,020	-0,052
-562,788	800,000	-0,034	-0,080
-561,773	800,000	-0,043	0,094
-560,758	110,988	0,084	0,075
-559,744	-97,382	-0,051	-0,010
-558,729	-200,000	0,006	0,090
-557,715	203,837	0,026	0,030
-556,700	674,974	-0,074	0,142
-555,685	162,122	-0,060	-0,063
-554,671	-45,623	-0,070	-0,026
-553,656	-200,000	-0,035	-0,123
-552,642	87,786	0,064	0,052
-551,627	-48,330	-0,025	-0,009
-550,612	-1,102	-0,122	-0,063
-549,598	219,829	-0,080	0,095
-548,583	-111,692	0,160	0,024
-547,569	-200,000	0,015	-0,058
-546,554	800,000	0,038	0,099
-545,539	755,738	-0,076	0,152
-544,525	-200,000	0,002	0,048
-543,510	-200,000	-0,029	-0,131
-542,496	-200,000	-0,006	0,040
-541,481	-56,426	-0,108	-0,035
-540,466	-69,094	0,043	-0,012
-539,452	-154,127	0,076	0,004
-538,437	478,503	0,019	0,032
-537,423	-200,000	0,002	0,059
-536,408	79,504	-0,018	0,014
-535,393	-132,040	0,014	-0,001
-534,379	-137,249	-0,081	-0,007
-533,364	64,338	-0,033	0,025
-532,350	103,183	-0,102	0,088
-531,335	-31,419	0,077	0,032
-530,321	-200,000	0,009	0,033
-529,306	-200,000	0,014	0,082
-528,291	-108,559	0,160	0,025
-527,277	303,345	0,054	0,074
-526,262	-30,850	-0,075	0,031
-525,248	800,000	-0,064	-0,173
-524,233	75,714	0,068	0,053
-523,218	-75,245	0,138	0,036
-522,204	-200,000	-0,004	0,064
-521,189	-200,000	-0,019	-0,063
-520,175	71,990	0,074	0,057
-519,160	-200,000	0,033	-0,144
-518,145	-200,000	-0,013	0,048
-517,131	146,274	-0,025	-0,025
-516,116	257,536	-0,069	0,088
-515,102	413,909	0,028	0,045
-514,087	156,321	0,055	-0,056
-513,072	5,734	-0,158	-0,086
-512,058	800,000	-0,039	0,080
-511,043	-49,931	0,121	-0,042
-510,029	6,800	-0,083	0,045
-509,014	-30,075	0,025	0,011
-507,999	-15,774	0,166	-0,078
-506,985	-200,000	-0,049	-0,219
-505,970	144,361	-0,026	0,026
-504,956	800,000	-0,047	0,133
-503,941	-200,000	-0,006	-0,050
-502,926	-200,000	0,025	-0,107
-501,912	-114,159	0,007	0,001
-500,897	217,197	-0,087	-0,103
-499,883	256,779	-0,065	0,082
-498,868	448,762	-0,043	-0,071
-497,853	380,054	-0,051	0,077
-496,839	-200,000	0,015	-0,092
-495,824	99,802	0,083	-0,071
-494,810	385,544	0,059	-0,090
-493,795	150,402	-0,053	-0,054
-492,781	800,000	-0,030	-0,069
-491,766	513,615	-0,025	-0,043
-490,751	-12,784	0,076	0,037
-489,737	295,779	-0,071	-0,096
-488,722	570,006	0,059	0,107
-487,708	-17,843	-0,146	-0,067
-486,693	-36,802	-0,048	0,019
-485,678	800,000	-0,041	0,085
-484,664	351,013	-0,069	-0,102
-483,649	-109,985	-0,078	0,012
-482,635	91,373	-0,064	-0,053
-481,620	29,630	-0,071	0,045
-480,605	36,924	-0,012	-0,008
-479,591	452,023	0,036	-0,059
-478,576	-200,000	0,023	-0,076
-477,562	-172,281	0,136	0,003
-476,547	-175,778	-0,119	-0,002
-475,532	754,110	0,021	-0,042
-474,518	91,711	0,109	-0,090
-473,503	800,000	0,037	0,114
-472,489	-46,478	0,090	0,033
-471,474	-26,371	-0,102	0,044
-470,459	130,617	0,014	0,014
-469,445	800,000	0,023	-0,057
-468,430	-200,000	0,008	-0,141
-467,416	-200,000	0,001	0,043
-466,401	-88,000	0,116	-0,026
-465,386	800,000	0,063	-0,141
-464,372	-200,000	-0,012	-0,075
-463,357	-80,671	-0,057	0,014
-462,343	66,292	-0,112	-0,084
-461,328	-200,000	0,010	-0,129
-460,313	800,000	0,023	-0,066
-459,299	13,158	0,055	0,031
-458,284	-200,000	0,001	0,050
-457,270	-152,872	-0,130	-0,007
-456,255	-163,123	0,193	-0,007
-455,241	164,631	-0,055	0,057
-454,226	233,204	-0,057	0,069
-453,211	378,102	-0,023	0,034
-452,197	-200,000	-0,025	0,083
-451,182	397,295	0,071	0,109
-450,168	-185,075	0,112	0,001
-449,153	221,609	0,076	-0,090
-448,138	-200,000	0,065	-0,240
-447,124	477,123	-0,052	-0,087
-446,109	-200,000	0,042	0,158
-445,095	-142,983	0,055	-0,004
-444,080	43,802	-0,052	0,035
-443,065	372,137	-0,071	0,106
-442,051	-168,583	-0,052	-0,001
-441,036	-200,000	0,001	-0,020
-440,022	57,106	-0,037	-0,027
-439,007	800,000	0,010	0,030
-437,992	800,000	0,026	-0,059
-436,978	-51,150	0,054	0,018
-435,963	66,976	0,067	-0,051
-434,949	-59,950	-0,045	-0,014
-433,934	599,226	-0,017	-0,031
-432,919	4,765	-0,082	0,044
-431,905	18,530	0,124	-0,073
-430,890	-136,409	0,144	-0,012
-429,876	-200,000	-0,007	-0,081
-428,861	-36,839	-0,118	0,047
-427,846	-108,264	-0,077	0,012
-426,832	-40,506	-0,109	0,041
-425,817	319,520	-0,039	0,055
-424,803	-200,000	0,002	-0,054
-423,788	-158,550	-0,091	-0,004
-422,773	-147,684	0,151	0,009
-421,759	372,356	-0,047	0,071
-420,744	312,867	0,036	0,051
-419,730	-200,000	-0,004	-0,031
-418,715	800,000	-0,022	0,054
-417,701	-200,000	0,002	-0,014
-416,686	-114,624	0,084	0,012
-415,671	164,715	0,107	0,111
-414,657	265,404	0,072	0,092
-413,642	800,000	0,029	0,070
-412,628	800,000	-0,018	-0,046
-411,613	132,547	-0,022	0,021
-410,598	-41,257	-0,121	0,046
-409,584	-83,478	0,117	-0,027
-408,569	800,000	-0,067	0,168
-407,555	81,851	0,040	0,032
-406,540	-40,862	0,134	-0,051
-405,525	-5,203	0,063	-0,032
-404,511	-94,343	0,131	-0,026
-403,496	800,000	0,019	-0,045
-402,482	800,000	0,013	-0,034
-401,467	-82,232	-0,139	0,033
-400,452	195,534	0,020	-0,023
-399,438	-26,246	0,050	-0,022
-398,423	-88,007	0,077	-0,017
-397,409	90,300	0,088	-0,073
-396,394	115,278	0,086	-0,077
-395,379	239,953	-0,011	0,013
-394,365	-26,082	0,130	-0,056
-393,350	-200,000	-0,028	-0,108
-392,336	137,680	0,060	0,058
-391,321	270,036	-0,086	-0,111
-390,306	-200,000	-0,026	0,104
-389,292	-86,712	-0,129	-0,029
-388,277	800,000	-0,041	-0,117
-387,263	584,983	0,075	0,136
-386,248	-153,747	0,103	0,005
-385,233	-167,746	0,112	0,003
-384,219	726,368	0,083	-0,163
-383,204	-200,000	0,020	0,066
-382,190	273,454	0,039	0,051
-381,175	38,901	-0,186	-0,122
-380,160	800,000	-0,031	-0,078
-379,146	-20,307	-0,067	0,030
-378,131	-200,000	-0,001	-0,005
-377,117	800,000	0,026	0,057
-376,102	-138,113	-0,110	-0,009
-375,088	800,000	0,016	-0,049
-374,073	-9,063	0,091	-0,044
-373,058	64,381	-0,115	0,085
-372,044	524,201	-0,049	0,086
-371,029	800,000	0,024	-0,051
-370,015	388,015	-0,045	-0,069
-369,000	135,280	0,071	0,068
-367,985	217,369	-0,037	-0,043
-366,971	800,000	0,011	-0,028
-365,956	-102,925	0,052	-0,009
-364,942	-2,460	0,073	0,037
-363,927	-9,307	-0,086	-0,042
-362,912	-98,820	0,081	-0,015
-361,898	-200,000	-0,004	0,043
-360,883	49,785	0,102	-0,070
-359,869	-43,923	-0,098	-0,036
-358,854	-200,000	0,007	0,079
-357,839	160,784	0,018	-0,018
-356,825	-72,508	-0,090	0,024
-355,810	-64,556	0,038	0,011
-354,796	-160,998	0,042	0,002
-353,781	40,417	-0,089	-0,059
-352,766	800,000	-0,014	-0,032
-351,752	-17,944	0,193	-0,089
-350,737	-200,000	-0,018	0,063
-349,723	-200,000	0,050	0,164
-348,708	800,000	0,063	0,160
-347,693	800,000	0,031	0,079
-346,679	-122,960	0,173	-0,020
-345,664	-200,000	-0,003	0,057
-344,650	-200,000	-0,012	0,064
-343,635	800,000	0,015	-0,036
-342,620	115,450	0,112	-0,101
-341,606	89,564	-0,048	-0,040
-340,591	392,853	0,046	0,071
-339,577	385,030	-0,060	-0,091
-338,562	-84,316	-0,023	-0,005
-337,548	800,000	0,049	-0,141
-336,533	800,000	0,039	0,098
-335,518	42,373	-0,104	0,070
-334,504	-200,000	-0,010	0,049
-333,489	-39,037	-0,097	-0,037
-332,475	-200,000	-0,006	-0,031
-331,460	89,597	0,096	0,079
-330,445	42,921	-0,031	0,021
-329,431	12,392	-0,082	-0,046
-328,416	-20,284	0,166	0,075
-327,402	223,646	0,072	0,085
-326,387	40,548	-0,041	-0,027
-325,372	477,519	-0,035	-0,059
-324,358	-200,000	-0,026	-0,193
-323,343	347,170	-0,030	-0,043
-322,329	800,000	0,040	0,090
-321,314	800,000	0,064	0,140
-320,299	464,230	0,122	0,201
-319,285	-18,676	-0,046	0,021
-318,270	10,445	-0,099	0,055
-317,256	-114,597	-0,085	0,012
-316,241	800,000	-0,028	-0,066
-315,226	514,208	0,021	0,036
-314,212	24,319	-0,015	0,009
-313,197	180,955	0,078	0,084
-312,183	-1,231	0,056	-0,029
-311,168	271,281	-0,029	0,038
-310,153	84,221	-0,072	0,057
-309,139	-122,298	0,049	-0,006
-308,124	800,000	-0,033	0,079
-307,110	41,667	0,060	-0,040
-306,095	-34,904	-0,090	0,036
-305,080	-200,000	-0,100	0,000
-304,066	67,824	0,114	0,085
-303,051	-2,973	0,077	-0,039
-302,037	800,000	0,028	0,063
-301,022	-200,000	-0,021	0,075
-300,008	42,619	0,028	-0,019
-298,993	129,788	-0,021	0,020
-297,978	378,607	-0,061	-0,091
-296,964	88,400	-0,079	0,064
-295,949	-104,607	-0,139	0,023
-294,935	-200,000	-0,015	0,077
-293,920	-49,543	-0,069	-0,024
-292,905	-200,000	-0,031	0,109
-291,891	53,175	-0,070	0,049
-290,876	-53,427	-0,081	-0,027
-289,862	15,525	-0,012	-0,007
-288,847	-29,655	-0,087	-0,036
-287,832	-51,852	0,060	-0,020
-286,818	154,086	0,054	0,054
-285,803	222,222	0,022	-0,026
-284,789	78,280	-0,088	0,069
-283,774	32,965	0,139	0,088
-282,759	-39,333	-0,206	0,079
-281,745	800,000	-0,036	-0,094
-280,730	-40,018	-0,008	-0,003
-279,716	-12,269	0,054	-0,026
-278,701	16,822	0,142	0,082
-277,686	-200,000	-0,018	0,090
-276,672	-85,356	0,053	-0,012
-275,657	800,000	0,010	0,025
-274,643	625,834	-0,053	0,097
-273,628	126,144	0,105	-0,098
-272,613	800,000	0,064	-0,151
-271,599	38,323	0,035	0,023
-270,584	-200,000	0,010	-0,058
-269,570	-200,000	-0,014	0,083
-268,555	-12,867	0,025	-0,012
-267,540	366,234	0,032	-0,047
-266,526	474,497	0,012	-0,021
-265,511	-4,985	-0,081	0,041
-264,497	-200,000	0,018	-0,089
-263,482	9,677	0,011	0,006
-262,467	-87,706	-0,046	-0,010
-261,453	-200,000	0,013	0,196
-260,438	-109,009	0,042	0,006
-259,424	-133,505	-0,110	-0,010
-258,409	-58,159	-0,057	0,018
-257,395	210,868	0,050	-0,057
-256,380	462,445	0,090	0,147
-255,365	89,651	-0,054	-0,044
-254,351	64,321	-0,110	0,081
-253,336	230,369	0,075	-0,090
-252,322	800,000	0,037	-0,097
-251,307	386,248	-0,121	-0,183
-250,292	239,388	0,017	0,021
-249,278	451,423	0,078	0,126
-248,263	251,366	0,041	0,051
-247,249	-58,821	0,066	0,021
-246,234	-200,000	0,006	-0,033
-245,219	132,930	0,080	-0,076
-244,205	800,000	-0,024	-0,051
-243,190	98,941	-0,042	0,035
-242,176	-144,236	-0,048	0,003
-241,161	-23,421	-0,044	-0,019
-240,146	-27,096	0,169	0,072
-239,132	34,201	0,037	-0,024
-238,117	-200,000	-0,019	-0,075
-237,103	-83,221	-0,093	-0,022
-236,088	-81,917	-0,105	0,025
-235,073	-200,000	-0,003	0,116
-234,059	-200,000	-0,030	-0,129
-233,044	-200,000	-0,001	0,027
-232,030	-200,000	0,004	-0,077
-231,015	800,000	-0,014	0,043
-230,000	-200,000	0,004	0,047
-228,986	613,447	-0,061	0,112
-227,971	650,217	-0,044	0,083
-226,957	255,306	-0,026	0,032
-225,942	800,000	-0,042	0,102
-224,927	73,604	0,044	-0,034
-223,913	-11,595	-0,151	-0,072
-222,898	143,031	-0,083	0,080
-221,884	800,000	-0,032	-0,070
-220,869	-52,838	0,063	0,021
-219,855	-200,000	-0,015	-0,099
-218,840	33,811	-0,092	0,058
-217,825	-165,672	-0,115	0,004
-216,811	800,000	-0,046	-0,143
-215,796	-192,705	-0,135	0,001
-214,782	435,018	0,059	0,094
-213,767	-8,879	0,067	0,033
-212,752	-200,000	-0,014	0,051
-211,738	-12,655	0,184	0,087
-210,723	-68,083	0,035	0,010
-209,709	127,311	-0,065	0,060
-208,694	-12,654	0,073	0,034
-207,679	225,461	-0,081	0,096
-206,665	-200,000	0,018	0,082
-205,650	-38,130	0,067	-0,026
-204,636	-18,127	0,158	-0,072
-203,621	265,621	-0,085	0,108
-202,606	-114,097	0,066	-0,009
-201,592	-105,193	-0,230	0,038
-200,577	-35,122	-0,159	-0,063
-199,563	446,064	-0,041	0,067
-198,548	-151,231	0,061	-0,003
-197,533	-200,000	0,016	-0,094
-196,519	10,202	0,066	0,037
-195,504	-42,408	-0,126	-0,047
-194,490	83,899	0,017	0,013
-193,475	-200,000	-0,000	-0,011
-192,460	100,640	-0,035	-0,030
-191,446	-70,152	0,164	0,045
-190,431	-200,000	-0,008	0,079
-189,417	124,939	0,054	0,050
-188,402	-180,272	-0,084	0,001
-187,387	-106,660	-0,024	-0,004
-186,373	74,514	-0,063	-0,048
-185,358	20,971	0,138	-0,082
-184,344	-75,355	-0,074	-0,019
-183,329	403,244	0,058	-0,089
-182,315	-200,000	-0,011	0,051
-181,300	344,519	-0,033	0,048
-180,285	399,966	-0,058	0,088
-179,271	-67,938	-0,026	0,007
-178,256	37,906	-0,062	-0,040
-177,242	-62,810	-0,125	-0,037
-176,227	-17,384	0,122	0,056
-175,212	-200,000	0,001	0,019
-174,198	-113,304	-0,120	-0,017
-173,183	682,996	-0,031	0,059
-172,169	585,548	-0,047	-0,084
-171,154	91,882	-0,050	0,041
-170,139	-200,000	0,000	-0,134
-169,125	-200,000	-0,003	0,028
-168,110	-200,000	0,022	0,105
-167,096	-200,000	0,004	-0,085
-166,081	800,000	0,049	-0,157
-165,066	20,178	-0,057	0,033
-164,052	-3,050	-0,096	0,049
-163,037	-82,211	0,157	-0,037
-162,023	629,500	0,059	0,108
-161,008	51,280	0,194	0,134
-159,993	-132,421	-0,063	0,006
-158,979	372,994	-0,096	-0,143
-157,964	46,592	-0,147	-0,099
-156,950	14,771	-0,046	0,026
-155,935	-200,000	-0,034	-0,127
-154,920	107,640	0,062	-0,053
-153,906	-36,085	-0,062	0,024
-152,891	-39,484	-0,070	-0,027
-151,877	421,786	-0,098	-0,153
-150,862	800,000	-0,032	-0,081
-149,847	800,000	0,039	0,095
-148,833	45,962	0,129	0,087
-147,818	800,000	0,002	-0,004
-146,804	800,000	-0,058	0,149
-145,789	747,776	-0,022	0,042
-144,775	800,000	0,024	0,071
-143,760	800,000	-0,026	-0,060
-142,745	107,622	-0,122	-0,106
-141,731	-35,916	0,115	0,045
-140,716	800,000	0,032	-0,095
-139,702	-18,077	-0,025	-0,011
-138,687	19,246	0,016	-0,009
-137,672	-100,697	-0,071	0,013
-136,658	-2,281	-0,089	0,045
-135,643	800,000	-0,016	-0,040
-134,629	26,347	-0,100	-0,060
-133,614	128,525	-0,119	-0,110
-132,599	369,364	0,047	0,070
-131,585	264,866	0,146	-0,186
-130,570	800,000	-0,057	-0,133
-129,556	376,265	0,070	0,104
-128,541	112,414	0,047	0,042
-127,526	22,945	-0,147	0,088
-126,512	-106,281	0,035	-0,006
-125,497	-44,747	0,318	0,115
-124,483	-200,000	-0,015	0,089
-123,468	506,919	-0,083	0,141
-122,453	441,336	0,019	-0,031
-121,439	382,698	0,069	0,103
-120,424	-108,798	-0,139	-0,021
-119,410	-155,379	0,160	0,007
-118,395	-200,000	0,020	0,124
-117,380	-91,576	0,128	0,026
-116,366	-50,630	0,054	-0,018
-115,351	344,518	0,023	0,033
-114,337	271,150	-0,052	-0,067
-113,322	-116,745	-0,168	0,022
-112,307	-200,000	-0,016	-0,058
-111,293	-100,079	0,034	-0,006
-110,278	-200,000	0,027	0,144
-109,264	-200,000	0,027	0,146
-108,249	252,036	-0,095	-0,118
-107,234	-200,000	-0,019	-0,099
-106,220	-200,000	0,033	-0,122
-105,205	-55,038	0,078	-0,025
-104,191	-38,846	-0,066	-0,025
-103,176	626,937	0,038	0,070
-102,162	800,000	-0,032	0,072
-101,147	-200,000	-0,029	0,114
-100,132	800,000	-0,059	-0,132
-99,118	-114,440	-0,058	0,008
-98,103	-200,000	0,002	0,013
-97,089	-200,000	-0,019	0,110
-96,074	102,983	0,128	0,109
-95,059	99,458	-0,086	0,073
-94,045	800,000	0,033	0,094
-93,030	177,778	-0,068	-0,072
-92,016	34,153	0,015	-0,010
-91,001	-96,086	-0,059	-0,011
-89,986	-2,958	0,020	-0,010
-88,972	800,000	-0,030	-0,069
-87,957	103,105	0,059	-0,050
-86,943	133,790	0,067	-0,063
-85,928	-200,000	-0,013	-0,046
-84,913	-200,000	0,020	0,077
-83,899	-103,936	0,046	0,008
-82,884	-200,000	0,010	0,055
-81,870	221,941	-0,056	0,065
-80,855	-63,123	0,040	-0,012
-79,840	800,000	0,015	0,034
-78,826	30,468	-0,079	-0,049
-77,811	800,000	0,033	0,067
-76,797	-200,000	-0,021	0,182
-75,782	800,000	0,038	0,102
-74,767	356,463	0,057	-0,083
-73,753	-200,000	-0,043	0,182
-72,738	-36,140	0,069	0,027
-71,724	72,473	0,152	0,115
-70,709	-200,000	-0,027	0,136
-69,694	40,482	0,064	0,042
-68,680	800,000	-0,034	-0,082
-67,665	-200,000	0,002	-0,075
-66,651	-200,000	-0,020	0,085
-65,636	208,528	-0,116	0,131
-64,622	362,573	0,033	0,048
-63,607	-142,197	-0,063	0,004
-62,592	-25,691	-0,055	-0,024
-61,578	3,985	-0,129	-0,068
-60,563	-64,711	-0,051	0,015
-59,549	-86,311	0,054	0,012
-58,534	-97,410	-1,440	-0,269
-57,519	800,000	-0,646	-1,508
-56,505	-200,000	-0,931	-4,427
-55,490	-96,616	0,673	-0,128
-54,476	800,000	5,055	11,779
-53,461	-200,000	14,553	258,429
-52,446	-200,000	696,142	2259,937
-51,432	582,562	1624,894	2904,703
-50,417	117,901	1633,379	1459,837
-49,403	74,401	1287,481	980,737
-48,388	37,691	1024,777	658,804
-47,373	23,755	983,163	586,135
-46,359	22,953	972,829	577,316
-45,344	21,926	968,274	571,230
-44,330	21,831	966,890	570,080
-43,315	21,705	965,304	568,712
-42,300	21,705	964,354	568,129
-41,286	21,654	963,491	567,431
-40,271	21,695	962,104	566,725
-39,257	21,650	961,342	566,106
-38,242	21,653	960,523	565,613
-37,227	21,651	959,574	565,025
-36,213	21,659	958,551	564,426
-35,198	21,624	957,722	563,802
-34,184	21,655	957,266	563,611
-33,169	21,639	956,232	562,929
-32,154	21,685	955,404	562,566
-31,140	21,731	954,412	562,108
-30,125	21,675	953,841	561,570
-29,111	21,682	952,916	561,026
-28,096	21,698	952,330	560,708
-27,082	21,672	951,564	560,152
-26,067	21,697	950,766	559,741
-25,052	21,699	950,037	559,298
-24,038	21,711	949,323	558,891
-23,023	21,683	948,709	558,420
-22,009	21,679	948,097	558,022
-20,994	21,685	947,527	557,685
-19,979	21,717	946,884	557,388
-18,965	21,691	946,409	557,002
-17,950	21,676	945,676	556,502
-16,936	21,674	944,961	556,053
-15,921	21,592	944,385	555,428
-14,906	21,607	943,315	554,825
-13,892	21,585	943,038	554,569
-12,877	21,551	942,224	553,960
-11,863	21,552	941,595	553,573
-10,848	21,540	941,242	553,306
-9,833	21,628	940,799	553,302
-8,819	21,635	940,179	552,936
-7,804	21,622	939,464	552,454
-6,790	21,568	938,796	551,870
-5,775	21,587	938,217	551,568
-4,760	21,585	937,542	551,142
-3,746	21,504	937,008	550,550
-2,731	21,455	936,262	549,935
-1,717	21,380	935,479	549,215
-0,702	21,394	934,842	548,864
0,313	21,186	934,419	548,786
1,327	24,158	932,317	556,866
2,342	33,407	795,724	499,932
3,356	30,772	451,970	279,954
4,371	0,226	295,450	152,307
5,386	-4,062	276,385	138,380
6,400	-5,735	270,525	133,871
7,415	-6,197	268,273	132,317
8,429	-5,807	267,132	132,102
9,444	-5,699	266,108	131,683
10,459	-5,684	265,561	131,414
11,473	-5,560	264,986	131,232
12,488	-5,621	264,496	130,922
13,502	-5,823	263,793	130,378
14,517	-5,651	263,551	130,403
15,531	-5,426	263,252	130,448
16,546	-5,356	262,867	130,309
17,561	-5,312	262,376	130,094
18,575	-5,198	262,116	130,056
19,590	-5,465	261,882	129,687
20,604	-5,402	261,490	129,539
21,619	-5,362	261,196	129,418
22,634	-5,256	260,747	129,279
23,648	-5,356	260,466	129,038
24,663	-5,399	260,254	128,884
25,677	-5,183	259,889	128,885
26,692	-5,429	259,753	128,585
27,707	-5,398	259,370	128,412
28,721	-5,491	259,253	128,259
29,736	-5,416	258,907	128,144
30,750	-5,687	258,795	127,836
31,765	-5,501	258,502	127,845
32,780	-5,507	258,366	127,761
33,794	-5,518	257,965	127,542
34,809	-5,410	257,925	127,606
35,823	-5,497	257,532	127,323
36,838	-5,498	257,316	127,204
37,853	-5,376	257,014	127,152
38,867	-5,543	256,808	126,890
39,882	-5,696	256,757	126,719
40,896	-5,313	256,328	126,834
41,911	-5,463	256,135	126,595
42,926	-5,559	255,927	126,397
43,940	-5,565	255,571	126,203
44,955	-5,620	255,561	126,139
45,969	-5,783	255,291	125,851
46,984	-5,869	255,043	125,643
47,999	-6,001	254,803	125,397
49,013	-5,996	254,533	125,257
50,028	-6,270	254,414	124,948
51,042	-6,414	254,054	124,634
52,057	-6,338	253,747	124,538
53,071	-6,067	253,595	124,689
54,086	-6,061	253,548	124,661
55,101	-5,951	253,271	124,609
56,115	-5,986	253,151	124,509
57,130	-5,539	253,099	124,860
58,144	-5,260	252,860	124,974
59,159	-5,291	252,520	124,768
60,174	-5,438	252,489	124,614
61,188	-5,685	252,337	124,313
62,203	-5,347	251,867	124,364
63,217	-5,244	251,782	124,400
64,232	-5,343	251,469	124,149
65,247	-5,565	251,370	123,896
66,261	-5,560	251,257	123,834
67,276	-5,434	250,770	123,692
68,290	-5,977	250,643	123,150
69,305	-5,950	250,252	122,971
70,320	-5,881	250,268	123,027
71,334	-5,524	250,037	123,209
72,349	-5,435	249,930	123,222
73,363	-5,386	249,678	123,129
74,378	-5,447	249,540	122,997
75,393	-5,543	249,276	122,774
76,407	-5,544	249,136	122,693
77,422	-5,551	248,941	122,580
78,436	-5,441	248,656	122,523
79,451	-5,566	248,505	122,330
80,466	-5,580	248,312	122,213
81,480	-5,740	248,098	121,961
82,495	-5,653	247,834	121,893
83,509	-5,757	247,698	121,728
84,524	-5,679	247,517	121,694
85,539	-5,927	247,286	121,359
86,553	-5,954	247,144	121,256
87,568	-5,760	246,811	121,246
88,582	-5,835	246,745	121,139
89,597	-5,823	246,611	121,073
90,611	-5,667	246,389	121,085
91,626	-5,562	246,411	121,174
92,641	-5,436	246,026	121,079
93,655	-5,573	246,082	120,981
94,670	-5,751	245,532	120,550
95,684	-5,582	245,426	120,629
96,699	-5,508	245,101	120,521
97,714	-5,607	245,034	120,394
98,728	-5,909	244,934	120,081
99,743	-5,780	244,662	120,045
100,757	-5,802	244,351	119,863
101,772	-5,923	244,311	119,731
102,787	-5,802	244,117	119,727
103,801	-5,794	243,848	119,591
104,816	-5,635	243,770	119,675
105,830	-5,399	243,591	119,773
106,845	-5,485	243,451	119,622
107,860	-5,550	243,246	119,457
108,874	-5,581	242,849	119,225
109,889	-5,811	242,727	118,964
110,903	-5,741	242,592	118,945
111,918	-5,736	242,470	118,879
112,933	-5,740	242,193	118,729
113,947	-5,692	242,216	118,769
114,962	-5,700	241,960	118,627
115,976	-5,676	241,959	118,636
116,991	-5,545	241,623	118,568
118,006	-5,889	241,546	118,236
119,020	-5,604	241,423	118,400
120,035	-5,515	241,163	118,336
121,049	-5,465	241,184	118,376
122,064	-5,476	240,782	118,160
123,079	-5,506	240,702	118,085
124,093	-5,659	240,472	117,836
125,108	-5,876	240,341	117,583
126,122	-5,971	239,999	117,328
127,137	-5,990	239,883	117,244
128,151	-5,936	239,746	117,212
129,166	-5,782	239,439	117,177
130,181	-5,964	239,308	116,953
131,195	-5,803	239,037	116,943
132,210	-5,861	239,120	116,925
133,224	-5,543	238,764	116,999
134,239	-5,541	238,660	116,941
135,254	-5,639	238,563	116,803
136,268	-5,637	238,289	116,659
137,283	-5,846	237,975	116,326
138,297	-5,923	237,947	116,238
139,312	-6,055	237,703	116,002
140,327	-5,666	237,575	116,244
141,341	-5,388	237,708	116,525
142,356	-5,387	237,476	116,402
143,370	-5,378	237,205	116,265
144,385	-5,274	236,976	116,228
145,400	-5,164	236,833	116,236
146,414	-5,155	236,718	116,177
147,429	-5,379	236,528	115,891
148,443	-5,303	236,363	115,862
149,458	-5,353	236,335	115,797
150,473	-5,472	236,113	115,583
151,487	-5,398	235,883	115,519
152,502	-5,390	235,814	115,482
153,516	-5,311	235,620	115,439
154,531	-5,471	235,394	115,190
155,546	-5,459	235,134	115,062
156,560	-5,344	234,904	115,032
157,575	-5,635	234,857	114,765
158,589	-5,422	234,581	114,791
159,604	-5,199	234,394	114,867
160,619	-5,284	234,400	114,792
161,633	-5,093	234,161	114,817
162,648	-5,252	234,103	114,651
163,662	-5,281	233,793	114,466
164,677	-5,532	233,713	114,217
165,692	-5,407	233,590	114,246
166,706	-5,316	233,440	114,235
167,721	-5,282	233,502	114,282
168,735	-5,118	233,208	114,259
169,750	-5,316	232,970	113,975
170,764	-5,470	232,753	113,736
171,779	-5,330	232,723	113,822
172,794	-5,201	232,546	113,828
173,808	-5,358	232,231	113,539
174,823	-5,929	231,987	112,959
175,837	-5,979	231,957	112,895
176,852	-5,551	231,863	113,177
177,867	-5,397	231,741	113,228
178,881	-5,286	231,466	113,172
179,896	-5,111	231,345	113,240
180,910	-5,192	231,275	113,132
181,925	-5,193	231,065	113,018
182,940	-5,434	231,035	112,804
183,954	-5,376	230,901	112,774
184,969	-5,144	230,682	112,839
185,983	-5,063	230,555	112,831
186,998	-5,125	230,319	112,656
188,013	-4,965	230,223	112,724
189,027	-5,127	230,010	112,483
190,042	-5,010	229,794	112,459
191,056	-5,104	229,698	112,329
192,071	-5,166	229,416	112,133
193,086	-5,400	229,331	111,899
194,100	-5,247	229,145	111,917
195,115	-5,895	228,676	111,175
196,129	-7,145	228,415	110,067
197,144	-3,329	229,451	113,531
198,159	1,350	230,980	117,938
199,173	4,076	231,617	120,387
200,188	4,440	231,475	120,586
201,202	4,599	231,312	120,615
202,217	4,803	231,216	120,713
203,232	4,823	231,277	120,750
204,246	4,815	231,040	120,609
205,261	4,899	231,064	120,676
206,275	4,856	230,977	120,586
207,290	5,066	230,623	120,554
208,304	5,148	230,448	120,516
209,319	5,126	230,356	120,440
210,334	5,055	230,130	120,256
211,348	4,840	229,911	119,963
212,363	4,333	229,699	119,450
213,377	4,225	229,340	119,169
214,392	4,140	229,224	119,033
215,407	4,455	229,035	119,167
216,421	4,483	229,077	119,200
217,436	4,304	228,802	118,908
218,450	3,955	228,610	118,529
219,465	4,056	228,355	118,464
220,480	3,894	228,430	118,367
221,494	3,919	228,197	118,255
222,509	4,135	228,041	118,330
223,523	3,958	228,058	118,192
224,538	4,257	227,645	118,197
225,553	4,277	227,575	118,165
226,567	4,218	227,434	118,036
227,582	4,392	227,451	118,168
228,596	4,579	227,299	118,221
229,611	4,404	227,197	118,024
230,626	4,146	226,975	117,701
231,640	4,147	226,647	117,522
232,655	4,386	226,709	117,725
233,669	4,655	226,548	117,836
234,684	4,829	226,451	117,908
235,699	4,410	226,286	117,493
236,713	4,412	226,209	117,443
237,728	4,322	225,818	117,162
238,742	4,282	225,586	117,000
239,757	4,132	225,590	116,878
240,772	4,138	225,300	116,722
241,786	4,241	225,290	116,785
242,801	4,299	225,265	116,805
243,815	4,794	225,015	117,040
244,830	4,617	224,961	116,867
245,844	4,272	224,748	116,486
246,859	4,491	224,471	116,497
247,874	4,475	224,598	116,540
248,888	4,527	224,301	116,415
249,903	4,201	224,233	116,123
250,917	4,226	224,162	116,095
251,932	4,467	223,836	116,097
252,947	4,095	223,672	115,722
253,961	4,152	223,645	115,741
254,976	3,970	223,425	115,480
255,990	4,249	223,302	115,616
257,005	4,277	223,290	115,620
258,020	4,370	223,121	115,592
259,034	4,586	222,965	115,663
260,049	4,578	222,779	115,549
261,063	4,310	222,660	115,277
262,078	4,463	222,499	115,298
263,093	4,810	222,334	115,461
264,107	4,289	222,385	115,089
265,122	4,468	222,060	115,043
266,136	4,594	221,948	115,069
267,151	4,768	221,763	115,092
268,166	4,217	221,530	114,551
269,180	4,106	221,249	114,314
270,195	4,273	221,136	114,369
271,209	4,066	221,062	114,167
272,224	4,416	220,964	114,366
273,239	4,151	220,925	114,139
274,253	4,126	220,631	113,958
275,268	4,111	220,464	113,851
276,282	4,047	220,152	113,632
277,297	3,984	220,129	113,564
278,312	3,776	220,091	113,380
279,326	4,150	219,960	113,579
280,341	4,134	219,762	113,455
281,355	4,058	219,763	113,389
282,370	4,297	219,548	113,444
283,384	4,229	219,319	113,266
284,399	4,004	219,201	113,029
285,414	4,037	219,084	112,983
286,428	4,027	219,100	112,974
287,443	4,373	218,890	113,109
288,457	4,466	218,728	113,083
289,472	4,166	218,517	112,745
290,487	3,735	218,236	112,275
291,501	3,672	218,108	112,153
292,516	4,069	218,019	112,386
293,530	4,066	217,935	112,331
294,545	4,064	217,807	112,253
295,560	4,075	217,652	112,171
296,574	4,246	217,529	112,223
297,589	4,109	217,382	112,038
298,603	4,284	217,205	112,063
299,618	3,999	217,201	111,844
300,633	4,154	217,024	111,856
301,647	4,399	216,990	112,006
302,662	4,715	216,837	112,146
303,676	4,475	216,695	111,889
304,691	4,372	216,636	111,774
305,706	4,544	216,406	111,770
306,720	4,475	216,379	111,696
307,735	4,349	216,144	111,473
308,749	4,230	216,025	111,316
309,764	4,137	215,875	111,162
310,779	4,559	215,687	111,359
311,793	4,326	215,545	111,108
312,808	4,466	215,318	111,082
313,822	4,531	215,204	111,060
314,837	4,117	215,024	110,660
315,852	4,107	214,936	110,598
316,866	4,199	214,833	110,601
317,881	4,488	214,742	110,751
318,895	4,632	214,549	110,745
319,910	4,173	214,360	110,309
320,925	3,985	214,106	110,034
321,939	3,601	213,938	109,664
322,954	3,893	213,876	109,830
323,968	4,100	213,915	109,989
324,983	4,295	213,858	110,088
325,997	4,408	213,589	110,021
327,012	4,399	213,445	109,931
328,027	4,337	213,300	109,802
329,041	4,640	213,383	110,051
330,056	4,810	213,133	110,033
331,070	4,179	212,931	109,470
332,085	3,917	212,773	109,193
333,100	3,944	212,710	109,171
334,114	4,329	212,410	109,279
335,129	4,223	212,352	109,165
336,143	3,837	212,139	108,773
337,158	3,961	211,987	108,773
338,173	4,040	211,992	108,822
339,187	4,180	211,746	108,785
340,202	3,900	211,600	108,502
341,216	3,754	211,401	108,287
342,231	3,975	211,388	108,427
343,246	3,882	211,253	108,283
344,260	3,862	211,203	108,233
345,275	3,909	211,051	108,178
346,289	4,375	210,921	108,430
347,304	4,289	210,794	108,295
348,319	4,055	210,672	108,058
349,333	3,961	210,505	107,896
350,348	4,322	210,310	108,041
351,362	4,588	210,227	108,174
352,377	4,312	210,298	108,007
353,392	4,271	210,007	107,820
354,406	4,504	209,820	107,877
355,421	193,376	1344,630	1431,384
356,435	154,315	1482,988	1431,491
