DTS Sentinel unit serial number:	SN410029Multiplexer serial number:	ORYXHardware model number:	OX2-SRSoftware version number:	ORYX F/W v4,00 Oryx Data Collector v3.7.2.0data status	okinstallation	B6 Nyhavnadifferential loss correction	single-endedforward channel	channel 2reverse channel	N/Adate	2023/12/07time	14:05:08forward acquisition time	300,00reverse acquisition time	0,00gamma	499,1914k internal	0,3199k external	0,3199temperature offset calibration	1,0000default loss term (dB/km)	0,3820temperature slope calibration	1,0000multiplexer offset coefficient	1,0000multiplexer slope coefficient	1,0000fibre end	0,00T internal ref (°C)	13,22T ext. ref 1 (°C)	-1,71T ext. ref 2 (°C)	-1,69length (m)	temperature (°C)	Stokes	anti-Stokes-744,400	748,407	0,044	0,087
-743,385	-106,979	-0,338	-0,054
-742,371	44,509	0,153	0,102
-741,356	140,251	-0,231	-0,222
-740,342	-98,348	0,089	-0,016
-739,327	-62,080	-0,351	-0,106
-738,312	-131,435	0,059	0,006
-737,298	164,405	-0,226	-0,232
-736,283	-157,936	0,127	0,005
-735,269	-142,553	-0,356	0,025
-734,254	-66,145	0,195	-0,056
-733,239	-64,509	-0,520	-0,153
-732,225	643,245	0,083	0,154
-731,210	419,429	0,059	0,092
-730,196	-123,245	-0,096	-0,011
-729,181	800,000	-0,054	-0,126
-728,167	-94,177	0,116	0,023
-727,152	43,961	-0,058	0,039
-726,137	-86,670	-0,129	0,028
-725,123	-108,804	-0,153	-0,024
-724,108	800,000	-0,106	-0,214
-723,094	92,175	-0,073	-0,060
-722,079	-41,974	-0,102	0,038
-721,064	800,000	-0,065	-0,182
-720,050	-108,291	-0,070	-0,011
-719,035	-200,000	-0,008	-0,127
-718,021	-60,252	-0,084	-0,026
-717,006	52,044	-0,122	0,085
-715,991	68,460	-0,074	-0,055
-714,977	160,501	-0,076	-0,077
-713,962	135,652	0,023	-0,022
-712,948	24,626	0,156	-0,094
-711,933	800,000	-0,025	0,056
-710,918	39,576	-0,087	0,056
-709,904	249,588	-0,040	-0,050
-708,889	-122,065	0,075	-0,009
-707,875	102,841	0,021	-0,018
-706,860	-200,000	-0,013	-0,076
-705,845	-60,215	0,119	0,037
-704,831	398,987	0,024	0,036
-703,816	-108,029	-0,102	-0,016
-702,802	-200,000	0,006	-0,055
-701,787	-200,000	0,029	-0,099
-700,772	256,302	-0,107	-0,133
-699,758	-200,000	-0,013	-0,052
-698,743	-21,680	0,012	0,005
-697,729	105,460	0,084	0,072
-696,714	-200,000	0,008	0,054
-695,699	176,353	0,018	-0,019
-694,685	290,647	-0,103	0,136
-693,670	104,058	0,099	-0,085
-692,656	-200,000	0,024	0,080
-691,641	800,000	0,061	-0,125
-690,627	-46,450	0,155	-0,055
-689,612	-166,293	-0,152	-0,005
-688,597	320,236	0,009	0,012
-687,583	-145,319	-0,078	0,005
-686,568	-200,000	0,010	-0,125
-685,554	-66,073	-0,142	-0,041
-684,539	-79,059	0,027	0,007
-683,524	73,654	-0,065	-0,049
-682,510	-37,333	0,025	0,009
-681,495	-200,000	-0,012	-0,053
-680,481	-56,854	-0,102	-0,033
-679,466	-54,556	-0,101	-0,033
-678,451	800,000	0,044	-0,102
-677,437	508,672	0,057	-0,096
-676,422	92,080	0,218	-0,178
-675,408	41,210	0,116	-0,076
-674,393	-200,000	-0,023	0,157
-673,378	735,914	-0,069	-0,135
-672,364	-144,464	-0,088	0,006
-671,349	-112,291	-0,140	-0,020
-670,335	-13,304	-0,107	0,050
-669,320	239,368	0,032	-0,039
-668,305	-7,801	0,113	-0,055
-667,291	796,584	-0,043	-0,087
-666,276	800,000	-0,057	-0,122
-665,262	-91,199	-0,112	-0,023
-664,247	362,800	-0,086	-0,126
-663,232	-200,000	-0,010	0,052
-662,218	-130,908	0,073	-0,007
-661,203	-200,000	-0,034	-0,127
-660,189	-150,689	-0,073	0,004
-659,174	-36,365	-0,148	-0,058
-658,159	-79,660	-0,022	0,005
-657,145	800,000	-0,032	-0,086
-656,130	-57,435	-0,174	0,055
-655,116	-200,000	0,010	-0,124
-654,101	211,107	0,113	0,129
-653,086	-200,000	-0,039	0,184
-652,072	506,901	-0,021	-0,035
-651,057	395,065	-0,066	-0,100
-650,043	-200,000	0,032	-0,130
-649,028	-47,673	-0,082	-0,029
-648,014	52,366	-0,016	0,011
-646,999	-86,367	-0,094	-0,021
-645,984	574,741	-0,072	-0,129
-644,970	-200,000	0,006	0,080
-643,955	271,499	-0,051	-0,065
-642,941	-200,000	-0,003	-0,177
-641,926	-60,295	-0,050	-0,015
-640,911	-200,000	0,002	-0,028
-639,897	72,840	-0,050	-0,038
-638,882	-200,000	-0,006	-0,048
-637,868	-102,109	-0,113	0,020
-636,853	800,000	-0,115	-0,290
-635,838	-114,803	-0,055	-0,007
-634,824	498,064	-0,006	-0,010
-633,809	800,000	-0,017	-0,045
-632,795	-200,000	-0,011	0,053
-631,780	428,557	0,058	-0,091
-630,765	-67,622	-0,103	-0,029
-629,751	-200,000	-0,024	-0,176
-628,736	-95,984	0,053	-0,010
-627,722	419,005	0,076	-0,118
-626,707	618,603	0,050	-0,092
-625,692	800,000	-0,064	0,140
-624,678	298,677	0,035	-0,047
-623,663	-200,000	0,022	0,100
-622,649	-143,048	0,065	0,005
-621,634	-200,000	0,006	-0,091
-620,619	-64,108	0,051	-0,015
-619,605	-14,014	0,058	0,027
-618,590	-104,589	-0,043	-0,007
-617,576	-200,000	0,059	-0,190
-616,561	-200,000	-0,001	-0,141
-615,546	63,775	-0,080	-0,058
-614,532	372,869	0,022	0,033
-613,517	278,619	-0,045	0,059
-612,503	330,699	0,054	-0,075
-611,488	159,488	0,019	-0,019
-610,474	-186,924	-0,146	-0,001
-609,459	-200,000	-0,036	0,142
-608,444	800,000	-0,033	-0,103
-607,430	64,482	0,049	-0,036
-606,415	-19,427	-0,054	0,024
-605,401	90,105	-0,061	0,050
-604,386	-143,484	-0,060	0,004
-603,371	53,422	0,086	0,060
-602,357	-36,891	-0,047	0,018
-601,342	-200,000	-0,044	-0,144
-600,328	187,435	-0,087	-0,094
-599,313	60,303	0,049	-0,035
-598,298	-120,745	0,066	0,008
-597,284	-200,000	0,014	0,083
-596,269	-41,605	0,077	-0,028
-595,255	-12,163	-0,108	-0,051
-594,240	-32,387	-0,137	0,055
-593,225	-89,423	0,070	-0,015
-592,211	449,019	-0,065	-0,104
-591,196	123,306	-0,078	-0,071
-590,182	-200,000	-0,034	0,125
-589,167	72,804	-0,044	-0,033
-588,152	-84,154	0,083	-0,019
-587,138	-200,000	-0,037	-0,121
-586,123	-165,770	-0,208	0,006
-585,109	-200,000	-0,001	-0,077
-584,094	-200,000	0,012	-0,093
-583,079	-105,687	-0,110	0,018
-582,065	-104,041	0,101	0,017
-581,050	-200,000	-0,027	-0,102
-580,036	-200,000	-0,013	0,110
-579,021	31,087	-0,075	0,046
-578,006	113,822	-0,087	-0,076
-576,992	362,944	0,016	0,024
-575,977	-60,971	-0,041	0,013
-574,963	-200,000	-0,007	0,090
-573,948	-200,000	-0,018	-0,086
-572,934	-108,012	0,223	0,035
-571,919	59,482	0,026	0,019
-570,904	-200,000	-0,038	-0,206
-569,890	193,899	0,050	-0,055
-568,875	-31,633	0,027	0,011
-567,861	-105,673	0,055	0,009
-566,846	676,438	0,073	-0,137
-565,831	-26,454	-0,044	-0,019
-564,817	144,303	-0,081	-0,079
-563,802	-134,202	-0,076	0,007
-562,788	-29,131	-0,101	-0,042
-561,773	-200,000	0,005	-0,100
-560,758	-81,374	-0,017	-0,004
-559,744	800,000	0,039	0,112
-558,729	409,221	-0,027	0,042
-557,715	-92,457	-0,087	0,018
-556,700	76,363	0,047	0,036
-555,685	30,098	-0,047	-0,029
-554,671	286,520	0,047	0,062
-553,656	-38,911	0,089	0,034
-552,642	-99,669	-0,082	-0,015
-551,627	-200,000	-0,002	-0,039
-550,612	800,000	0,024	-0,077
-549,598	-200,000	-0,021	-0,176
-548,583	55,394	-0,046	0,032
-547,569	3,340	-0,154	-0,081
-546,554	207,375	0,068	-0,076
-545,539	-64,344	0,074	-0,022
-544,525	-32,007	0,087	-0,035
-543,510	-39,460	0,005	-0,002
-542,496	296,652	-0,076	0,100
-541,481	-200,000	0,007	0,051
-540,466	95,537	-0,047	0,039
-539,452	83,936	0,089	0,070
-538,437	-200,000	0,002	0,016
-537,423	-19,116	0,072	0,032
-536,408	631,158	0,024	-0,044
-535,393	248,860	-0,043	0,053
-534,379	3,858	-0,098	-0,052
-533,364	-165,714	0,066	0,002
-532,350	77,334	0,131	-0,100
-531,335	366,000	0,105	-0,153
-530,321	485,152	0,072	0,119
-529,306	38,210	-0,107	0,068
-528,291	15,314	-0,040	-0,023
-527,277	-82,703	-0,098	-0,023
-526,262	-200,000	-0,024	-0,100
-525,248	-200,000	0,001	-0,011
-524,233	-99,408	0,016	-0,003
-523,218	-24,549	-0,078	-0,033
-522,204	756,073	0,031	-0,061
-521,189	16,520	-0,029	-0,017
-520,175	-153,628	-0,088	0,004
-519,160	-23,947	0,080	0,034
-518,145	-200,000	0,015	-0,048
-517,131	-21,593	-0,049	0,022
-516,116	-101,841	0,166	0,029
-515,102	-8,696	0,059	0,028
-514,087	125,035	0,043	0,039
-513,072	800,000	0,037	-0,113
-512,058	-0,910	-0,068	0,035
-511,043	-93,322	0,034	-0,007
-510,029	-192,483	-0,080	0,001
-509,014	-200,000	0,004	0,032
-507,999	-200,000	-0,012	0,165
-506,985	-200,000	0,011	0,117
-505,970	-78,861	0,053	-0,013
-504,956	-66,732	-0,064	-0,018
-503,941	97,643	-0,035	0,029
-502,926	-33,512	0,076	-0,030
-501,912	106,005	0,047	0,040
-500,897	800,000	0,029	0,072
-499,883	-200,000	-0,019	-0,094
-498,868	393,331	-0,072	-0,108
-497,853	70,369	0,049	-0,036
-496,839	22,585	-0,150	0,088
-495,824	240,804	0,055	0,066
-494,810	-51,395	-0,084	0,028
-493,795	8,481	0,081	0,044
-492,781	800,000	-0,007	0,022
-491,766	110,757	-0,169	-0,147
-490,751	-200,000	0,037	0,127
-489,737	800,000	0,038	-0,096
-488,722	-200,000	-0,007	0,095
-487,708	56,776	-0,139	0,098
-486,693	5,099	0,161	0,085
-485,678	-7,171	-0,150	-0,073
-484,664	369,771	0,093	-0,136
-483,649	85,838	0,018	-0,015
-482,635	365,958	0,012	0,018
-481,620	-144,468	0,074	0,005
-480,605	433,006	0,065	0,102
-479,591	191,546	0,007	0,007
-478,576	-122,474	-0,125	-0,014
-477,562	-200,000	0,020	-0,130
-476,547	-200,000	-0,033	-0,211
-475,532	-130,797	0,116	-0,011
-474,518	-96,866	0,116	0,022
-473,503	-200,000	-0,009	0,077
-472,489	126,350	0,009	0,008
-471,474	186,644	0,065	0,070
-470,459	163,676	0,050	-0,051
-469,445	166,634	0,036	0,037
-468,430	-22,608	-0,049	-0,021
-467,416	-13,389	0,064	0,030
-466,401	-102,337	0,082	0,014
-465,386	-200,000	0,009	0,162
-464,372	-174,355	-0,097	-0,002
-463,357	761,923	-0,073	-0,144
-462,343	-200,000	0,024	0,111
-461,328	800,000	0,025	-0,077
-460,313	-58,796	0,114	-0,035
-459,299	43,769	0,132	0,087
-458,284	371,120	-0,068	0,100
-457,270	800,000	0,074	0,168
-456,255	151,490	-0,059	0,058
-455,241	49,395	-0,107	0,073
-454,226	-200,000	0,028	-0,116
-453,211	-200,000	0,003	0,095
-452,197	401,930	0,036	-0,055
-451,182	316,906	0,067	0,092
-450,168	-10,229	-0,037	-0,018
-449,153	149,695	-0,060	0,058
-448,138	127,639	-0,050	0,045
-447,124	79,792	-0,085	0,065
-446,109	455,610	0,051	0,081
-445,095	313,730	0,007	-0,010
-444,080	-200,000	-0,006	-0,073
-443,065	800,000	0,007	0,019
-442,051	65,463	-0,042	0,031
-441,036	-200,000	-0,002	0,018
-440,022	-200,000	-0,008	0,108
-439,007	85,951	-0,066	0,052
-437,992	154,729	0,044	-0,043
-436,978	-54,751	0,104	0,034
-435,963	41,253	0,100	0,065
-434,949	-22,438	-0,044	0,019
-433,934	-63,352	-0,089	-0,026
-432,919	76,168	0,025	0,019
-431,905	-11,795	0,076	0,036
-430,890	-43,663	0,070	0,025
-429,876	58,950	0,091	-0,064
-428,861	60,831	0,071	-0,051
-427,846	1,431	0,017	-0,009
-426,832	193,974	-0,068	-0,074
-425,817	800,000	0,013	-0,030
-424,803	-0,209	-0,086	0,044
-423,788	-14,203	0,091	-0,042
-422,773	121,681	0,079	0,071
-421,759	-55,997	0,024	-0,008
-420,744	-167,142	0,090	0,003
-419,730	118,361	-0,027	0,024
-418,715	-39,456	-0,131	0,049
-417,701	-0,807	-0,088	-0,045
-416,686	-103,107	0,086	0,015
-415,671	-200,000	0,041	0,137
-414,657	336,203	0,081	0,113
-413,642	800,000	0,031	-0,083
-412,628	182,937	0,081	-0,086
-411,613	-59,251	-0,037	0,012
-410,598	9,431	-0,110	-0,060
-409,584	40,776	-0,056	-0,036
-408,569	132,225	0,101	0,094
-407,555	-102,939	0,151	-0,026
-406,540	-0,211	0,111	0,057
-405,525	-159,683	-0,081	-0,003
-404,511	180,946	-0,093	-0,099
-403,496	-200,000	-0,049	0,163
-402,482	79,913	-0,076	0,058
-401,467	-200,000	0,013	0,074
-400,452	-174,723	0,082	-0,002
-399,438	304,135	-0,058	0,078
-398,423	601,612	-0,073	-0,131
-397,409	5,534	0,022	0,012
-396,394	-137,101	-0,169	-0,014
-395,379	-200,000	-0,002	-0,031
-394,365	800,000	0,064	0,141
-393,350	31,930	-0,092	0,057
-392,336	-105,832	0,013	0,002
-391,321	197,445	-0,076	0,083
-390,306	495,208	0,027	0,044
-389,292	-200,000	0,002	0,035
-388,277	294,467	0,060	-0,079
-387,263	112,495	-0,032	0,028
-386,248	496,417	0,077	0,127
-385,233	-21,235	0,066	-0,029
-384,219	49,108	0,068	0,046
-383,204	800,000	0,052	0,128
-382,190	800,000	0,024	-0,054
-381,175	162,426	-0,068	0,068
-380,160	800,000	0,016	0,048
-379,146	42,043	0,094	0,061
-378,131	-200,000	-0,025	0,112
-377,117	1,019	0,121	0,062
-376,102	-157,853	-0,049	-0,002
-375,088	-77,878	-0,180	-0,044
-374,073	-45,796	-0,119	0,042
-373,058	148,677	0,007	0,007
-372,044	191,939	0,062	0,067
-371,029	536,216	0,029	0,050
-370,015	521,187	0,058	0,098
-369,000	263,813	-0,120	-0,150
-367,985	56,080	-0,029	0,020
-366,971	-200,000	-0,007	-0,067
-365,956	-56,019	-0,130	-0,041
-364,942	-200,000	-0,054	0,175
-363,927	242,051	0,035	0,043
-362,912	-64,075	0,025	-0,007
-361,898	-39,997	0,069	-0,026
-360,883	444,818	-0,055	-0,087
-359,869	616,890	0,054	-0,098
-358,854	800,000	0,036	0,093
-357,839	223,173	0,025	0,029
-356,825	-200,000	0,030	0,120
-355,810	104,531	0,050	-0,042
-354,796	-14,650	0,074	0,034
-353,781	-43,350	0,067	-0,024
-352,766	14,403	-0,126	0,070
-351,752	-200,000	0,006	-0,048
-350,737	-67,204	0,057	0,016
-349,723	43,890	0,098	0,064
-348,708	249,472	0,049	0,059
-347,693	-200,000	0,017	-0,059
-346,679	382,928	0,047	-0,070
-345,664	-20,891	-0,104	0,045
-344,650	-0,077	0,195	0,099
-343,635	-42,103	-0,069	0,025
-342,620	-200,000	-0,015	0,051
-341,606	-200,000	0,027	-0,130
-340,591	800,000	-0,034	-0,070
-339,577	34,259	0,040	0,025
-338,562	227,314	-0,100	-0,116
-337,548	-200,000	0,006	0,036
-336,533	-200,000	-0,009	-0,099
-335,518	-53,495	-0,100	0,033
-334,504	621,117	-0,082	-0,148
-333,489	-178,499	-0,139	0,002
-332,475	-200,000	-0,015	-0,063
-331,460	757,991	0,034	-0,066
-330,445	-200,000	0,010	-0,049
-329,431	349,649	0,036	0,051
-328,416	-96,174	0,170	0,032
-327,402	-19,422	0,017	-0,008
-326,387	587,452	-0,031	-0,055
-325,372	800,000	-0,038	0,078
-324,358	-200,000	-0,003	-0,055
-323,343	58,896	0,086	-0,061
-322,329	-153,666	0,106	0,005
-321,314	-32,901	0,131	-0,052
-320,299	-185,939	0,097	-0,001
-319,285	172,577	0,090	0,093
-318,270	171,997	-0,025	-0,026
-317,256	-113,570	-0,085	-0,012
-316,241	800,000	-0,020	-0,048
-315,226	-200,000	0,011	0,057
-314,212	11,669	-0,026	0,014
-313,197	215,981	-0,056	0,064
-312,183	-37,523	-0,065	-0,025
-311,168	35,639	-0,012	-0,008
-310,153	800,000	-0,033	0,071
-309,139	425,523	-0,056	-0,087
-308,124	-105,463	0,073	0,012
-307,110	-200,000	0,028	-0,093
-306,095	327,342	0,018	0,025
-305,080	90,024	-0,049	0,039
-304,066	-200,000	-0,001	0,030
-303,051	-178,939	-0,028	-0,000
-302,037	-200,000	0,006	-0,029
-301,022	-200,000	0,006	0,028
-300,008	800,000	-0,015	-0,031
-298,993	299,521	-0,057	0,076
-297,978	-200,000	0,019	0,096
-296,964	481,081	-0,020	0,033
-295,949	-35,759	-0,040	-0,015
-294,935	735,599	-0,055	0,105
-293,920	-121,663	0,094	0,011
-292,905	-200,000	-0,024	-0,090
-291,891	800,000	0,021	0,066
-290,876	206,735	0,057	-0,064
-289,862	-200,000	-0,007	-0,087
-288,847	-200,000	-0,003	-0,086
-287,832	-114,073	0,135	-0,018
-286,818	800,000	0,057	0,115
-285,803	163,136	0,082	0,082
-284,789	607,974	0,106	-0,190
-283,774	-200,000	-0,018	0,196
-282,759	800,000	-0,016	0,040
-281,745	-97,582	-0,095	-0,017
-280,730	800,000	0,019	-0,043
-279,716	45,966	0,176	0,116
-278,701	-151,111	-0,108	0,006
-277,686	278,894	0,023	-0,029
-276,672	-200,000	-0,005	-0,046
-275,657	-200,000	-0,009	0,082
-274,643	143,306	0,124	-0,118
-273,628	-102,055	-0,131	0,022
-272,613	137,656	0,033	-0,031
-271,599	-42,273	0,025	0,009
-270,584	-200,000	-0,001	0,016
-269,570	137,904	-0,052	0,049
-268,555	-8,318	0,039	-0,019
-267,540	-98,342	-0,076	0,014
-266,526	-75,484	0,032	-0,008
-265,511	158,825	-0,070	0,070
-264,497	800,000	-0,034	0,090
-263,482	21,362	0,025	0,015
-262,467	800,000	0,025	0,054
-261,453	146,214	-0,055	-0,053
-260,438	18,147	-0,128	0,073
-259,424	-45,120	0,039	0,014
-258,409	44,033	0,065	-0,043
-257,395	-200,000	-0,004	-0,085
-256,380	-44,157	0,048	-0,017
-255,365	800,000	-0,017	0,041
-254,351	-105,174	-0,219	-0,035
-253,336	-200,000	0,011	-0,077
-252,322	-127,891	0,016	0,002
-251,307	204,438	0,063	-0,070
-250,292	-200,000	0,012	-0,065
-249,278	-142,292	0,115	0,008
-248,263	296,215	-0,028	0,037
-247,249	-19,165	-0,029	0,013
-246,234	-200,000	-0,029	0,111
-245,219	-200,000	-0,024	-0,100
-244,205	122,494	-0,125	-0,111
-243,190	75,638	0,073	-0,055
-242,176	594,167	0,033	0,058
-241,161	285,516	-0,109	0,140
-240,146	154,388	-0,057	0,056
-239,132	26,816	-0,112	-0,067
-238,117	72,596	0,082	0,061
-237,103	97,829	0,062	0,051
-236,088	157,494	0,061	-0,060
-235,073	-54,900	0,054	-0,017
-234,059	-200,000	-0,020	0,072
-233,044	52,941	0,122	-0,083
-232,030	270,393	0,064	-0,080
-231,015	800,000	-0,039	-0,118
-230,000	160,442	-0,006	-0,006
-228,986	800,000	0,046	-0,105
-227,971	-200,000	-0,018	-0,061
-226,957	800,000	0,040	0,106
-225,942	109,688	0,041	-0,035
-224,927	-54,475	0,052	0,017
-223,913	-200,000	-0,036	0,142
-222,898	-96,377	-0,038	-0,007
-221,884	-200,000	0,011	-0,044
-220,869	-200,000	-0,016	0,056
-219,855	-65,057	0,043	-0,012
-218,840	-8,679	0,166	0,079
-217,825	89,451	-0,015	-0,012
-216,811	-141,473	0,095	-0,007
-215,796	-200,000	0,029	-0,170
-214,782	-200,000	0,009	-0,049
-213,767	800,000	-0,022	-0,066
-212,752	318,441	0,077	-0,105
-211,738	-23,465	0,039	0,017
-210,723	-200,000	-0,009	0,059
-209,709	800,000	-0,066	-0,145
-208,694	-100,736	-0,129	0,022
-207,679	800,000	0,004	0,007
-206,665	-200,000	0,014	0,054
-205,650	-49,050	0,104	0,035
-204,636	800,000	0,065	0,142
-203,621	152,076	-0,100	-0,097
-202,606	141,923	-0,034	-0,032
-201,592	800,000	0,015	-0,048
-200,577	53,760	-0,115	-0,079
-199,563	212,840	0,013	0,015
-198,548	-200,000	0,002	0,030
-197,533	729,320	-0,093	0,178
-196,519	-172,757	-0,058	0,001
-195,504	22,278	-0,055	0,032
-194,490	-100,268	0,094	0,016
-193,475	-103,176	0,018	-0,003
-192,460	114,474	0,044	0,038
-191,446	-4,934	0,103	0,050
-190,431	122,698	0,033	0,029
-189,417	-200,000	0,000	-0,020
-188,402	800,000	-0,019	-0,044
-187,387	800,000	-0,022	-0,064
-186,373	201,546	-0,048	-0,053
-185,358	-117,724	0,027	0,003
-184,344	-150,789	0,166	0,009
-183,329	800,000	-0,031	0,096
-182,315	95,443	-0,073	0,059
-181,300	367,822	0,032	0,047
-180,285	-169,982	-0,175	-0,004
-179,271	-200,000	0,013	-0,060
-178,256	9,401	-0,152	0,081
-177,242	-169,925	-0,018	-0,000
-176,227	-153,571	0,060	0,003
-175,212	-66,750	0,125	0,035
-174,198	285,030	0,095	-0,122
-173,183	313,383	-0,069	0,093
-172,169	-200,000	-0,020	-0,133
-171,154	203,130	-0,083	-0,091
-170,139	143,849	0,157	0,149
-169,125	-200,000	0,024	0,079
-168,110	-200,000	-0,002	0,170
-167,096	163,873	0,010	0,010
-166,081	-22,000	-0,192	-0,083
-165,066	111,510	0,036	0,031
-164,052	143,268	-0,097	0,092
-163,037	82,340	0,050	0,039
-162,023	-90,004	0,095	-0,020
-161,008	-200,000	-0,003	0,115
-159,993	-107,148	0,125	-0,019
-158,979	48,467	-0,078	0,052
-157,964	145,330	-0,064	-0,061
-156,950	-200,000	-0,001	-0,071
-155,935	-39,777	-0,089	-0,033
-154,920	444,737	0,065	0,102
-153,906	339,637	0,062	0,087
-152,891	-66,690	-0,093	0,026
-151,877	-200,000	-0,012	-0,058
-150,862	-200,000	0,008	-0,115
-149,847	-30,044	-0,058	-0,023
-148,833	78,771	0,074	-0,056
-147,818	688,221	-0,030	-0,057
-146,804	258,998	-0,063	0,077
-145,789	175,695	-0,075	0,078
-144,775	76,345	-0,037	0,028
-143,760	800,000	0,019	-0,056
-142,745	-48,458	0,062	0,021
-141,731	800,000	-0,006	0,013
-140,716	-149,675	0,067	-0,004
-139,702	-46,165	-0,075	-0,026
-138,687	-190,173	0,139	0,001
-137,672	-154,705	-0,052	-0,002
-136,658	-73,717	-0,064	-0,016
-135,643	217,251	0,021	-0,024
-134,629	-49,532	-0,025	0,008
-133,614	-137,135	0,139	0,011
-132,599	375,914	0,084	-0,123
-131,585	-200,000	0,021	-0,113
-130,570	-49,743	-0,117	0,039
-129,556	100,906	-0,076	-0,063
-128,541	18,652	-0,082	-0,047
-127,526	-200,000	-0,002	0,048
-126,512	-127,661	0,088	0,009
-125,497	-200,000	-0,041	0,174
-124,483	-200,000	-0,002	-0,020
-123,468	124,699	-0,096	0,086
-122,453	-144,388	0,075	0,005
-121,439	-160,030	-0,049	-0,002
-120,424	-73,502	0,106	0,027
-119,410	742,060	-0,052	0,100
-118,395	108,496	0,076	0,064
-117,380	-67,918	0,063	-0,017
-116,366	-200,000	-0,015	0,053
-115,351	139,258	-0,033	-0,031
-114,337	-41,712	-0,086	-0,031
-113,322	709,008	-0,094	0,176
-112,307	-200,000	0,029	0,103
-111,293	-85,008	0,062	0,014
-110,278	255,288	0,131	0,159
-109,264	-200,000	0,006	0,025
-108,249	-200,000	-0,023	0,088
-107,234	-47,198	-0,052	-0,018
-106,220	221,593	0,040	-0,045
-105,205	-117,970	0,031	0,004
-104,191	-200,000	0,008	0,061
-103,176	-200,000	0,050	0,158
-102,162	-182,936	-0,077	0,001
-101,147	-200,000	-0,002	-0,053
-100,132	800,000	0,045	-0,102
-99,118	145,596	-0,171	-0,162
-98,103	-151,446	0,043	0,002
-97,089	528,635	-0,080	0,134
-96,074	-74,867	0,098	0,025
-95,059	800,000	-0,056	0,165
-94,045	197,409	-0,083	-0,090
-93,030	735,925	-0,086	0,165
-92,016	-200,000	0,008	-0,042
-91,001	341,685	0,007	-0,010
-89,986	31,867	0,103	0,063
-88,972	717,112	-0,029	0,054
-87,957	35,142	0,041	-0,025
-86,943	15,890	0,020	0,011
-85,928	800,000	-0,024	0,048
-84,913	800,000	-0,022	0,051
-83,899	330,113	0,065	-0,090
-82,884	24,885	-0,029	0,017
-81,870	12,322	-0,010	0,005
-80,855	800,000	-0,029	0,067
-79,840	-112,881	0,034	0,005
-78,826	167,617	-0,109	-0,110
-77,811	-76,488	-0,131	-0,032
-76,797	800,000	0,018	-0,044
-75,782	16,194	0,083	0,047
-74,767	-70,932	0,084	0,022
-73,753	-145,066	-0,063	-0,004
-72,738	-200,000	-0,007	0,130
-71,724	-75,730	-0,170	-0,042
-70,709	-108,274	-0,061	-0,009
-69,694	-35,814	0,123	-0,047
-68,680	800,000	-0,010	-0,029
-67,665	146,572	-0,029	0,027
-66,651	149,027	-0,089	0,085
-65,636	30,111	-0,053	0,032
-64,622	178,368	-0,083	0,086
-63,607	49,501	-0,006	0,004
-62,592	49,628	0,029	0,019
-61,578	54,331	0,020	-0,014
-60,563	64,875	0,054	-0,038
-59,549	-200,000	-0,017	0,066
-58,534	34,967	-2,243	-1,388
-57,519	-200,000	-0,001	-0,733
-56,505	-200,000	-1,447	-5,135
-55,490	134,518	1,007	0,926
-54,476	800,000	5,109	11,889
-53,461	-200,000	18,742	314,397
-52,446	800,000	738,680	2290,133
-51,432	546,466	1650,530	2807,649
-50,417	76,249	1676,451	1256,377
-49,403	20,304	1597,666	911,813
-48,388	14,896	1551,576	857,641
-47,373	17,643	1542,824	866,845
-46,359	16,448	1532,222	854,779
-45,344	13,360	1527,709	836,539
-44,330	13,289	1525,652	835,020
-43,315	13,254	1523,922	833,864
-42,300	13,152	1522,814	832,706
-41,286	13,176	1521,496	832,072
-40,271	13,184	1519,763	831,132
-39,257	13,224	1518,174	830,436
-38,242	13,243	1516,544	829,607
-37,227	13,249	1515,257	828,899
-36,213	13,217	1514,110	828,077
-35,198	13,220	1512,374	827,111
-34,184	13,223	1511,273	826,489
-33,169	13,241	1510,092	825,901
-32,154	13,257	1508,479	825,065
-31,140	13,272	1507,071	824,338
-30,125	13,294	1505,770	823,707
-29,111	13,317	1504,379	823,026
-28,096	13,291	1503,392	822,325
-27,082	13,294	1502,429	821,778
-26,067	13,273	1501,256	821,002
-25,052	13,237	1500,127	820,174
-24,038	13,251	1498,669	819,411
-23,023	13,272	1497,857	819,040
-22,009	13,291	1496,537	818,380
-20,994	13,266	1495,901	817,875
-19,979	13,281	1494,878	817,358
-18,965	13,219	1493,913	816,490
-17,950	13,242	1492,901	816,017
-16,936	13,174	1491,929	815,120
-15,921	13,129	1490,808	814,251
-14,906	13,180	1489,505	813,757
-13,892	13,092	1488,532	812,756
-12,877	13,158	1487,471	812,472
-11,863	13,086	1486,374	811,484
-10,848	13,106	1485,643	811,155
-9,833	13,214	1484,833	811,210
-8,819	13,185	1483,570	810,345
-7,804	13,147	1482,598	809,597
-6,790	13,141	1481,835	809,116
-5,775	13,196	1480,883	808,837
-4,760	13,209	1479,950	808,358
-3,746	13,146	1478,900	807,442
-2,731	12,976	1478,247	806,219
-1,717	12,935	1476,919	805,260
-0,702	12,996	1475,633	804,830
0,313	12,760	1474,910	804,491
1,327	16,330	1471,655	820,114
2,342	25,587	1239,251	728,444
3,356	21,992	698,434	402,238
4,371	-7,189	467,783	223,754
5,386	-10,833	439,451	204,774
6,400	-12,151	430,484	198,658
7,415	-12,242	426,937	196,873
8,429	-12,670	424,544	195,138
9,444	-12,694	423,184	194,461
10,459	-12,772	422,008	193,792
11,473	-13,036	421,061	192,964
12,488	-13,234	419,947	192,155
13,502	-13,419	419,110	191,493
14,517	-13,522	418,293	190,956
15,531	-13,609	417,640	190,519
16,546	-13,672	416,735	190,000
17,561	-13,670	416,263	189,770
18,575	-13,655	415,555	189,452
19,590	-13,809	415,243	189,077
20,604	-13,800	414,842	188,890
21,619	-13,876	414,215	188,482
22,634	-13,728	413,532	188,361
23,648	-13,878	413,056	187,917
24,663	-13,776	412,534	187,806
25,677	-13,723	412,103	187,666
26,692	-13,849	411,831	187,351
27,707	-13,722	411,200	187,224
28,721	-13,928	410,795	186,737
29,736	-13,976	410,469	186,505
30,750	-13,857	409,910	186,400
31,765	-13,975	409,748	186,146
32,780	-13,951	409,243	185,933
33,794	-14,013	408,903	185,676
34,809	-13,896	408,347	185,568
35,823	-14,070	408,036	185,170
36,838	-13,924	407,631	185,171
37,853	-14,023	407,188	184,818
38,867	-14,089	406,945	184,601
39,882	-13,997	406,515	184,515
40,896	-13,971	406,016	184,308
41,911	-14,087	405,576	183,932
42,926	-13,986	405,316	183,936
43,940	-14,107	404,984	183,604
44,955	-14,111	404,599	183,408
45,969	-14,214	404,141	183,042
46,984	-14,369	403,737	182,633
47,999	-14,655	403,332	182,045
49,013	-14,770	402,937	181,694
50,028	-14,863	402,547	181,376
51,042	-14,813	402,032	181,195
52,057	-14,700	401,565	181,121
53,071	-14,788	401,410	180,916
54,086	-14,654	401,218	180,995
55,101	-14,508	400,894	181,030
56,115	-14,318	400,630	181,151
57,130	-13,858	400,496	181,695
58,144	-13,574	400,230	181,941
59,159	-13,502	399,839	181,844
60,174	-13,572	399,525	181,591
61,188	-13,578	399,243	181,438
62,203	-13,671	398,667	181,035
63,217	-13,810	398,279	180,657
64,232	-13,773	398,171	180,641
65,247	-13,644	397,825	180,641
66,261	-13,742	397,392	180,297
67,276	-14,005	396,810	179,665
68,290	-14,256	396,519	179,183
69,305	-14,314	396,094	178,897
70,320	-14,190	395,754	178,893
71,334	-14,054	395,566	178,973
72,349	-13,703	395,409	179,353
73,363	-13,595	395,134	179,356
74,378	-13,615	394,745	179,136
75,393	-13,776	394,380	178,742
76,407	-13,845	393,917	178,424
77,422	-13,881	393,749	178,285
78,436	-13,713	393,208	178,246
79,451	-13,776	392,996	178,050
80,466	-13,784	392,529	177,813
81,480	-14,143	392,061	177,111
82,495	-14,161	391,755	176,934
83,509	-14,112	391,632	176,927
84,524	-14,183	391,279	176,658
85,539	-14,328	390,735	176,208
86,553	-14,319	390,545	176,118
87,568	-14,029	390,176	176,316
88,582	-14,214	389,940	175,950
89,597	-14,289	389,792	175,770
90,611	-14,023	389,436	175,942
91,626	-13,784	389,201	176,132
92,641	-13,879	388,858	175,838
93,655	-13,941	388,642	175,643
94,670	-14,076	388,213	175,257
95,684	-14,002	388,021	175,251
96,699	-13,895	387,478	175,130
97,714	-14,171	387,327	174,688
98,728	-14,173	386,780	174,423
99,743	-14,455	386,566	173,945
100,757	-14,305	386,140	173,931
101,772	-14,124	385,962	174,071
102,787	-14,045	385,755	174,063
103,801	-13,906	385,394	174,065
104,816	-13,910	385,235	173,973
105,830	-13,856	385,000	173,921
106,845	-13,666	384,719	174,023
107,860	-13,727	384,537	173,847
108,874	-13,894	384,209	173,468
109,889	-13,925	383,804	173,230
110,903	-13,949	383,412	173,007
111,918	-13,841	383,034	172,959
112,933	-13,955	382,931	172,751
113,947	-13,881	382,555	172,660
114,962	-13,824	382,319	172,611
115,976	-13,847	382,086	172,463
116,991	-13,793	381,683	172,333
118,006	-13,745	381,464	172,281
119,020	-13,882	381,390	172,056
120,035	-13,881	381,155	171,936
121,049	-13,867	380,923	171,835
122,064	-13,759	380,454	171,746
123,079	-13,805	380,152	171,535
124,093	-13,896	379,878	171,281
125,108	-14,137	379,331	170,712
126,122	-14,285	378,945	170,336
127,137	-14,432	378,518	169,943
128,151	-14,336	378,471	170,028
129,166	-14,180	378,005	170,000
130,181	-14,266	377,621	169,704
131,195	-14,274	377,503	169,625
132,210	-14,055	377,330	169,809
133,224	-13,909	377,169	169,906
134,239	-13,690	376,895	170,044
135,254	-13,817	376,784	169,819
136,268	-13,887	376,111	169,412
137,283	-14,374	375,849	168,667
138,297	-14,397	375,365	168,405
139,312	-14,320	375,203	168,414
140,327	-13,861	375,112	168,934
141,341	-13,569	375,155	169,305
142,356	-13,521	374,873	169,222
143,370	-13,391	374,442	169,175
144,385	-13,236	374,153	169,224
145,400	-13,289	373,967	169,058
146,414	-13,345	373,735	168,868
147,429	-13,569	373,479	168,458
148,443	-13,574	373,144	168,286
149,458	-13,673	372,766	167,977
150,473	-13,543	372,474	167,992
151,487	-13,609	372,189	167,766
152,502	-13,616	371,980	167,649
153,516	-13,380	371,819	167,854
154,531	-13,408	371,454	167,639
155,546	-13,625	371,277	167,276
156,560	-13,515	370,829	167,195
157,575	-13,779	370,598	166,750
158,589	-13,647	370,351	166,786
159,604	-13,338	370,222	167,095
160,619	-13,251	370,067	167,118
161,633	-13,294	369,762	166,912
162,648	-13,234	369,435	166,824
163,662	-13,290	369,172	166,622
164,677	-13,505	368,985	166,257
165,692	-13,454	368,756	166,202
166,706	-13,401	368,457	166,118
167,721	-13,185	368,245	166,273
168,735	-13,067	368,106	166,340
169,750	-13,272	367,785	165,929
170,764	-13,276	367,572	165,812
171,779	-13,394	367,309	165,535
172,794	-13,166	366,985	165,653
173,808	-13,392	366,384	165,091
174,823	-14,015	366,042	164,162
175,837	-14,248	365,886	163,794
176,852	-13,689	365,867	164,451
177,867	-13,460	365,785	164,680
178,881	-13,369	365,412	164,608
179,896	-13,417	365,229	164,452
180,910	-13,414	365,047	164,359
181,925	-13,406	364,866	164,272
182,940	-13,215	364,407	164,283
183,954	-13,223	364,202	164,166
184,969	-13,176	364,133	164,177
185,983	-13,149	363,867	164,076
186,998	-12,988	363,394	164,043
188,013	-13,134	363,307	163,812
189,027	-13,041	363,137	163,834
190,042	-13,269	362,668	163,331
191,056	-13,123	362,532	163,432
192,071	-12,958	362,355	163,537
193,086	-12,994	362,076	163,353
194,100	-12,684	361,911	163,637
195,115	-12,346	361,734	163,950
196,129	-12,138	361,992	164,302
197,144	-8,099	363,945	170,058
198,159	-4,433	365,629	175,276
199,173	-0,862	367,211	180,360
200,188	0,135	367,271	181,584
201,202	-0,471	366,990	180,694
202,217	-0,433	366,757	180,609
203,232	-0,126	366,448	180,812
204,246	-0,059	366,377	180,842
205,261	0,038	366,165	180,839
206,275	0,327	365,998	181,089
207,290	0,221	365,848	180,871
208,304	0,217	365,575	180,715
209,319	0,214	365,118	180,470
210,334	0,166	364,764	180,220
211,348	0,063	364,639	180,019
212,363	-0,057	364,253	179,668
213,377	-0,173	364,150	179,461
214,392	0,024	363,758	179,490
215,407	-0,072	363,625	179,293
216,421	0,040	363,461	179,330
217,436	0,102	363,052	179,187
218,450	-0,217	362,840	178,684
219,465	-0,234	362,454	178,457
220,480	-0,085	362,283	178,535
221,494	-0,269	362,080	178,200
222,509	-0,163	362,158	178,349
223,523	0,043	361,671	178,339
224,538	-0,004	361,598	178,231
225,553	-0,030	361,133	177,954
226,567	-0,010	360,976	177,885
227,582	0,121	360,850	177,963
228,596	0,386	360,806	178,240
229,611	0,085	360,399	177,666
230,626	-0,351	359,937	176,906
231,640	-0,130	359,728	177,049
232,655	0,319	359,755	177,578
233,669	0,470	359,534	177,633
234,684	0,442	359,421	177,528
235,699	0,332	359,089	177,218
236,713	0,003	358,494	176,520
237,728	-0,078	358,372	176,348
238,742	-0,255	357,950	175,917
239,757	0,015	357,860	176,175
240,772	-0,255	357,673	175,749
241,786	-0,186	357,374	175,668
242,801	0,217	357,189	176,035
243,815	0,391	357,276	176,267
244,830	0,248	356,791	175,844
245,844	-0,125	356,480	175,237
246,859	-0,271	356,209	174,917
247,874	0,141	356,127	175,344
248,888	0,281	355,857	175,359
249,903	0,109	355,712	175,072
250,917	0,000	355,352	174,751
251,932	-0,127	355,062	174,444
252,947	-0,262	354,645	174,066
253,961	-0,197	354,430	174,021
254,976	-0,066	354,211	174,050
255,990	0,195	354,201	174,335
257,005	0,309	354,147	174,425
258,020	0,176	353,905	174,135
259,034	0,157	353,496	173,896
260,049	0,225	353,338	173,882
261,063	0,183	353,040	173,671
262,078	0,382	352,980	173,857
263,093	0,643	352,801	174,057
264,107	0,470	352,569	173,726
265,122	0,320	352,159	173,335
266,136	0,495	352,046	173,466
267,151	0,269	351,827	173,081
268,166	0,088	351,332	172,614
269,180	-0,159	350,945	172,123
270,195	-0,051	350,787	172,155
271,209	-0,066	350,727	172,092
272,224	-0,113	350,621	171,971
273,239	0,099	350,348	172,067
274,253	-0,002	350,030	171,778
275,268	-0,053	349,659	171,522
276,282	-0,069	349,261	171,294
277,297	-0,240	349,390	171,146
278,312	-0,085	349,120	171,176
279,326	0,103	349,044	171,338
280,341	0,118	348,830	171,236
281,355	0,180	348,521	171,139
282,370	0,313	348,270	171,153
283,384	-0,056	348,043	170,604
284,399	-0,330	347,755	170,136
285,414	-0,314	347,569	170,047
286,428	0,061	347,290	170,323
287,443	0,217	347,195	170,438
288,457	0,388	346,928	170,487
289,472	0,088	346,673	170,006
290,487	-0,156	346,188	169,476
291,501	-0,394	346,017	169,107
292,516	-0,333	345,841	169,075
293,530	-0,245	345,650	169,066
294,545	-0,124	345,447	169,088
295,560	0,104	345,368	169,294
296,574	0,171	345,214	169,279
297,589	0,123	344,780	168,996
298,603	0,064	344,713	168,881
299,618	0,136	344,477	168,832
300,633	0,288	344,307	168,906
301,647	0,309	344,255	168,888
302,662	0,455	343,922	168,875
303,676	0,215	343,757	168,509
304,691	0,469	343,399	168,604
305,706	0,333	343,304	168,389
306,720	0,324	343,077	168,253
307,735	0,166	342,711	167,880
308,749	0,007	342,555	167,611
309,764	0,315	342,304	167,818
310,779	0,183	342,159	167,584
311,793	0,010	341,785	167,193
312,808	0,030	341,635	167,127
313,822	0,242	341,429	167,247
314,837	0,157	341,236	167,044
315,852	-0,158	340,993	166,559
316,866	0,201	340,853	166,876
317,881	0,357	340,672	166,946
318,895	0,278	340,250	166,636
319,910	-0,112	340,028	166,079
320,925	-0,370	339,709	165,622
321,939	-0,492	339,354	165,299
322,954	-0,267	339,275	165,495
323,968	0,190	339,250	165,974
324,983	0,460	339,244	166,256
325,997	0,641	339,029	166,337
327,012	0,652	338,589	166,118
328,027	0,363	338,444	165,712
329,041	0,763	338,259	166,049
330,056	0,593	338,065	165,751
331,070	0,019	337,705	164,926
332,085	-0,206	337,301	164,467
333,100	-0,052	337,285	164,615
334,114	0,414	337,063	165,004
335,129	0,442	336,940	164,960
336,143	0,269	336,776	164,675
337,158	0,482	336,239	164,632
338,173	0,334	336,218	164,444
339,187	0,096	335,935	164,029
340,202	-0,052	335,844	163,808
341,216	0,012	335,474	163,684
342,231	0,059	335,266	163,619
343,246	0,003	335,060	163,443
344,260	0,014	334,955	163,389
345,275	0,238	334,806	163,547
346,289	0,304	334,431	163,420
347,304	-0,029	334,197	162,929
348,319	0,395	334,083	163,321
349,333	0,619	334,085	163,551
350,348	0,415	333,774	163,162
351,362	0,702	333,640	163,394
352,377	0,708	333,382	163,259
353,392	0,433	333,021	162,770
354,406	0,393	332,947	162,676
355,421	198,514	1326,638	1394,984
356,435	162,600	1447,632	1394,930
