DTS Sentinel unit serial number:	SN410029Multiplexer serial number:	ORYXHardware model number:	OX2-SRSoftware version number:	ORYX F/W v4,00 Oryx Data Collector v3.7.2.0data status	okinstallation	B6 Nyhavnadifferential loss correction	single-endedforward channel	channel 2reverse channel	N/Adate	2023/12/11time	02:35:08forward acquisition time	300,00reverse acquisition time	0,00gamma	499,1914k internal	0,3122k external	0,3122temperature offset calibration	1,0000default loss term (dB/km)	0,3820temperature slope calibration	1,0000multiplexer offset coefficient	1,0000multiplexer slope coefficient	1,0000fibre end	0,00T internal ref (°C)	21,68T ext. ref 1 (°C)	4,56T ext. ref 2 (°C)	4,57length (m)	temperature (°C)	Stokes	anti-Stokes-744,400	39,981	0,061	-0,041
-743,385	45,737	-0,206	0,142
-742,371	-57,966	-0,120	-0,039
-741,356	499,333	-0,132	0,228
-740,342	-200,000	0,005	-0,094
-739,327	-42,176	-0,237	0,090
-738,312	-16,907	0,070	-0,033
-737,298	-120,694	-0,284	0,035
-736,283	592,459	-0,033	-0,062
-735,269	20,756	-0,178	0,107
-734,254	-180,458	0,012	0,000
-733,239	-85,154	-0,488	-0,113
-732,225	-92,121	0,069	-0,015
-731,210	59,839	-0,068	0,050
-730,196	800,000	0,027	0,058
-729,181	-200,000	-0,012	0,090
-728,167	800,000	-0,026	-0,057
-727,152	201,206	0,096	0,110
-726,137	-132,205	-0,106	-0,010
-725,123	391,089	-0,051	-0,079
-724,108	-35,576	-0,125	-0,050
-723,094	-200,000	0,008	-0,115
-722,079	31,457	-0,087	-0,055
-721,064	-200,000	-0,001	-0,037
-720,050	85,979	0,105	-0,086
-719,035	106,228	0,025	0,022
-718,021	6,396	-0,125	-0,069
-717,006	-110,571	-0,184	-0,028
-715,991	-167,146	-0,111	-0,003
-714,977	-163,921	-0,035	0,001
-713,962	41,466	-0,076	0,051
-712,948	800,000	-0,046	-0,129
-711,933	-67,140	0,021	0,006
-710,918	-197,324	-0,121	-0,001
-709,904	750,384	-0,088	-0,177
-708,889	337,543	0,057	-0,083
-707,875	-21,647	-0,061	0,027
-706,860	-79,076	-0,075	0,019
-705,845	-200,000	0,001	0,008
-704,831	359,762	-0,032	-0,047
-703,816	13,097	0,057	0,033
-702,802	-86,983	-0,072	-0,016
-701,787	-200,000	-0,038	-0,184
-700,772	-200,000	-0,014	-0,054
-699,758	-141,243	-0,059	0,004
-698,743	519,053	0,020	0,035
-697,729	727,183	0,011	-0,022
-696,714	-200,000	-0,005	0,099
-695,699	-31,019	-0,114	0,047
-694,685	-200,000	0,023	-0,123
-693,670	-116,963	-0,122	-0,016
-692,656	-5,009	0,086	-0,044
-691,641	-111,217	-0,175	-0,026
-690,627	-200,000	0,006	-0,037
-689,612	254,541	-0,039	0,050
-688,597	194,224	-0,063	0,071
-687,583	-200,000	-0,006	-0,042
-686,568	121,785	-0,133	-0,123
-685,554	93,918	0,063	-0,053
-684,539	323,640	0,045	0,064
-683,524	-125,917	0,038	0,004
-682,510	31,812	0,030	0,019
-681,495	428,506	0,052	-0,083
-680,481	285,697	0,056	-0,075
-679,466	118,250	-0,109	-0,100
-678,451	165,098	-0,100	0,105
-677,437	614,296	-0,070	0,131
-676,422	-53,227	0,123	0,042
-675,408	89,647	-0,144	-0,119
-674,393	-41,204	0,092	-0,035
-673,378	5,918	0,038	0,021
-672,364	-177,774	-0,056	-0,001
-671,349	306,457	-0,073	0,101
-670,335	-200,000	0,007	0,048
-669,320	572,875	-0,104	0,190
-668,305	800,000	0,012	-0,031
-667,291	-200,000	-0,013	-0,051
-666,276	540,531	0,084	-0,149
-665,262	-200,000	0,004	-0,104
-664,247	39,467	0,056	0,037
-663,232	-49,136	-0,117	-0,041
-662,218	-57,103	-0,071	-0,023
-661,203	-200,000	-0,020	0,116
-660,189	800,000	-0,046	-0,099
-659,174	800,000	-0,036	-0,115
-658,159	34,492	-0,198	-0,128
-657,145	800,000	-0,086	-0,183
-656,130	593,140	0,061	-0,113
-655,116	800,000	-0,016	0,039
-654,101	800,000	0,048	0,144
-653,086	193,767	-0,047	0,053
-652,072	93,299	-0,116	0,097
-651,057	-191,205	-0,097	0,001
-650,043	-200,000	0,003	0,032
-649,028	-81,739	0,054	0,013
-648,014	8,346	-0,037	0,021
-646,999	-200,000	-0,025	0,083
-645,984	205,809	-0,043	0,050
-644,970	37,278	-0,081	0,053
-643,955	488,189	-0,020	0,034
-642,941	-164,744	-0,031	-0,001
-641,926	140,117	-0,068	0,067
-640,911	-82,146	-0,086	0,021
-639,897	696,117	0,067	-0,132
-638,882	350,885	-0,022	-0,033
-637,868	800,000	0,003	0,007
-636,853	-161,233	-0,021	-0,001
-635,838	-200,000	-0,005	-0,080
-634,824	11,947	-0,037	0,021
-633,809	-200,000	0,021	0,154
-632,795	-28,154	0,093	-0,040
-631,780	302,156	0,041	0,057
-630,765	-104,444	-0,051	0,009
-629,751	-71,746	-0,158	-0,044
-628,736	196,398	-0,038	-0,043
-627,722	335,259	0,078	0,113
-626,707	-200,000	0,006	0,026
-625,692	-78,823	-0,195	0,049
-624,678	-200,000	0,032	-0,107
-623,663	-200,000	0,019	0,067
-622,649	91,809	0,048	0,040
-621,634	800,000	-0,019	-0,059
-620,619	-175,864	-0,125	-0,002
-619,605	-200,000	-0,013	0,071
-618,590	-12,099	0,141	-0,068
-617,576	-200,000	0,053	-0,194
-616,561	800,000	-0,019	0,058
-615,546	800,000	-0,009	0,025
-614,532	78,234	0,050	0,040
-613,517	-47,974	-0,044	0,016
-612,503	-86,852	-0,078	-0,018
-611,488	-200,000	0,011	0,043
-610,474	-36,919	0,008	0,003
-609,459	173,731	-0,073	-0,078
-608,444	-200,000	-0,085	0,000
-607,430	800,000	0,025	-0,053
-606,415	-23,908	-0,151	-0,067
-605,401	-91,014	-0,111	0,023
-604,386	-200,000	0,012	-0,053
-603,371	122,363	0,071	0,066
-602,357	-139,229	0,042	0,003
-601,342	119,306	0,046	0,043
-600,328	800,000	-0,055	-0,119
-599,313	800,000	-0,062	0,144
-598,298	800,000	0,021	0,047
-597,284	-200,000	0,007	0,048
-596,269	800,000	0,030	-0,095
-595,255	800,000	0,031	0,076
-594,240	-200,000	-0,018	-0,058
-593,225	49,338	0,056	-0,039
-592,211	359,512	0,081	0,120
-591,196	317,432	-0,065	0,091
-590,182	-200,000	-0,002	0,034
-589,167	107,383	0,033	-0,029
-588,152	146,014	-0,103	-0,103
-587,138	-200,000	-0,012	0,040
-586,123	12,899	0,055	-0,032
-585,109	758,697	-0,076	-0,153
-584,094	-200,000	-0,011	-0,053
-583,079	231,140	0,055	0,067
-582,065	421,976	-0,032	-0,051
-581,050	-200,000	0,004	-0,040
-580,036	794,742	0,015	0,030
-579,021	233,091	-0,012	-0,014
-578,006	-70,433	0,112	-0,031
-576,992	800,000	-0,019	-0,040
-575,977	196,681	-0,088	-0,100
-574,963	-200,000	0,007	-0,065
-573,948	4,305	0,107	0,058
-572,934	226,152	0,054	0,066
-571,919	606,694	-0,011	-0,020
-570,904	-200,000	0,022	-0,237
-569,890	68,795	-0,034	0,026
-568,875	209,088	0,063	-0,073
-567,861	-0,368	0,112	0,059
-566,846	25,243	0,159	-0,098
-565,831	76,599	0,081	-0,063
-564,817	501,555	-0,075	0,129
-563,802	-54,640	-0,043	0,014
-562,788	326,625	-0,011	-0,015
-561,773	-200,000	0,015	-0,118
-560,758	-67,897	0,044	-0,013
-559,744	381,198	-0,042	-0,065
-558,729	619,089	0,025	0,047
-557,715	84,829	-0,061	-0,049
-556,700	715,751	-0,032	-0,064
-555,685	121,187	-0,061	-0,056
-554,671	-200,000	0,004	-0,021
-553,656	318,683	0,065	0,091
-552,642	800,000	0,051	0,147
-551,627	-200,000	0,003	0,086
-550,612	238,695	0,064	0,078
-549,598	6,555	-0,043	0,024
-548,583	27,659	-0,043	0,027
-547,569	350,244	-0,091	-0,134
-546,554	800,000	-0,036	-0,079
-545,539	-14,052	-0,087	-0,041
-544,525	47,818	0,065	-0,045
-543,510	76,165	-0,060	-0,047
-542,496	180,183	0,111	-0,121
-541,481	58,248	-0,076	-0,055
-540,466	10,565	0,087	0,049
-539,452	265,043	0,061	0,079
-538,437	16,700	0,056	-0,032
-537,423	-185,388	0,120	-0,001
-536,408	800,000	-0,035	0,083
-535,393	-169,689	0,085	0,002
-534,379	142,930	0,041	-0,041
-533,364	220,806	0,066	0,078
-532,350	516,181	0,078	-0,135
-531,335	-200,000	0,003	-0,021
-530,321	-43,783	0,161	0,059
-529,306	-200,000	-0,010	-0,066
-528,291	80,850	0,034	-0,027
-527,277	-27,532	-0,042	-0,018
-526,262	-200,000	-0,004	0,112
-525,248	407,512	-0,049	-0,076
-524,233	-154,900	-0,126	0,006
-523,218	800,000	0,019	-0,040
-522,204	-114,975	0,051	-0,007
-521,189	-200,000	0,027	-0,090
-520,175	43,982	0,097	-0,066
-519,160	-136,109	0,096	-0,008
-518,145	297,172	-0,054	0,074
-517,131	-200,000	-0,036	0,183
-516,116	80,753	0,079	0,063
-515,102	-200,000	0,004	0,032
-514,087	800,000	-0,032	-0,100
-513,072	-77,982	-0,215	0,054
-512,058	-86,915	0,038	0,008
-511,043	800,000	0,032	0,098
-510,029	-200,000	0,038	0,169
-509,014	800,000	0,046	0,098
-507,999	-200,000	0,002	0,026
-506,985	-71,031	-0,075	0,021
-505,970	56,686	-0,023	-0,017
-504,956	94,859	-0,030	-0,025
-503,941	51,195	0,093	0,065
-502,926	322,640	-0,037	-0,052
-501,912	57,449	-0,117	-0,084
-500,897	23,771	0,071	0,043
-499,883	-30,747	-0,066	-0,027
-498,868	236,593	-0,144	-0,176
-497,853	-200,000	0,072	-0,250
-496,839	294,620	-0,055	0,074
-495,824	-2,478	-0,061	-0,031
-494,810	126,294	0,126	0,118
-493,795	-70,475	-0,135	0,037
-492,781	464,200	0,064	0,106
-491,766	-200,000	0,090	0,000
-490,751	86,415	-0,109	0,089
-489,737	126,559	0,118	-0,110
-488,722	394,746	-0,069	-0,107
-487,708	-200,000	0,010	0,111
-486,693	-56,820	-0,154	-0,050
-485,678	71,209	0,039	-0,030
-484,664	-1,830	-0,068	-0,035
-483,649	-148,230	0,021	0,001
-482,635	473,769	-0,032	-0,053
-481,620	-56,721	-0,042	-0,014
-480,605	306,750	-0,032	-0,044
-479,591	255,117	0,050	0,064
-478,576	57,449	-0,018	-0,013
-477,562	569,547	-0,050	-0,089
-476,547	144,810	-0,067	-0,066
-475,532	-200,000	0,008	-0,128
-474,518	64,307	0,046	0,034
-473,503	-200,000	0,060	-0,000
-472,489	624,767	-0,053	-0,099
-471,474	-200,000	-0,016	0,147
-470,459	132,595	-0,042	0,040
-469,445	800,000	-0,035	-0,102
-468,430	111,612	-0,102	-0,091
-467,416	-200,000	0,003	-0,067
-466,401	32,488	0,112	0,071
-465,386	46,023	0,156	-0,107
-464,372	-62,102	0,211	-0,065
-463,357	-200,000	-0,003	-0,034
-462,343	-200,000	0,013	0,080
-461,328	410,442	-0,071	0,111
-460,313	-42,658	0,100	-0,038
-459,299	113,393	0,060	0,054
-458,284	-49,237	0,129	0,045
-457,270	16,254	-0,110	0,064
-456,255	-200,000	0,012	-0,051
-455,241	-200,000	-0,002	-0,044
-454,226	-200,000	0,002	-0,089
-453,211	-3,405	0,030	0,015
-452,197	253,525	-0,098	0,124
-451,182	-200,000	0,008	-0,058
-450,168	-91,326	0,061	-0,013
-449,153	800,000	0,029	0,062
-448,138	-179,862	-0,072	-0,001
-447,124	171,078	-0,124	0,131
-446,109	-55,165	0,107	0,035
-445,095	46,356	0,119	0,081
-444,080	-200,000	0,008	0,041
-443,065	-95,976	0,038	-0,007
-442,051	253,203	-0,022	-0,028
-441,036	800,000	-0,011	-0,035
-440,022	164,088	-0,059	0,061
-439,007	20,406	0,067	0,040
-437,992	-114,502	0,161	-0,022
-436,978	-200,000	0,014	-0,098
-435,963	-200,000	0,037	0,187
-434,949	667,377	-0,049	0,093
-433,934	800,000	0,016	-0,046
-432,919	-200,000	0,006	-0,093
-431,905	-200,000	0,021	-0,112
-430,890	7,814	-0,083	-0,046
-429,876	331,901	0,081	0,115
-428,861	48,353	0,081	-0,056
-427,846	800,000	0,014	-0,032
-426,832	-200,000	-0,024	-0,100
-425,817	-200,000	-0,047	-0,218
-424,803	-55,535	-0,093	0,031
-423,788	468,644	0,014	-0,023
-422,773	-200,000	-0,015	0,125
-421,759	391,647	-0,064	0,098
-420,744	90,147	-0,030	-0,024
-419,730	8,855	0,056	-0,031
-418,715	-200,000	0,005	0,115
-417,701	123,823	0,064	-0,059
-416,686	-200,000	-0,013	-0,133
-415,671	-200,000	0,007	0,056
-414,657	5,344	0,118	0,064
-413,642	-200,000	-0,020	0,105
-412,628	-116,146	-0,142	0,019
-411,613	275,004	-0,090	0,117
-410,598	-200,000	0,003	-0,048
-409,584	74,668	-0,139	0,107
-408,569	-200,000	0,003	0,040
-407,555	-110,436	-0,121	0,018
-406,540	-200,000	0,009	-0,050
-405,525	77,303	-0,024	0,019
-404,511	800,000	-0,025	-0,071
-403,496	-146,135	-0,120	0,008
-402,482	800,000	0,032	-0,077
-401,467	-200,000	0,014	0,096
-400,452	-200,000	0,011	0,112
-399,438	-200,000	-0,020	0,104
-398,423	-200,000	-0,038	0,161
-397,409	-200,000	-0,010	-0,041
-396,394	-120,329	-0,115	-0,014
-395,379	800,000	-0,039	-0,126
-394,365	-88,823	-0,225	0,049
-393,350	81,723	0,120	0,095
-392,336	209,560	-0,056	0,065
-391,321	53,148	0,046	-0,032
-390,306	800,000	-0,030	-0,074
-389,292	-127,878	0,041	-0,004
-388,277	800,000	-0,011	0,025
-387,263	-28,387	-0,079	0,034
-386,248	-79,408	-0,087	-0,021
-385,233	-200,000	0,012	-0,063
-384,219	-200,000	0,002	-0,066
-383,204	124,201	0,026	-0,024
-382,190	-200,000	-0,000	0,166
-381,175	-112,341	0,169	-0,025
-380,160	188,801	-0,072	0,079
-379,146	-200,000	0,012	-0,045
-378,131	-200,000	0,022	-0,139
-377,117	718,958	-0,055	0,109
-376,102	-200,000	-0,035	-0,115
-375,088	-200,000	-0,001	-0,042
-374,073	39,226	-0,076	0,050
-373,058	800,000	-0,047	0,123
-372,044	-182,792	-0,041	0,001
-371,029	-66,574	0,056	0,016
-370,015	96,409	0,025	-0,021
-369,000	-102,152	-0,069	-0,012
-367,985	137,952	0,042	-0,040
-366,971	800,000	-0,037	0,081
-365,956	-200,000	-0,013	0,045
-364,942	80,861	0,085	0,068
-363,927	-200,000	-0,001	-0,024
-362,912	-56,685	-0,045	0,014
-361,898	-18,179	-0,104	0,047
-360,883	61,027	-0,077	0,056
-359,869	76,381	0,064	0,050
-358,854	-144,252	0,106	-0,007
-357,839	138,389	-0,080	0,078
-356,825	145,117	0,083	-0,082
-355,810	26,719	0,134	-0,082
-354,796	-123,941	-0,108	0,012
-353,781	605,299	0,034	0,062
-352,766	-200,000	0,015	-0,143
-351,752	800,000	0,038	-0,096
-350,737	-93,076	0,087	0,018
-349,723	224,429	0,070	0,083
-348,708	5,292	0,086	0,046
-347,693	-200,000	0,001	-0,042
-346,679	-200,000	0,007	0,061
-345,664	-85,150	0,055	-0,012
-344,650	192,177	0,064	-0,070
-343,635	-11,036	0,034	-0,017
-342,620	224,836	-0,006	0,008
-341,606	-200,000	-0,002	0,088
-340,591	417,712	0,033	0,052
-339,577	206,964	-0,104	-0,119
-338,562	65,952	0,086	-0,064
-337,548	181,256	-0,075	-0,081
-336,533	800,000	-0,010	0,024
-335,518	-200,000	0,018	-0,070
-334,504	65,631	-0,042	0,031
-333,489	722,415	0,045	0,089
-332,475	102,114	-0,056	-0,048
-331,460	33,739	-0,048	0,030
-330,445	-22,659	-0,034	-0,015
-329,431	-200,000	0,002	-0,019
-328,416	-48,361	0,100	0,035
-327,402	-200,000	0,034	0,145
-326,387	60,400	0,099	-0,072
-325,372	800,000	0,056	-0,129
-324,358	-200,000	0,013	-0,051
-323,343	-200,000	0,022	-0,123
-322,329	175,759	0,052	0,055
-321,314	119,169	0,096	0,087
-320,299	800,000	0,042	0,126
-319,285	800,000	-0,020	0,060
-318,270	-109,578	-0,134	-0,021
-317,256	-200,000	0,010	-0,047
-316,241	-139,359	0,012	-0,001
-315,226	800,000	0,048	-0,130
-314,212	800,000	-0,027	-0,070
-313,197	608,230	-0,026	-0,048
-312,183	800,000	0,029	0,063
-311,168	65,732	0,056	-0,041
-310,153	219,337	-0,116	0,136
-309,139	-186,439	0,062	0,001
-308,124	-200,000	-0,004	0,093
-307,110	-200,000	-0,003	0,060
-306,095	-200,000	-0,001	0,036
-305,080	800,000	0,003	0,007
-304,066	-200,000	0,013	-0,101
-303,051	340,055	-0,109	-0,156
-302,037	195,754	-0,084	0,094
-301,022	-200,000	-0,004	0,130
-300,008	-200,000	0,003	-0,058
-298,993	147,945	0,062	0,061
-297,978	280,718	-0,044	-0,058
-296,964	224,479	-0,105	0,125
-295,949	360,772	-0,083	-0,122
-294,935	4,818	-0,070	-0,037
-293,920	-200,000	-0,001	0,041
-292,905	800,000	0,029	0,070
-291,891	726,777	-0,081	0,158
-290,876	-200,000	-0,022	0,089
-289,862	-200,000	0,001	-0,029
-288,847	388,070	-0,075	0,114
-287,832	800,000	-0,024	0,050
-286,818	-54,599	-0,082	0,027
-285,803	-153,038	0,153	0,008
-284,789	-15,072	0,056	-0,026
-283,774	-200,000	0,019	0,123
-282,759	-58,213	-0,079	0,025
-281,745	-200,000	-0,010	-0,097
-280,730	-200,000	-0,010	0,073
-279,716	-83,843	-0,144	0,033
-278,701	-118,860	-0,026	-0,003
-277,686	800,000	-0,007	0,014
-276,672	-27,717	0,059	0,025
-275,657	-72,664	-0,138	-0,037
-274,643	-110,622	0,056	-0,008
-273,628	-200,000	0,034	-0,193
-272,613	371,285	0,061	-0,091
-271,599	6,160	0,072	0,039
-270,584	800,000	-0,040	0,099
-269,570	107,237	-0,081	0,071
-268,555	2,392	-0,050	0,027
-267,540	-192,834	-0,061	0,000
-266,526	-200,000	0,019	-0,089
-265,511	-200,000	0,026	-0,164
-264,497	402,320	-0,086	-0,132
-263,482	-200,000	0,011	0,102
-262,467	404,258	-0,100	0,155
-261,453	-200,000	0,023	0,146
-260,438	-64,897	-0,036	0,010
-259,424	-121,853	0,142	-0,017
-258,409	12,196	-0,154	-0,086
-257,395	800,000	-0,009	-0,022
-256,380	-128,886	0,057	-0,006
-255,365	7,516	0,058	0,032
-254,351	-26,446	0,107	-0,046
-253,336	-200,000	0,030	-0,106
-252,322	-129,351	0,183	-0,018
-251,307	-200,000	-0,003	-0,067
-250,292	-200,000	-0,039	-0,126
-249,278	800,000	-0,014	-0,031
-248,263	-200,000	-0,004	0,159
-247,249	-146,062	-0,071	0,004
-246,234	800,000	0,005	-0,014
-245,219	215,569	-0,104	-0,120
-244,205	21,711	0,098	-0,058
-243,190	390,978	0,048	0,074
-242,176	509,262	0,043	-0,074
-241,161	176,452	0,135	0,143
-240,146	270,496	-0,088	0,113
-239,132	800,000	-0,014	-0,034
-238,117	-125,776	0,044	-0,005
-237,103	170,254	0,032	-0,034
-236,088	-184,343	0,193	0,002
-235,073	-200,000	0,022	0,134
-234,059	800,000	0,011	-0,034
-233,044	-13,735	-0,064	0,030
-232,030	800,000	-0,066	0,163
-231,015	800,000	0,078	0,174
-230,000	-200,000	0,001	0,122
-228,986	-200,000	-0,002	-0,036
-227,971	800,000	-0,010	-0,030
-226,957	-32,265	0,167	0,068
-225,942	-100,870	-0,091	-0,016
-224,927	-38,513	0,021	-0,008
-223,913	5,648	-0,047	-0,025
-222,898	26,986	0,035	-0,021
-221,884	-200,000	0,002	0,052
-220,869	27,686	-0,016	-0,010
-219,855	81,614	0,146	-0,116
-218,840	800,000	0,026	0,084
-217,825	-136,290	0,064	-0,005
-216,811	285,296	-0,049	-0,065
-215,796	294,324	-0,024	0,032
-214,782	-200,000	0,021	-0,084
-213,767	800,000	-0,035	0,075
-212,752	-58,447	0,186	0,059
-211,738	-178,113	0,065	-0,001
-210,723	31,621	0,084	-0,052
-209,709	109,526	-0,070	-0,061
-208,694	251,502	0,068	-0,085
-207,679	43,979	-0,059	-0,039
-206,665	-67,191	0,129	0,037
-205,650	-48,058	0,158	0,056
-204,636	234,813	0,091	-0,110
-203,621	139,544	0,043	0,042
-202,606	233,107	0,038	-0,045
-201,592	445,368	-0,055	-0,088
-200,577	341,811	-0,033	-0,047
-199,563	355,069	0,011	-0,016
-198,548	800,000	-0,027	0,077
-197,533	392,937	-0,011	0,017
-196,519	-21,506	0,117	-0,052
-195,504	-200,000	-0,006	-0,021
-194,490	-200,000	-0,013	-0,094
-193,475	-85,485	-0,220	0,050
-192,460	-105,281	0,067	-0,011
-191,446	512,707	-0,060	-0,103
-190,431	800,000	0,016	0,049
-189,417	-137,022	-0,035	0,003
-188,402	658,429	-0,064	-0,120
-187,387	800,000	-0,043	-0,090
-186,373	-163,331	-0,162	-0,006
-185,358	-194,636	0,095	0,001
-184,344	269,345	0,039	0,050
-183,329	-19,582	0,122	-0,055
-182,315	-200,000	0,003	-0,135
-181,300	-32,011	-0,004	0,002
-180,285	-104,641	-0,142	-0,024
-179,271	-3,665	-0,086	0,043
-178,256	-12,728	-0,068	0,032
-177,242	-200,000	0,019	-0,076
-176,227	318,401	0,035	0,048
-175,212	96,492	0,095	-0,079
-174,198	25,932	-0,170	-0,103
-173,183	-200,000	0,014	0,047
-172,169	-89,853	-0,051	0,011
-171,154	800,000	0,064	-0,163
-170,139	-200,000	0,016	-0,080
-169,125	93,957	0,036	-0,030
-168,110	-200,000	0,009	0,166
-167,096	554,837	-0,024	0,043
-166,081	-126,318	0,093	-0,010
-165,066	-200,000	0,014	-0,073
-164,052	-3,325	0,038	-0,019
-163,037	-166,911	-0,052	-0,002
-162,023	-82,914	-0,032	0,008
-161,008	-142,362	-0,183	0,013
-159,993	-200,000	0,003	-0,049
-158,979	-66,370	0,048	0,014
-157,964	120,150	-0,029	0,026
-156,950	31,168	-0,025	0,016
-155,935	-50,998	0,067	-0,023
-154,920	-200,000	0,011	0,102
-153,906	-200,000	-0,044	0,142
-152,891	-200,000	0,004	0,075
-151,877	-18,055	0,108	-0,049
-150,862	132,828	0,039	-0,036
-149,847	1,990	-0,081	-0,042
-148,833	-64,135	-0,023	0,007
-147,818	-6,065	0,058	0,029
-146,804	-32,507	0,026	-0,010
-145,789	-82,409	-0,051	0,012
-144,775	-173,886	-0,061	0,001
-143,760	787,490	0,010	0,021
-142,745	-200,000	-0,017	-0,110
-141,731	-200,000	0,006	-0,038
-140,716	-5,621	0,047	-0,024
-139,702	99,083	0,141	-0,119
-138,687	-27,385	-0,072	0,030
-137,672	-74,576	-0,108	0,028
-136,658	347,918	0,028	-0,041
-135,643	-200,000	-0,037	-0,129
-134,629	800,000	0,044	-0,090
-133,614	800,000	0,039	0,104
-132,599	-49,416	-0,052	0,018
-131,585	800,000	-0,024	-0,057
-130,570	305,511	-0,028	0,038
-129,556	348,891	0,032	0,046
-128,541	-123,070	0,046	0,005
-127,526	-30,328	-0,047	-0,019
-126,512	23,775	0,018	-0,011
-125,497	-105,008	0,104	-0,017
-124,483	67,551	0,034	0,025
-123,468	155,119	-0,139	0,139
-122,453	389,308	-0,061	0,092
-121,439	104,111	0,078	-0,067
-120,424	-137,673	-0,131	0,011
-119,410	-200,000	0,039	-0,169
-118,395	800,000	0,073	-0,148
-117,380	20,639	-0,031	0,018
-116,366	143,282	0,088	0,085
-115,351	644,518	-0,051	-0,095
-114,337	177,077	-0,053	-0,056
-113,322	118,094	0,043	0,038
-112,307	79,692	0,099	0,077
-111,293	-135,953	-0,036	-0,003
-110,278	667,561	-0,019	-0,035
-109,264	185,804	-0,115	-0,125
-108,249	59,832	-0,091	-0,065
-107,234	277,068	0,083	-0,107
-106,220	-102,973	0,057	-0,010
-105,205	800,000	0,106	0,227
-104,191	-200,000	-0,011	0,126
-103,176	342,499	-0,021	0,030
-102,162	800,000	-0,040	0,085
-101,147	66,432	-0,042	-0,031
-100,132	-200,000	0,002	-0,039
-99,118	-116,592	-0,031	0,004
-98,103	800,000	0,020	0,055
-97,089	-155,240	0,069	0,003
-96,074	503,198	0,086	-0,145
-95,059	800,000	-0,066	-0,157
-94,045	800,000	0,021	-0,059
-93,030	99,497	-0,091	-0,076
-92,016	378,750	0,027	-0,040
-91,001	-124,334	-0,079	0,009
-89,986	-64,564	0,072	0,021
-88,972	403,701	-0,040	0,061
-87,957	800,000	-0,022	0,056
-86,943	161,021	-0,087	0,089
-85,928	102,937	-0,160	0,136
-84,913	-56,141	-0,038	-0,012
-83,899	-152,010	0,094	-0,005
-82,884	-63,233	0,043	-0,013
-81,870	96,139	0,082	0,068
-80,855	800,000	0,014	0,032
-79,840	107,557	-0,059	-0,051
-78,826	800,000	0,020	-0,058
-77,811	-200,000	-0,003	-0,094
-76,797	-5,870	0,013	0,006
-75,782	-200,000	-0,011	0,067
-74,767	131,181	0,129	0,120
-73,753	128,596	-0,042	0,039
-72,738	-200,000	0,009	-0,115
-71,724	-31,471	0,103	-0,042
-70,709	800,000	-0,022	-0,047
-69,694	-200,000	-0,019	-0,159
-68,680	-200,000	-0,043	0,000
-67,665	-64,282	-0,021	0,006
-66,651	800,000	-0,015	0,040
-65,636	-200,000	-0,031	-0,140
-64,622	-200,000	-0,001	-0,049
-63,607	800,000	-0,018	-0,049
-62,592	-172,724	0,071	0,002
-61,578	800,000	-0,038	0,107
-60,563	771,532	-0,039	0,078
-59,549	800,000	-0,030	0,068
-58,534	-86,846	-1,440	-0,317
-57,519	419,611	-0,864	-1,346
-56,505	-200,000	-0,948	-4,390
-55,490	-61,912	0,608	-0,183
-54,476	800,000	5,064	11,836
-53,461	-200,000	14,403	258,252
-52,446	-200,000	695,736	2259,528
-51,432	582,662	1624,992	2905,528
-50,417	117,885	1633,451	1460,053
-49,403	74,302	1287,525	980,520
-48,388	37,722	1024,613	658,905
-47,373	23,749	983,263	586,266
-46,359	22,961	972,656	577,331
-45,344	21,913	968,318	571,301
-44,330	21,833	966,930	570,197
-43,315	21,698	965,327	568,791
-42,300	21,728	964,258	568,234
-41,286	21,731	963,370	567,699
-40,271	21,717	962,311	567,008
-39,257	21,707	961,356	566,389
-38,242	21,711	960,256	565,732
-37,227	21,680	959,609	565,227
-36,213	21,698	958,719	564,740
-35,198	21,646	957,756	563,981
-34,184	21,678	957,203	563,736
-33,169	21,663	956,205	563,079
-32,154	21,722	955,219	562,664
-31,140	21,734	954,422	562,213
-30,125	21,746	953,724	561,817
-29,111	21,713	953,039	561,285
-28,096	21,775	952,149	560,938
-27,082	21,763	951,420	560,448
-26,067	21,724	950,656	559,850
-25,052	21,717	949,902	559,362
-24,038	21,698	949,387	558,975
-23,023	21,713	948,709	558,602
-22,009	21,756	948,024	558,315
-20,994	21,795	947,306	557,993
-19,979	21,747	946,838	557,542
-18,965	21,708	946,339	557,101
-17,950	21,690	945,513	556,537
-16,936	21,702	944,904	556,193
-15,921	21,625	944,218	555,523
-14,906	21,627	943,292	554,961
-13,892	21,624	942,784	554,631
-12,877	21,600	942,039	554,095
-11,863	21,531	941,659	553,632
-10,848	21,578	941,024	553,383
-9,833	21,727	940,566	553,566
-8,819	21,646	939,932	552,914
-7,804	21,560	939,391	552,300
-6,790	21,638	938,710	552,126
-5,775	21,677	938,082	551,858
-4,760	21,620	937,573	551,355
-3,746	21,582	936,823	550,774
-2,731	21,400	936,306	549,872
-1,717	21,447	935,593	549,580
-0,702	21,395	934,954	549,018
0,313	21,263	934,069	548,909
1,327	24,204	932,175	557,013
2,342	33,485	795,745	500,231
3,356	30,853	452,400	280,387
4,371	0,251	295,718	152,494
5,386	-3,945	276,732	138,687
6,400	-5,630	270,808	134,130
7,415	-6,062	268,623	132,635
8,429	-5,663	267,366	132,371
9,444	-5,597	266,427	131,955
10,459	-5,524	266,005	131,801
11,473	-5,621	265,521	131,461
12,488	-5,797	264,756	130,910
13,502	-5,773	264,147	130,619
14,517	-5,705	263,871	130,533
15,531	-5,563	263,792	130,611
16,546	-5,205	263,116	130,589
17,561	-5,407	262,964	130,319
18,575	-5,293	262,474	130,168
19,590	-5,258	262,274	130,089
20,604	-5,020	261,761	130,038
21,619	-5,267	261,573	129,710
22,634	-5,391	261,149	129,377
23,648	-5,306	260,803	129,270
24,663	-5,396	260,644	129,100
25,677	-5,368	260,408	128,996
26,692	-5,348	260,173	128,886
27,707	-5,316	259,796	128,716
28,721	-5,399	259,554	128,510
29,736	-5,436	259,287	128,334
30,750	-5,413	259,050	128,226
31,765	-5,404	258,758	128,078
32,780	-5,555	258,642	127,874
33,794	-5,410	258,516	127,930
34,809	-5,475	258,099	127,654
35,823	-5,512	257,898	127,511
36,838	-5,295	257,574	127,531
37,853	-5,490	257,381	127,252
38,867	-5,382	257,130	127,212
39,882	-5,535	256,995	126,999
40,896	-5,396	256,773	127,001
41,911	-5,437	256,504	126,820
42,926	-5,363	256,332	126,788
43,940	-5,539	256,032	126,474
44,955	-5,511	255,715	126,330
45,969	-5,646	255,647	126,167
46,984	-5,717	255,405	125,974
47,999	-6,040	255,162	125,559
49,013	-5,886	254,681	125,446
50,028	-6,213	254,622	125,120
51,042	-6,333	254,364	124,876
52,057	-6,266	254,177	124,832
53,071	-6,428	253,975	124,580
54,086	-6,160	253,717	124,677
55,101	-5,881	253,648	124,875
56,115	-5,766	253,343	124,814
57,130	-5,575	253,345	124,970
58,144	-5,170	253,063	125,172
59,159	-5,333	253,023	125,000
60,174	-5,462	252,790	124,761
61,188	-5,572	252,622	124,572
62,203	-5,442	252,438	124,582
63,217	-5,270	252,100	124,553
64,232	-5,320	251,892	124,397
65,247	-5,255	251,571	124,283
66,261	-5,486	251,412	123,994
67,276	-5,543	251,105	123,782
68,290	-5,915	250,982	123,390
69,305	-5,837	250,717	123,316
70,320	-5,831	250,579	123,242
71,334	-5,579	250,398	123,358
72,349	-5,238	250,226	123,556
73,363	-5,372	250,097	123,367
74,378	-5,240	249,982	123,412
75,393	-5,442	249,630	123,054
76,407	-5,412	249,547	123,028
77,422	-5,330	249,294	122,962
78,436	-5,228	248,996	122,891
79,451	-5,462	248,802	122,585
80,466	-5,592	248,522	122,325
81,480	-5,401	248,328	122,382
82,495	-5,509	248,146	122,189
83,509	-5,564	247,922	122,021
84,524	-5,758	247,981	121,874
85,539	-5,688	247,510	121,691
86,553	-5,875	247,432	121,483
87,568	-5,719	247,046	121,415
88,582	-5,491	247,063	121,606
89,597	-5,515	246,876	121,482
90,611	-5,596	246,804	121,368
91,626	-5,511	246,569	121,313
92,641	-5,350	246,365	121,338
93,655	-5,621	246,186	121,010
94,670	-5,588	245,944	120,909
95,684	-5,663	245,796	120,762
96,699	-5,576	245,646	120,751
97,714	-5,583	245,402	120,613
98,728	-5,723	245,271	120,421
99,743	-5,711	244,940	120,257
100,757	-5,808	244,843	120,118
101,772	-5,859	244,524	119,908
102,787	-5,879	244,638	119,937
103,801	-5,684	244,384	119,965
104,816	-5,669	244,142	119,848
105,830	-5,429	243,926	119,931
106,845	-5,410	243,866	119,907
107,860	-5,481	243,544	119,679
108,874	-5,577	243,441	119,538
109,889	-5,844	243,256	119,214
110,903	-5,665	242,996	119,225
111,918	-5,785	242,782	119,010
112,933	-5,827	242,712	118,930
113,947	-5,617	242,405	118,943
114,962	-5,440	242,301	119,028
115,976	-5,443	242,073	118,903
116,991	-5,556	241,942	118,734
118,006	-5,441	241,837	118,767
119,020	-5,652	241,683	118,507
120,035	-5,608	241,532	118,458
121,049	-5,332	241,412	118,617
122,064	-5,465	241,157	118,371
123,079	-5,616	241,138	118,227
124,093	-5,556	240,671	118,037
125,108	-5,823	240,584	117,764
126,122	-5,910	240,227	117,507
127,137	-6,032	240,209	117,388
128,151	-5,629	239,941	117,576
129,166	-5,655	239,882	117,516
130,181	-5,874	239,712	117,243
131,195	-5,932	239,529	117,096
132,210	-5,731	239,338	117,156
133,224	-5,606	239,124	117,143
134,239	-5,527	238,955	117,114
135,254	-5,386	238,717	117,102
136,268	-5,581	238,464	116,809
137,283	-5,919	238,361	116,473
138,297	-5,923	238,135	116,348
139,312	-5,924	237,961	116,253
140,327	-5,671	237,862	116,399
141,341	-5,377	237,813	116,603
142,356	-5,327	237,788	116,621
143,370	-5,299	237,443	116,464
144,385	-5,198	237,617	116,621
145,400	-4,964	237,179	116,585
146,414	-5,287	237,059	116,255
147,429	-5,340	236,832	116,090
148,443	-5,522	236,700	115,868
149,458	-5,286	236,473	115,937
150,473	-5,394	236,303	115,756
151,487	-5,432	236,211	115,670
152,502	-5,376	236,107	115,655
153,516	-5,082	235,804	115,732
154,531	-5,126	235,731	115,651
155,546	-5,306	235,467	115,366
156,560	-5,182	235,110	115,280
157,575	-5,584	235,213	114,998
158,589	-5,523	234,859	114,864
159,604	-5,320	234,941	115,056
160,619	-5,171	234,630	115,013
161,633	-4,927	234,478	115,123
162,648	-5,136	234,396	114,905
163,662	-5,445	234,255	114,579
164,677	-5,459	233,960	114,414
165,692	-5,214	233,945	114,592
166,706	-5,318	233,838	114,446
167,721	-5,122	233,670	114,509
168,735	-5,071	233,509	114,461
169,750	-5,150	233,261	114,266
170,764	-5,249	233,174	114,135
171,779	-5,409	233,096	113,960
172,794	-5,329	232,979	113,956
173,808	-5,439	232,602	113,674
174,823	-5,743	232,305	113,278
175,837	-5,871	232,191	113,111
176,852	-5,576	232,251	113,364
177,867	-5,231	232,008	113,508
178,881	-5,388	231,842	113,292
179,896	-5,220	231,763	113,376
180,910	-5,136	231,536	113,321
181,925	-5,192	231,507	113,253
182,940	-5,168	231,293	113,157
183,954	-5,084	231,061	113,099
184,969	-5,175	231,018	112,997
185,983	-5,042	230,924	113,045
186,998	-5,297	230,641	112,696
188,013	-4,979	230,628	112,929
189,027	-5,149	230,310	112,631
190,042	-5,174	230,300	112,596
191,056	-5,180	230,120	112,493
192,071	-5,201	229,860	112,339
193,086	-5,211	229,654	112,221
194,100	-5,457	229,495	111,942
195,115	-5,931	228,939	111,292
196,129	-6,840	228,641	110,431
197,144	-3,384	229,813	113,684
198,159	1,407	231,185	118,105
199,173	4,283	231,737	120,629
200,188	4,596	231,852	120,924
201,202	4,560	231,757	120,835
202,217	4,645	231,650	120,835
203,232	4,934	231,522	120,982
204,246	4,979	231,381	120,934
205,261	5,047	231,138	120,849
206,275	5,245	231,202	121,025
207,290	5,015	231,112	120,789
208,304	5,005	230,846	120,631
209,319	5,097	230,614	120,570
210,334	4,928	230,464	120,350
211,348	4,792	230,247	120,121
212,363	4,423	229,984	119,687
213,377	4,288	229,620	119,382
214,392	4,111	229,580	119,214
215,407	4,302	229,403	119,259
216,421	4,473	229,420	119,389
217,436	4,307	229,142	119,106
218,450	3,724	228,987	118,565
219,465	3,970	228,838	118,667
220,480	4,087	228,725	118,687
221,494	3,861	228,571	118,423
222,509	4,107	228,431	118,529
223,523	4,151	228,287	118,477
224,538	4,204	228,177	118,451
225,553	4,178	227,990	118,323
226,567	4,328	227,830	118,345
227,582	4,488	227,817	118,450
228,596	4,827	227,650	118,613
229,611	4,319	227,516	118,143
230,626	4,204	227,294	117,929
231,640	4,061	227,084	117,700
232,655	4,538	226,991	118,006
233,669	4,788	226,988	118,184
234,684	4,760	226,820	118,065
235,699	4,480	226,585	117,719
236,713	4,660	226,292	117,694
237,728	4,417	226,197	117,449
238,742	4,032	226,006	117,047
239,757	4,212	225,974	117,156
240,772	4,051	225,834	116,951
241,786	4,186	225,570	116,906
242,801	4,520	225,525	117,126
243,815	4,526	225,411	117,061
244,830	4,568	225,362	117,057
245,844	4,316	225,121	116,730
246,859	4,088	224,942	116,454
247,874	4,443	224,738	116,607
248,888	4,538	224,631	116,613
249,903	4,421	224,481	116,437
250,917	4,345	224,295	116,272
251,932	4,205	224,095	116,053
252,947	4,200	223,857	115,915
253,961	4,185	223,708	115,816
254,976	4,128	223,694	115,756
255,990	4,466	223,471	115,884
257,005	4,319	223,513	115,785
258,020	4,245	223,424	115,673
259,034	4,699	223,269	115,923
260,049	4,493	223,020	115,629
261,063	4,359	222,886	115,449
262,078	4,539	222,937	115,600
263,093	4,675	222,686	115,561
264,107	4,463	222,519	115,306
265,122	4,427	222,411	115,212
266,136	4,748	222,310	115,389
267,151	4,764	222,186	115,327
268,166	4,359	221,892	114,862
269,180	4,200	221,581	114,573
270,195	4,005	221,493	114,372
271,209	4,101	221,435	114,403
272,224	4,145	221,223	114,317
273,239	4,135	221,286	114,331
274,253	4,096	221,096	114,194
275,268	4,004	220,801	113,963
276,282	4,036	220,622	113,885
277,297	4,037	220,436	113,779
278,312	3,990	220,341	113,685
279,326	4,149	220,294	113,768
280,341	4,441	220,010	113,827
281,355	4,069	220,051	113,564
282,370	4,323	219,787	113,604
283,384	3,929	219,620	113,218
284,399	3,975	219,421	113,139
285,414	3,954	219,246	113,023
286,428	4,028	219,178	113,032
287,443	4,261	219,266	113,239
288,457	4,377	219,083	113,219
289,472	4,238	218,946	113,036
290,487	3,714	218,685	112,508
291,501	3,822	218,444	112,453
292,516	3,826	218,422	112,434
293,530	3,949	218,276	112,439
294,545	3,732	218,122	112,192
295,560	4,060	217,958	112,336
296,574	4,248	217,845	112,405
297,589	4,296	217,811	112,413
298,603	4,212	217,654	112,260
299,618	4,303	217,455	112,214
300,633	4,015	217,384	111,958
301,647	4,390	217,280	112,167
302,662	4,703	217,088	112,285
303,676	4,368	216,913	111,942
304,691	4,355	216,734	111,830
305,706	4,400	216,661	111,814
306,720	4,430	216,598	111,794
307,735	4,306	216,418	111,601
308,749	4,117	216,210	111,347
309,764	4,154	216,257	111,388
310,779	4,323	216,074	111,407
311,793	4,516	215,891	111,441
312,808	4,397	215,804	111,300
313,822	4,342	215,534	111,112
314,837	4,028	215,497	110,857
315,852	4,132	215,104	110,719
316,866	4,096	214,947	110,603
317,881	4,479	214,969	110,879
318,895	4,519	214,888	110,856
319,910	4,280	214,702	110,579
320,925	4,041	214,573	110,331
321,939	3,862	214,293	110,050
322,954	3,892	214,105	109,964
323,968	4,098	214,129	110,115
324,983	4,277	214,064	110,199
325,997	4,501	214,115	110,376
327,012	4,525	213,651	110,144
328,027	4,325	213,693	110,013
329,041	4,685	213,580	110,202
330,056	4,607	213,413	110,050
331,070	4,436	213,174	109,796
332,085	4,199	213,006	109,531
333,100	4,020	212,856	109,316
334,114	4,210	212,722	109,373
335,129	4,330	212,643	109,407
336,143	3,920	212,431	108,998
337,158	4,075	212,298	109,030
338,173	3,974	212,214	108,906
339,187	4,135	211,998	108,899
340,202	3,686	212,023	108,585
341,216	3,949	211,711	108,601
342,231	4,174	211,678	108,733
343,246	3,993	211,521	108,515
344,260	4,063	211,417	108,502
345,275	4,102	211,258	108,437
346,289	4,160	211,300	108,490
347,304	4,102	211,218	108,398
348,319	4,209	210,955	108,328
349,333	4,025	210,793	108,106
350,348	4,192	210,711	108,172
351,362	4,587	210,542	108,352
352,377	4,379	210,377	108,112
353,392	4,311	210,331	108,031
354,406	4,217	210,198	107,887
355,421	194,762	1344,406	1435,913
356,435	155,490	1482,697	1436,025
