DTS Sentinel unit serial number:	SN410029Multiplexer serial number:	ORYXHardware model number:	OX2-SRSoftware version number:	ORYX F/W v4,00 Oryx Data Collector v3.7.2.0data status	okinstallation	B6 Nyhavnadifferential loss correction	single-endedforward channel	channel 2reverse channel	N/Adate	2023/12/10time	05:40:08forward acquisition time	300,00reverse acquisition time	0,00gamma	499,1914k internal	0,3124k external	0,3124temperature offset calibration	1,0000default loss term (dB/km)	0,3820temperature slope calibration	1,0000multiplexer offset coefficient	1,0000multiplexer slope coefficient	1,0000fibre end	0,00T internal ref (°C)	22,47T ext. ref 1 (°C)	6,48T ext. ref 2 (°C)	6,45length (m)	temperature (°C)	Stokes	anti-Stokes-744,400	800,000	-0,068	-0,151
-743,385	-109,437	-0,186	0,029
-742,371	-14,061	0,126	0,060
-741,356	-54,610	-0,124	0,042
-740,342	800,000	-0,036	-0,107
-739,327	-124,936	-0,317	0,036
-738,312	166,868	0,080	-0,085
-737,298	9,080	-0,178	0,100
-736,283	-200,000	-0,047	-0,155
-735,269	44,893	-0,119	0,081
-734,254	405,760	0,083	-0,130
-733,239	-105,610	-0,481	-0,080
-732,225	296,377	0,076	0,104
-731,210	-38,005	0,042	0,017
-730,196	-200,000	-0,016	0,124
-729,181	-20,157	-0,117	-0,053
-728,167	-6,111	-0,050	-0,025
-727,152	-200,000	-0,019	-0,197
-726,137	-200,000	0,001	-0,073
-725,123	-41,594	-0,187	-0,071
-724,108	766,518	-0,059	-0,120
-723,094	-200,000	0,006	-0,223
-722,079	440,760	-0,024	-0,039
-721,064	800,000	-0,053	0,112
-720,050	519,844	0,075	0,132
-719,035	800,000	-0,028	0,062
-718,021	147,863	-0,027	-0,027
-717,006	288,059	-0,077	-0,105
-715,991	-31,703	-0,132	-0,055
-714,977	272,709	-0,033	-0,044
-713,962	-88,593	0,045	0,010
-712,948	204,841	-0,091	-0,106
-711,933	-200,000	-0,010	0,053
-710,918	-200,000	-0,015	-0,090
-709,904	-29,109	-0,235	0,100
-708,889	-200,000	0,004	-0,018
-707,875	-200,000	0,000	0,001
-706,860	69,237	-0,047	-0,036
-705,845	-78,143	0,115	0,029
-704,831	-151,335	0,072	-0,004
-703,816	-200,000	-0,002	-0,057
-702,802	788,768	-0,104	-0,214
-701,787	-21,772	0,040	-0,018
-700,772	-200,000	0,023	-0,093
-699,758	-200,000	0,003	0,024
-698,743	77,294	0,087	0,069
-697,729	-200,000	-0,017	-0,111
-696,714	-34,460	-0,094	0,038
-695,699	207,395	0,015	-0,017
-694,685	-79,369	-0,140	-0,035
-693,670	-71,974	-0,045	-0,012
-692,656	-200,000	-0,006	-0,038
-691,641	8,678	-0,124	0,069
-690,627	774,161	0,032	0,066
-689,612	287,636	0,081	-0,109
-688,597	606,796	0,047	-0,087
-687,583	52,741	-0,024	0,017
-686,568	-41,882	0,078	-0,029
-685,554	800,000	-0,006	-0,018
-684,539	-72,402	-0,052	0,014
-683,524	256,893	-0,044	-0,056
-682,510	-121,397	0,053	0,006
-681,495	24,222	0,040	0,025
-680,481	-200,000	-0,029	-0,167
-679,466	-67,178	-0,084	-0,025
-678,451	222,755	-0,092	-0,110
-677,437	142,235	0,042	0,041
-676,422	-200,000	0,004	0,092
-675,408	157,873	-0,032	0,033
-674,393	-200,000	-0,011	0,059
-673,378	-90,920	-0,135	-0,029
-672,364	33,176	-0,060	-0,038
-671,349	417,941	-0,055	-0,088
-670,335	800,000	-0,035	-0,079
-669,320	-80,984	0,138	-0,034
-668,305	365,505	-0,061	-0,092
-667,291	582,151	0,025	0,046
-666,276	-151,588	-0,105	-0,006
-665,262	106,406	-0,040	-0,035
-664,247	-173,708	-0,026	-0,001
-663,232	-200,000	-0,004	0,021
-662,218	325,655	-0,086	-0,122
-661,203	314,921	-0,016	-0,023
-660,189	-82,617	-0,106	0,025
-659,174	227,441	-0,107	-0,130
-658,159	-14,636	-0,076	-0,036
-657,145	800,000	-0,054	-0,135
-656,130	-200,000	-0,013	-0,071
-655,116	121,232	-0,047	-0,044
-654,101	-157,977	0,112	0,005
-653,086	38,237	0,088	-0,058
-652,072	281,895	0,044	-0,059
-651,057	-104,273	0,077	-0,013
-650,043	516,317	0,065	-0,114
-649,028	-150,455	0,041	0,002
-648,014	193,767	-0,153	0,172
-646,999	-200,000	0,011	0,037
-645,984	248,604	0,075	0,095
-644,970	-95,340	0,023	0,005
-643,955	71,792	0,064	0,049
-642,941	-123,987	-0,013	-0,001
-641,926	69,595	0,077	0,059
-640,911	-159,436	-0,089	-0,004
-639,897	-54,320	-0,071	-0,024
-638,882	-149,390	-0,049	-0,003
-637,868	800,000	-0,026	-0,072
-636,853	113,792	0,025	-0,023
-635,838	10,833	-0,071	-0,040
-634,824	-70,415	0,053	0,015
-633,809	-113,802	0,096	-0,014
-632,795	-127,730	-0,099	-0,010
-631,780	800,000	0,039	0,093
-630,765	16,201	-0,047	0,028
-629,751	-200,000	-0,002	-0,051
-628,736	-200,000	0,013	-0,157
-627,722	64,137	-0,079	-0,059
-626,707	257,608	-0,107	0,137
-625,692	-46,490	0,114	0,041
-624,678	-94,081	-0,077	0,015
-623,663	559,650	0,054	0,098
-622,649	174,445	-0,051	0,055
-621,634	-200,000	-0,013	0,091
-620,619	-43,493	-0,126	-0,047
-619,605	-52,262	-0,072	-0,025
-618,590	491,495	0,012	0,020
-617,576	-113,259	0,075	-0,011
-616,561	-200,000	0,014	0,112
-615,546	-142,450	-0,151	0,011
-614,532	-200,000	-0,002	0,040
-613,517	-200,000	0,019	-0,113
-612,503	-29,650	-0,015	0,007
-611,488	-179,642	0,115	0,002
-610,474	-200,000	-0,011	0,063
-609,459	-193,783	0,005	0,000
-608,444	-200,000	0,008	-0,158
-607,430	519,882	-0,031	0,055
-606,415	496,998	-0,045	-0,077
-605,401	-0,743	0,133	0,070
-604,386	19,038	0,073	0,044
-603,371	371,637	-0,059	-0,089
-602,357	314,317	-0,019	0,027
-601,342	118,084	-0,066	-0,060
-600,328	438,209	-0,025	-0,040
-599,313	-166,769	-0,168	0,005
-598,298	129,914	-0,048	-0,045
-597,284	166,710	-0,129	0,136
-596,269	-200,000	0,012	0,087
-595,255	-132,905	0,094	0,009
-594,240	-16,146	-0,076	0,036
-593,225	291,416	0,071	0,095
-592,211	-67,866	-0,104	-0,030
-591,196	800,000	-0,068	0,173
-590,182	-200,000	0,022	-0,098
-589,167	800,000	-0,022	0,051
-588,152	29,084	-0,160	0,100
-587,138	97,816	0,094	0,080
-586,123	800,000	0,036	0,080
-585,109	-129,521	0,037	0,004
-584,094	289,837	-0,067	-0,090
-583,079	800,000	0,026	0,071
-582,065	25,736	-0,064	0,040
-581,050	48,098	0,109	-0,076
-580,036	-59,312	0,070	0,022
-579,021	643,898	-0,033	-0,063
-578,006	-200,000	0,006	-0,022
-576,992	800,000	-0,065	-0,142
-575,977	306,743	0,057	-0,079
-574,963	-8,422	0,048	0,024
-573,948	-37,364	-0,047	-0,018
-572,934	488,125	0,038	-0,064
-571,919	-200,000	0,005	-0,053
-570,904	449,210	-0,023	-0,038
-569,890	135,421	-0,181	-0,175
-568,875	-34,648	0,075	0,030
-567,861	25,940	0,015	-0,009
-566,846	-95,155	-0,055	-0,011
-565,831	-21,434	0,085	-0,038
-564,817	-94,320	0,080	0,016
-563,802	16,227	-0,156	0,091
-562,788	306,696	-0,042	-0,058
-561,773	252,937	0,063	0,080
-560,758	335,055	0,029	0,042
-559,744	53,390	0,107	0,076
-558,729	-186,752	-0,072	0,001
-557,715	10,865	-0,141	-0,080
-556,700	52,061	-0,081	0,057
-555,685	116,359	-0,060	-0,054
-554,671	-112,797	0,058	-0,008
-553,656	-174,561	0,128	-0,003
-552,642	-200,000	0,007	0,051
-551,627	399,942	0,024	-0,037
-550,612	-96,519	0,094	-0,018
-549,598	-169,097	-0,134	0,004
-548,583	183,522	-0,056	-0,062
-547,569	117,438	-0,008	0,008
-546,554	60,446	0,074	0,054
-545,539	-89,945	-0,196	-0,042
-544,525	-60,380	0,115	-0,036
-543,510	800,000	-0,025	0,065
-542,496	-73,398	-0,089	-0,024
-541,481	80,682	0,092	-0,073
-540,466	800,000	-0,027	-0,059
-539,452	-60,030	-0,031	-0,010
-538,437	599,178	-0,043	-0,079
-537,423	173,194	-0,026	-0,028
-536,408	-200,000	0,015	-0,153
-535,393	-200,000	0,006	-0,068
-534,379	621,325	-0,056	0,104
-533,364	300,943	0,089	0,121
-532,350	52,151	-0,074	0,052
-531,335	-65,107	0,023	-0,007
-530,321	-51,325	-0,152	0,052
-529,306	445,011	-0,036	0,058
-528,291	-14,327	-0,093	-0,044
-527,277	183,311	-0,091	-0,099
-526,262	-200,000	0,000	0,019
-525,248	213,391	0,064	0,075
-524,233	231,050	0,075	-0,091
-523,218	-53,630	-0,019	-0,006
-522,204	-179,213	-0,123	-0,002
-521,189	713,530	0,018	0,036
-520,175	179,725	0,007	0,008
-519,160	-200,000	-0,023	-0,163
-518,145	-167,181	-0,084	0,002
-517,131	-11,051	-0,043	0,021
-516,116	114,891	-0,037	-0,033
-515,102	-102,320	0,022	-0,004
-514,087	800,000	0,111	-0,233
-513,072	-200,000	0,024	-0,080
-512,058	166,247	-0,040	-0,042
-511,043	-200,000	0,011	-0,082
-510,029	82,665	0,069	0,056
-509,014	253,022	0,131	0,166
-507,999	-46,383	0,038	-0,014
-506,985	800,000	0,012	-0,036
-505,970	-200,000	-0,008	0,057
-504,956	800,000	-0,022	0,068
-503,941	495,188	-0,019	0,032
-502,926	466,925	0,072	0,120
-501,912	-200,000	0,018	0,093
-500,897	-200,000	0,032	0,204
-499,883	120,366	0,029	-0,027
-498,868	-42,449	-0,114	0,043
-497,853	-200,000	-0,017	0,146
-496,839	-200,000	0,024	0,118
-495,824	-200,000	-0,041	-0,141
-494,810	-49,934	0,080	0,028
-493,795	-91,153	-0,081	0,017
-492,781	-200,000	-0,004	0,183
-491,766	-200,000	-0,021	0,076
-490,751	-200,000	-0,026	-0,090
-489,737	800,000	-0,080	-0,170
-488,722	200,929	0,036	-0,041
-487,708	-5,706	-0,161	0,081
-486,693	-32,820	0,022	0,009
-485,678	2,963	0,032	-0,017
-484,664	800,000	-0,014	-0,038
-483,649	-86,692	-0,046	-0,010
-482,635	-200,000	0,005	-0,046
-481,620	456,346	0,076	-0,126
-480,605	-200,000	-0,036	0,116
-479,591	270,686	-0,051	0,067
-478,576	-200,000	-0,022	-0,118
-477,562	-200,000	0,020	0,088
-476,547	40,193	-0,040	-0,027
-475,532	133,433	-0,065	-0,062
-474,518	33,733	0,040	-0,026
-473,503	-200,000	0,032	0,129
-472,489	-53,506	0,133	0,045
-471,474	-19,832	0,038	-0,017
-470,459	-107,022	0,067	0,011
-469,445	172,758	-0,103	0,109
-468,430	-200,000	-0,026	-0,119
-467,416	-41,401	0,145	0,055
-466,401	-4,188	0,065	-0,033
-465,386	-200,000	-0,015	0,135
-464,372	-200,000	0,018	0,061
-463,357	57,977	-0,110	-0,080
-462,343	-200,000	-0,017	-0,084
-461,328	333,885	0,039	0,056
-460,313	38,187	0,036	0,023
-459,299	-200,000	-0,018	0,108
-458,284	-145,023	0,097	-0,006
-457,270	89,782	-0,051	-0,042
-456,255	-200,000	-0,010	0,055
-455,241	800,000	-0,035	0,076
-454,226	-101,983	-0,034	-0,006
-453,211	231,725	0,098	0,119
-452,197	800,000	-0,053	0,109
-451,182	800,000	0,052	0,139
-450,168	-200,000	-0,004	0,047
-449,153	-86,802	0,050	-0,011
-448,138	-119,794	-0,141	-0,018
-447,124	85,727	-0,089	-0,072
-446,109	-72,293	-0,111	-0,030
-445,095	800,000	-0,032	0,071
-444,080	146,701	0,011	-0,011
-443,065	-38,989	-0,043	-0,017
-442,051	316,804	-0,013	0,018
-441,036	510,359	0,039	-0,067
-440,022	252,706	-0,015	0,018
-439,007	8,048	-0,090	0,049
-437,992	234,685	-0,062	-0,076
-436,978	72,260	-0,066	0,051
-435,963	-200,000	0,001	0,018
-434,949	82,395	0,051	0,041
-433,934	-149,033	-0,186	0,011
-432,919	223,584	-0,072	-0,085
-431,905	-200,000	-0,023	0,086
-430,890	800,000	0,058	0,151
-429,876	229,460	0,132	0,159
-428,861	458,364	0,041	-0,067
-427,846	-73,493	0,143	-0,038
-426,832	-143,240	-0,031	0,002
-425,817	273,185	-0,061	-0,080
-424,803	6,580	-0,127	0,070
-423,788	-126,688	0,066	0,007
-422,773	-200,000	-0,028	-0,097
-421,759	800,000	0,011	-0,029
-420,744	-80,641	0,086	0,021
-419,730	800,000	-0,051	-0,131
-418,715	800,000	-0,048	-0,146
-417,701	609,118	0,016	-0,029
-416,686	-200,000	0,016	0,168
-415,671	-57,618	0,089	-0,029
-414,657	-17,225	0,022	0,010
-413,642	-75,850	-0,075	0,019
-412,628	-200,000	0,008	0,091
-411,613	7,368	-0,040	-0,022
-410,598	800,000	-0,070	-0,183
-409,584	800,000	-0,033	0,082
-408,569	-163,547	0,137	-0,005
-407,555	-138,453	0,097	-0,008
-406,540	-200,000	-0,010	-0,057
-405,525	207,963	-0,077	-0,088
-404,511	-13,062	-0,067	0,032
-403,496	-47,789	-0,038	-0,013
-402,482	-84,789	0,093	0,021
-401,467	105,472	-0,059	-0,051
-400,452	-200,000	-0,002	0,080
-399,438	502,494	-0,094	0,161
-398,423	141,405	0,085	-0,083
-397,409	740,992	-0,050	-0,100
-396,394	205,991	0,108	-0,124
-395,379	-54,931	-0,114	0,038
-394,365	-200,000	-0,008	-0,097
-393,350	52,767	0,089	0,062
-392,336	-70,135	-0,030	0,008
-391,321	800,000	0,018	0,058
-390,306	-200,000	0,005	0,022
-389,292	158,727	-0,015	0,015
-388,277	-123,589	0,085	0,010
-387,263	-1,609	-0,042	0,021
-386,248	-200,000	0,063	0,000
-385,233	75,264	-0,074	0,057
-384,219	712,979	-0,050	-0,098
-383,204	800,000	-0,045	-0,117
-382,190	-26,244	-0,032	0,014
-381,175	205,383	0,119	-0,136
-380,160	-200,000	-0,025	-0,115
-379,146	706,005	-0,036	-0,071
-378,131	-200,000	0,002	-0,031
-377,117	-54,339	-0,091	0,030
-376,102	-200,000	-0,005	0,030
-375,088	313,449	-0,033	-0,046
-374,073	771,485	-0,033	-0,066
-373,058	251,853	-0,076	-0,095
-372,044	120,429	0,116	0,106
-371,029	76,501	0,025	0,020
-370,015	84,275	-0,025	0,020
-369,000	179,418	-0,084	-0,090
-367,985	800,000	0,030	-0,080
-366,971	-149,925	-0,100	0,006
-365,956	-49,146	0,036	-0,013
-364,942	800,000	0,038	0,079
-363,927	170,019	-0,066	-0,070
-362,912	-131,318	0,159	-0,015
-361,898	800,000	0,022	0,052
-360,883	102,441	-0,103	0,088
-359,869	-109,498	0,017	0,003
-358,854	800,000	0,005	0,013
-357,839	454,881	0,068	0,111
-356,825	-50,372	-0,034	0,012
-355,810	800,000	0,022	0,060
-354,796	569,446	0,073	0,131
-353,781	508,020	0,030	0,052
-352,766	36,082	0,075	-0,049
-351,752	37,896	0,088	-0,057
-350,737	98,257	-0,020	-0,017
-349,723	-4,614	0,082	-0,041
-348,708	-200,000	0,117	-0,000
-347,693	26,472	0,023	-0,014
-346,679	-200,000	-0,001	-0,034
-345,664	110,253	0,057	-0,050
-344,650	-40,473	-0,080	0,030
-343,635	68,738	-0,024	0,018
-342,620	103,506	0,111	0,096
-341,606	-68,825	0,127	0,036
-340,591	-94,252	-0,032	-0,006
-339,577	65,608	-0,067	-0,050
-338,562	401,290	0,076	-0,118
-337,548	-83,109	-0,062	0,014
-336,533	-118,639	0,032	0,004
-335,518	800,000	0,033	0,080
-334,504	-78,236	0,109	0,027
-333,489	-200,000	0,007	0,052
-332,475	-200,000	0,016	-0,088
-331,460	306,584	0,094	-0,129
-330,445	-200,000	-0,008	-0,118
-329,431	800,000	0,063	-0,157
-328,416	-65,749	0,113	-0,033
-327,402	-63,707	0,130	0,039
-326,387	307,331	0,042	-0,057
-325,372	-28,520	-0,074	0,031
-324,358	-2,112	0,042	0,022
-323,343	-76,703	-0,136	-0,035
-322,329	-200,000	-0,017	0,059
-321,314	-18,661	0,074	-0,034
-320,299	-64,935	0,052	0,015
-319,285	335,214	0,021	-0,030
-318,270	-108,212	0,081	0,013
-317,256	-200,000	-0,014	-0,120
-316,241	2,653	0,047	-0,025
-315,226	-36,648	0,113	-0,044
-314,212	800,000	-0,067	0,140
-313,197	393,939	-0,055	0,084
-312,183	41,224	0,134	-0,089
-311,168	-65,246	0,153	-0,045
-310,153	-76,413	-0,127	0,032
-309,139	-9,055	-0,140	-0,068
-308,124	-200,000	0,002	0,076
-307,110	2,510	0,105	0,056
-306,095	-101,226	0,121	-0,021
-305,080	523,892	0,084	-0,145
-304,066	-11,172	-0,019	0,009
-303,051	-143,837	0,096	-0,007
-302,037	146,656	0,058	0,057
-301,022	-200,000	-0,015	-0,133
-300,008	-83,616	0,130	-0,030
-298,993	-200,000	0,022	0,113
-297,978	364,941	-0,039	0,058
-296,964	476,610	0,038	-0,063
-295,949	800,000	0,019	0,059
-294,935	-87,342	-0,056	-0,012
-293,920	800,000	0,027	0,073
-292,905	-200,000	-0,011	0,073
-291,891	62,876	0,059	0,043
-290,876	-85,883	0,052	-0,012
-289,862	-19,143	-0,125	0,056
-288,847	526,574	-0,002	-0,004
-287,832	800,000	-0,045	-0,103
-286,818	-80,196	-0,107	0,026
-285,803	-200,000	0,006	0,051
-284,789	-200,000	0,033	0,147
-283,774	-108,581	0,106	0,016
-282,759	800,000	-0,009	-0,021
-281,745	-101,506	0,065	-0,011
-280,730	168,660	0,060	-0,062
-279,716	-200,000	-0,032	-0,124
-278,701	-14,650	0,095	-0,045
-277,686	-76,794	0,055	-0,014
-276,672	800,000	0,010	0,033
-275,657	25,223	0,048	-0,029
-274,643	-130,382	0,087	0,009
-273,628	-98,287	-0,050	0,009
-272,613	30,252	0,072	-0,045
-271,599	243,633	0,018	-0,022
-270,584	286,648	0,013	-0,017
-269,570	223,110	0,056	-0,066
-268,555	273,767	0,011	0,014
-267,540	123,494	0,094	-0,086
-266,526	-200,000	0,026	0,086
-265,511	334,888	-0,037	0,053
-264,497	627,969	-0,063	0,117
-263,482	-200,000	-0,014	0,155
-262,467	800,000	-0,044	0,100
-261,453	-200,000	-0,022	0,119
-260,438	-80,520	-0,019	-0,005
-259,424	-10,320	-0,020	-0,010
-258,409	-200,000	0,009	0,047
-257,395	-61,599	-0,116	-0,035
-256,380	277,832	0,070	-0,091
-255,365	533,985	-0,018	0,032
-254,351	-80,411	-0,068	-0,017
-253,336	800,000	-0,010	0,024
-252,322	-132,020	-0,136	0,013
-251,307	5,220	0,087	-0,046
-250,292	800,000	-0,049	-0,106
-249,278	3,425	0,045	-0,024
-248,263	20,125	-0,178	0,105
-247,249	23,551	-0,103	0,062
-246,234	259,736	0,055	0,069
-245,219	800,000	0,004	-0,010
-244,205	-200,000	0,008	-0,030
-243,190	-200,000	-0,000	-0,033
-242,176	74,956	-0,175	-0,134
-241,161	-200,000	-0,009	0,049
-240,146	-200,000	0,001	-0,027
-239,132	-200,000	0,018	-0,179
-238,117	102,341	-0,079	-0,068
-237,103	409,189	0,045	-0,070
-236,088	143,901	0,020	-0,020
-235,073	-200,000	-0,029	-0,118
-234,059	-78,501	0,119	-0,030
-233,044	-57,182	0,068	-0,022
-232,030	26,041	0,063	0,038
-231,015	258,141	0,134	-0,169
-230,000	800,000	-0,079	-0,192
-228,986	-34,425	0,124	0,049
-227,971	-200,000	-0,008	0,133
-226,957	-45,506	0,024	0,009
-225,942	-200,000	0,001	-0,170
-224,927	-200,000	-0,025	-0,207
-223,913	-200,000	0,028	-0,148
-222,898	800,000	0,034	-0,105
-221,884	29,773	-0,097	-0,060
-220,869	14,873	-0,018	-0,010
-219,855	276,941	-0,032	0,041
-218,840	341,519	0,061	0,087
-217,825	800,000	0,011	-0,035
-216,811	-200,000	-0,002	0,170
-215,796	-130,659	-0,122	0,012
-214,782	-159,745	-0,045	0,002
-213,767	331,970	0,087	0,123
-212,752	-200,000	0,003	-0,071
-211,738	281,512	0,022	-0,029
-210,723	-200,000	0,011	-0,045
-209,709	800,000	0,010	0,026
-208,694	21,221	0,113	0,067
-207,679	-200,000	-0,013	-0,080
-206,665	246,104	-0,105	-0,130
-205,650	-44,550	0,103	-0,038
-204,636	-109,168	0,133	-0,020
-203,621	237,696	-0,041	0,050
-202,606	252,704	-0,025	-0,032
-201,592	-108,435	0,055	0,009
-200,577	-5,749	0,040	-0,020
-199,563	-200,000	0,004	0,057
-198,548	-126,673	0,101	0,011
-197,533	-161,502	-0,159	-0,006
-196,519	-200,000	-0,025	0,148
-195,504	-200,000	0,028	0,213
-194,490	800,000	-0,049	0,124
-193,475	170,658	-0,109	-0,114
-192,460	800,000	0,032	-0,065
-191,446	800,000	-0,029	0,060
-190,431	50,986	0,078	0,054
-189,417	-200,000	-0,011	0,061
-188,402	-200,000	-0,002	0,057
-187,387	-122,790	-0,051	-0,006
-186,373	-200,000	-0,002	0,054
-185,358	371,345	-0,038	-0,056
-184,344	-200,000	0,003	0,041
-183,329	102,483	-0,069	-0,059
-182,315	-97,218	0,128	-0,024
-181,300	800,000	-0,026	0,082
-180,285	800,000	-0,024	0,067
-179,271	234,103	-0,005	-0,006
-178,256	-200,000	-0,020	0,072
-177,242	-200,000	-0,018	-0,138
-176,227	800,000	-0,040	-0,124
-175,212	-147,157	0,088	0,005
-174,198	-200,000	0,009	0,100
-173,183	-200,000	-0,002	-0,025
-172,169	800,000	0,042	-0,091
-171,154	-200,000	-0,003	-0,057
-170,139	-131,643	-0,116	0,011
-169,125	313,455	0,087	0,120
-168,110	800,000	-0,016	0,042
-167,096	106,210	0,047	-0,041
-166,081	308,572	-0,018	-0,024
-165,066	-200,000	0,019	-0,123
-164,052	279,364	-0,029	-0,038
-163,037	15,626	-0,108	0,061
-162,023	-127,478	0,012	0,001
-161,008	233,611	-0,059	0,071
-159,993	377,405	-0,043	0,064
-158,979	800,000	0,005	0,012
-157,964	255,432	0,038	0,047
-156,950	-88,315	-0,024	-0,005
-155,935	-200,000	0,020	-0,099
-154,920	-200,000	0,016	0,089
-153,906	469,856	0,021	0,035
-152,891	-56,513	0,152	-0,049
-151,877	-121,696	-0,155	-0,018
-150,862	-200,000	0,001	-0,093
-149,847	-200,000	-0,000	-0,064
-148,833	675,566	0,037	0,070
-147,818	732,396	0,054	-0,105
-146,804	-200,000	-0,017	-0,122
-145,789	-200,000	-0,004	-0,047
-144,775	659,689	-0,030	0,057
-143,760	-44,147	-0,033	0,012
-142,745	800,000	-0,018	-0,051
-141,731	99,616	0,060	0,051
-140,716	-200,000	-0,029	0,115
-139,702	800,000	-0,068	0,141
-138,687	172,190	-0,133	0,140
-137,672	800,000	0,010	0,031
-136,658	800,000	-0,026	0,067
-135,643	-59,079	-0,093	-0,029
-134,629	-55,625	-0,027	-0,009
-133,614	-200,000	0,011	-0,060
-132,599	540,385	-0,027	-0,047
-131,585	800,000	0,077	-0,160
-130,570	138,592	-0,036	-0,034
-129,556	37,694	-0,040	-0,026
-128,541	800,000	-0,055	-0,159
-127,526	-200,000	0,027	0,139
-126,512	-38,207	0,046	0,018
-125,497	-83,023	0,092	-0,021
-124,483	-57,869	-0,146	-0,046
-123,468	334,632	0,002	0,003
-122,453	298,562	-0,079	0,106
-121,439	800,000	0,079	0,188
-120,424	-200,000	-0,011	-0,219
-119,410	-119,229	0,076	0,010
-118,395	-33,640	-0,053	0,021
-117,380	800,000	-0,040	-0,088
-116,366	33,996	0,035	0,022
-115,351	-15,430	0,046	-0,021
-114,337	-58,308	0,073	-0,023
-113,322	358,865	-0,022	-0,032
-112,307	288,571	-0,089	-0,118
-111,293	800,000	-0,052	0,121
-110,278	-200,000	-0,000	-0,010
-109,264	-200,000	-0,011	0,131
-108,249	11,105	-0,093	0,051
-107,234	-200,000	0,006	-0,044
-106,220	226,173	-0,075	-0,089
-105,205	-200,000	0,028	0,123
-104,191	800,000	0,052	0,158
-103,176	-77,962	-0,076	0,019
-102,162	800,000	-0,043	0,125
-101,147	554,755	0,043	-0,076
-100,132	-200,000	-0,001	-0,048
-99,118	282,108	0,066	-0,086
-98,103	-77,045	-0,064	0,016
-97,089	800,000	0,053	0,161
-96,074	467,935	0,032	0,052
-95,059	800,000	0,019	-0,050
-94,045	-175,576	-0,119	-0,002
-93,030	-96,266	-0,059	0,011
-92,016	375,063	-0,098	-0,146
-91,001	-28,030	0,072	-0,030
-89,986	-200,000	0,002	0,032
-88,972	-72,502	0,018	0,005
-87,957	397,143	-0,117	0,178
-86,943	-69,410	-0,090	0,025
-85,928	386,432	0,051	0,077
-84,913	-200,000	0,013	-0,097
-83,899	10,773	-0,043	-0,024
-82,884	-200,000	-0,030	0,106
-81,870	49,533	-0,098	0,067
-80,855	-13,956	-0,113	0,053
-79,840	800,000	0,042	0,091
-78,826	50,804	-0,090	-0,062
-77,811	-144,495	-0,019	0,001
-76,797	800,000	-0,036	-0,108
-75,782	-65,855	-0,051	0,015
-74,767	-186,011	0,068	-0,001
-73,753	19,457	-0,150	-0,087
-72,738	-200,000	-0,011	0,038
-71,724	-200,000	0,006	0,055
-70,709	274,378	-0,092	-0,118
-69,694	-40,780	0,089	-0,033
-68,680	-200,000	0,033	0,137
-67,665	-19,365	0,048	-0,022
-66,651	543,612	-0,017	-0,030
-65,636	-200,000	0,024	-0,100
-64,622	-169,900	-0,096	-0,002
-63,607	416,416	-0,029	0,045
-62,592	-200,000	0,009	0,140
-61,578	335,322	0,052	-0,073
-60,563	-136,169	0,083	0,007
-59,549	-55,231	-0,059	-0,019
-58,534	-124,854	-1,314	-0,145
-57,519	787,932	-0,767	-1,534
-56,505	-200,000	-0,953	-4,496
-55,490	50,258	0,474	-0,325
-54,476	800,000	4,915	11,842
-53,461	-200,000	13,419	252,668
-52,446	-200,000	688,778	2262,732
-51,432	593,115	1622,258	2919,800
-50,417	120,358	1635,684	1473,155
-49,403	73,440	1289,492	978,073
-48,388	38,269	1024,485	660,383
-47,373	24,484	981,850	587,593
-46,359	23,588	971,784	578,607
-45,344	22,686	967,272	572,951
-44,330	22,653	965,892	572,004
-43,315	22,554	964,474	570,819
-42,300	22,497	963,539	570,059
-41,286	22,542	962,530	569,584
-40,271	22,422	961,721	568,694
-39,257	22,458	960,567	568,106
-38,242	22,479	959,648	567,607
-37,227	22,437	958,924	567,020
-36,213	22,477	957,924	566,537
-35,198	22,415	956,849	565,678
-34,184	22,493	956,595	565,757
-33,169	22,385	955,683	564,845
-32,154	22,478	954,724	564,558
-31,140	22,462	954,011	564,062
-30,125	22,528	952,939	563,619
-29,111	22,523	952,200	563,144
-28,096	22,524	951,421	562,663
-27,082	22,484	950,879	562,191
-26,067	22,520	949,901	561,707
-25,052	22,564	949,277	561,455
-24,038	22,576	948,686	561,122
-23,023	22,486	947,999	560,405
-22,009	22,649	947,175	560,418
-20,994	22,570	946,800	559,920
-19,979	22,567	946,179	559,521
-18,965	22,499	945,563	558,919
-17,950	22,566	944,693	558,595
-16,936	22,469	944,150	557,942
-15,921	22,478	943,578	557,613
-14,906	22,323	942,958	556,731
-13,892	22,373	942,238	556,441
-12,877	22,425	941,561	556,184
-11,863	22,379	940,916	555,635
-10,848	22,404	940,450	555,419
-9,833	22,474	939,964	555,330
-8,819	22,452	939,333	554,865
-7,804	22,433	938,707	554,413
-6,790	22,413	937,962	553,890
-5,775	22,446	937,487	553,691
-4,760	22,434	937,028	553,361
-3,746	22,380	936,355	552,770
-2,731	22,286	935,667	552,047
-1,717	22,185	934,970	551,295
-0,702	22,202	934,130	550,829
0,313	22,010	933,684	550,793
1,327	25,108	931,623	559,269
2,342	34,734	796,512	503,800
3,356	32,747	451,637	282,646
4,371	1,906	293,335	152,867
5,386	-2,894	274,116	138,307
6,400	-3,964	268,322	134,382
7,415	-4,438	265,940	132,742
8,429	-4,313	264,910	132,330
9,444	-4,283	263,964	131,872
10,459	-4,221	263,320	131,596
11,473	-4,457	262,703	131,062
12,488	-4,435	262,333	130,886
13,502	-4,523	261,555	130,407
14,517	-4,521	261,237	130,238
15,531	-4,520	260,795	130,007
16,546	-4,311	260,483	130,027
17,561	-4,414	260,130	129,747
18,575	-4,499	259,803	129,496
19,590	-4,546	259,481	129,283
20,604	-4,344	259,309	129,366
21,619	-4,524	258,781	128,930
22,634	-4,559	258,607	128,801
23,648	-4,391	258,106	128,689
24,663	-4,395	257,954	128,599
25,677	-4,433	257,780	128,466
26,692	-4,538	257,523	128,234
27,707	-4,586	257,208	128,024
28,721	-4,484	256,854	127,926
29,736	-4,550	256,548	127,703
30,750	-4,593	256,441	127,601
31,765	-4,695	256,255	127,407
32,780	-4,540	255,921	127,366
33,794	-4,650	255,750	127,173
34,809	-4,514	255,608	127,211
35,823	-4,482	255,207	127,028
36,838	-4,612	255,079	126,839
37,853	-4,697	254,775	126,602
38,867	-4,589	254,505	126,551
39,882	-4,761	254,325	126,299
40,896	-4,520	254,071	126,372
41,911	-4,657	253,858	126,136
42,926	-4,497	253,564	126,118
43,940	-4,469	253,328	126,014
44,955	-4,677	253,097	125,706
45,969	-4,781	252,875	125,495
46,984	-4,753	252,733	125,437
47,999	-5,265	252,368	124,801
49,013	-5,183	252,236	124,795
50,028	-5,118	251,816	124,633
51,042	-5,148	251,588	124,483
52,057	-5,305	251,474	124,280
53,071	-5,443	251,300	124,063
54,086	-5,232	251,177	124,174
55,101	-5,081	250,893	124,152
56,115	-4,839	250,943	124,375
57,130	-4,508	250,658	124,508
58,144	-4,241	250,603	124,699
59,159	-4,423	250,480	124,470
60,174	-4,354	250,047	124,303
61,188	-4,285	249,900	124,279
62,203	-4,375	249,628	124,055
63,217	-4,504	249,668	123,953
64,232	-4,546	249,358	123,752
65,247	-4,410	249,134	123,746
66,261	-4,520	248,897	123,524
67,276	-4,559	248,725	123,393
68,290	-4,662	248,338	123,103
69,305	-4,706	248,011	122,893
70,320	-4,839	247,994	122,760
71,334	-4,686	247,929	122,847
72,349	-4,580	247,740	122,832
73,363	-4,293	247,450	122,921
74,378	-4,357	247,283	122,773
75,393	-4,391	246,990	122,588
76,407	-4,620	246,808	122,293
77,422	-4,419	246,650	122,374
78,436	-4,405	246,417	122,259
79,451	-4,483	246,231	122,090
80,466	-4,680	246,118	121,857
81,480	-4,689	245,799	121,680
82,495	-4,817	245,660	121,492
83,509	-4,688	245,399	121,461
84,524	-4,780	245,277	121,312
85,539	-4,721	244,849	121,140
86,553	-4,844	244,884	121,043
87,568	-4,676	244,755	121,110
88,582	-4,763	244,482	120,891
89,597	-4,674	244,261	120,846
90,611	-4,686	244,197	120,793
91,626	-4,468	244,110	120,921
92,641	-4,503	243,854	120,755
93,655	-4,417	243,584	120,681
94,670	-4,806	243,415	120,262
95,684	-4,741	243,318	120,259
96,699	-4,715	243,002	120,113
97,714	-4,899	242,949	119,923
98,728	-4,852	242,657	119,808
99,743	-4,921	242,428	119,627
100,757	-4,918	242,377	119,593
101,772	-4,875	242,008	119,436
102,787	-4,778	241,840	119,423
103,801	-4,788	241,793	119,381
104,816	-4,520	241,646	119,519
105,830	-4,671	241,581	119,351
106,845	-4,496	241,395	119,394
107,860	-4,631	241,063	119,107
108,874	-4,531	240,864	119,081
109,889	-4,485	240,573	118,964
110,903	-4,593	240,461	118,809
111,918	-4,836	240,453	118,595
112,933	-4,724	240,285	118,593
113,947	-4,419	239,968	118,676
114,962	-4,652	239,881	118,432
115,976	-4,567	239,640	118,372
116,991	-4,517	239,494	118,330
118,006	-4,446	239,370	118,317
119,020	-4,386	239,286	118,314
120,035	-4,390	239,058	118,187
121,049	-4,272	238,841	118,165
122,064	-4,540	238,756	117,894
123,079	-4,533	238,563	117,794
124,093	-4,690	238,326	117,539
125,108	-4,684	238,113	117,428
126,122	-4,878	237,863	117,137
127,137	-5,107	237,815	116,917
128,151	-5,010	237,620	116,889
129,166	-4,702	237,469	117,054
130,181	-4,804	237,236	116,846
131,195	-4,927	236,987	116,614
132,210	-4,958	236,972	116,570
133,224	-4,645	236,886	116,771
134,239	-4,578	236,659	116,703
135,254	-4,545	236,515	116,648
136,268	-4,703	236,303	116,406
137,283	-4,768	235,968	116,178
138,297	-4,944	235,658	115,874
139,312	-5,108	235,699	115,751
140,327	-4,435	235,453	116,161
141,341	-4,231	235,574	116,374
142,356	-4,215	235,259	116,221
143,370	-4,229	235,061	116,101
144,385	-4,476	235,077	115,901
145,400	-4,099	234,824	116,068
146,414	-4,163	234,579	115,885
147,429	-4,508	234,495	115,558
148,443	-4,290	234,260	115,605
149,458	-4,284	234,221	115,581
150,473	-4,132	233,944	115,555
151,487	-4,229	233,786	115,390
152,502	-4,289	233,608	115,243
153,516	-4,168	233,607	115,329
154,531	-4,147	233,316	115,192
155,546	-4,193	233,102	115,039
156,560	-4,367	232,872	114,777
157,575	-4,476	232,782	114,636
158,589	-4,488	232,665	114,559
159,604	-4,079	232,478	114,781
160,619	-4,189	232,272	114,582
161,633	-4,126	232,032	114,503
162,648	-4,279	232,010	114,361
163,662	-4,165	231,929	114,401
164,677	-4,169	231,653	114,251
165,692	-4,149	231,568	114,215
166,706	-3,946	231,475	114,319
167,721	-4,099	231,348	114,126
168,735	-3,893	231,130	114,169
169,750	-3,920	230,978	114,064
170,764	-4,272	231,000	113,788
171,779	-4,254	230,714	113,651
172,794	-4,213	230,624	113,628
173,808	-4,337	230,278	113,350
174,823	-4,700	229,880	112,861
175,837	-4,963	229,793	112,602
176,852	-4,584	229,888	112,935
177,867	-4,282	229,696	113,067
178,881	-4,191	229,655	113,107
179,896	-4,030	229,355	113,075
180,910	-4,117	229,294	112,967
181,925	-4,147	229,136	112,856
182,940	-4,307	228,952	112,631
183,954	-4,217	228,810	112,620
184,969	-4,017	228,680	112,702
185,983	-4,317	228,596	112,418
186,998	-4,057	228,360	112,493
188,013	-3,831	228,284	112,621
189,027	-4,050	228,113	112,357
190,042	-4,057	227,964	112,268
191,056	-3,899	227,671	112,236
192,071	-3,832	227,582	112,234
193,086	-3,971	227,382	112,018
194,100	-4,125	227,470	111,932
195,115	-4,318	227,005	111,545
196,129	-4,697	226,728	111,107
197,144	-2,297	227,402	113,279
198,159	0,932	228,532	116,330
199,173	3,567	229,145	118,672
200,188	4,158	229,181	119,137
201,202	4,198	228,957	119,041
202,217	4,326	228,865	119,081
203,232	4,448	228,737	119,098
204,246	4,632	228,612	119,164
205,261	4,569	228,373	118,981
206,275	4,841	228,304	119,144
207,290	4,794	228,225	119,056
208,304	4,613	228,123	118,853
209,319	4,708	227,803	118,749
210,334	4,604	227,746	118,628
211,348	4,207	227,630	118,253
212,363	4,064	227,245	117,933
213,377	3,859	226,918	117,596
214,392	3,761	226,919	117,511
215,407	3,794	226,783	117,455
216,421	4,021	226,549	117,496
217,436	3,911	226,440	117,346
218,450	3,634	226,123	116,960
219,465	3,658	225,989	116,899
220,480	3,643	225,869	116,814
221,494	3,647	225,789	116,766
222,509	3,784	225,773	116,851
223,523	3,785	225,460	116,680
224,538	3,672	225,401	116,552
225,553	3,947	225,259	116,677
226,567	3,906	225,215	116,613
227,582	4,156	225,098	116,732
228,596	4,387	224,877	116,782
229,611	3,871	224,695	116,286
230,626	3,755	224,408	116,040
231,640	3,821	224,359	116,054
232,655	4,242	224,274	116,317
233,669	4,475	224,253	116,472
234,684	4,151	224,209	116,194
235,699	4,332	223,824	116,121
236,713	3,870	223,854	115,778
237,728	3,707	223,552	115,489
238,742	3,775	223,290	115,394
239,757	3,821	223,075	115,307
240,772	3,685	223,133	115,225
241,786	3,750	222,918	115,152
242,801	4,174	222,834	115,417
243,815	4,185	222,818	115,406
244,830	4,206	222,629	115,314
245,844	3,877	222,380	114,928
246,859	3,917	222,166	114,838
247,874	4,277	222,138	115,081
248,888	4,245	221,937	114,943
249,903	4,208	221,741	114,804
250,917	3,762	221,710	114,446
251,932	3,942	221,391	114,405
252,947	3,737	221,256	114,173
253,961	3,724	221,132	114,088
254,976	3,699	221,078	114,032
255,990	3,943	221,076	114,202
257,005	4,083	220,811	114,158
258,020	4,108	220,553	114,033
259,034	4,344	220,513	114,177
260,049	4,077	220,307	113,863
261,063	4,037	220,199	113,767
262,078	4,222	220,061	113,823
263,093	4,009	220,097	113,674
264,107	4,239	219,821	113,690
265,122	4,028	219,665	113,444
266,136	4,430	219,570	113,681
267,151	4,433	219,430	113,600
268,166	4,024	219,127	113,133
269,180	3,868	218,924	112,904
270,195	3,675	218,854	112,716
271,209	3,888	218,602	112,732
272,224	3,826	218,491	112,620
273,239	4,098	218,380	112,752
274,253	3,742	218,214	112,396
275,268	3,584	218,162	112,243
276,282	3,405	217,970	112,003
277,297	3,355	217,889	111,915
278,312	3,591	217,709	111,985
279,326	3,975	217,564	112,181
280,341	3,871	217,482	112,052
281,355	3,823	217,321	111,925
282,370	3,927	217,043	111,847
283,384	3,544	217,004	111,539
284,399	3,639	216,809	111,497
285,414	3,659	216,687	111,439
286,428	3,812	216,654	111,523
287,443	4,058	216,459	111,592
288,457	4,042	216,357	111,517
289,472	3,872	216,252	111,330
290,487	3,659	215,940	111,005
291,501	3,492	215,752	110,778
292,516	3,395	215,699	110,671
293,530	3,417	215,510	110,580
294,545	3,418	215,412	110,520
295,560	3,457	215,317	110,490
296,574	3,711	215,300	110,654
297,589	3,668	215,098	110,509
298,603	3,858	214,958	110,565
299,618	3,778	214,808	110,420
300,633	3,944	214,739	110,494
301,647	4,163	214,709	110,626
302,662	3,993	214,623	110,450
303,676	4,185	214,246	110,384
304,691	4,088	214,238	110,300
305,706	4,047	214,126	110,203
306,720	4,051	214,086	110,176
307,735	3,874	213,767	109,875
308,749	3,648	213,584	109,610
309,764	3,833	213,472	109,675
310,779	4,348	213,338	109,964
311,793	3,954	213,182	109,593
312,808	3,903	213,130	109,519
313,822	4,007	212,921	109,476
314,837	3,896	212,807	109,329
315,852	3,768	212,660	109,153
316,866	3,820	212,533	109,115
317,881	4,199	212,410	109,311
318,895	4,236	212,218	109,229
319,910	4,058	212,152	109,058
320,925	3,880	211,794	108,739
321,939	3,449	211,586	108,319
322,954	3,385	211,714	108,329
323,968	3,912	211,639	108,654
324,983	4,030	211,490	108,651
325,997	4,230	211,254	108,660
327,012	3,906	211,206	108,398
328,027	3,870	211,159	108,339
329,041	4,524	210,978	108,697
330,056	4,351	210,829	108,488
331,070	3,813	210,692	108,029
332,085	3,567	210,406	107,701
333,100	3,839	210,222	107,788
334,114	3,876	210,171	107,778
335,129	3,917	210,029	107,724
336,143	3,802	209,897	107,566
337,158	3,969	209,706	107,575
338,173	3,844	209,643	107,447
339,187	3,508	209,383	107,069
340,202	3,520	209,254	107,002
341,216	3,599	209,133	106,985
342,231	3,573	209,210	106,998
343,246	3,468	209,001	106,808
344,260	3,722	208,879	106,913
345,275	3,749	208,826	106,895
346,289	4,072	208,605	106,997
347,304	4,074	208,586	106,979
348,319	3,918	208,362	106,746
349,333	3,882	208,282	106,670
350,348	3,970	208,068	106,612
351,362	4,064	208,009	106,638
352,377	4,031	207,874	106,536
353,392	3,822	207,601	106,242
354,406	3,831	207,568	106,222
355,421	193,921	1347,663	1435,978
356,435	154,692	1486,670	1436,096
