DTS Sentinel unit serial number:	SN410029Multiplexer serial number:	ORYXHardware model number:	OX2-SRSoftware version number:	ORYX F/W v4,00 Oryx Data Collector v3.7.2.0data status	okinstallation	B6 Nyhavnadifferential loss correction	single-endedforward channel	channel 2reverse channel	N/Adate	2023/12/11time	05:10:08forward acquisition time	300,00reverse acquisition time	0,00gamma	499,1914k internal	0,3126k external	0,3126temperature offset calibration	1,0000default loss term (dB/km)	0,3820temperature slope calibration	1,0000multiplexer offset coefficient	1,0000multiplexer slope coefficient	1,0000fibre end	0,00T internal ref (°C)	20,12T ext. ref 1 (°C)	3,14T ext. ref 2 (°C)	3,16length (m)	temperature (°C)	Stokes	anti-Stokes-744,400	-185,011	0,034	0,000
-743,385	-101,515	-0,228	0,041
-742,371	23,545	0,065	0,040
-741,356	44,620	-0,217	0,148
-740,342	-40,552	0,082	-0,031
-739,327	-73,020	-0,245	0,067
-738,312	496,085	0,053	-0,091
-737,298	-101,880	-0,276	0,049
-736,283	42,303	0,046	0,031
-735,269	17,017	-0,145	0,085
-734,254	302,855	0,053	0,074
-733,239	-126,732	-0,440	-0,048
-732,225	-115,596	0,222	0,031
-731,210	72,845	-0,118	0,091
-730,196	109,796	-0,130	-0,116
-729,181	-200,000	-0,003	0,067
-728,167	-200,000	0,003	0,110
-727,152	157,209	0,045	0,046
-726,137	-200,000	0,007	-0,107
-725,123	-200,000	0,001	0,046
-724,108	-19,339	-0,095	-0,044
-723,094	10,374	0,051	-0,029
-722,079	-24,470	-0,145	0,064
-721,064	-84,564	-0,017	0,004
-720,050	40,578	-0,166	0,111
-719,035	-200,000	0,005	-0,027
-718,021	79,172	-0,048	-0,039
-717,006	112,868	0,094	-0,084
-715,991	65,279	-0,103	-0,077
-714,977	191,398	0,056	0,062
-713,962	-51,047	0,059	0,021
-712,948	514,345	0,056	-0,097
-711,933	800,000	0,026	0,072
-710,918	800,000	-0,016	0,046
-709,904	248,132	-0,029	-0,036
-708,889	-200,000	-0,028	-0,149
-707,875	-128,994	-0,076	0,008
-706,860	-130,417	0,168	-0,017
-705,845	78,103	0,039	0,031
-704,831	-200,000	0,010	0,037
-703,816	-57,603	-0,025	-0,008
-702,802	-153,893	-0,087	-0,004
-701,787	-200,000	0,038	-0,145
-700,772	241,582	0,049	-0,061
-699,758	725,036	0,047	0,093
-698,743	800,000	0,052	-0,136
-697,729	205,983	0,151	-0,175
-696,714	351,066	-0,059	-0,087
-695,699	-146,375	-0,047	0,003
-694,685	-125,267	0,112	-0,013
-693,670	-113,014	-0,088	-0,013
-692,656	687,083	0,079	0,153
-691,641	-200,000	-0,017	-0,069
-690,627	291,920	-0,018	-0,024
-689,612	-200,000	-0,014	-0,151
-688,597	-81,455	-0,017	0,004
-687,583	339,520	-0,035	-0,050
-686,568	-42,432	-0,090	-0,034
-685,554	32,370	-0,099	-0,063
-684,539	800,000	-0,021	0,059
-683,524	-200,000	0,007	0,110
-682,510	-200,000	0,040	0,150
-681,495	580,277	-0,041	-0,076
-680,481	558,641	0,087	-0,157
-679,466	771,079	0,073	-0,149
-678,451	800,000	0,079	-0,164
-677,437	332,434	-0,065	-0,093
-676,422	132,599	-0,089	-0,086
-675,408	284,071	0,056	0,075
-674,393	-120,307	0,113	-0,014
-673,378	-49,669	-0,161	-0,057
-672,364	800,000	0,061	-0,188
-671,349	17,961	0,068	-0,040
-670,335	-15,984	0,035	-0,017
-669,320	800,000	0,012	-0,027
-668,305	800,000	0,063	-0,158
-667,291	33,451	-0,075	0,049
-666,276	800,000	0,023	0,052
-665,262	-161,446	-0,151	0,006
-664,247	31,898	-0,131	-0,083
-663,232	43,690	-0,102	-0,069
-662,218	-175,489	0,085	0,002
-661,203	-76,222	0,119	0,031
-660,189	-200,000	0,001	0,093
-659,174	258,386	-0,041	0,053
-658,159	-5,867	-0,097	0,049
-657,145	-124,605	-0,098	-0,011
-656,130	-200,000	0,022	0,110
-655,116	-200,000	-0,013	-0,083
-654,101	-90,859	0,096	0,020
-653,086	117,655	-0,089	-0,081
-652,072	-12,366	0,036	-0,017
-651,057	93,736	-0,116	0,097
-650,043	410,216	-0,089	-0,141
-649,028	214,642	-0,064	0,075
-648,014	-39,049	0,062	-0,024
-646,999	-132,838	-0,026	-0,002
-645,984	143,662	0,133	-0,132
-644,970	-151,462	-0,098	-0,005
-643,955	-200,000	-0,009	-0,153
-642,941	-39,441	0,095	-0,037
-641,926	102,248	-0,068	-0,059
-640,911	73,888	-0,065	-0,051
-639,897	179,964	0,103	0,113
-638,882	102,796	0,025	-0,022
-637,868	78,175	-0,157	0,124
-636,853	390,181	0,045	-0,070
-635,838	-200,000	-0,040	-0,146
-634,824	37,802	-0,049	0,032
-633,809	-200,000	0,022	-0,130
-632,795	-200,000	0,023	-0,079
-631,780	800,000	0,022	0,057
-630,765	106,553	-0,056	-0,049
-629,751	505,339	-0,039	-0,066
-628,736	-200,000	0,021	0,142
-627,722	478,555	0,033	0,055
-626,707	-200,000	0,007	-0,147
-625,692	35,732	0,114	-0,074
-624,678	33,086	-0,063	0,040
-623,663	229,107	-0,092	-0,111
-622,649	-200,000	-0,038	-0,202
-621,634	-200,000	0,006	-0,021
-620,619	-200,000	0,017	0,099
-619,605	-200,000	0,008	-0,072
-618,590	-111,496	-0,149	-0,022
-617,576	800,000	0,069	0,157
-616,561	19,333	-0,141	-0,084
-615,546	-13,409	-0,061	-0,029
-614,532	-200,000	-0,003	-0,047
-613,517	-26,779	-0,098	0,042
-612,503	800,000	-0,024	-0,075
-611,488	-143,564	0,065	0,004
-610,474	394,740	0,039	-0,061
-609,459	-200,000	0,010	0,047
-608,444	-84,308	-0,185	0,043
-607,430	-60,918	-0,061	0,019
-606,415	-59,429	0,120	0,038
-605,401	-136,668	-0,204	0,017
-604,386	595,055	0,016	0,030
-603,371	45,133	0,093	-0,063
-602,357	260,450	0,037	-0,047
-601,342	-200,000	0,004	0,075
-600,328	-20,422	-0,045	-0,021
-599,313	614,219	0,037	0,068
-598,298	-200,000	-0,045	-0,202
-597,284	-41,115	0,045	0,017
-596,269	800,000	0,025	0,058
-595,255	800,000	0,021	0,055
-594,240	800,000	0,012	0,035
-593,225	-13,090	-0,014	-0,007
-592,211	-45,144	-0,106	0,039
-591,196	-200,000	0,009	0,031
-590,182	-200,000	0,017	0,059
-589,167	65,941	-0,062	-0,047
-588,152	240,579	0,041	0,051
-587,138	-32,829	-0,110	0,045
-586,123	-99,991	-0,122	-0,022
-585,109	201,764	-0,128	-0,146
-584,094	336,729	-0,041	-0,059
-583,079	800,000	-0,065	0,174
-582,065	170,206	-0,067	0,071
-581,050	-41,022	-0,051	-0,019
-580,036	787,324	-0,061	-0,125
-579,021	800,000	-0,050	-0,113
-578,006	539,778	-0,073	-0,130
-576,992	527,488	0,046	0,081
-575,977	-66,077	0,055	0,016
-574,963	-162,936	0,131	0,005
-573,948	-6,838	-0,070	0,035
-572,934	624,030	-0,044	-0,082
-571,919	-200,000	0,028	-0,147
-570,904	12,398	-0,079	0,045
-569,890	-53,318	-0,099	-0,033
-568,875	800,000	0,021	-0,053
-567,861	-68,796	-0,083	0,023
-566,846	145,621	-0,092	0,092
-565,831	-82,050	0,036	-0,009
-564,817	-116,765	-0,037	0,005
-563,802	-54,882	-0,054	-0,018
-562,788	-59,959	-0,143	-0,045
-561,773	-109,713	-0,124	-0,019
-560,758	-105,831	0,034	-0,006
-559,744	323,035	-0,078	0,110
-558,729	629,962	-0,039	0,074
-557,715	800,000	0,023	0,071
-556,700	800,000	-0,024	0,052
-555,685	-200,000	0,033	-0,132
-554,671	-200,000	-0,009	0,091
-553,656	-200,000	-0,024	0,110
-552,642	554,174	0,085	0,151
-551,627	-143,993	0,072	-0,005
-550,612	208,017	-0,087	-0,100
-549,598	-200,000	0,016	-0,146
-548,583	-200,000	-0,031	-0,153
-547,569	-15,560	0,072	0,034
-546,554	-72,403	-0,153	0,042
-545,539	-14,802	0,052	-0,025
-544,525	21,739	-0,075	0,045
-543,510	301,713	-0,051	0,070
-542,496	152,797	-0,076	-0,077
-541,481	-18,288	-0,137	-0,063
-540,466	-170,703	0,055	0,001
-539,452	-200,000	0,031	-0,102
-538,437	149,512	0,136	0,136
-537,423	-153,750	-0,049	0,002
-536,408	-200,000	-0,012	0,075
-535,393	120,319	-0,076	0,069
-534,379	-69,831	0,079	-0,022
-533,364	169,212	-0,095	-0,101
-532,350	80,855	-0,027	-0,021
-531,335	-200,000	-0,000	0,035
-530,321	-74,215	0,132	-0,035
-529,306	25,336	-0,138	-0,084
-528,291	-127,235	-0,083	0,009
-527,277	260,548	-0,065	0,083
-526,262	-85,945	-0,037	0,008
-525,248	-200,000	-0,009	-0,044
-524,233	-200,000	-0,013	0,113
-523,218	-72,798	0,072	0,020
-522,204	-200,000	0,007	0,056
-521,189	71,349	-0,083	0,064
-520,175	112,882	-0,054	0,048
-519,160	445,973	-0,040	-0,066
-518,145	800,000	-0,027	-0,060
-517,131	-30,878	0,056	0,023
-516,116	-41,119	0,085	0,032
-515,102	201,142	0,035	-0,039
-514,087	30,966	-0,078	0,049
-513,072	-101,122	-0,123	0,022
-512,058	96,173	-0,097	0,082
-511,043	111,076	0,064	0,057
-510,029	283,859	0,084	0,112
-509,014	-76,145	0,035	0,009
-507,999	-95,538	-0,174	0,034
-506,985	-200,000	-0,009	-0,046
-505,970	248,810	0,089	0,111
-504,956	-200,000	-0,003	-0,105
-503,941	657,925	0,044	-0,084
-502,926	800,000	-0,017	0,043
-501,912	-200,000	-0,007	0,069
-500,897	-200,000	0,011	0,091
-499,883	376,364	0,019	-0,029
-498,868	-12,042	0,064	0,031
-497,853	-200,000	0,027	0,127
-496,839	212,597	0,020	0,023
-495,824	-200,000	0,012	-0,075
-494,810	-53,065	0,181	0,061
-493,795	-13,318	-0,073	-0,035
-492,781	63,048	0,067	0,049
-491,766	800,000	-0,034	-0,103
-490,751	316,616	-0,062	-0,087
-489,737	51,093	-0,061	-0,042
-488,722	-92,370	0,093	0,019
-487,708	-149,626	-0,163	-0,009
-486,693	448,923	-0,043	0,071
-485,678	-59,028	-0,065	-0,021
-484,664	800,000	0,014	-0,035
-483,649	-1,395	-0,018	0,009
-482,635	-43,706	0,052	-0,019
-481,620	-200,000	0,016	0,067
-480,605	-110,534	-0,040	0,006
-479,591	93,439	0,087	0,072
-478,576	-82,292	-0,111	0,026
-477,562	465,526	-0,005	-0,009
-476,547	49,698	0,140	0,097
-475,532	-200,000	0,014	-0,058
-474,518	-200,000	0,075	0,271
-473,503	-18,456	0,194	0,089
-472,489	-78,085	-0,075	-0,019
-471,474	-124,404	-0,049	-0,006
-470,459	-200,000	0,020	0,072
-469,445	-200,000	0,043	-0,152
-468,430	800,000	-0,053	-0,116
-467,416	273,815	0,027	0,035
-466,401	-200,000	-0,002	-0,010
-465,386	-200,000	-0,016	-0,085
-464,372	800,000	0,013	-0,032
-463,357	-168,894	-0,078	0,002
-462,343	-174,237	0,070	0,001
-461,328	382,107	-0,092	-0,140
-460,313	52,082	-0,080	0,056
-459,299	-200,000	-0,003	-0,087
-458,284	2,227	0,163	0,087
-457,270	151,228	0,021	0,021
-456,255	73,325	0,094	0,072
-455,241	51,134	-0,067	-0,047
-454,226	-97,965	-0,081	0,015
-453,211	-200,000	-0,003	0,105
-452,197	88,758	0,044	0,036
-451,182	-189,096	0,109	0,001
-450,168	502,528	-0,035	-0,061
-449,153	-125,615	-0,122	-0,013
-448,138	-9,755	0,106	-0,052
-447,124	-200,000	0,013	-0,049
-446,109	-157,919	0,128	0,005
-445,095	67,070	0,144	0,108
-444,080	-29,129	0,102	0,043
-443,065	574,028	-0,003	0,006
-442,051	-200,000	0,017	0,061
-441,036	-139,507	-0,118	0,009
-440,022	171,801	0,061	-0,065
-439,007	237,940	0,125	-0,153
-437,992	116,137	-0,133	-0,120
-436,978	198,877	-0,098	-0,110
-435,963	67,213	0,077	-0,057
-434,949	-200,000	0,023	0,114
-433,934	14,706	-0,137	0,079
-432,919	-200,000	-0,004	-0,042
-431,905	-85,779	0,050	-0,011
-430,890	260,364	-0,038	0,049
-429,876	550,204	-0,020	-0,035
-428,861	39,474	-0,081	-0,053
-427,846	64,128	0,109	-0,081
-426,832	-77,419	0,026	0,007
-425,817	-200,000	-0,005	0,046
-424,803	141,879	0,033	0,032
-423,788	800,000	-0,054	0,151
-422,773	-44,344	-0,118	-0,043
-421,759	406,459	0,062	-0,096
-420,744	523,082	0,017	0,030
-419,730	-35,440	-0,049	-0,019
-418,715	800,000	0,010	0,028
-417,701	-124,522	-0,079	0,009
-416,686	-200,000	0,036	0,130
-415,671	81,368	0,038	-0,030
-414,657	554,004	-0,008	-0,015
-413,642	73,096	0,062	0,047
-412,628	66,889	-0,102	0,076
-411,613	221,991	-0,072	-0,085
-410,598	-200,000	0,010	-0,098
-409,584	3,383	0,054	0,029
-408,569	-200,000	0,004	-0,034
-407,555	405,437	0,049	0,077
-406,540	-27,142	-0,077	-0,033
-405,525	800,000	-0,071	-0,171
-404,511	-200,000	0,023	-0,172
-403,496	20,452	0,038	-0,023
-402,482	778,446	0,038	0,077
-401,467	-200,000	0,027	-0,116
-400,452	-154,759	0,037	0,002
-399,438	513,620	0,042	-0,072
-398,423	-91,462	0,027	0,006
-397,409	563,484	0,078	-0,140
-396,394	667,955	0,043	-0,083
-395,379	726,429	0,017	0,034
-394,365	90,027	0,025	-0,021
-393,350	149,129	0,053	0,053
-392,336	-73,045	0,101	0,027
-391,321	-200,000	0,021	0,147
-390,306	-200,000	-0,006	0,093
-389,292	168,809	-0,053	-0,056
-388,277	5,888	-0,089	-0,048
-387,263	133,396	-0,017	0,016
-386,248	-42,384	0,044	0,016
-385,233	-200,000	-0,038	0,154
-384,219	800,000	0,028	-0,069
-383,204	-117,972	0,021	-0,003
-382,190	-200,000	0,002	-0,094
-381,175	-200,000	0,008	-0,043
-380,160	253,325	-0,017	-0,021
-379,146	261,745	0,064	-0,082
-378,131	235,898	-0,058	0,070
-377,117	-200,000	0,000	0,116
-376,102	239,498	-0,045	-0,055
-375,088	44,961	-0,108	0,073
-374,073	156,326	0,066	-0,067
-373,058	-81,310	0,209	0,050
-372,044	-74,086	-0,082	0,022
-371,029	5,210	-0,065	-0,035
-370,015	-113,683	0,029	-0,004
-369,000	-0,024	0,085	0,044
-367,985	340,139	0,072	-0,103
-366,971	74,086	0,056	-0,043
-365,956	-138,221	0,103	0,008
-364,942	800,000	-0,058	0,129
-363,927	134,166	-0,047	0,045
-362,912	-67,605	0,123	-0,035
-361,898	-200,000	-0,014	0,050
-360,883	460,923	-0,110	0,181
-359,869	-99,483	0,130	0,024
-358,854	457,842	0,030	-0,049
-357,839	-148,644	0,045	-0,003
-356,825	800,000	0,031	0,075
-355,810	99,581	0,082	0,069
-354,796	-200,000	0,024	-0,090
-353,781	74,681	-0,106	-0,082
-352,766	-200,000	-0,009	0,108
-351,752	-200,000	-0,000	-0,003
-350,737	-200,000	-0,036	-0,129
-349,723	-200,000	0,000	-0,063
-348,708	-80,731	-0,040	0,010
-347,693	14,905	-0,089	-0,051
-346,679	800,000	0,052	-0,168
-345,664	-200,000	0,010	-0,079
-344,650	98,808	-0,016	0,014
-343,635	800,000	-0,030	0,064
-342,620	167,930	0,104	0,109
-341,606	84,556	0,072	0,057
-340,591	800,000	0,011	-0,032
-339,577	473,782	-0,031	-0,051
-338,562	85,836	0,090	-0,072
-337,548	172,409	0,124	0,130
-336,533	-110,358	0,118	-0,018
-335,518	800,000	-0,028	-0,070
-334,504	151,414	0,052	0,052
-333,489	-200,000	0,020	0,098
-332,475	191,184	0,027	0,030
-331,460	182,697	-0,033	-0,036
-330,445	-200,000	0,027	-0,158
-329,431	87,680	0,093	0,075
-328,416	457,616	0,062	-0,101
-327,402	-123,963	-0,091	-0,010
-326,387	-2,856	0,113	-0,058
-325,372	-200,000	-0,024	-0,096
-324,358	800,000	0,027	-0,066
-323,343	158,440	-0,028	-0,028
-322,329	-200,000	-0,000	-0,010
-321,314	-65,066	-0,068	0,020
-320,299	141,069	-0,098	0,095
-319,285	-144,923	-0,037	0,002
-318,270	-158,703	0,045	-0,002
-317,256	139,217	0,076	-0,074
-316,241	207,778	-0,031	0,036
-315,226	-109,936	-0,103	-0,016
-314,212	579,458	0,107	0,193
-313,197	571,358	0,068	-0,121
-312,183	-200,000	-0,008	0,098
-311,168	-200,000	0,031	-0,131
-310,153	280,923	0,089	-0,117
-309,139	-200,000	0,005	-0,206
-308,124	292,899	-0,088	0,117
-307,110	190,071	0,122	0,134
-306,095	312,574	-0,053	0,073
-305,080	-200,000	-0,005	0,027
-304,066	90,503	-0,077	-0,063
-303,051	16,711	0,109	-0,063
-302,037	35,726	0,109	-0,070
-301,022	89,857	-0,016	0,013
-300,008	133,387	-0,083	-0,079
-298,993	800,000	0,027	0,062
-297,978	-39,434	-0,036	0,014
-296,964	554,824	-0,070	-0,123
-295,949	77,004	-0,055	-0,043
-294,935	-66,399	0,013	-0,004
-293,920	16,368	0,053	0,031
-292,905	452,907	0,058	-0,094
-291,891	55,013	0,053	0,037
-290,876	175,451	0,057	0,061
-289,862	696,971	-0,058	-0,112
-288,847	800,000	0,004	0,011
-287,832	-200,000	-0,001	-0,017
-286,818	100,208	-0,009	0,008
-285,803	800,000	-0,014	0,035
-284,789	-133,872	0,076	-0,007
-283,774	156,244	-0,054	0,055
-282,759	133,639	-0,142	0,135
-281,745	570,120	-0,042	0,075
-280,730	-200,000	-0,060	-0,228
-279,716	800,000	-0,053	0,115
-278,701	-200,000	0,000	-0,100
-277,686	72,566	0,136	0,104
-276,672	226,772	0,064	0,076
-275,657	800,000	-0,010	0,031
-274,643	-200,000	0,014	-0,049
-273,628	-18,749	-0,031	0,014
-272,613	50,941	-0,119	-0,082
-271,599	127,049	0,020	0,019
-270,584	800,000	0,028	-0,075
-269,570	158,728	0,048	-0,048
-268,555	800,000	0,021	-0,051
-267,540	-36,576	-0,048	-0,019
-266,526	-200,000	-0,001	0,028
-265,511	-200,000	-0,023	-0,097
-264,497	-24,843	-0,069	0,030
-263,482	-200,000	-0,001	-0,011
-262,467	-122,370	0,164	-0,019
-261,453	712,471	-0,038	0,075
-260,438	317,806	0,043	-0,060
-259,424	531,820	-0,038	-0,065
-258,409	100,179	0,042	0,036
-257,395	294,127	0,019	0,026
-256,380	177,607	0,110	-0,118
-255,365	800,000	-0,034	-0,089
-254,351	-108,454	0,066	0,010
-253,336	-52,657	-0,059	0,020
-252,322	704,671	0,026	-0,051
-251,307	800,000	0,061	-0,167
-250,292	395,054	0,085	0,130
-249,278	765,355	-0,071	0,142
-248,263	-45,015	-0,070	-0,025
-247,249	20,395	0,081	-0,048
-246,234	218,736	-0,022	-0,026
-245,219	112,774	0,025	-0,022
-244,205	-200,000	0,026	-0,140
-243,190	98,717	-0,106	-0,090
-242,176	800,000	0,057	0,170
-241,161	119,239	-0,008	-0,007
-240,146	217,197	0,046	0,054
-239,132	800,000	0,020	-0,061
-238,117	-89,825	-0,055	0,012
-237,103	-82,925	0,031	-0,007
-236,088	-48,478	-0,044	0,016
-235,073	-200,000	0,012	0,045
-234,059	214,428	0,067	0,077
-233,044	800,000	0,027	0,077
-232,030	-200,000	0,022	0,073
-231,015	-200,000	-0,012	0,067
-230,000	-160,442	0,128	-0,005
-228,986	-87,031	0,056	0,012
-227,971	-145,085	-0,082	0,005
-226,957	8,058	0,132	0,072
-225,942	17,566	0,039	0,022
-224,927	-48,522	-0,090	-0,031
-223,913	101,154	0,022	-0,019
-222,898	93,695	-0,053	0,044
-221,884	-200,000	-0,003	-0,024
-220,869	-132,694	-0,051	-0,005
-219,855	-75,829	-0,075	-0,019
-218,840	-88,637	0,073	0,016
-217,825	-12,317	0,122	-0,058
-216,811	-37,043	-0,191	-0,074
-215,796	800,000	0,022	-0,057
-214,782	334,953	0,062	-0,088
-213,767	-98,698	-0,060	-0,011
-212,752	-200,000	0,008	0,119
-211,738	800,000	0,022	0,068
-210,723	453,770	0,091	-0,147
-209,709	-200,000	-0,012	0,064
-208,694	-200,000	0,012	0,087
-207,679	240,743	0,094	-0,115
-206,665	800,000	-0,049	0,155
-205,650	-154,178	-0,053	0,003
-204,636	-120,181	0,084	-0,010
-203,621	800,000	0,072	0,165
-202,606	-200,000	-0,026	0,090
-201,592	-200,000	0,012	0,057
-200,577	70,220	0,080	-0,060
-199,563	130,744	-0,084	0,079
-198,548	-7,605	0,022	-0,011
-197,533	-200,000	0,005	0,195
-196,519	800,000	-0,029	0,094
-195,504	756,266	-0,061	0,120
-194,490	-25,449	0,073	-0,031
-193,475	-109,924	0,028	0,004
-192,460	-200,000	0,000	0,069
-191,446	-200,000	-0,002	0,043
-190,431	800,000	-0,024	0,070
-189,417	26,239	0,100	-0,061
-188,402	740,562	-0,009	0,017
-187,387	-62,284	-0,104	-0,031
-186,373	800,000	-0,063	-0,133
-185,358	56,808	0,071	0,050
-184,344	563,427	-0,029	0,051
-183,329	54,596	0,139	0,097
-182,315	-117,421	-0,108	0,014
-181,300	-200,000	-0,023	0,090
-180,285	138,033	-0,048	0,046
-179,271	-67,690	0,156	0,044
-178,256	-124,526	0,053	0,006
-177,242	61,014	-0,107	-0,078
-176,227	-112,226	-0,080	-0,012
-175,212	2,097	-0,056	0,029
-174,198	270,641	-0,085	0,109
-173,183	800,000	0,043	0,089
-172,169	-200,000	-0,018	0,074
-171,154	800,000	-0,040	-0,098
-170,139	164,791	0,107	-0,110
-169,125	122,287	0,072	0,066
-168,110	45,239	0,065	-0,043
-167,096	193,851	-0,068	0,075
-166,081	36,277	0,041	-0,026
-165,066	404,250	-0,071	0,109
-164,052	-54,595	0,101	0,033
-163,037	-99,530	-0,050	-0,009
-162,023	-200,000	-0,005	0,024
-161,008	-48,738	0,101	0,035
-159,993	-21,208	0,070	0,031
-158,979	-200,000	-0,001	-0,047
-157,964	204,902	0,060	-0,068
-156,950	31,956	0,050	-0,031
-155,935	-149,299	-0,084	0,005
-154,920	800,000	0,027	-0,062
-153,906	-200,000	-0,017	0,059
-152,891	-200,000	0,009	0,121
-151,877	-200,000	0,002	0,011
-150,862	-7,138	-0,112	0,055
-149,847	-200,000	-0,003	-0,029
-148,833	38,701	-0,085	-0,055
-147,818	-200,000	-0,011	0,127
-146,804	-30,067	-0,170	0,070
-145,789	-109,996	0,054	-0,008
-144,775	505,794	-0,084	-0,142
-143,760	-200,000	-0,013	-0,080
-142,745	181,160	-0,021	0,022
-141,731	-31,947	0,041	-0,017
-140,716	-127,467	-0,104	0,011
-139,702	-200,000	0,004	0,070
-138,687	-13,680	-0,082	-0,038
-137,672	-80,757	0,047	0,011
-136,658	20,639	0,066	-0,038
-135,643	-200,000	-0,041	-0,138
-134,629	800,000	-0,014	0,040
-133,614	576,842	-0,090	0,160
-132,599	682,343	0,057	0,108
-131,585	-78,861	-0,027	0,007
-130,570	-200,000	-0,012	0,092
-129,556	-200,000	0,001	-0,056
-128,541	318,054	-0,053	-0,073
-127,526	418,554	-0,042	-0,066
-126,512	82,122	0,035	-0,027
-125,497	800,000	-0,010	0,023
-124,483	310,914	0,114	0,156
-123,468	800,000	0,053	0,131
-122,453	5,703	0,156	0,084
-121,439	800,000	0,011	-0,025
-120,424	-52,155	-0,117	-0,039
-119,410	-77,576	-0,073	-0,018
-118,395	-55,052	-0,113	0,037
-117,380	364,652	0,044	0,064
-116,366	-200,000	-0,030	-0,147
-115,351	-60,600	0,099	-0,030
-114,337	92,377	-0,081	-0,066
-113,322	306,647	-0,071	-0,097
-112,307	237,120	0,053	-0,063
-111,293	32,444	-0,026	0,016
-110,278	-200,000	-0,012	-0,056
-109,264	39,688	-0,065	-0,042
-108,249	224,253	-0,040	0,047
-107,234	800,000	-0,037	0,081
-106,220	-200,000	0,014	0,047
-105,205	-111,747	-0,085	0,012
-104,191	-200,000	-0,006	0,024
-103,176	117,238	0,099	0,089
-102,162	-200,000	0,037	0,145
-101,147	-31,064	-0,169	-0,069
-100,132	-136,821	0,209	-0,017
-99,118	149,959	0,118	-0,116
-98,103	-200,000	-0,004	-0,078
-97,089	-200,000	-0,030	-0,111
-96,074	-150,858	0,095	0,005
-95,059	-200,000	-0,024	-0,190
-94,045	-137,812	0,092	-0,007
-93,030	-33,841	0,096	0,038
-92,016	29,105	-0,028	-0,017
-91,001	376,948	-0,020	0,030
-89,986	242,977	-0,051	0,062
-88,972	-81,749	0,093	-0,022
-87,957	340,804	0,047	0,067
-86,943	-29,590	0,074	0,030
-85,928	-200,000	-0,027	-0,154
-84,913	132,477	-0,079	0,074
-83,899	150,449	0,067	-0,067
-82,884	470,642	0,053	-0,087
-81,870	675,173	-0,025	0,048
-80,855	-200,000	-0,008	0,085
-79,840	800,000	0,026	-0,069
-78,826	6,341	0,138	-0,074
-77,811	-148,111	-0,097	-0,006
-76,797	-200,000	0,017	0,072
-75,782	110,956	0,020	0,017
-74,767	-200,000	0,003	0,055
-73,753	-14,556	-0,065	0,030
-72,738	-45,260	-0,042	0,015
-71,724	-53,813	-0,157	0,052
-70,709	-100,029	-0,126	-0,023
-69,694	800,000	-0,054	0,137
-68,680	219,984	-0,040	-0,047
-67,665	367,800	0,067	-0,098
-66,651	297,444	-0,071	-0,095
-65,636	728,676	0,031	0,060
-64,622	21,572	0,147	0,087
-63,607	45,065	-0,031	-0,021
-62,592	-200,000	-0,018	-0,078
-61,578	-200,000	0,011	0,057
-60,563	-89,479	0,142	0,030
-59,549	339,954	-0,079	0,112
-58,534	-73,063	-1,535	-0,405
-57,519	800,000	-0,638	-1,388
-56,505	-200,000	-1,057	-4,580
-55,490	-70,115	0,758	-0,208
-54,476	800,000	5,184	12,047
-53,461	-200,000	15,021	262,774
-52,446	800,000	697,088	2226,282
-51,432	570,944	1620,055	2869,993
-50,417	120,923	1629,466	1469,181
-49,403	81,650	1284,986	1006,968
-48,388	37,990	1024,072	658,700
-47,373	22,710	984,373	582,793
-46,359	21,707	973,529	573,052
-45,344	20,430	969,292	566,350
-44,330	20,455	967,856	565,570
-43,315	20,219	966,466	563,963
-42,300	20,157	965,388	563,111
-41,286	20,159	964,390	562,512
-40,271	20,201	963,297	561,990
-39,257	20,229	962,464	561,571
-38,242	20,151	961,671	560,832
-37,227	20,179	960,873	560,436
-36,213	20,210	959,767	559,870
-35,198	20,141	959,047	559,204
-34,184	20,165	958,428	558,897
-33,169	20,111	957,471	558,142
-32,154	20,215	956,452	557,864
-31,140	20,137	955,691	557,144
-30,125	20,148	954,930	556,714
-29,111	20,099	954,007	555,995
-28,096	20,172	953,423	555,868
-27,082	20,153	952,680	555,353
-26,067	20,118	951,977	554,807
-25,052	20,106	951,106	554,240
-24,038	20,127	950,469	553,913
-23,023	20,158	949,739	553,565
-22,009	20,190	949,160	553,309
-20,994	20,099	948,628	552,684
-19,979	20,201	947,824	552,522
-18,965	20,173	947,317	552,115
-17,950	20,165	946,652	551,680
-16,936	20,111	945,961	551,081
-15,921	20,093	945,371	550,661
-14,906	20,026	944,696	550,032
-13,892	20,043	943,809	549,546
-12,877	19,999	943,279	549,075
-11,863	19,947	942,879	548,656
-10,848	20,039	942,367	548,628
-9,833	20,134	941,792	548,576
-8,819	20,099	941,155	548,071
-7,804	20,040	940,620	547,550
-6,790	20,053	939,814	547,101
-5,775	20,063	939,442	546,893
-4,760	20,062	938,652	546,410
-3,746	20,042	938,194	546,058
-2,731	19,870	937,407	545,032
-1,717	19,756	936,914	544,364
-0,702	19,822	936,124	544,091
0,313	19,649	935,677	544,104
1,327	22,737	933,622	552,608
2,342	32,132	794,990	495,584
3,356	29,396	451,539	277,326
4,371	-1,243	296,597	151,244
5,386	-5,359	277,911	137,760
6,400	-6,845	272,085	133,464
7,415	-7,251	269,704	131,907
8,429	-6,918	268,712	131,718
9,444	-6,859	267,772	131,301
10,459	-6,934	267,152	130,916
11,473	-7,140	266,629	130,459
12,488	-6,968	266,073	130,333
13,502	-7,144	265,425	129,842
14,517	-7,087	265,143	129,746
15,531	-6,841	264,856	129,818
16,546	-6,568	264,376	129,820
17,561	-6,651	264,010	129,553
18,575	-6,774	263,717	129,286
19,590	-6,761	263,436	129,149
20,604	-6,707	263,148	129,045
21,619	-6,757	262,825	128,830
22,634	-6,823	262,534	128,615
23,648	-7,025	262,273	128,294
24,663	-6,687	261,890	128,400
25,677	-6,755	261,774	128,270
26,692	-6,793	261,242	127,964
27,707	-6,750	261,138	127,941
28,721	-6,727	260,718	127,744
29,736	-6,799	260,420	127,522
30,750	-6,698	260,309	127,546
31,765	-6,848	260,125	127,311
32,780	-6,821	259,920	127,223
33,794	-6,979	259,793	127,009
34,809	-6,748	259,354	126,989
35,823	-6,793	259,110	126,818
36,838	-6,887	258,905	126,623
37,853	-6,907	258,741	126,513
38,867	-6,982	258,517	126,326
39,882	-6,945	258,076	126,132
40,896	-6,867	258,049	126,176
41,911	-6,928	257,829	126,004
42,926	-7,015	257,587	125,797
43,940	-6,898	257,472	125,834
44,955	-7,000	257,083	125,542
45,969	-7,116	256,952	125,364
46,984	-7,141	256,567	125,142
47,999	-7,295	256,450	124,939
49,013	-7,401	256,077	124,652
50,028	-7,457	255,783	124,449
51,042	-7,500	255,487	124,257
52,057	-7,626	255,431	124,107
53,071	-7,566	255,135	124,005
54,086	-7,488	255,070	124,030
55,101	-7,361	254,945	124,071
56,115	-7,304	254,779	124,028
57,130	-6,789	254,458	124,312
58,144	-6,658	254,395	124,384
59,159	-6,622	254,228	124,323
60,174	-6,808	254,016	124,046
61,188	-6,789	253,881	123,985
62,203	-6,806	253,751	123,896
63,217	-6,864	253,312	123,620
64,232	-6,900	253,137	123,492
65,247	-6,722	252,923	123,532
66,261	-6,930	252,684	123,223
67,276	-6,816	252,469	123,206
68,290	-7,249	252,242	122,709
69,305	-7,102	251,807	122,614
70,320	-7,168	251,836	122,560
71,334	-7,024	251,663	122,589
72,349	-6,668	251,453	122,784
73,363	-6,749	251,275	122,616
74,378	-6,705	250,987	122,502
75,393	-6,776	250,849	122,363
76,407	-7,006	250,730	122,096
77,422	-6,822	250,407	122,086
78,436	-6,639	250,240	122,151
79,451	-6,982	250,159	121,806
80,466	-7,013	249,808	121,598
81,480	-6,934	249,748	121,625
82,495	-7,112	249,455	121,319
83,509	-7,078	249,411	121,317
84,524	-7,026	248,954	121,128
85,539	-7,093	248,779	120,974
86,553	-7,283	248,689	120,758
87,568	-6,878	248,558	121,028
88,582	-7,129	248,324	120,690
89,597	-7,060	248,061	120,610
90,611	-7,059	247,943	120,543
91,626	-6,892	247,808	120,608
92,641	-6,850	247,516	120,492
93,655	-6,972	247,494	120,366
94,670	-7,038	247,319	120,214
95,684	-6,841	246,962	120,197
96,699	-6,960	246,876	120,044
97,714	-7,223	246,701	119,726
98,728	-7,013	246,364	119,729
99,743	-7,156	246,045	119,442
100,757	-7,112	246,016	119,455
101,772	-7,190	245,881	119,313
102,787	-7,163	245,690	119,232
103,801	-7,067	245,449	119,185
104,816	-7,007	245,369	119,186
105,830	-6,902	245,260	119,211
106,845	-6,860	244,946	119,082
107,860	-6,843	244,902	119,065
108,874	-7,052	244,575	118,721
109,889	-7,096	244,326	118,552
110,903	-6,992	244,083	118,511
111,918	-7,145	243,952	118,309
112,933	-7,068	243,810	118,293
113,947	-6,949	243,834	118,394
114,962	-6,951	243,596	118,267
115,976	-6,963	243,420	118,161
116,991	-7,035	243,231	117,998
118,006	-7,070	243,046	117,868
119,020	-6,863	242,944	117,980
120,035	-6,922	242,849	117,875
121,049	-6,812	242,630	117,849
122,064	-7,025	242,520	117,609
123,079	-6,963	242,259	117,523
124,093	-6,972	241,853	117,308
125,108	-7,215	241,790	117,067
126,122	-7,309	241,535	116,854
127,137	-7,442	241,408	116,674
128,151	-7,274	241,106	116,655
129,166	-7,253	241,056	116,638
130,181	-7,355	240,952	116,493
131,195	-7,577	240,722	116,189
132,210	-7,200	240,557	116,409
133,224	-6,951	240,395	116,525
134,239	-6,925	240,266	116,473
135,254	-7,183	240,043	116,143
136,268	-6,980	239,773	116,169
137,283	-7,499	239,645	115,671
138,297	-7,465	239,406	115,573
139,312	-7,426	239,079	115,437
140,327	-7,344	239,167	115,536
141,341	-6,725	238,965	115,934
142,356	-6,603	238,821	115,952
143,370	-6,620	238,791	115,914
144,385	-6,729	238,671	115,757
145,400	-6,714	238,395	115,624
146,414	-6,714	238,326	115,581
147,429	-6,630	238,032	115,496
148,443	-6,628	237,763	115,356
149,458	-6,669	237,758	115,310
150,473	-6,806	237,572	115,099
151,487	-6,833	237,369	114,969
152,502	-6,743	237,210	114,954
153,516	-6,583	237,072	115,006
154,531	-6,563	236,770	114,865
155,546	-6,717	236,808	114,750
156,560	-6,618	236,383	114,613
157,575	-6,901	236,190	114,281
158,589	-7,087	236,134	114,095
159,604	-6,589	236,016	114,428
160,619	-6,689	235,750	114,209
161,633	-6,641	235,885	114,302
162,648	-6,703	235,644	114,126
163,662	-6,739	235,420	113,978
164,677	-6,785	235,186	113,817
165,692	-6,738	235,020	113,765
166,706	-6,608	234,981	113,840
167,721	-6,505	234,770	113,809
168,735	-6,664	234,756	113,666
169,750	-6,539	234,422	113,594
170,764	-6,670	234,135	113,340
171,779	-6,592	234,149	113,399
172,794	-6,656	234,122	113,324
173,808	-6,865	233,817	113,001
174,823	-7,174	233,432	112,559
175,837	-7,177	233,358	112,511
176,852	-7,080	233,318	112,559
177,867	-6,786	233,262	112,756
178,881	-6,678	232,941	112,676
179,896	-6,534	232,953	112,785
180,910	-6,503	232,621	112,639
181,925	-6,429	232,419	112,589
182,940	-6,624	232,429	112,430
183,954	-6,673	232,229	112,284
184,969	-6,509	231,994	112,290
185,983	-6,554	232,094	112,294
186,998	-6,532	231,804	112,160
188,013	-6,416	231,708	112,195
189,027	-6,411	231,601	112,138
190,042	-6,538	231,290	111,877
191,056	-6,412	231,188	111,917
192,071	-6,613	231,105	111,709
193,086	-6,378	230,695	111,685
194,100	-6,594	230,545	111,433
195,115	-7,057	230,281	110,933
196,129	-7,388	230,146	110,600
197,144	-2,933	231,607	114,792
198,159	1,454	232,758	118,808
199,173	3,986	233,572	121,209
200,188	4,394	233,527	121,496
201,202	4,475	233,332	121,447
202,217	4,526	233,231	121,424
203,232	4,785	233,017	121,505
204,246	4,842	233,012	121,537
205,261	4,954	232,819	121,513
206,275	4,947	232,856	121,516
207,290	4,960	232,546	121,354
208,304	4,914	232,461	121,263
209,319	4,940	232,235	121,154
210,334	4,916	232,062	121,034
211,348	4,784	231,898	120,834
212,363	4,174	231,624	120,205
213,377	4,168	231,243	119,992
214,392	4,155	231,203	119,951
215,407	4,253	231,089	119,957
216,421	4,311	230,869	119,877
217,436	4,244	230,688	119,720
218,450	4,186	230,410	119,520
219,465	4,025	230,303	119,330
220,480	4,066	230,245	119,320
221,494	4,116	230,019	119,232
222,509	3,877	229,972	119,011
223,523	4,041	229,844	119,062
224,538	4,012	229,583	118,893
225,553	4,147	229,515	118,952
226,567	4,215	229,467	118,969
227,582	4,319	229,294	118,949
228,596	4,406	229,278	118,997
229,611	4,291	228,999	118,753
230,626	4,031	228,769	118,423
231,640	3,810	228,544	118,126
232,655	4,312	228,431	118,443
233,669	4,532	228,481	118,627
234,684	4,623	228,450	118,671
235,699	4,616	228,240	118,546
236,713	4,252	228,054	118,159
237,728	4,057	227,791	117,863
238,742	3,900	227,646	117,657
239,757	4,054	227,351	117,612
240,772	4,118	227,271	117,610
241,786	4,236	227,149	117,625
242,801	4,256	227,079	117,594
243,815	4,721	226,908	117,849
244,830	4,448	226,865	117,609
245,844	4,176	226,674	117,292
246,859	4,337	226,412	117,269
247,874	4,411	226,307	117,260
248,888	4,340	226,327	117,206
249,903	4,352	225,940	117,004
250,917	4,214	225,710	116,770
251,932	4,005	225,717	116,605
252,947	4,124	225,568	116,608
253,961	4,129	225,462	116,546
254,976	4,272	225,232	116,525
255,990	4,303	225,151	116,496
257,005	4,248	225,094	116,415
258,020	4,474	224,939	116,495
259,034	4,556	224,750	116,448
260,049	4,344	224,644	116,223
261,063	4,217	224,436	116,010
262,078	4,834	224,361	116,424
263,093	4,562	224,177	116,114
264,107	4,533	224,068	116,026
265,122	4,402	223,945	115,853
266,136	4,485	223,885	115,875
267,151	4,747	223,638	115,932
268,166	4,249	223,398	115,425
269,180	4,105	223,138	115,173
270,195	4,090	223,031	115,096
271,209	3,917	222,946	114,913
272,224	3,996	222,825	114,899
273,239	4,081	222,762	114,920
274,253	4,105	222,445	114,763
275,268	4,032	222,205	114,575
276,282	3,933	222,051	114,412
277,297	3,637	221,944	114,126
278,312	3,773	221,890	114,189
279,326	4,060	221,767	114,329
280,341	4,047	221,722	114,286
281,355	4,082	221,559	114,218
282,370	3,989	221,426	114,071
283,384	4,028	221,222	113,984
284,399	3,882	221,070	113,788
285,414	3,662	220,861	113,507
286,428	3,992	220,768	113,693
287,443	4,088	220,734	113,736
288,457	4,324	220,511	113,786
289,472	4,233	220,330	113,614
290,487	3,780	220,095	113,150
291,501	3,687	219,924	112,984
292,516	3,806	219,891	113,044
293,530	3,911	219,881	113,106
294,545	3,760	219,718	112,901
295,560	3,922	219,550	112,924
296,574	3,962	219,476	112,905
297,589	4,296	219,315	113,057
298,603	4,147	219,043	112,797
299,618	4,361	218,901	112,871
300,633	4,160	218,906	112,717
301,647	4,453	218,818	112,875
302,662	4,484	218,678	112,816
303,676	4,298	218,547	112,603
304,691	4,528	218,237	112,600
305,706	4,526	218,248	112,594
306,720	4,294	218,178	112,379
307,735	4,087	217,884	112,067
308,749	3,994	217,676	111,882
309,764	4,337	217,586	112,075
310,779	4,497	217,358	112,064
311,793	4,336	217,323	111,919
312,808	4,313	217,224	111,841
313,822	4,107	217,041	111,588
314,837	4,343	216,813	111,632
315,852	4,001	216,686	111,309
316,866	4,029	216,609	111,280
317,881	4,427	216,403	111,451
318,895	4,177	216,352	111,235
319,910	4,117	216,220	111,114
320,925	3,891	215,892	110,772
321,939	3,713	215,740	110,556
322,954	3,883	215,738	110,668
323,968	4,201	215,575	110,803
324,983	4,438	215,481	110,915
325,997	4,142	215,530	110,717
327,012	3,997	215,221	110,445
328,027	4,151	215,176	110,523
329,041	4,625	215,037	110,781
330,056	4,562	215,019	110,717
331,070	4,323	214,732	110,388
332,085	3,672	214,480	109,783
333,100	3,862	214,413	109,875
334,114	4,087	214,290	109,963
335,129	4,331	214,262	110,112
336,143	4,026	213,917	109,708
337,158	4,074	213,790	109,668
338,173	4,191	213,595	109,641
339,187	4,019	213,569	109,495
340,202	4,021	213,321	109,361
341,216	3,813	213,151	109,115
342,231	3,922	213,085	109,149
343,246	3,793	213,064	109,037
344,260	3,929	212,880	109,030
345,275	3,950	212,752	108,970
346,289	4,160	212,771	109,118
347,304	4,361	212,535	109,130
348,319	3,963	212,416	108,778
349,333	3,896	212,370	108,697
350,348	4,414	212,062	108,895
351,362	4,238	212,061	108,760
352,377	4,298	211,974	108,749
353,392	4,175	211,756	108,540
354,406	3,929	211,574	108,264
355,421	193,474	1343,571	1429,137
356,435	154,451	1481,565	1429,207
