DTS Sentinel unit serial number:	SN410029Multiplexer serial number:	ORYXHardware model number:	OX2-SRSoftware version number:	ORYX F/W v4,00 Oryx Data Collector v3.7.2.0data status	okinstallation	B6 Nyhavnadifferential loss correction	single-endedforward channel	channel 2reverse channel	N/Adate	2023/12/09time	22:20:08forward acquisition time	300,00reverse acquisition time	0,00gamma	499,1914k internal	0,3127k external	0,3127temperature offset calibration	1,0000default loss term (dB/km)	0,3820temperature slope calibration	1,0000multiplexer offset coefficient	1,0000multiplexer slope coefficient	1,0000fibre end	0,00T internal ref (°C)	21,67T ext. ref 1 (°C)	5,42T ext. ref 2 (°C)	5,41length (m)	temperature (°C)	Stokes	anti-Stokes-744,400	-200,000	0,009	-0,172
-743,385	22,226	-0,185	0,112
-742,371	-49,618	0,197	0,069
-741,356	329,512	-0,152	0,218
-740,342	145,054	0,061	0,061
-739,327	-17,790	-0,158	0,074
-738,312	12,194	-0,086	0,049
-737,298	-65,208	-0,203	0,061
-736,283	41,417	-0,119	-0,080
-735,269	338,970	-0,097	0,141
-734,254	545,344	0,025	0,044
-733,239	-108,969	-0,441	-0,069
-732,225	40,274	0,166	0,111
-731,210	74,383	0,092	0,072
-730,196	-200,000	-0,024	-0,117
-729,181	451,619	-0,076	-0,125
-728,167	800,000	0,023	0,058
-727,152	247,510	0,136	0,172
-726,137	377,017	-0,090	-0,137
-725,123	-103,911	-0,071	0,012
-724,108	-93,104	-0,075	-0,015
-723,094	-200,000	-0,010	-0,107
-722,079	65,417	-0,065	-0,049
-721,064	800,000	-0,025	0,061
-720,050	536,075	-0,045	-0,080
-719,035	205,741	0,076	-0,088
-718,021	88,373	0,043	0,036
-717,006	410,303	0,018	0,028
-715,991	-32,652	-0,095	-0,039
-714,977	640,915	-0,021	0,040
-713,962	32,014	-0,069	0,044
-712,948	-168,095	-0,164	-0,005
-711,933	57,947	0,059	-0,043
-710,918	177,120	-0,072	0,078
-709,904	253,559	-0,130	0,166
-708,889	-146,170	-0,035	-0,002
-707,875	-24,323	-0,155	0,069
-706,860	800,000	-0,032	-0,095
-705,845	-7,340	0,029	-0,015
-704,831	494,337	-0,073	-0,124
-703,816	9,956	0,051	0,029
-702,802	63,501	-0,054	-0,041
-701,787	-124,661	-0,051	0,006
-700,772	318,105	-0,065	-0,091
-699,758	-200,000	-0,001	0,056
-698,743	160,803	0,032	-0,033
-697,729	98,245	-0,059	0,050
-696,714	381,819	-0,020	-0,031
-695,699	-1,146	0,013	0,007
-694,685	297,145	-0,086	0,117
-693,670	-109,097	-0,134	0,021
-692,656	640,230	-0,027	0,051
-691,641	-200,000	0,013	-0,078
-690,627	-134,937	0,091	0,008
-689,612	800,000	0,006	-0,019
-688,597	-200,000	-0,015	-0,050
-687,583	226,801	-0,159	-0,192
-686,568	-127,577	-0,117	-0,012
-685,554	259,865	-0,046	-0,059
-684,539	133,422	-0,031	-0,030
-683,524	798,716	-0,017	0,034
-682,510	-31,182	0,044	-0,018
-681,495	437,932	-0,060	-0,098
-680,481	345,317	-0,014	0,020
-679,466	800,000	0,037	0,097
-678,451	-91,375	-0,112	-0,024
-677,437	711,242	-0,022	-0,044
-676,422	166,264	0,076	0,080
-675,408	-38,717	0,148	0,058
-674,393	430,491	0,034	-0,054
-673,378	-200,000	-0,046	-0,179
-672,364	103,019	-0,015	0,013
-671,349	-200,000	-0,011	0,047
-670,335	387,539	0,090	-0,139
-669,320	-200,000	-0,014	-0,184
-668,305	-62,294	-0,126	-0,039
-667,291	-62,893	0,102	0,031
-666,276	-86,515	0,042	0,010
-665,262	399,340	0,083	-0,130
-664,247	404,830	-0,027	0,042
-663,232	119,703	0,070	-0,065
-662,218	-109,392	-0,140	0,022
-661,203	800,000	0,067	0,138
-660,189	-200,000	-0,026	-0,124
-659,174	-200,000	0,007	0,053
-658,159	134,341	-0,079	-0,076
-657,145	-200,000	0,017	-0,147
-656,130	-100,424	-0,125	0,023
-655,116	-172,572	0,035	-0,001
-654,101	-24,570	-0,119	0,052
-653,086	61,910	-0,047	-0,035
-652,072	767,640	0,038	0,077
-651,057	33,850	-0,127	0,082
-650,043	-35,199	-0,095	-0,038
-649,028	-200,000	0,015	0,056
-648,014	212,819	-0,087	-0,102
-646,999	57,947	0,054	-0,039
-645,984	32,881	0,117	-0,075
-644,970	-43,069	-0,056	-0,021
-643,955	-9,035	0,055	-0,027
-642,941	-200,000	-0,004	-0,027
-641,926	322,963	-0,115	0,162
-640,911	-172,106	0,048	-0,001
-639,897	130,991	-0,014	-0,014
-638,882	-73,496	0,085	0,023
-637,868	-70,380	-0,126	-0,035
-636,853	108,733	-0,065	0,058
-635,838	333,249	0,031	-0,044
-634,824	800,000	-0,027	-0,080
-633,809	64,422	0,112	-0,083
-632,795	800,000	-0,028	0,069
-631,780	193,266	0,045	0,051
-630,765	-200,000	-0,006	0,039
-629,751	-69,131	0,152	-0,043
-628,736	-107,711	-0,120	0,019
-627,722	-56,712	-0,087	0,028
-626,707	288,935	-0,090	0,121
-625,692	-70,495	0,128	-0,036
-624,678	-200,000	0,003	0,052
-623,663	661,384	-0,062	0,119
-622,649	-200,000	0,004	-0,031
-621,634	-200,000	0,020	-0,110
-620,619	-200,000	-0,020	-0,096
-619,605	-200,000	0,005	0,086
-618,590	-58,127	0,128	0,041
-617,576	-200,000	-0,012	0,077
-616,561	212,594	0,051	0,059
-615,546	-200,000	0,002	0,037
-614,532	800,000	-0,014	-0,031
-613,517	-200,000	-0,003	0,093
-612,503	-200,000	0,001	0,040
-611,488	230,860	0,032	-0,039
-610,474	-93,234	-0,214	-0,044
-609,459	-200,000	0,012	0,052
-608,444	800,000	-0,051	-0,105
-607,430	18,656	-0,014	0,008
-606,415	-128,566	0,067	-0,007
-605,401	800,000	-0,020	0,056
-604,386	-200,000	-0,002	-0,037
-603,371	-4,409	0,054	0,028
-602,357	227,558	-0,095	-0,115
-601,342	-200,000	-0,004	-0,063
-600,328	-200,000	0,005	-0,186
-599,313	-152,635	-0,121	-0,006
-598,298	-200,000	0,004	-0,098
-597,284	-93,623	-0,073	-0,015
-596,269	800,000	-0,007	-0,022
-595,255	800,000	0,034	0,082
-594,240	-86,946	-0,092	-0,021
-593,225	800,000	-0,055	-0,141
-592,211	47,650	-0,105	0,072
-591,196	-101,262	-0,089	-0,016
-590,182	406,600	-0,060	-0,093
-589,167	147,546	0,063	-0,063
-588,152	197,452	-0,005	-0,006
-587,138	532,414	-0,058	0,101
-586,123	13,969	-0,084	-0,048
-585,109	379,271	-0,024	-0,036
-584,094	45,103	0,063	0,043
-583,079	-23,609	-0,019	-0,008
-582,065	-8,779	0,072	0,035
-581,050	513,713	-0,101	-0,174
-580,036	-17,877	-0,039	-0,018
-579,021	-4,730	-0,046	0,024
-578,006	-41,984	-0,023	0,009
-576,992	147,353	0,020	0,020
-575,977	800,000	0,009	0,028
-574,963	-82,222	0,102	-0,024
-573,948	-86,441	0,217	0,049
-572,934	24,517	0,111	-0,068
-571,919	-97,831	0,081	-0,015
-570,904	800,000	0,060	-0,129
-569,890	-91,835	0,092	0,019
-568,875	568,477	0,013	0,023
-567,861	-39,863	-0,085	0,033
-566,846	-200,000	0,009	-0,033
-565,831	283,960	0,034	-0,046
-564,817	-167,353	-0,103	0,003
-563,802	75,547	0,101	-0,079
-562,788	-200,000	-0,004	0,045
-561,773	-134,761	-0,097	-0,009
-560,758	-15,397	0,037	-0,018
-559,744	102,996	-0,025	-0,022
-558,729	-35,655	0,132	-0,052
-557,715	-14,529	0,025	0,012
-556,700	-200,000	-0,016	-0,123
-555,685	-200,000	-0,007	-0,042
-554,671	-64,877	0,159	0,047
-553,656	-56,347	-0,052	-0,017
-552,642	-200,000	-0,002	-0,063
-551,627	800,000	0,020	0,052
-550,612	274,022	0,052	0,069
-549,598	-32,300	-0,101	0,041
-548,583	-50,590	0,099	-0,034
-547,569	14,593	-0,061	0,035
-546,554	13,203	0,169	0,096
-545,539	-118,435	-0,111	0,014
-544,525	800,000	-0,033	-0,080
-543,510	279,791	-0,064	0,084
-542,496	92,324	0,137	0,114
-541,481	-138,279	-0,115	0,009
-540,466	193,477	-0,021	-0,023
-539,452	-71,542	-0,142	-0,039
-538,437	572,941	0,004	-0,007
-537,423	175,564	-0,140	-0,150
-536,408	37,807	-0,045	-0,029
-535,393	-200,000	-0,029	0,111
-534,379	272,001	0,092	-0,119
-533,364	-200,000	-0,001	-0,018
-532,350	-200,000	0,000	-0,061
-531,335	-200,000	0,004	0,048
-530,321	39,055	-0,094	0,062
-529,306	800,000	0,040	-0,093
-528,291	-93,143	0,048	0,010
-527,277	-200,000	-0,005	-0,030
-526,262	466,416	-0,041	-0,068
-525,248	-200,000	-0,010	-0,074
-524,233	7,328	0,077	-0,042
-523,218	-108,394	0,058	-0,009
-522,204	-200,000	0,002	-0,013
-521,189	152,141	0,083	0,084
-520,175	417,731	-0,058	-0,092
-519,160	-200,000	0,022	-0,109
-518,145	198,195	0,101	0,114
-517,131	-19,456	0,112	0,051
-516,116	-38,970	0,141	0,054
-515,102	-200,000	0,018	-0,138
-514,087	-40,237	-0,044	0,017
-513,072	-173,502	0,126	-0,003
-512,058	-106,562	0,120	0,020
-511,043	266,014	0,025	0,033
-510,029	-200,000	0,017	0,088
-509,014	-136,412	0,062	-0,005
-507,999	4,619	0,033	0,018
-506,985	-200,000	-0,155	0,000
-505,970	800,000	-0,061	0,162
-504,956	404,122	-0,091	-0,142
-503,941	645,429	0,026	-0,049
-502,926	-80,070	-0,076	-0,019
-501,912	-200,000	0,021	0,072
-500,897	800,000	-0,042	0,115
-499,883	-5,355	-0,105	0,053
-498,868	800,000	-0,039	0,093
-497,853	50,147	-0,132	0,092
-496,839	800,000	0,019	-0,057
-495,824	-141,288	-0,152	0,011
-494,810	23,140	0,191	0,115
-493,795	-200,000	0,017	-0,064
-492,781	-200,000	-0,003	0,011
-491,766	770,088	0,017	0,035
-490,751	-200,000	0,009	-0,038
-489,737	-188,420	-0,083	0,001
-488,722	-200,000	0,007	-0,079
-487,708	243,849	0,019	-0,023
-486,693	-200,000	-0,013	-0,101
-485,678	-52,897	-0,175	-0,059
-484,664	-1,000	-0,142	0,074
-483,649	-1,067	-0,005	-0,002
-482,635	90,064	-0,068	-0,056
-481,620	-200,000	0,029	-0,140
-480,605	800,000	0,077	0,174
-479,591	-111,889	0,099	-0,015
-478,576	325,278	-0,038	-0,054
-477,562	-200,000	-0,001	-0,055
-476,547	-121,749	0,048	0,006
-475,532	-47,794	-0,057	0,020
-474,518	-121,801	0,201	0,024
-473,503	112,148	0,013	0,012
-472,489	800,000	0,079	0,164
-471,474	119,947	-0,065	-0,060
-470,459	762,460	-0,048	-0,096
-469,445	15,905	0,101	0,058
-468,430	-200,000	-0,001	0,012
-467,416	-79,836	0,084	0,021
-466,401	2,804	-0,072	-0,038
-465,386	89,548	0,158	0,130
-464,372	800,000	-0,056	0,150
-463,357	170,469	0,122	0,128
-462,343	-138,882	-0,014	-0,001
-461,328	-156,862	0,056	0,002
-460,313	-82,989	0,030	0,007
-459,299	124,386	0,049	0,046
-458,284	-54,812	0,084	0,028
-457,270	131,851	-0,057	-0,054
-456,255	-200,000	-0,020	-0,076
-455,241	-200,000	-0,025	-0,083
-454,226	33,459	0,116	-0,074
-453,211	8,811	0,048	0,026
-452,197	338,069	0,017	-0,025
-451,182	780,317	0,027	-0,056
-450,168	-1,607	0,034	0,017
-449,153	692,289	0,059	-0,114
-448,138	-60,983	0,009	0,003
-447,124	482,651	0,091	-0,153
-446,109	-200,000	-0,004	-0,056
-445,095	-53,636	-0,083	0,028
-444,080	449,165	0,041	0,067
-443,065	215,657	0,139	0,162
-442,051	27,151	-0,133	0,082
-441,036	-200,000	-0,007	-0,065
-440,022	93,260	-0,020	0,016
-439,007	-146,947	-0,092	-0,006
-437,992	185,406	-0,002	0,002
-436,978	94,365	0,017	0,014
-435,963	800,000	0,010	0,031
-434,949	-200,000	0,016	-0,196
-433,934	-200,000	0,002	-0,056
-432,919	-200,000	0,002	0,025
-431,905	64,443	-0,065	-0,048
-430,890	800,000	0,072	-0,213
-429,876	-155,187	0,178	0,008
-428,861	145,023	-0,038	0,037
-427,846	800,000	0,027	-0,057
-426,832	58,495	-0,070	0,050
-425,817	800,000	-0,025	-0,068
-424,803	-17,305	-0,193	-0,089
-423,788	796,172	0,034	0,069
-422,773	118,205	0,083	0,075
-421,759	-200,000	0,003	0,024
-420,744	14,861	0,078	0,045
-419,730	800,000	0,011	0,027
-418,715	-174,883	-0,091	-0,002
-417,701	-200,000	0,039	0,135
-416,686	-1,155	0,041	-0,021
-415,671	127,102	-0,022	0,020
-414,657	13,909	-0,030	0,017
-413,642	-108,954	0,057	-0,009
-412,628	-183,526	-0,078	0,001
-411,613	86,761	0,087	-0,070
-410,598	-200,000	0,012	-0,068
-409,584	300,478	-0,061	0,083
-408,569	-200,000	0,041	0,132
-407,555	-148,756	0,056	-0,003
-406,540	-141,461	0,150	-0,011
-405,525	88,633	-0,089	0,072
-404,511	-200,000	-0,007	-0,217
-403,496	-103,384	0,085	-0,015
-402,482	11,490	0,143	-0,081
-401,467	-105,109	-0,124	0,021
-400,452	-200,000	-0,006	0,103
-399,438	800,000	0,048	0,114
-398,423	5,626	-0,031	-0,017
-397,409	105,873	-0,018	-0,016
-396,394	800,000	0,034	-0,085
-395,379	-200,000	-0,014	0,047
-394,365	44,198	-0,023	0,016
-393,350	344,759	0,067	0,097
-392,336	567,539	0,080	0,142
-391,321	800,000	0,014	-0,033
-390,306	-172,684	-0,110	0,002
-389,292	266,729	-0,079	-0,102
-388,277	169,520	-0,057	0,060
-387,263	188,252	-0,043	-0,047
-386,248	800,000	0,086	0,189
-385,233	-60,110	0,161	0,050
-384,219	-62,022	-0,137	0,042
-383,204	-63,534	-0,078	-0,023
-382,190	81,356	-0,160	-0,127
-381,175	152,139	-0,067	0,067
-380,160	-144,280	0,050	-0,003
-379,146	233,479	-0,077	0,094
-378,131	-159,620	-0,103	-0,004
-377,117	-200,000	0,032	-0,135
-376,102	-10,368	0,033	-0,016
-375,088	-200,000	0,002	-0,108
-374,073	81,308	-0,035	-0,028
-373,058	-89,295	0,148	0,032
-372,044	-200,000	-0,005	-0,020
-371,029	520,150	-0,011	-0,019
-370,015	800,000	-0,023	0,052
-369,000	-117,578	0,023	-0,003
-367,985	-200,000	0,010	0,059
-366,971	-14,676	-0,076	-0,035
-365,956	-200,000	-0,010	-0,125
-364,942	-200,000	-0,010	-0,075
-363,927	296,892	0,049	0,066
-362,912	-200,000	0,023	-0,199
-361,898	82,562	-0,050	-0,040
-360,883	800,000	-0,019	0,048
-359,869	79,628	-0,047	0,037
-358,854	269,560	0,019	0,024
-357,839	-67,818	0,028	0,008
-356,825	-200,000	-0,012	0,192
-355,810	-200,000	-0,007	0,064
-354,796	78,546	0,017	-0,013
-353,781	-9,741	0,006	-0,003
-352,766	286,918	-0,046	-0,061
-351,752	-82,091	0,124	0,029
-350,737	610,331	0,063	0,116
-349,723	18,525	0,064	-0,037
-348,708	2,757	0,117	0,062
-347,693	179,114	-0,093	0,100
-346,679	67,308	0,106	-0,079
-345,664	-200,000	0,031	0,145
-344,650	-104,951	0,061	0,010
-343,635	-151,912	0,055	0,003
-342,620	389,172	0,050	0,075
-341,606	-127,377	0,095	0,010
-340,591	-36,305	-0,041	-0,016
-339,577	-200,000	0,013	-0,126
-338,562	800,000	0,074	-0,155
-337,548	-6,020	-0,021	-0,010
-336,533	-200,000	0,017	0,076
-335,518	664,564	0,062	-0,117
-334,504	800,000	0,073	0,190
-333,489	207,054	-0,042	-0,049
-332,475	-200,000	0,007	-0,149
-331,460	-200,000	0,038	-0,142
-330,445	326,814	-0,054	0,076
-329,431	-73,687	0,064	0,017
-328,416	255,147	0,063	-0,079
-327,402	-114,981	-0,069	-0,010
-326,387	690,012	-0,019	0,036
-325,372	-36,290	0,046	-0,018
-324,358	120,734	0,058	0,053
-323,343	22,262	-0,013	-0,008
-322,329	292,351	0,068	0,091
-321,314	-23,383	0,109	-0,048
-320,299	544,857	0,048	-0,085
-319,285	15,023	-0,122	-0,070
-318,270	348,854	0,027	0,040
-317,256	-68,417	0,075	0,021
-316,241	35,593	0,121	0,078
-315,226	800,000	-0,022	0,055
-314,212	643,486	0,024	-0,045
-313,197	51,451	0,119	-0,083
-312,183	-33,732	0,149	-0,060
-311,168	69,575	-0,092	-0,069
-310,153	-56,462	-0,059	-0,019
-309,139	-54,039	-0,053	-0,017
-308,124	163,813	-0,080	-0,083
-307,110	33,269	0,154	-0,098
-306,095	74,209	0,005	0,004
-305,080	209,882	-0,137	0,158
-304,066	-200,000	0,015	-0,109
-303,051	-27,346	-0,046	-0,020
-302,037	143,415	0,043	0,042
-301,022	-26,565	0,109	-0,046
-300,008	-0,510	0,070	-0,036
-298,993	24,472	0,108	-0,065
-297,978	-154,173	-0,032	-0,002
-296,964	-200,000	0,002	0,069
-295,949	-200,000	-0,009	0,155
-294,935	-149,057	0,200	0,012
-293,920	81,736	0,014	0,011
-292,905	523,132	-0,037	0,064
-291,891	800,000	0,019	0,058
-290,876	726,643	0,050	0,097
-289,862	319,238	0,125	-0,174
-288,847	-200,000	-0,015	-0,090
-287,832	-137,254	-0,174	-0,014
-286,818	-11,872	-0,050	-0,024
-285,803	-81,710	0,138	-0,033
-284,789	-138,833	-0,134	-0,010
-283,774	-161,118	0,099	-0,004
-282,759	-200,000	-0,007	0,121
-281,745	-200,000	-0,012	-0,068
-280,730	-200,000	-0,004	0,160
-279,716	142,838	0,059	0,057
-278,701	-169,797	0,097	-0,002
-277,686	69,001	-0,037	-0,028
-276,672	542,794	0,063	0,111
-275,657	-200,000	0,003	0,067
-274,643	43,544	-0,160	0,107
-273,628	-108,279	-0,070	0,011
-272,613	303,640	-0,054	-0,074
-271,599	11,421	-0,054	0,030
-270,584	-12,128	-0,027	0,013
-269,570	-122,348	-0,045	0,005
-268,555	724,325	-0,061	-0,120
-267,540	263,951	-0,077	-0,098
-266,526	800,000	-0,042	-0,090
-265,511	-200,000	0,007	-0,046
-264,497	262,183	0,023	0,029
-263,482	-200,000	0,006	0,076
-262,467	-98,663	-0,064	0,012
-261,453	383,770	0,034	-0,052
-260,438	800,000	-0,069	-0,176
-259,424	-27,755	-0,180	-0,076
-258,409	-61,671	0,010	-0,003
-257,395	-63,739	0,082	0,024
-256,380	46,102	0,084	-0,057
-255,365	-60,860	0,151	-0,046
-254,351	-200,000	0,114	0,000
-253,336	-200,000	0,021	0,137
-252,322	0,864	-0,094	-0,049
-251,307	-66,483	0,008	-0,002
-250,292	-73,028	-0,107	-0,028
-249,278	354,315	0,036	0,052
-248,263	563,557	-0,071	-0,126
-247,249	-46,804	-0,032	0,011
-246,234	800,000	-0,052	0,107
-245,219	-92,571	-0,040	0,008
-244,205	331,357	-0,076	-0,108
-243,190	800,000	0,051	0,104
-242,176	257,771	0,041	-0,052
-241,161	41,450	-0,104	0,068
-240,146	-200,000	-0,007	-0,096
-239,132	800,000	-0,072	-0,159
-238,117	58,693	-0,047	-0,034
-237,103	800,000	-0,046	-0,103
-236,088	-200,000	-0,012	0,092
-235,073	800,000	0,063	0,183
-234,059	-200,000	-0,047	0,166
-233,044	-8,121	-0,113	0,055
-232,030	-40,860	-0,026	-0,010
-231,015	253,920	-0,105	-0,131
-230,000	38,748	-0,087	-0,056
-228,986	62,926	-0,174	-0,127
-227,971	-94,387	-0,132	0,026
-226,957	43,313	-0,044	0,030
-225,942	523,436	-0,034	0,059
-224,927	114,158	0,056	-0,050
-223,913	800,000	0,021	0,049
-222,898	-200,000	-0,002	-0,064
-221,884	-200,000	-0,004	-0,059
-220,869	-36,529	0,060	0,024
-219,855	-200,000	-0,020	0,089
-218,840	364,078	0,058	0,086
-217,825	-21,905	0,093	0,041
-216,811	-160,831	-0,070	-0,003
-215,796	-66,316	-0,128	-0,037
-214,782	29,743	-0,069	0,043
-213,767	-200,000	0,012	0,082
-212,752	105,304	-0,112	0,096
-211,738	706,853	0,058	0,113
-210,723	319,605	0,059	0,082
-209,709	800,000	0,029	-0,084
-208,694	52,303	0,080	-0,056
-207,679	-41,536	-0,027	0,010
-206,665	-196,871	-0,055	-0,000
-205,650	-200,000	-0,006	0,122
-204,636	800,000	0,010	-0,026
-203,621	-39,954	-0,062	0,024
-202,606	11,697	-0,101	-0,056
-201,592	800,000	0,021	-0,045
-200,577	168,031	-0,026	0,027
-199,563	164,346	-0,144	0,148
-198,548	122,045	-0,036	-0,033
-197,533	800,000	-0,010	0,024
-196,519	-200,000	-0,007	0,153
-195,504	-200,000	0,043	0,140
-194,490	168,449	-0,048	0,050
-193,475	450,493	-0,052	0,084
-192,460	-200,000	0,008	0,054
-191,446	-200,000	0,005	-0,038
-190,431	53,318	0,080	-0,056
-189,417	459,035	0,044	0,072
-188,402	-200,000	-0,027	0,157
-187,387	91,732	-0,066	0,054
-186,373	-200,000	0,038	0,150
-185,358	-78,676	-0,142	-0,035
-184,344	121,217	0,086	0,078
-183,329	800,000	0,017	-0,053
-182,315	747,152	0,018	0,036
-181,300	2,178	-0,139	0,073
-180,285	-2,607	-0,116	-0,059
-179,271	4,714	0,025	0,013
-178,256	800,000	0,024	-0,055
-177,242	-94,322	0,062	0,012
-176,227	633,102	0,041	-0,075
-175,212	800,000	-0,039	0,098
-174,198	-200,000	-0,033	-0,109
-173,183	-200,000	0,003	-0,117
-172,169	-48,105	-0,168	-0,059
-171,154	-58,028	-0,051	0,016
-170,139	67,679	-0,083	0,062
-169,125	225,504	0,102	0,121
-168,110	-31,470	0,086	-0,035
-167,096	3,459	-0,046	-0,025
-166,081	22,134	0,092	0,054
-165,066	140,585	-0,074	-0,071
-164,052	-200,000	-0,007	-0,028
-163,037	-200,000	-0,003	-0,134
-162,023	274,796	0,053	-0,069
-161,008	800,000	-0,006	0,014
-159,993	-52,381	-0,132	-0,044
-158,979	-200,000	0,005	0,089
-157,964	800,000	0,022	-0,045
-156,950	-121,940	-0,142	0,017
-155,935	405,436	0,068	-0,104
-154,920	-90,643	0,046	0,010
-153,906	-200,000	0,038	0,135
-152,891	800,000	0,055	0,117
-151,877	5,579	0,035	-0,019
-150,862	-41,845	-0,065	-0,024
-149,847	154,120	-0,069	-0,068
-148,833	-200,000	-0,004	0,053
-147,818	17,050	0,028	0,016
-146,804	35,440	-0,056	0,036
-145,789	-78,389	0,142	-0,035
-144,775	800,000	-0,061	-0,131
-143,760	-82,146	-0,053	-0,012
-142,745	-45,636	-0,170	0,061
-141,731	19,095	0,093	-0,054
-140,716	-200,000	0,062	0,000
-139,702	85,383	-0,060	0,048
-138,687	-88,071	-0,125	-0,027
-137,672	169,328	-0,097	-0,101
-136,658	-200,000	0,020	-0,106
-135,643	267,260	-0,086	0,109
-134,629	47,392	0,068	-0,046
-133,614	-135,947	0,048	-0,004
-132,599	244,918	0,048	-0,059
-131,585	-14,146	0,025	0,012
-130,570	-200,000	-0,006	0,089
-129,556	-200,000	0,002	-0,066
-128,541	-200,000	-0,003	0,052
-127,526	34,812	-0,099	-0,063
-126,512	107,707	-0,072	-0,063
-125,497	109,279	-0,100	0,087
-124,483	-53,741	0,039	0,013
-123,468	249,909	0,063	0,078
-122,453	18,161	-0,063	-0,037
-121,439	-200,000	-0,011	0,128
-120,424	-89,286	0,037	0,008
-119,410	-200,000	0,034	0,142
-118,395	800,000	0,007	0,019
-117,380	93,934	0,127	0,104
-116,366	375,925	0,018	-0,027
-115,351	41,715	0,123	0,081
-114,337	162,192	-0,049	-0,050
-113,322	251,672	-0,051	0,063
-112,307	-200,000	-0,024	0,109
-111,293	-102,823	0,021	0,004
-110,278	-200,000	-0,009	0,036
-109,264	-119,445	-0,049	-0,006
-108,249	-33,091	0,035	-0,014
-107,234	642,616	0,058	-0,108
-106,220	800,000	-0,057	-0,149
-105,205	309,802	-0,072	0,098
-104,191	-200,000	0,002	-0,052
-103,176	-5,950	-0,087	0,043
-102,162	-49,009	0,070	0,024
-101,147	-11,981	-0,125	0,059
-100,132	-76,295	-0,194	-0,049
-99,118	800,000	0,051	-0,114
-98,103	-112,893	-0,125	-0,018
-97,089	-200,000	-0,051	0,000
-96,074	459,464	-0,029	0,047
-95,059	-200,000	0,047	0,172
-94,045	800,000	-0,018	-0,057
-93,030	800,000	-0,014	-0,043
-92,016	372,751	0,029	0,042
-91,001	800,000	0,024	0,059
-89,986	-25,891	0,005	-0,002
-88,972	344,617	0,071	0,102
-87,957	800,000	-0,027	-0,062
-86,943	-37,033	0,077	0,030
-85,928	-200,000	-0,028	-0,099
-84,913	-200,000	-0,022	0,095
-83,899	800,000	-0,019	-0,046
-82,884	18,445	0,118	0,068
-81,870	85,108	-0,077	0,061
-80,855	252,836	0,086	0,107
-79,840	-200,000	-0,001	-0,059
-78,826	118,238	-0,052	-0,047
-77,811	469,793	0,037	-0,060
-76,797	299,692	0,035	-0,046
-75,782	27,179	-0,125	0,076
-74,767	23,323	0,229	0,136
-73,753	-60,103	-0,077	-0,024
-72,738	64,888	0,059	0,043
-71,724	-200,000	0,004	-0,026
-70,709	438,147	0,054	-0,085
-69,694	-156,263	-0,051	-0,002
-68,680	-0,684	0,076	0,039
-67,665	188,894	-0,065	-0,071
-66,651	160,632	0,041	0,042
-65,636	-200,000	-0,009	-0,064
-64,622	-81,782	-0,051	0,012
-63,607	-200,000	0,012	-0,048
-62,592	250,711	-0,050	0,062
-61,578	-35,043	0,099	0,039
-60,563	162,889	0,034	0,035
-59,549	-6,657	-0,095	0,047
-58,534	-96,931	-1,481	-0,279
-57,519	800,000	-0,665	-1,521
-56,505	-200,000	-0,848	-4,459
-55,490	72,235	0,529	-0,399
-54,476	800,000	4,915	11,741
-53,461	-200,000	14,240	253,314
-52,446	-200,000	695,319	2231,314
-51,432	568,168	1624,423	2871,470
-50,417	117,026	1631,046	1451,791
-49,403	72,798	1285,047	971,189
-48,388	37,395	1022,163	655,307
-47,373	23,699	980,953	583,909
-46,359	22,969	970,107	575,043
-45,344	21,950	965,743	569,111
-44,330	21,926	964,449	568,247
-43,315	21,728	963,248	566,873
-42,300	21,722	962,039	566,118
-41,286	21,711	960,972	565,434
-40,271	21,666	959,955	564,666
-39,257	21,725	958,993	564,270
-38,242	21,669	958,265	563,636
-37,227	21,621	957,363	562,930
-36,213	21,687	956,338	562,516
-35,198	21,676	955,500	561,965
-34,184	21,677	954,958	561,629
-33,169	21,617	954,155	560,942
-32,154	21,685	953,252	560,605
-31,140	21,780	952,055	560,184
-30,125	21,733	951,635	559,764
-29,111	21,714	950,798	559,188
-28,096	21,688	950,032	558,634
-27,082	21,698	949,346	558,240
-26,067	21,790	948,487	558,006
-25,052	21,725	947,751	557,343
-24,038	21,713	947,204	556,962
-23,023	21,704	946,509	556,502
-22,009	21,754	945,820	556,235
-20,994	21,755	945,229	555,867
-19,979	21,747	944,634	555,471
-18,965	21,695	943,962	554,888
-17,950	21,709	943,444	554,608
-16,936	21,698	942,518	554,007
-15,921	21,635	942,096	553,534
-14,906	21,587	941,220	552,845
-13,892	21,628	940,550	552,560
-12,877	21,551	940,016	551,981
-11,863	21,556	939,395	551,610
-10,848	21,639	938,731	551,460
-9,833	21,665	938,412	551,335
-8,819	21,702	937,733	551,029
-7,804	21,598	937,088	550,300
-6,790	21,604	936,553	549,984
-5,775	21,578	936,128	549,628
-4,760	21,628	935,279	549,266
-3,746	21,623	934,657	548,866
-2,731	21,454	934,013	547,932
-1,717	21,408	933,309	547,352
-0,702	21,440	932,548	546,985
0,313	21,206	931,953	546,725
1,327	24,109	930,014	554,650
2,342	33,220	793,624	497,501
3,356	30,846	450,515	278,820
4,371	0,767	294,690	152,275
5,386	-3,689	275,899	138,320
6,400	-4,780	270,097	134,384
7,415	-5,191	267,884	132,891
8,429	-4,835	266,638	132,588
9,444	-4,954	265,652	131,978
10,459	-5,092	265,052	131,541
11,473	-5,020	264,553	131,347
12,488	-5,205	264,028	130,907
13,502	-5,183	263,393	130,600
14,517	-5,214	263,119	130,425
15,531	-5,074	262,648	130,306
16,546	-4,997	262,300	130,192
17,561	-5,093	262,003	129,946
18,575	-4,908	261,509	129,856
19,590	-5,205	261,462	129,554
20,604	-5,082	261,034	129,441
21,619	-5,299	260,783	129,110
22,634	-5,089	260,404	129,099
23,648	-5,180	260,037	128,824
24,663	-5,013	259,663	128,777
25,677	-5,182	259,443	128,505
26,692	-4,998	259,290	128,583
27,707	-5,011	259,007	128,418
28,721	-5,119	258,780	128,199
29,736	-5,283	258,548	127,926
30,750	-5,181	258,233	127,850
31,765	-5,354	258,099	127,618
32,780	-5,019	257,786	127,750
33,794	-5,196	257,424	127,402
34,809	-5,307	257,312	127,237
35,823	-5,410	257,149	127,054
36,838	-5,347	256,757	126,904
37,853	-5,351	256,572	126,798
38,867	-5,181	256,355	126,829
39,882	-5,151	256,039	126,688
40,896	-5,116	255,799	126,589
41,911	-5,198	255,605	126,410
42,926	-5,282	255,599	126,321
43,940	-5,370	255,200	126,035
44,955	-5,299	254,840	125,909
45,969	-5,468	254,836	125,748
46,984	-5,384	254,397	125,593
47,999	-5,556	254,188	125,329
49,013	-5,599	253,994	125,185
50,028	-5,849	253,828	124,874
51,042	-5,945	253,615	124,674
52,057	-6,007	253,256	124,432
53,071	-5,831	253,025	124,461
54,086	-5,812	252,912	124,410
55,101	-5,741	252,866	124,439
56,115	-5,450	252,685	124,590
57,130	-5,163	252,504	124,740
58,144	-4,887	252,386	124,909
59,159	-4,939	252,235	124,778
60,174	-5,081	251,882	124,469
61,188	-4,974	251,727	124,475
62,203	-4,959	251,441	124,335
63,217	-5,297	251,304	123,965
64,232	-5,149	251,109	123,985
65,247	-5,089	250,802	123,874
66,261	-5,144	250,478	123,655
67,276	-5,342	250,443	123,457
68,290	-5,361	250,035	123,229
69,305	-5,592	249,914	122,960
70,320	-5,529	249,633	122,864
71,334	-5,346	249,740	123,063
72,349	-5,157	249,501	123,097
73,363	-4,926	249,230	123,149
74,378	-5,218	249,151	122,849
75,393	-5,058	248,804	122,804
76,407	-5,139	248,637	122,641
77,422	-5,214	248,425	122,462
78,436	-5,228	248,249	122,352
79,451	-5,138	247,957	122,274
80,466	-5,249	247,772	122,078
81,480	-5,273	247,489	121,907
82,495	-5,473	247,446	121,705
83,509	-5,305	247,162	121,697
84,524	-5,376	247,069	121,580
85,539	-5,567	246,852	121,302
86,553	-5,514	246,646	121,234
87,568	-5,377	246,468	121,251
88,582	-5,324	246,221	121,163
89,597	-5,453	246,082	120,976
90,611	-5,235	245,812	121,015
91,626	-5,199	245,692	120,977
92,641	-5,204	245,523	120,878
93,655	-5,130	245,440	120,888
94,670	-5,176	245,137	120,690
95,684	-5,316	244,864	120,427
96,699	-5,354	244,802	120,354
97,714	-5,218	244,611	120,363
98,728	-5,497	244,381	120,006
99,743	-5,487	244,165	119,898
100,757	-5,555	244,027	119,762
101,772	-5,503	243,767	119,668
102,787	-5,380	243,783	119,767
103,801	-5,313	243,472	119,659
104,816	-5,546	243,312	119,376
105,830	-5,277	243,194	119,532
106,845	-5,154	242,946	119,501
107,860	-5,169	242,866	119,439
108,874	-5,269	242,610	119,219
109,889	-5,305	242,323	119,038
110,903	-5,433	242,289	118,904
111,918	-5,242	241,935	118,878
112,933	-5,190	241,781	118,835
113,947	-5,454	241,789	118,610
114,962	-5,330	241,626	118,622
115,976	-5,204	241,513	118,660
116,991	-5,174	241,094	118,468
118,006	-5,347	241,048	118,292
119,020	-5,078	240,849	118,406
120,035	-5,143	240,875	118,354
121,049	-5,134	240,555	118,193
122,064	-5,089	240,388	118,138
123,079	-5,074	240,359	118,126
124,093	-5,262	240,029	117,799
125,108	-5,448	239,739	117,494
126,122	-5,493	239,538	117,349
127,137	-5,450	239,302	117,257
128,151	-5,670	239,359	117,095
129,166	-5,352	239,013	117,174
130,181	-5,529	238,829	116,929
131,195	-5,676	238,671	116,722
132,210	-5,458	238,435	116,774
133,224	-5,200	238,491	117,001
134,239	-5,126	238,378	116,995
135,254	-5,276	238,100	116,726
136,268	-5,334	237,864	116,553
137,283	-5,705	237,806	116,213
138,297	-5,720	237,389	115,987
139,312	-5,598	237,162	115,965
140,327	-5,244	237,130	116,225
141,341	-4,890	237,085	116,479
142,356	-4,763	236,939	116,499
143,370	-4,920	236,868	116,327
144,385	-4,739	236,642	116,352
145,400	-4,672	236,344	116,249
146,414	-4,690	236,260	116,182
147,429	-5,097	236,172	115,801
148,443	-5,072	236,069	115,760
149,458	-4,930	235,838	115,751
150,473	-5,002	235,780	115,654
151,487	-5,052	235,468	115,451
152,502	-5,014	235,261	115,370
153,516	-4,991	235,123	115,310
154,531	-4,843	234,887	115,302
155,546	-4,943	234,809	115,174
156,560	-4,974	234,636	115,054
157,575	-5,082	234,506	114,894
158,589	-5,200	234,266	114,671
159,604	-4,806	233,988	114,839
160,619	-5,057	234,039	114,654
161,633	-4,817	233,758	114,697
162,648	-4,690	233,583	114,702
163,662	-4,794	233,491	114,564
164,677	-4,956	233,220	114,292
165,692	-4,836	233,142	114,339
166,706	-4,911	233,089	114,243
167,721	-4,968	232,840	114,066
168,735	-4,688	232,792	114,254
169,750	-4,758	232,527	114,058
170,764	-4,806	232,372	113,934
171,779	-5,011	232,393	113,772
172,794	-4,740	232,203	113,883
173,808	-4,965	231,980	113,586
174,823	-5,344	231,679	113,131
175,837	-5,418	231,505	112,977
176,852	-5,249	231,360	113,029
177,867	-5,007	231,354	113,206
178,881	-4,987	231,229	113,151
179,896	-4,987	231,061	113,058
180,910	-4,901	230,955	113,064
181,925	-4,970	230,683	112,866
182,940	-4,866	230,546	112,871
183,954	-4,860	230,302	112,746
184,969	-4,723	230,385	112,884
185,983	-4,716	230,035	112,708
186,998	-4,791	230,058	112,650
188,013	-4,720	229,762	112,551
189,027	-4,792	229,807	112,506
190,042	-4,888	229,590	112,316
191,056	-4,732	229,269	112,270
192,071	-4,778	229,292	112,236
193,086	-4,665	229,094	112,216
194,100	-4,651	228,698	112,024
195,115	-5,083	228,543	111,603
196,129	-5,476	228,444	111,240
197,144	-2,639	229,023	113,714
198,159	1,331	230,444	117,504
199,173	3,545	231,025	119,517
200,188	3,735	230,984	119,632
201,202	3,910	230,821	119,674
202,217	4,110	230,637	119,723
203,232	4,256	230,530	119,770
204,246	4,477	230,404	119,866
205,261	4,454	230,327	119,797
206,275	4,710	229,939	119,783
207,290	4,686	229,993	119,781
208,304	4,716	229,947	119,771
209,319	4,725	229,684	119,630
210,334	4,476	229,397	119,278
211,348	4,266	229,253	119,030
212,363	4,104	228,949	118,737
213,377	3,967	228,812	118,549
214,392	3,781	228,566	118,267
215,407	3,868	228,563	118,323
216,421	4,041	228,318	118,318
217,436	3,748	228,058	117,948
218,450	3,563	227,998	117,765
219,465	3,376	227,828	117,523
220,480	3,566	227,644	117,563
221,494	3,477	227,537	117,429
222,509	3,660	227,379	117,477
223,523	3,853	227,233	117,539
224,538	3,633	226,960	117,219
225,553	3,842	226,941	117,358
226,567	3,725	226,852	117,212
227,582	4,104	226,895	117,514
228,596	4,082	226,651	117,360
229,611	3,846	226,404	117,042
230,626	3,698	226,182	116,804
231,640	3,855	226,017	116,828
232,655	3,748	226,012	116,734
233,669	4,509	226,013	117,301
234,684	4,556	225,901	117,269
235,699	4,078	225,551	116,715
236,713	3,973	225,441	116,568
237,728	3,931	225,215	116,408
238,742	3,741	224,984	116,135
239,757	3,686	224,852	116,015
240,772	3,617	224,636	115,841
241,786	3,544	224,752	115,835
242,801	3,852	224,568	115,963
243,815	3,953	224,597	116,043
244,830	4,201	224,277	116,054
245,844	3,673	224,021	115,514
246,859	4,113	223,926	115,786
247,874	4,036	223,886	115,697
248,888	4,020	223,617	115,536
249,903	3,952	223,455	115,391
250,917	3,981	223,254	115,299
251,932	3,697	223,100	114,996
252,947	3,812	222,941	114,990
253,961	3,711	222,759	114,810
254,976	3,666	222,705	114,739
255,990	3,760	222,709	114,800
257,005	4,073	222,512	114,922
258,020	3,940	222,542	114,828
259,034	4,099	222,388	114,857
260,049	4,104	221,955	114,627
261,063	4,001	221,925	114,525
262,078	4,118	221,744	114,508
263,093	4,312	221,740	114,640
264,107	4,124	221,554	114,394
265,122	3,960	221,596	114,284
266,136	4,082	221,326	114,225
267,151	4,276	221,110	114,247
268,166	4,105	220,761	113,930
269,180	3,620	220,620	113,488
270,195	3,561	220,618	113,434
271,209	3,559	220,500	113,362
272,224	4,054	220,264	113,595
273,239	4,082	220,213	113,579
274,253	3,758	219,931	113,186
275,268	3,695	219,761	113,041
276,282	3,616	219,552	112,865
277,297	3,604	219,388	112,763
278,312	3,481	219,490	112,714
279,326	3,785	219,389	112,876
280,341	3,925	219,309	112,927
281,355	3,986	218,986	112,795
282,370	3,718	218,725	112,455
283,384	3,487	218,645	112,234
284,399	3,558	218,451	112,177
285,414	3,755	218,465	112,318
286,428	3,844	218,315	112,297
287,443	3,748	218,387	112,253
288,457	3,865	218,183	112,224
289,472	3,884	217,823	112,042
290,487	3,546	217,608	111,675
291,501	3,436	217,463	111,511
292,516	3,654	217,336	111,594
293,530	3,370	217,450	111,437
294,545	3,429	217,171	111,327
295,560	3,736	217,126	111,516
296,574	3,549	216,930	111,270
297,589	3,818	216,810	111,394
298,603	4,035	216,701	111,485
299,618	3,894	216,687	111,366
300,633	3,945	216,509	111,301
301,647	4,147	216,432	111,397
302,662	4,305	216,148	111,356
303,676	4,038	216,019	111,086
304,691	4,171	215,956	111,140
305,706	4,183	215,725	111,021
306,720	3,885	215,711	110,788
307,735	4,000	215,355	110,678
308,749	3,844	215,164	110,458
309,764	3,840	215,107	110,416
310,779	4,073	215,100	110,570
311,793	3,993	214,880	110,390
312,808	3,791	214,791	110,189
313,822	3,914	214,700	110,221
314,837	3,727	214,463	109,956
315,852	3,745	214,204	109,826
316,866	3,696	214,188	109,773
317,881	3,730	214,203	109,795
318,895	4,072	213,894	109,871
319,910	3,717	213,802	109,560
320,925	3,691	213,499	109,377
321,939	3,236	213,433	109,009
322,954	3,432	213,351	109,098
323,968	3,668	213,312	109,236
324,983	4,177	213,215	109,538
325,997	4,131	213,064	109,419
327,012	3,958	213,002	109,254
328,027	4,068	212,816	109,227
329,041	4,136	212,699	109,205
330,056	4,156	212,667	109,194
331,070	3,762	212,471	108,804
332,085	3,667	212,090	108,531
333,100	3,819	211,924	108,544
334,114	3,921	211,752	108,519
335,129	3,766	211,644	108,345
336,143	3,471	211,542	108,074
337,158	3,750	211,565	108,273
338,173	3,755	211,297	108,130
339,187	3,326	211,234	107,786
340,202	3,542	210,964	107,791
341,216	3,404	210,742	107,571
342,231	3,790	210,763	107,843
343,246	3,512	210,671	107,591
344,260	3,499	210,591	107,531
345,275	3,631	210,376	107,505
346,289	3,884	210,217	107,591
347,304	3,765	210,119	107,448
348,319	3,904	209,941	107,445
349,333	3,748	209,815	107,261
350,348	3,861	209,677	107,260
351,362	3,951	209,668	107,308
352,377	3,832	209,528	107,145
353,392	4,097	209,258	107,181
354,406	4,129	209,144	107,136
355,421	193,446	1346,781	1432,134
356,435	154,344	1485,473	1432,232
