DTS Sentinel unit serial number:	SN410029Multiplexer serial number:	ORYXHardware model number:	OX2-SRSoftware version number:	ORYX F/W v4,00 Oryx Data Collector v3.7.2.0data status	okinstallation	B6 Nyhavnadifferential loss correction	single-endedforward channel	channel 2reverse channel	N/Adate	2023/12/09time	05:25:08forward acquisition time	300,00reverse acquisition time	0,00gamma	499,1914k internal	0,3143k external	0,3143temperature offset calibration	1,0000default loss term (dB/km)	0,3820temperature slope calibration	1,0000multiplexer offset coefficient	1,0000multiplexer slope coefficient	1,0000fibre end	0,00T internal ref (°C)	17,87T ext. ref 1 (°C)	2,22T ext. ref 2 (°C)	2,25length (m)	temperature (°C)	Stokes	anti-Stokes-744,400	-200,000	-0,033	-0,125
-743,385	-63,482	-0,185	0,056
-742,371	-59,212	0,105	0,033
-741,356	-141,332	-0,259	0,019
-740,342	160,345	0,095	-0,098
-739,327	-125,261	-0,266	0,030
-738,312	-122,816	0,144	-0,017
-737,298	-179,189	-0,241	-0,004
-736,283	-110,185	0,208	-0,032
-735,269	-28,732	-0,172	0,073
-734,254	174,560	-0,068	-0,073
-733,239	55,925	-0,344	-0,247
-732,225	599,832	0,050	-0,092
-731,210	800,000	0,037	-0,113
-730,196	15,224	0,088	-0,051
-729,181	114,470	-0,026	-0,023
-728,167	-125,603	-0,007	0,001
-727,152	-5,325	-0,155	-0,079
-726,137	-31,899	-0,128	0,053
-725,123	-200,000	-0,004	-0,086
-724,108	-3,438	-0,066	-0,034
-723,094	602,493	-0,075	-0,139
-722,079	182,842	-0,102	-0,112
-721,064	-50,430	0,071	0,025
-720,050	-75,211	-0,077	-0,020
-719,035	87,198	0,049	0,040
-718,021	-16,428	-0,074	0,035
-717,006	-200,000	-0,007	-0,126
-715,991	-200,000	0,002	-0,103
-714,977	160,746	0,027	0,028
-713,962	-200,000	-0,008	-0,174
-712,948	-200,000	0,039	0,131
-711,933	-200,000	0,025	-0,151
-710,918	70,053	-0,050	-0,038
-709,904	-200,000	0,002	-0,064
-708,889	34,636	-0,075	-0,048
-707,875	-87,848	0,170	0,037
-706,860	586,554	0,079	-0,144
-705,845	800,000	0,008	-0,018
-704,831	800,000	-0,054	0,117
-703,816	223,270	0,042	-0,050
-702,802	14,761	-0,101	-0,058
-701,787	-57,320	0,089	-0,029
-700,772	-200,000	-0,014	0,092
-699,758	-59,399	-0,153	0,048
-698,743	800,000	0,020	-0,066
-697,729	-183,725	-0,071	-0,001
-696,714	-35,721	0,103	0,041
-695,699	-121,393	-0,083	-0,010
-694,685	-89,051	0,120	0,026
-693,670	-32,920	0,085	-0,035
-692,656	101,924	-0,014	0,012
-691,641	320,855	0,008	-0,011
-690,627	247,187	0,059	-0,074
-689,612	-87,243	0,058	-0,013
-688,597	-18,646	-0,166	0,076
-687,583	-200,000	-0,034	0,113
-686,568	99,977	-0,131	-0,112
-685,554	-20,561	0,095	-0,043
-684,539	483,350	0,058	-0,097
-683,524	-200,000	0,006	0,034
-682,510	800,000	-0,046	0,117
-681,495	-145,500	-0,170	0,011
-680,481	64,750	-0,027	-0,020
-679,466	-200,000	-0,022	-0,125
-678,451	-129,207	-0,146	-0,015
-677,437	-200,000	-0,004	0,052
-676,422	-7,363	0,066	-0,033
-675,408	70,600	-0,058	0,044
-674,393	107,806	-0,040	-0,035
-673,378	-68,315	-0,119	0,034
-672,364	-39,127	0,065	0,025
-671,349	-85,821	-0,106	0,024
-670,335	611,307	-0,011	0,020
-669,320	800,000	-0,034	-0,076
-668,305	324,673	-0,038	-0,054
-667,291	-200,000	0,010	-0,100
-666,276	-200,000	0,018	0,097
-665,262	38,926	0,087	0,057
-664,247	-200,000	0,010	-0,111
-663,232	-200,000	0,017	0,135
-662,218	-200,000	0,164	0,000
-661,203	279,057	0,046	-0,061
-660,189	-200,000	0,034	0,141
-659,174	-200,000	0,006	-0,041
-658,159	38,922	-0,056	-0,037
-657,145	-30,678	0,084	0,035
-656,130	800,000	-0,034	-0,108
-655,116	117,480	-0,032	-0,029
-654,101	800,000	0,014	-0,044
-653,086	52,252	-0,170	-0,120
-652,072	800,000	0,035	0,081
-651,057	37,424	-0,028	0,018
-650,043	-200,000	-0,012	0,041
-649,028	31,167	-0,115	-0,073
-648,014	-21,340	0,053	-0,024
-646,999	161,698	0,057	0,059
-645,984	-85,253	-0,022	0,005
-644,970	-200,000	0,005	0,059
-643,955	180,055	-0,089	-0,097
-642,941	586,613	-0,059	0,108
-641,926	-200,000	0,057	0,221
-640,911	-200,000	0,013	0,104
-639,897	-150,000	-0,063	0,004
-638,882	11,381	0,075	0,042
-637,868	36,780	0,070	-0,046
-636,853	-200,000	0,006	-0,037
-635,838	-87,145	0,011	0,002
-634,824	-200,000	-0,008	-0,117
-633,809	-106,464	-0,032	-0,005
-632,795	60,783	0,128	-0,094
-631,780	-93,316	0,088	0,018
-630,765	-200,000	-0,015	-0,058
-629,751	-200,000	-0,003	-0,064
-628,736	-200,000	0,034	-0,136
-627,722	171,525	0,035	-0,037
-626,707	800,000	-0,013	0,029
-625,692	167,491	0,094	0,099
-624,678	7,938	0,118	-0,065
-623,663	-102,089	-0,042	-0,007
-622,649	-200,000	-0,021	-0,081
-621,634	214,514	-0,019	-0,023
-620,619	800,000	0,038	-0,096
-619,605	-200,000	0,032	-0,154
-618,590	149,778	0,109	0,109
-617,576	-44,191	-0,040	-0,015
-616,561	-143,530	-0,100	0,007
-615,546	11,484	0,066	-0,037
-614,532	-27,739	-0,070	0,030
-613,517	-200,000	0,014	0,144
-612,503	-200,000	-0,014	-0,081
-611,488	-200,000	-0,032	-0,103
-610,474	759,133	0,027	-0,054
-609,459	-2,892	-0,077	-0,039
-608,444	87,962	-0,067	-0,055
-607,430	-21,889	-0,100	0,044
-606,415	-44,497	-0,063	-0,023
-605,401	-4,504	0,063	0,032
-604,386	800,000	0,015	-0,041
-603,371	65,564	0,122	0,091
-602,357	-200,000	0,012	0,040
-601,342	253,100	-0,096	-0,121
-600,328	-200,000	0,008	-0,087
-599,313	-45,214	-0,101	-0,037
-598,298	240,868	-0,053	0,065
-597,284	-42,006	0,062	0,023
-596,269	-200,000	0,001	0,035
-595,255	-81,036	-0,022	-0,005
-594,240	209,387	0,010	0,012
-593,225	18,901	-0,112	0,066
-592,211	-200,000	0,014	-0,085
-591,196	-200,000	-0,004	0,137
-590,182	-13,054	-0,049	0,023
-589,167	800,000	0,057	0,178
-588,152	47,876	-0,075	0,052
-587,138	7,023	-0,108	0,059
-586,123	50,877	-0,070	0,048
-585,109	383,435	-0,030	-0,045
-584,094	81,874	0,110	0,087
-583,079	27,210	-0,060	0,037
-582,065	-97,479	-0,022	-0,004
-581,050	387,069	0,036	-0,055
-580,036	23,760	-0,108	-0,065
-579,021	-154,531	0,092	-0,004
-578,006	800,000	0,053	-0,160
-576,992	-200,000	-0,015	0,052
-575,977	800,000	-0,020	-0,043
-574,963	51,948	0,076	0,053
-573,948	291,849	0,064	0,086
-572,934	-200,000	0,001	0,026
-571,919	-200,000	-0,039	0,141
-570,904	-200,000	0,014	0,103
-569,890	800,000	0,071	-0,167
-568,875	732,798	-0,018	-0,036
-567,861	184,289	-0,062	0,068
-566,846	-26,152	-0,179	0,077
-565,831	166,049	-0,011	0,011
-564,817	67,113	-0,176	-0,132
-563,802	230,909	-0,106	0,128
-562,788	-200,000	0,022	-0,099
-561,773	503,666	0,058	0,099
-560,758	-200,000	-0,016	0,205
-559,744	61,818	0,133	0,098
-558,729	49,423	0,005	-0,004
-557,715	-92,823	-0,040	0,008
-556,700	77,924	-0,074	-0,058
-555,685	-137,608	-0,091	-0,007
-554,671	-179,413	0,062	0,001
-553,656	-79,291	-0,121	-0,030
-552,642	800,000	0,050	0,162
-551,627	-200,000	0,012	-0,046
-550,612	52,602	0,013	-0,009
-549,598	800,000	0,017	0,052
-548,583	-61,002	0,068	0,021
-547,569	67,628	-0,073	-0,055
-546,554	-200,000	-0,006	0,111
-545,539	-200,000	0,008	0,094
-544,525	701,499	-0,009	0,018
-543,510	456,176	-0,041	0,068
-542,496	-200,000	0,004	-0,122
-541,481	66,881	-0,210	-0,157
-540,466	800,000	-0,029	-0,072
-539,452	-108,680	0,142	0,022
-538,437	-200,000	0,007	-0,043
-537,423	49,167	-0,034	0,023
-536,408	-200,000	0,012	0,051
-535,393	331,094	0,068	0,097
-534,379	-149,778	-0,091	-0,005
-533,364	800,000	0,012	-0,030
-532,350	-200,000	-0,012	0,056
-531,335	-200,000	0,007	-0,050
-530,321	800,000	0,041	-0,098
-529,306	-200,000	0,022	-0,095
-528,291	800,000	-0,012	-0,033
-527,277	12,316	-0,025	-0,014
-526,262	412,685	0,052	0,081
-525,248	800,000	-0,020	0,057
-524,233	296,929	0,022	-0,029
-523,218	183,982	-0,072	0,078
-522,204	-33,650	0,072	0,029
-521,189	-67,920	0,062	0,018
-520,175	-200,000	0,005	-0,087
-519,160	332,283	-0,063	-0,090
-518,145	-147,921	0,077	-0,005
-517,131	1,358	0,118	0,062
-516,116	-200,000	-0,007	-0,136
-515,102	-200,000	0,004	-0,106
-514,087	286,261	-0,114	0,152
-513,072	-137,992	-0,162	-0,013
-512,058	-200,000	0,024	-0,209
-511,043	800,000	-0,040	-0,129
-510,029	141,752	-0,113	0,110
-509,014	-200,000	-0,004	-0,046
-507,999	264,616	0,019	0,024
-506,985	-39,074	-0,117	-0,045
-505,970	-200,000	0,023	0,156
-504,956	-62,289	-0,102	0,031
-503,941	800,000	0,098	-0,217
-502,926	612,242	0,023	-0,043
-501,912	73,284	-0,064	-0,049
-500,897	469,721	-0,046	0,076
-499,883	406,941	0,031	0,048
-498,868	-200,000	0,016	-0,183
-497,853	-80,901	0,030	0,007
-496,839	-54,023	0,163	0,054
-495,824	398,330	-0,069	-0,106
-494,810	800,000	-0,027	-0,078
-493,795	800,000	0,044	-0,107
-492,781	586,070	-0,028	-0,051
-491,766	23,396	0,129	-0,078
-490,751	800,000	-0,042	0,105
-489,737	-44,554	-0,123	-0,045
-488,722	-114,374	0,069	0,010
-487,708	-66,032	0,192	-0,056
-486,693	-96,689	0,122	0,023
-485,678	-126,950	-0,080	-0,009
-484,664	-200,000	-0,025	0,098
-483,649	438,347	0,045	0,073
-482,635	-131,514	-0,052	-0,005
-481,620	800,000	-0,015	-0,044
-480,605	269,002	0,038	0,049
-479,591	800,000	-0,015	-0,036
-478,576	-88,870	0,087	-0,019
-477,562	800,000	-0,044	-0,095
-476,547	800,000	-0,005	0,015
-475,532	-200,000	0,008	0,132
-474,518	214,199	-0,029	-0,034
-473,503	-200,000	0,008	-0,095
-472,489	800,000	-0,033	-0,076
-471,474	163,940	0,054	-0,056
-470,459	-70,483	0,127	-0,035
-469,445	-16,068	-0,058	-0,027
-468,430	-200,000	0,011	-0,142
-467,416	348,845	0,081	-0,117
-466,401	38,875	0,042	0,028
-465,386	-200,000	0,001	0,155
-464,372	274,378	-0,108	-0,141
-463,357	489,750	-0,037	0,063
-462,343	800,000	-0,042	-0,119
-461,328	336,661	0,035	0,050
-460,313	-200,000	0,021	0,095
-459,299	-200,000	0,013	0,084
-458,284	-200,000	-0,008	-0,036
-457,270	91,762	-0,043	0,035
-456,255	257,330	-0,135	-0,171
-455,241	800,000	-0,037	-0,115
-454,226	100,530	-0,070	0,059
-453,211	-36,911	-0,107	0,042
-452,197	83,438	0,069	0,055
-451,182	-105,481	0,057	0,009
-450,168	-200,000	0,001	0,012
-449,153	-121,339	-0,140	0,017
-448,138	104,400	-0,099	-0,085
-447,124	-20,766	-0,111	-0,050
-446,109	-167,070	0,048	-0,001
-445,095	800,000	0,039	-0,115
-444,080	-200,000	-0,022	0,090
-443,065	289,140	-0,054	-0,072
-442,051	-75,584	0,074	-0,019
-441,036	800,000	0,032	-0,091
-440,022	-82,647	0,082	-0,019
-439,007	-200,000	0,047	0,163
-437,992	84,920	0,028	-0,023
-436,978	-3,853	0,039	0,020
-435,963	-95,735	-0,031	0,006
-434,949	1,974	0,040	0,021
-433,934	-200,000	-0,068	-0,227
-432,919	-93,354	0,106	0,021
-431,905	303,038	-0,081	-0,110
-430,890	26,454	-0,067	-0,041
-429,876	293,252	-0,083	0,111
-428,861	108,938	0,022	-0,019
-427,846	-200,000	0,011	-0,043
-426,832	-76,325	-0,030	-0,008
-425,817	-13,350	0,070	0,033
-424,803	-83,513	-0,024	-0,006
-423,788	373,143	-0,040	-0,059
-422,773	800,000	-0,003	-0,007
-421,759	55,096	0,059	0,042
-420,744	419,954	0,027	-0,042
-419,730	-158,406	0,112	-0,005
-418,715	-111,855	-0,103	-0,015
-417,701	60,182	-0,089	-0,064
-416,686	-105,768	0,149	0,024
-415,671	0,942	0,016	-0,009
-414,657	-87,802	-0,067	-0,015
-413,642	522,220	0,067	0,116
-412,628	63,464	0,065	0,048
-411,613	127,757	0,008	-0,007
-410,598	624,197	0,030	0,055
-409,584	-150,109	0,062	0,003
-408,569	800,000	-0,055	0,114
-407,555	406,661	-0,017	-0,026
-406,540	117,170	-0,077	-0,069
-405,525	-200,000	-0,004	0,018
-404,511	560,979	-0,024	-0,042
-403,496	335,604	0,079	-0,113
-402,482	-200,000	0,021	-0,109
-401,467	800,000	0,033	0,092
-400,452	-200,000	0,034	0,115
-399,438	-200,000	0,039	0,150
-398,423	123,724	-0,140	0,128
-397,409	-2,346	0,085	-0,043
-396,394	124,158	0,042	0,038
-395,379	800,000	-0,031	0,090
-394,365	-113,788	0,134	-0,019
-393,350	174,795	-0,084	0,089
-392,336	238,073	0,105	0,128
-391,321	-104,830	-0,112	0,019
-390,306	493,553	0,061	-0,102
-389,292	-115,213	-0,038	0,005
-388,277	244,684	0,113	-0,139
-387,263	-132,470	0,022	0,002
-386,248	437,839	0,084	0,134
-385,233	-34,865	0,068	0,027
-384,219	106,781	-0,073	-0,063
-383,204	305,550	0,029	-0,039
-382,190	-67,075	-0,121	0,035
-381,175	72,883	0,121	-0,092
-380,160	84,896	-0,024	0,020
-379,146	81,518	-0,095	0,075
-378,131	181,190	-0,062	0,066
-377,117	-200,000	-0,018	0,175
-376,102	-200,000	0,018	-0,085
-375,088	385,377	-0,026	-0,039
-374,073	800,000	0,038	-0,098
-373,058	-46,005	-0,122	-0,044
-372,044	-200,000	0,013	0,079
-371,029	-157,716	0,124	-0,005
-370,015	-168,949	-0,157	0,004
-369,000	800,000	-0,017	-0,048
-367,985	-101,446	0,101	0,018
-366,971	800,000	0,068	-0,153
-365,956	-123,088	-0,083	0,010
-364,942	-200,000	-0,004	0,100
-363,927	347,060	-0,015	-0,021
-362,912	-19,681	-0,016	0,007
-361,898	647,947	0,042	0,079
-360,883	-61,075	-0,017	-0,005
-359,869	-200,000	0,010	-0,034
-358,854	206,401	-0,006	0,006
-357,839	40,165	0,052	-0,034
-356,825	800,000	0,039	0,098
-355,810	-200,000	0,016	0,122
-354,796	-61,093	-0,115	0,035
-353,781	308,557	0,003	-0,004
-352,766	294,282	0,021	0,028
-351,752	369,321	-0,029	-0,043
-350,737	98,993	0,081	0,068
-349,723	264,293	-0,031	0,039
-348,708	800,000	-0,032	0,071
-347,693	389,401	-0,068	0,103
-346,679	-117,968	0,027	-0,003
-345,664	479,460	-0,139	0,231
-344,650	800,000	0,026	0,059
-343,635	-200,000	0,005	-0,026
-342,620	-117,814	-0,106	0,014
-341,606	560,366	0,050	0,089
-340,591	124,145	-0,063	0,058
-339,577	-200,000	-0,012	-0,197
-338,562	316,701	-0,116	-0,160
-337,548	226,211	-0,041	-0,049
-336,533	157,800	-0,014	-0,014
-335,518	-6,147	0,082	-0,040
-334,504	-78,672	0,125	0,031
-333,489	-119,759	-0,054	0,007
-332,475	-172,382	0,038	-0,001
-331,460	31,569	-0,025	-0,016
-330,445	522,567	0,046	0,079
-329,431	5,427	0,043	0,023
-328,416	775,821	-0,061	0,122
-327,402	91,807	0,083	0,068
-326,387	-104,523	0,156	-0,026
-325,372	64,345	-0,156	-0,115
-324,358	-7,043	-0,073	-0,036
-323,343	133,809	-0,058	-0,055
-322,329	800,000	-0,024	-0,054
-321,314	165,887	-0,036	0,037
-320,299	-38,842	-0,104	0,040
-319,285	-164,044	-0,032	-0,001
-318,270	32,889	-0,063	-0,040
-317,256	339,600	-0,080	-0,114
-316,241	-134,757	-0,041	-0,004
-315,226	-159,593	0,166	-0,007
-314,212	208,547	0,053	-0,061
-313,197	319,209	0,077	-0,107
-312,183	-17,322	-0,137	-0,063
-311,168	54,148	-0,065	0,045
-310,153	-200,000	0,006	0,086
-309,139	179,932	-0,018	0,020
-308,124	56,609	0,163	-0,115
-307,110	-18,451	-0,044	-0,020
-306,095	175,737	0,086	0,091
-305,080	800,000	-0,044	-0,095
-304,066	-200,000	-0,007	-0,052
-303,051	-194,007	-0,054	-0,000
-302,037	-97,757	0,057	-0,011
-301,022	-79,761	-0,106	-0,026
-300,008	-200,000	-0,015	-0,112
-298,993	800,000	0,045	-0,116
-297,978	800,000	-0,054	0,165
-296,964	-27,936	-0,062	0,026
-295,949	800,000	0,012	0,025
-294,935	54,925	-0,018	-0,012
-293,920	-200,000	-0,016	0,073
-292,905	-123,104	0,118	0,014
-291,891	195,342	0,042	0,047
-290,876	-73,592	0,027	0,007
-289,862	120,354	-0,043	-0,039
-288,847	791,463	-0,055	-0,111
-287,832	-200,000	-0,030	-0,160
-286,818	128,649	0,034	0,031
-285,803	-31,557	0,098	0,040
-284,789	-162,037	-0,039	-0,001
-283,774	47,403	0,058	0,039
-282,759	800,000	0,039	-0,098
-281,745	800,000	-0,066	-0,165
-280,730	-200,000	0,022	-0,197
-279,716	800,000	-0,066	-0,170
-278,701	800,000	-0,006	-0,018
-277,686	-200,000	-0,001	0,073
-276,672	-200,000	0,141	-0,000
-275,657	-27,135	0,135	-0,057
-274,643	368,779	-0,103	-0,153
-273,628	588,841	-0,032	-0,058
-272,613	26,540	-0,051	-0,031
-271,599	800,000	0,055	0,118
-270,584	218,277	0,049	-0,057
-269,570	-174,554	0,069	-0,001
-268,555	-75,380	-0,156	0,040
-267,540	565,254	0,058	0,103
-266,526	664,095	-0,046	-0,086
-265,511	-1,458	-0,132	0,068
-264,497	9,671	0,134	0,074
-263,482	303,454	-0,068	0,092
-262,467	-10,437	0,079	0,038
-261,453	-140,995	0,062	0,005
-260,438	59,606	-0,054	-0,039
-259,424	5,387	-0,086	-0,046
-258,409	73,351	-0,079	-0,060
-257,395	-7,317	0,101	0,049
-256,380	-200,000	-0,017	0,104
-255,365	-54,518	-0,061	-0,020
-254,351	-200,000	-0,006	0,089
-253,336	-92,452	0,090	0,018
-252,322	210,004	0,094	0,107
-251,307	-200,000	-0,001	-0,005
-250,292	265,713	-0,067	0,085
-249,278	-200,000	0,002	-0,013
-248,263	190,531	0,016	0,017
-247,249	259,985	0,084	0,106
-246,234	48,629	0,054	-0,037
-245,219	-200,000	-0,006	-0,103
-244,205	218,611	-0,104	0,121
-243,190	800,000	0,012	-0,032
-242,176	-200,000	-0,042	0,140
-241,161	800,000	0,020	-0,044
-240,146	-200,000	-0,042	0,155
-239,132	163,559	-0,074	0,075
-238,117	800,000	-0,036	-0,106
-237,103	-200,000	0,034	-0,160
-236,088	-159,881	0,077	0,003
-235,073	15,484	0,124	0,071
-234,059	-200,000	-0,019	0,097
-233,044	-43,431	0,104	0,038
-232,030	124,433	-0,050	-0,046
-231,015	-130,007	-0,116	0,011
-230,000	128,662	-0,086	-0,080
-228,986	800,000	0,032	-0,076
-227,971	-143,904	0,038	-0,003
-226,957	-200,000	0,005	-0,100
-225,942	479,877	0,057	-0,095
-224,927	-200,000	-0,001	0,055
-223,913	29,746	0,086	-0,053
-222,898	139,118	0,053	-0,051
-221,884	800,000	-0,022	-0,046
-220,869	800,000	0,013	0,038
-219,855	355,799	-0,037	0,054
-218,840	800,000	-0,034	0,106
-217,825	23,308	0,160	0,095
-216,811	-200,000	0,018	-0,078
-215,796	269,555	-0,054	0,070
-214,782	31,710	0,067	-0,042
-213,767	-94,406	0,101	-0,020
-212,752	152,854	-0,109	0,108
-211,738	-200,000	-0,005	-0,132
-210,723	-75,053	0,059	-0,015
-209,709	232,078	-0,068	0,081
-208,694	126,497	-0,056	-0,052
-207,679	21,356	0,039	-0,023
-206,665	-19,948	0,084	-0,037
-205,650	-22,689	0,021	0,009
-204,636	800,000	0,043	0,109
-203,621	5,469	0,167	-0,089
-202,606	258,910	-0,077	0,096
-201,592	-168,600	-0,076	-0,002
-200,577	129,137	0,074	-0,069
-199,563	-13,496	0,169	-0,079
-198,548	-200,000	0,015	-0,093
-197,533	74,080	0,202	0,153
-196,519	-42,911	-0,174	-0,064
-195,504	-200,000	0,002	0,043
-194,490	192,761	0,064	0,070
-193,475	-200,000	-0,017	0,056
-192,460	-200,000	-0,010	0,058
-191,446	800,000	0,032	-0,077
-190,431	187,435	-0,114	0,123
-189,417	697,528	-0,016	0,030
-188,402	221,725	0,038	0,044
-187,387	-200,000	-0,019	-0,096
-186,373	-200,000	-0,021	-0,107
-185,358	800,000	0,060	0,131
-184,344	800,000	0,025	0,052
-183,329	-76,334	0,254	0,064
-182,315	307,694	0,049	0,066
-181,300	-77,683	-0,013	-0,003
-180,285	-200,000	-0,023	0,228
-179,271	-200,000	0,007	-0,038
-178,256	233,059	0,097	-0,115
-177,242	252,323	0,071	-0,088
-176,227	341,587	0,094	-0,134
-175,212	800,000	0,016	0,034
-174,198	-138,111	-0,140	0,011
-173,183	800,000	0,038	0,090
-172,169	-21,380	-0,182	0,080
-171,154	66,850	-0,117	-0,086
-170,139	800,000	0,046	0,121
-169,125	-1,174	0,088	0,045
-168,110	800,000	0,063	0,197
-167,096	3,752	-0,071	-0,037
-166,081	315,196	-0,096	-0,132
-165,066	-142,187	-0,144	0,010
-164,052	7,530	0,054	-0,029
-163,037	-200,000	0,021	0,109
-162,023	227,302	0,070	0,082
-161,008	7,624	-0,028	0,015
-159,993	-98,027	0,085	-0,016
-158,979	-8,156	0,041	-0,020
-157,964	-76,423	-0,035	-0,009
-156,950	-174,624	-0,027	0,001
-155,935	-44,890	0,108	0,039
-154,920	300,623	0,016	-0,021
-153,906	-200,000	-0,030	0,125
-152,891	698,184	-0,056	0,107
-151,877	-46,881	0,138	-0,048
-150,862	-200,000	0,025	0,110
-149,847	-19,050	0,032	0,014
-148,833	241,773	-0,067	0,081
-147,818	-104,995	0,114	-0,019
-146,804	772,180	0,048	0,096
-145,789	112,199	0,090	0,079
-144,775	-81,707	0,044	0,010
-143,760	800,000	0,074	-0,166
-142,745	706,267	-0,032	0,061
-141,731	345,985	-0,076	0,108
-140,716	399,562	-0,015	-0,023
-139,702	-200,000	-0,023	0,184
-138,687	800,000	-0,013	-0,040
-137,672	-200,000	0,000	-0,029
-136,658	123,941	0,055	0,050
-135,643	-200,000	-0,016	0,100
-134,629	744,910	0,083	-0,163
-133,614	-175,145	-0,066	-0,001
-132,599	-76,390	-0,071	0,018
-131,585	-168,649	0,056	-0,002
-130,570	234,799	-0,097	-0,116
-129,556	-89,914	-0,064	0,013
-128,541	345,933	0,062	0,088
-127,526	62,746	0,080	0,058
-126,512	146,608	-0,040	0,039
-125,497	205,019	0,079	0,089
-124,483	0,681	-0,105	-0,054
-123,468	-60,834	-0,062	0,019
-122,453	-55,200	-0,093	-0,030
-121,439	236,847	0,059	0,071
-120,424	800,000	-0,058	0,120
-119,410	-85,417	0,097	-0,022
-118,395	-57,411	-0,013	0,004
-117,380	800,000	-0,030	0,062
-116,366	120,505	-0,081	0,072
-115,351	-19,059	-0,100	-0,045
-114,337	664,851	0,031	-0,058
-113,322	68,283	-0,057	0,042
-112,307	59,513	0,026	0,018
-111,293	-5,671	0,062	0,030
-110,278	-200,000	-0,003	0,223
-109,264	411,920	-0,030	0,046
-108,249	-63,065	-0,103	0,031
-107,234	800,000	0,059	-0,138
-106,220	800,000	0,027	-0,065
-105,205	800,000	0,073	0,167
-104,191	-200,000	0,017	0,066
-103,176	25,872	0,115	0,069
-102,162	-187,161	0,123	-0,001
-101,147	102,666	0,070	-0,059
-100,132	-12,957	0,071	-0,033
-99,118	800,000	-0,043	0,111
-98,103	-200,000	0,029	-0,104
-97,089	-114,256	-0,038	-0,005
-96,074	17,729	0,047	-0,027
-95,059	100,388	-0,040	0,034
-94,045	-4,656	-0,172	-0,085
-93,030	-200,000	0,008	-0,070
-92,016	146,858	-0,039	0,038
-91,001	-200,000	0,008	-0,106
-89,986	554,918	-0,076	0,133
-88,972	800,000	0,037	0,105
-87,957	239,195	0,095	0,115
-86,943	126,418	-0,064	0,058
-85,928	-26,521	0,064	-0,027
-84,913	-200,000	0,004	-0,128
-83,899	800,000	-0,049	0,115
-82,884	132,269	0,076	-0,071
-81,870	238,668	0,036	0,043
-80,855	0,663	0,068	0,035
-79,840	309,602	-0,028	-0,038
-78,826	5,485	-0,051	0,027
-77,811	85,436	0,079	-0,063
-76,797	44,184	0,035	0,023
-75,782	201,308	-0,012	0,014
-74,767	175,138	0,062	0,065
-73,753	-200,000	0,004	0,041
-72,738	-18,929	0,065	-0,029
-71,724	-41,121	-0,162	0,060
-70,709	-200,000	-0,022	-0,079
-69,694	800,000	-0,032	-0,090
-68,680	-200,000	0,014	-0,073
-67,665	16,905	-0,045	-0,025
-66,651	-95,510	0,177	-0,034
-65,636	-35,928	-0,159	-0,062
-64,622	-82,749	0,084	-0,020
-63,607	-200,000	0,007	-0,070
-62,592	-27,010	0,096	-0,040
-61,578	-200,000	0,010	0,105
-60,563	393,824	-0,015	0,023
-59,549	104,016	0,162	-0,137
-58,534	-17,718	-1,829	-0,825
-57,519	800,000	-0,455	-1,233
-56,505	-200,000	-1,206	-4,837
-55,490	-102,685	0,691	0,118
-54,476	800,000	5,286	12,274
-53,461	-200,000	16,359	278,870
-52,446	800,000	707,702	2236,764
-51,432	557,141	1622,213	2830,215
-50,417	122,407	1621,692	1461,143
-49,403	83,994	1282,765	1009,032
-48,388	36,767	1029,108	654,184
-47,373	21,198	991,601	578,839
-46,359	20,073	980,118	568,402
-45,344	18,160	976,010	559,705
-44,330	18,274	974,849	559,393
-43,315	17,974	972,883	557,258
-42,300	17,981	971,922	556,708
-41,286	17,950	970,886	555,990
-40,271	17,870	970,188	555,307
-39,257	17,965	969,071	554,956
-38,242	17,921	968,386	554,398
-37,227	17,868	967,694	553,808
-36,213	17,893	966,810	553,361
-35,198	17,860	965,770	552,638
-34,184	17,928	965,168	552,491
-33,169	17,873	964,195	551,735
-32,154	17,940	963,249	551,389
-31,140	17,952	962,379	550,908
-30,125	17,944	961,659	550,448
-29,111	17,978	960,948	550,129
-28,096	17,943	960,386	549,671
-27,082	17,907	959,663	549,120
-26,067	17,931	958,775	548,669
-25,052	17,888	958,082	548,110
-24,038	17,908	957,285	547,696
-23,023	17,887	956,551	547,186
-22,009	17,905	955,929	546,868
-20,994	17,981	955,122	546,629
-19,979	17,871	954,510	545,902
-18,965	17,846	954,023	545,522
-17,950	17,904	953,493	545,386
-16,936	17,901	952,746	544,926
-15,921	17,856	952,063	544,370
-14,906	17,783	951,415	543,742
-13,892	17,735	950,890	543,268
-12,877	17,794	950,074	542,969
-11,863	17,771	949,599	542,601
-10,848	17,812	948,907	542,315
-9,833	17,893	948,457	542,297
-8,819	17,849	947,842	541,784
-7,804	17,776	947,284	541,209
-6,790	17,789	946,626	540,852
-5,775	17,860	946,130	540,776
-4,760	17,822	945,503	540,273
-3,746	17,832	944,763	539,860
-2,731	17,675	944,093	538,957
-1,717	17,628	943,392	538,388
-0,702	17,668	942,790	538,150
0,313	17,425	942,096	537,794
1,327	20,535	940,464	546,669
2,342	29,719	796,961	487,713
3,356	26,870	449,497	270,781
4,371	-2,354	296,100	149,042
5,386	-6,552	277,265	135,556
6,400	-7,595	271,558	131,782
7,415	-8,148	269,332	130,178
8,429	-7,853	267,822	129,709
9,444	-8,075	266,996	129,093
10,459	-8,126	266,375	128,734
11,473	-8,369	265,773	128,210
12,488	-8,391	265,314	127,957
13,502	-8,563	264,656	127,472
14,517	-8,536	264,225	127,278
15,531	-8,526	263,777	127,060
16,546	-8,544	263,579	126,937
17,561	-8,648	263,096	126,600
18,575	-8,627	262,817	126,473
19,590	-8,947	262,547	126,043
20,604	-8,519	262,094	126,200
21,619	-8,678	261,687	125,849
22,634	-8,715	261,457	125,694
23,648	-8,499	261,033	125,672
24,663	-8,854	260,735	125,201
25,677	-8,852	260,634	125,142
26,692	-8,594	260,264	125,184
27,707	-8,712	259,983	124,933
28,721	-8,769	259,722	124,745
29,736	-8,866	259,463	124,523
30,750	-8,819	259,129	124,394
31,765	-8,685	258,894	124,388
32,780	-8,845	258,839	124,209
33,794	-8,915	258,529	123,987
34,809	-8,947	258,326	123,851
35,823	-9,048	258,139	123,661
36,838	-8,758	257,760	123,724
37,853	-8,964	257,469	123,391
38,867	-9,004	257,309	123,269
39,882	-8,891	257,064	123,240
40,896	-8,967	256,991	123,127
41,911	-9,082	256,624	122,839
42,926	-8,898	256,425	122,894
43,940	-8,809	256,083	122,798
44,955	-9,055	255,961	122,513
45,969	-9,189	255,716	122,267
46,984	-9,343	255,447	121,993
47,999	-9,520	255,189	121,704
49,013	-9,706	254,874	121,381
50,028	-9,759	254,690	121,236
51,042	-9,976	254,430	120,912
52,057	-9,890	254,152	120,844
53,071	-9,958	254,017	120,710
54,086	-9,907	253,841	120,660
55,101	-9,572	253,716	120,881
56,115	-9,418	253,641	120,968
57,130	-8,974	253,585	121,315
58,144	-8,724	253,412	121,439
59,159	-8,529	253,205	121,497
60,174	-8,485	252,897	121,377
61,188	-8,683	252,712	121,106
62,203	-8,711	252,523	120,981
63,217	-8,696	252,118	120,789
64,232	-8,771	252,019	120,666
65,247	-8,581	251,866	120,746
66,261	-8,886	251,775	120,429
67,276	-8,981	251,318	120,118
68,290	-9,395	251,123	119,658
69,305	-9,098	250,729	119,714
70,320	-9,283	250,627	119,497
71,334	-9,076	250,642	119,671
72,349	-8,620	250,436	119,951
73,363	-8,561	250,291	119,922
74,378	-8,569	249,945	119,739
75,393	-8,695	249,863	119,582
76,407	-8,895	249,581	119,265
77,422	-9,040	249,497	119,090
78,436	-8,746	249,304	119,239
79,451	-8,760	249,035	119,087
80,466	-8,902	248,741	118,816
81,480	-9,202	248,400	118,387
82,495	-9,267	248,316	118,282
83,509	-8,984	247,983	118,352
84,524	-9,156	247,955	118,183
85,539	-9,341	247,647	117,869
86,553	-9,152	247,399	117,900
87,568	-9,149	247,189	117,792
88,582	-9,133	247,025	117,717
89,597	-9,252	246,969	117,579
90,611	-9,062	246,737	117,619
91,626	-8,918	246,695	117,709
92,641	-8,752	246,449	117,721
93,655	-8,937	246,206	117,439
94,670	-8,974	246,114	117,354
95,684	-9,087	245,850	117,122
96,699	-9,023	245,739	117,113
97,714	-9,113	245,371	116,852
98,728	-9,182	245,206	116,705
99,743	-9,431	245,068	116,420
100,757	-9,364	244,660	116,272
101,772	-9,390	244,696	116,257
102,787	-9,139	244,505	116,366
103,801	-9,143	244,313	116,260
104,816	-9,162	244,241	116,200
105,830	-8,931	244,119	116,324
106,845	-8,669	243,864	116,409
107,860	-8,925	243,709	116,113
108,874	-8,864	243,397	116,005
109,889	-8,961	243,270	115,853
110,903	-8,930	243,120	115,796
111,918	-9,175	242,929	115,493
112,933	-8,951	242,617	115,520
113,947	-9,025	242,686	115,481
114,962	-8,847	242,400	115,481
115,976	-8,937	242,306	115,352
116,991	-9,018	242,161	115,206
118,006	-8,863	241,928	115,212
119,020	-8,905	241,772	115,093
120,035	-8,839	241,722	115,113
121,049	-8,696	241,621	115,172
122,064	-8,768	241,364	114,981
123,079	-8,767	241,009	114,802
124,093	-9,119	241,003	114,500
125,108	-9,274	240,554	114,150
126,122	-9,453	240,335	113,889
127,137	-9,469	240,219	113,812
128,151	-9,359	240,025	113,800
129,166	-9,164	239,857	113,868
130,181	-9,488	239,791	113,563
131,195	-9,322	239,474	113,538
132,210	-9,082	239,427	113,701
133,224	-8,883	239,213	113,750
134,239	-8,834	239,047	113,702
135,254	-8,875	238,953	113,613
136,268	-8,740	238,650	113,568
137,283	-9,254	238,522	113,081
138,297	-9,357	238,200	112,835
139,312	-9,212	237,987	112,840
140,327	-9,040	238,024	112,988
141,341	-8,754	237,975	113,185
142,356	-8,379	237,754	113,373
143,370	-8,397	237,578	113,264
144,385	-8,345	237,571	113,293
145,400	-8,269	237,374	113,251
146,414	-8,394	237,184	113,049
147,429	-8,514	236,903	112,808
148,443	-8,588	236,962	112,767
149,458	-8,448	236,731	112,759
150,473	-8,522	236,574	112,615
151,487	-8,522	236,116	112,386
152,502	-8,634	236,265	112,358
153,516	-8,143	236,005	112,618
154,531	-8,367	235,665	112,266
155,546	-8,688	235,598	111,968
156,560	-8,695	235,543	111,926
157,575	-8,642	235,189	111,790
158,589	-8,587	235,167	111,814
159,604	-8,308	234,866	111,882
160,619	-8,452	234,866	111,758
161,633	-8,383	234,628	111,689
162,648	-8,236	234,377	111,677
163,662	-8,520	234,284	111,397
164,677	-8,552	234,052	111,252
165,692	-8,537	233,992	111,225
166,706	-8,282	233,901	111,374
167,721	-8,374	233,783	111,235
168,735	-8,216	233,600	111,263
169,750	-8,149	233,464	111,241
170,764	-8,369	233,251	110,956
171,779	-8,558	233,266	110,804
172,794	-8,389	232,999	110,800
173,808	-8,735	232,709	110,380
174,823	-9,099	232,420	109,947
175,837	-9,199	232,231	109,769
176,852	-8,629	232,236	110,209
177,867	-8,476	232,271	110,337
178,881	-8,667	232,125	110,107
179,896	-8,343	231,792	110,193
180,910	-8,472	231,770	110,073
181,925	-8,445	231,428	109,921
182,940	-8,263	231,314	110,000
183,954	-8,211	231,302	110,025
184,969	-8,129	230,985	109,928
185,983	-8,146	231,064	109,943
186,998	-8,112	230,871	109,868
188,013	-7,960	230,609	109,852
189,027	-8,091	230,497	109,687
190,042	-8,103	230,440	109,640
191,056	-8,091	230,180	109,516
192,071	-7,986	230,058	109,530
193,086	-8,033	229,859	109,389
194,100	-8,035	229,841	109,370
195,115	-7,969	229,630	109,310
196,129	-7,866	229,682	109,405
197,144	-4,190	230,790	112,787
198,159	0,069	232,011	116,701
199,173	3,226	232,852	119,584
200,188	3,720	232,816	119,941
201,202	3,478	232,675	119,669
202,217	3,747	232,464	119,759
203,232	3,866	232,358	119,786
204,246	4,033	232,216	119,833
205,261	4,077	232,114	119,804
206,275	4,120	232,019	119,777
207,290	4,085	231,964	119,711
208,304	4,290	231,667	119,706
209,319	4,070	231,469	119,422
210,334	4,147	231,321	119,395
211,348	3,851	231,184	119,084
212,363	3,597	230,761	118,659
213,377	3,221	230,673	118,313
214,392	3,303	230,352	118,201
215,407	3,282	230,423	118,211
216,421	3,477	230,186	118,229
217,436	3,339	229,990	118,011
218,450	3,218	229,861	117,842
219,465	3,044	229,820	117,677
220,480	3,105	229,513	117,555
221,494	3,048	229,524	117,507
222,509	3,232	229,383	117,566
223,523	3,091	229,108	117,306
224,538	3,202	228,989	117,320
225,553	3,201	228,893	117,259
226,567	3,317	228,844	117,313
227,582	3,631	228,695	117,466
228,596	3,870	228,531	117,554
229,611	3,497	228,258	117,118
230,626	3,047	228,198	116,734
231,640	3,275	227,935	116,762
232,655	3,581	227,858	116,946
233,669	3,786	227,885	117,105
234,684	3,860	227,823	117,120
235,699	3,712	227,530	116,846
236,713	3,545	227,353	116,617
237,728	3,115	227,185	116,194
238,742	2,978	227,066	116,018
239,757	3,125	226,872	116,021
240,772	3,333	226,579	116,018
241,786	3,176	226,492	115,844
242,801	3,181	226,422	115,803
243,815	3,460	226,520	116,054
244,830	3,841	226,207	116,170
245,844	3,444	226,093	115,802
246,859	3,350	225,821	115,581
247,874	3,447	225,774	115,620
248,888	3,701	225,604	115,714
249,903	3,569	225,467	115,534
250,917	3,476	225,183	115,309
251,932	3,481	225,051	115,234
252,947	3,152	224,870	114,884
253,961	3,067	224,861	114,805
254,976	3,414	224,609	114,927
255,990	3,569	224,510	114,982
257,005	3,597	224,387	114,930
258,020	3,501	224,343	114,825
259,034	3,775	224,153	114,922
260,049	3,651	224,050	114,767
261,063	3,384	223,849	114,455
262,078	3,511	223,715	114,470
263,093	3,736	223,568	114,553
264,107	3,623	223,475	114,411
265,122	3,692	223,238	114,330
266,136	3,778	223,166	114,348
267,151	3,723	223,025	114,224
268,166	3,446	222,833	113,910
269,180	3,353	222,528	113,674
270,195	3,242	222,459	113,547
271,209	3,270	222,273	113,462
272,224	3,583	222,160	113,627
273,239	3,483	222,102	113,513
274,253	3,363	221,887	113,304
275,268	2,927	221,657	112,854
276,282	3,122	221,602	112,960
277,297	2,982	221,424	112,756
278,312	3,169	221,429	112,886
279,326	3,164	221,343	112,829
280,341	3,389	220,984	112,802
281,355	3,458	220,976	112,838
282,370	3,295	220,726	112,581
283,384	3,123	220,550	112,355
284,399	2,996	220,400	112,175
285,414	3,117	220,232	112,168
286,428	3,453	220,244	112,411
287,443	3,436	220,066	112,297
288,457	3,395	219,993	112,220
289,472	3,167	219,848	111,969
290,487	2,999	219,475	111,646
291,501	3,105	219,157	111,552
292,516	2,876	219,268	111,432
293,530	3,103	219,081	111,492
294,545	3,217	218,974	111,511
295,560	3,246	218,926	111,497
296,574	3,072	218,873	111,334
297,589	3,132	218,690	111,274
298,603	3,490	218,522	111,439
299,618	3,299	218,471	111,265
300,633	3,262	218,330	111,156
301,647	3,661	218,157	111,347
302,662	3,217	218,109	110,991
303,676	3,407	217,912	111,019
304,691	3,519	217,722	110,993
305,706	3,646	217,598	111,012
306,720	3,601	217,461	110,899
307,735	3,429	217,234	110,650
308,749	3,355	217,073	110,504
309,764	3,479	217,094	110,595
310,779	3,628	216,933	110,610
311,793	3,424	216,649	110,309
312,808	3,470	216,582	110,297
313,822	3,445	216,409	110,182
314,837	3,434	216,255	110,086
315,852	3,102	216,171	109,794
316,866	3,211	215,978	109,765
317,881	3,283	215,755	109,694
318,895	3,404	215,754	109,770
319,910	3,566	215,573	109,784
320,925	3,281	215,348	109,456
321,939	2,970	215,198	109,148
322,954	3,123	215,084	109,189
323,968	3,557	215,063	109,479
324,983	3,468	214,961	109,354
325,997	3,438	214,868	109,275
327,012	3,453	214,724	109,203
328,027	3,139	214,593	108,903
329,041	3,457	214,473	109,058
330,056	3,812	214,331	109,229
331,070	3,290	214,033	108,697
332,085	3,259	213,845	108,570
333,100	3,096	213,886	108,465
334,114	3,963	213,665	108,958
335,129	3,450	213,638	108,570
336,143	3,135	213,392	108,213
337,158	3,333	213,345	108,320
338,173	3,531	213,130	108,341
339,187	2,924	212,901	107,786
340,202	2,897	212,842	107,728
341,216	2,970	212,573	107,634
342,231	2,992	212,585	107,646
343,246	3,238	212,302	107,666
344,260	3,172	212,236	107,577
345,275	3,352	212,121	107,635
346,289	3,518	212,054	107,708
347,304	3,437	211,998	107,613
348,319	3,529	211,801	107,568
349,333	3,131	211,688	107,222
350,348	3,263	211,628	107,274
351,362	3,545	211,353	107,323
352,377	3,597	211,211	107,277
353,392	3,442	211,130	107,118
354,406	3,569	211,017	107,141
355,421	195,274	1341,826	1425,361
356,435	155,958	1479,612	1425,385
