DTS Sentinel unit serial number:	SN410029Multiplexer serial number:	ORYXHardware model number:	OX2-SRSoftware version number:	ORYX F/W v4,00 Oryx Data Collector v3.7.2.0data status	okinstallation	B6 Nyhavnadifferential loss correction	single-endedforward channel	channel 2reverse channel	N/Adate	2023/12/10time	07:20:08forward acquisition time	300,00reverse acquisition time	0,00gamma	499,1914k internal	0,3123k external	0,3123temperature offset calibration	1,0000default loss term (dB/km)	0,3820temperature slope calibration	1,0000multiplexer offset coefficient	1,0000multiplexer slope coefficient	1,0000fibre end	0,00T internal ref (°C)	22,62T ext. ref 1 (°C)	6,32T ext. ref 2 (°C)	6,30length (m)	temperature (°C)	Stokes	anti-Stokes-744,400	-48,394	0,090	0,032
-743,385	-144,409	-0,283	0,019
-742,371	120,974	0,216	-0,200
-741,356	-103,924	-0,280	0,048
-740,342	43,532	0,167	0,114
-739,327	140,423	-0,226	0,223
-738,312	-200,000	0,003	-0,070
-737,298	-182,270	-0,251	-0,003
-736,283	394,086	0,036	-0,056
-735,269	257,999	-0,126	0,162
-734,254	800,000	-0,007	0,024
-733,239	-95,292	-0,372	-0,074
-732,225	-52,727	0,101	0,034
-731,210	-123,934	0,122	-0,014
-730,196	156,411	-0,104	-0,107
-729,181	-200,000	0,023	-0,087
-728,167	-200,000	0,017	0,063
-727,152	-200,000	-0,021	-0,166
-726,137	79,740	-0,074	-0,059
-725,123	317,566	0,047	-0,066
-724,108	302,075	-0,082	-0,114
-723,094	48,465	-0,039	-0,027
-722,079	168,189	0,039	-0,041
-721,064	800,000	0,038	0,103
-720,050	191,767	-0,044	0,049
-719,035	579,324	-0,011	0,020
-718,021	-200,000	0,009	-0,043
-717,006	800,000	-0,055	-0,163
-715,991	-200,000	-0,011	-0,125
-714,977	17,991	-0,031	0,018
-713,962	171,462	-0,053	-0,056
-712,948	76,841	0,041	0,032
-711,933	-200,000	0,068	-0,229
-710,918	262,475	-0,062	-0,080
-709,904	302,465	-0,120	0,166
-708,889	-69,829	0,013	-0,004
-707,875	197,933	-0,095	-0,108
-706,860	800,000	0,017	-0,051
-705,845	45,882	0,088	0,060
-704,831	92,035	0,083	-0,069
-703,816	-68,051	-0,066	-0,019
-702,802	-153,363	-0,113	0,006
-701,787	800,000	0,038	-0,080
-700,772	800,000	-0,011	-0,030
-699,758	232,159	-0,038	0,047
-698,743	65,081	0,058	0,044
-697,729	-24,104	-0,145	-0,064
-696,714	407,171	-0,003	-0,004
-695,699	-200,000	-0,027	-0,092
-694,685	-200,000	-0,001	-0,045
-693,670	-155,691	-0,143	0,007
-692,656	-200,000	0,001	-0,061
-691,641	-200,000	-0,017	0,084
-690,627	-176,034	0,098	-0,002
-689,612	-200,000	-0,001	0,061
-688,597	-38,152	-0,055	0,021
-687,583	-18,481	-0,121	-0,056
-686,568	-1,431	0,093	-0,049
-685,554	303,914	-0,103	-0,142
-684,539	-200,000	0,001	-0,048
-683,524	-81,249	0,123	-0,030
-682,510	-200,000	0,001	0,090
-681,495	58,088	-0,069	-0,050
-680,481	800,000	-0,038	-0,111
-679,466	-200,000	0,023	-0,112
-678,451	-18,175	-0,060	-0,028
-677,437	396,324	-0,101	-0,158
-676,422	317,117	-0,055	-0,077
-675,408	275,180	-0,079	0,105
-674,393	-18,075	-0,037	-0,017
-673,378	-200,000	-0,008	-0,041
-672,364	82,392	-0,113	0,091
-671,349	-127,717	0,109	0,012
-670,335	800,000	-0,026	-0,075
-669,320	-200,000	0,005	-0,156
-668,305	324,559	0,044	0,063
-667,291	558,379	-0,050	-0,091
-666,276	800,000	-0,032	0,092
-665,262	-165,975	0,035	0,001
-664,247	-59,958	-0,010	-0,003
-663,232	207,561	-0,029	-0,034
-662,218	-200,000	0,018	0,069
-661,203	18,077	-0,130	0,077
-660,189	126,123	-0,031	0,029
-659,174	166,835	-0,116	-0,122
-658,159	592,376	-0,084	-0,154
-657,145	-200,000	-0,006	-0,145
-656,130	-9,306	-0,105	-0,052
-655,116	64,632	-0,070	0,052
-654,101	-200,000	0,008	0,039
-653,086	-24,594	-0,127	-0,056
-652,072	-200,000	0,018	-0,144
-651,057	-54,426	0,048	-0,016
-650,043	800,000	-0,025	0,066
-649,028	460,320	-0,065	0,109
-648,014	166,066	-0,049	0,052
-646,999	800,000	-0,010	-0,028
-645,984	378,203	0,053	-0,081
-644,970	800,000	0,009	-0,028
-643,955	4,720	-0,010	0,006
-642,941	-128,634	-0,093	-0,010
-641,926	203,859	-0,051	-0,058
-640,911	-142,624	-0,107	-0,008
-639,897	110,138	0,037	0,033
-638,882	-200,000	-0,009	0,037
-637,868	130,866	-0,130	-0,124
-636,853	15,704	0,064	-0,037
-635,838	-117,238	-0,102	-0,014
-634,824	1,185	0,060	-0,032
-633,809	-200,000	0,004	-0,127
-632,795	-20,113	0,094	0,043
-631,780	98,584	-0,120	-0,102
-630,765	-47,112	-0,076	0,027
-629,751	-200,000	0,058	-0,000
-628,736	-53,521	0,110	-0,037
-627,722	336,725	-0,047	0,068
-626,707	86,582	0,060	-0,049
-625,692	-106,004	0,203	0,034
-624,678	514,113	0,055	-0,095
-623,663	183,271	-0,076	-0,084
-622,649	219,743	-0,050	0,059
-621,634	-102,790	-0,042	0,007
-620,619	35,143	-0,045	-0,029
-619,605	-118,739	0,044	0,006
-618,590	-66,603	-0,018	-0,005
-617,576	800,000	0,040	0,088
-616,561	-150,234	0,038	-0,002
-615,546	-200,000	0,001	-0,028
-614,532	800,000	0,033	-0,097
-613,517	-200,000	-0,015	-0,131
-612,503	-12,414	-0,022	-0,011
-611,488	-200,000	-0,002	-0,066
-610,474	-200,000	0,011	0,084
-609,459	23,215	0,071	0,043
-608,444	4,909	0,055	-0,030
-607,430	183,706	0,091	-0,100
-606,415	-200,000	-0,014	-0,136
-605,401	48,052	-0,050	-0,035
-604,386	800,000	-0,006	0,016
-603,371	44,935	0,044	0,030
-602,357	-200,000	0,001	-0,081
-601,342	-45,038	0,088	0,032
-600,328	800,000	0,026	-0,062
-599,313	-63,740	0,051	-0,015
-598,298	-200,000	-0,012	0,067
-597,284	353,615	0,088	-0,130
-596,269	396,303	0,047	-0,073
-595,255	-200,000	-0,002	0,074
-594,240	800,000	-0,053	0,123
-593,225	-118,149	-0,048	0,006
-592,211	800,000	-0,032	0,074
-591,196	-200,000	0,010	0,059
-590,182	144,879	0,132	0,131
-589,167	-200,000	-0,002	0,025
-588,152	-97,264	-0,130	-0,025
-587,138	378,992	0,071	-0,108
-586,123	800,000	0,015	-0,043
-585,109	77,094	0,073	-0,057
-584,094	142,452	-0,034	-0,034
-583,079	52,822	0,024	-0,017
-582,065	297,982	-0,050	-0,069
-581,050	-50,912	0,114	-0,040
-580,036	-87,464	-0,021	-0,005
-579,021	643,658	0,068	-0,130
-578,006	-13,559	-0,120	-0,058
-576,992	-56,032	0,088	-0,029
-575,977	-200,000	-0,029	-0,135
-574,963	-39,085	-0,072	0,028
-573,948	-45,495	0,055	0,020
-572,934	-200,000	-0,003	0,051
-571,919	-129,384	0,035	0,004
-570,904	160,076	-0,102	0,105
-569,890	486,197	0,080	-0,136
-568,875	102,125	0,021	0,018
-567,861	34,477	-0,066	0,043
-566,846	-18,457	0,024	-0,011
-565,831	-100,849	-0,040	0,007
-564,817	183,993	0,011	0,012
-563,802	800,000	0,059	-0,130
-562,788	-113,816	-0,157	0,022
-561,773	0,212	0,096	-0,051
-560,758	-21,207	0,040	0,018
-559,744	800,000	0,054	0,120
-558,729	261,066	0,057	0,073
-557,715	184,634	-0,097	-0,106
-556,700	-46,223	-0,039	-0,014
-555,685	600,668	0,059	-0,108
-554,671	-80,480	0,138	-0,034
-553,656	336,665	0,075	0,109
-552,642	-56,337	-0,072	0,023
-551,627	-200,000	-0,008	0,051
-550,612	90,297	-0,071	0,058
-549,598	-83,184	-0,053	0,013
-548,583	291,056	-0,060	-0,081
-547,569	247,960	-0,093	-0,116
-546,554	-83,065	-0,088	-0,021
-545,539	-169,236	0,036	-0,001
-544,525	319,868	-0,073	0,103
-543,510	-200,000	-0,020	-0,127
-542,496	0,656	-0,105	-0,055
-541,481	-119,036	0,084	0,011
-540,466	-138,888	0,014	0,001
-539,452	-200,000	0,020	-0,079
-538,437	-200,000	-0,029	0,141
-537,423	-200,000	-0,013	0,125
-536,408	287,729	0,021	0,028
-535,393	13,794	0,067	-0,038
-534,379	101,088	-0,062	0,053
-533,364	9,124	-0,128	0,071
-532,350	-109,311	-0,014	0,002
-531,335	-65,391	-0,041	-0,012
-530,321	-60,568	0,037	0,011
-529,306	-200,000	0,001	-0,062
-528,291	-49,559	-0,118	0,041
-527,277	-200,000	0,007	-0,095
-526,262	142,162	-0,007	0,007
-525,248	-12,859	0,089	0,043
-524,233	800,000	-0,034	0,076
-523,218	178,960	-0,074	-0,080
-522,204	-200,000	0,010	-0,074
-521,189	-200,000	0,020	-0,102
-520,175	-200,000	0,006	-0,133
-519,160	-7,702	-0,156	-0,078
-518,145	61,669	0,117	-0,086
-517,131	52,598	-0,028	-0,020
-516,116	470,326	-0,041	-0,069
-515,102	-200,000	0,010	0,053
-514,087	302,085	0,008	-0,011
-513,072	-200,000	0,013	0,062
-512,058	-200,000	-0,012	-0,114
-511,043	-39,515	-0,153	0,059
-510,029	-86,302	-0,037	0,008
-509,014	-41,742	0,011	0,004
-507,999	203,981	-0,043	-0,049
-506,985	800,000	-0,041	0,091
-505,970	-200,000	0,010	0,092
-504,956	333,184	-0,065	0,093
-503,941	-119,975	0,121	0,015
-502,926	386,268	0,047	0,071
-501,912	800,000	-0,017	0,039
-500,897	240,694	0,063	0,078
-499,883	710,575	-0,031	-0,061
-498,868	410,837	0,081	-0,127
-497,853	800,000	0,007	-0,016
-496,839	-66,394	0,154	-0,045
-495,824	-200,000	0,015	-0,055
-494,810	609,038	0,095	0,177
-493,795	-200,000	0,002	-0,070
-492,781	-69,051	-0,160	0,045
-491,766	-113,634	-0,157	-0,022
-490,751	615,968	0,096	-0,178
-489,737	-200,000	-0,019	-0,107
-488,722	-173,229	-0,152	0,003
-487,708	-63,949	0,073	0,022
-486,693	98,923	0,106	0,090
-485,678	473,671	0,068	0,114
-484,664	326,246	-0,021	0,030
-483,649	-177,541	-0,163	-0,003
-482,635	324,501	0,074	-0,105
-481,620	-200,000	-0,000	-0,066
-480,605	800,000	0,009	-0,020
-479,591	-52,891	-0,178	0,060
-478,576	168,380	-0,092	-0,097
-477,562	-200,000	0,020	-0,156
-476,547	800,000	-0,039	-0,086
-475,532	800,000	0,025	-0,062
-474,518	-200,000	-0,025	0,129
-473,503	-14,445	0,108	0,051
-472,489	-0,875	0,032	0,017
-471,474	-200,000	0,000	0,111
-470,459	-52,545	-0,057	-0,019
-469,445	355,665	0,044	-0,065
-468,430	-200,000	-0,019	0,097
-467,416	-51,902	0,071	0,024
-466,401	-200,000	-0,004	-0,045
-465,386	-62,827	-0,059	0,018
-464,372	95,006	0,066	0,056
-463,357	-76,585	-0,033	-0,008
-462,343	131,320	-0,029	0,027
-461,328	368,911	0,051	-0,076
-460,313	301,764	-0,063	0,086
-459,299	-200,000	0,016	0,052
-458,284	800,000	-0,044	0,112
-457,270	-82,401	0,071	0,017
-456,255	-51,042	-0,090	0,031
-455,241	-60,946	-0,164	0,051
-454,226	5,480	0,084	-0,045
-453,211	111,450	0,046	0,041
-452,197	-18,693	0,167	-0,076
-451,182	-200,000	-0,012	-0,072
-450,168	-200,000	0,006	0,061
-449,153	-59,399	0,103	-0,032
-448,138	-7,989	-0,120	0,059
-447,124	-42,653	-0,151	0,056
-446,109	662,493	0,024	-0,045
-445,095	-169,325	0,169	0,004
-444,080	233,505	0,141	0,171
-443,065	359,661	-0,025	0,036
-442,051	-200,000	-0,001	-0,032
-441,036	20,411	-0,037	-0,022
-440,022	159,369	-0,017	-0,017
-439,007	32,792	-0,099	0,063
-437,992	-118,413	0,073	-0,009
-436,978	-100,835	0,151	0,027
-435,963	110,969	-0,053	0,047
-434,949	83,242	-0,131	0,105
-433,934	-17,478	0,080	0,037
-432,919	-200,000	0,009	-0,038
-431,905	48,070	-0,043	-0,030
-430,890	490,774	-0,029	-0,050
-429,876	-200,000	-0,015	0,108
-428,861	-36,158	-0,028	-0,011
-427,846	105,946	0,128	-0,112
-426,832	-200,000	0,017	-0,077
-425,817	72,728	-0,078	-0,060
-424,803	-200,000	-0,000	-0,044
-423,788	496,779	0,079	-0,134
-422,773	-200,000	0,007	0,084
-421,759	-200,000	0,014	0,062
-420,744	-8,591	-0,077	0,038
-419,730	-200,000	-0,001	-0,026
-418,715	800,000	0,022	0,065
-417,701	-200,000	0,010	0,057
-416,686	-52,234	-0,098	-0,033
-415,671	-190,922	0,071	-0,001
-414,657	21,110	0,047	-0,028
-413,642	188,642	0,039	0,043
-412,628	-200,000	0,022	-0,104
-411,613	800,000	-0,048	-0,121
-410,598	-5,918	-0,141	-0,071
-409,584	83,379	0,082	0,066
-408,569	89,115	-0,094	0,077
-407,555	225,273	0,051	-0,061
-406,540	460,379	-0,041	0,067
-405,525	591,275	-0,012	0,021
-404,511	-200,000	0,019	-0,106
-403,496	-22,302	-0,110	-0,049
-402,482	-51,911	0,080	0,027
-401,467	324,232	-0,122	0,172
-400,452	-103,342	0,102	0,018
-399,438	-116,879	-0,146	0,019
-398,423	-200,000	0,006	-0,043
-397,409	-36,827	0,090	-0,035
-396,394	490,012	0,041	-0,068
-395,379	-105,866	0,048	-0,008
-394,365	576,168	0,040	0,072
-393,350	-200,000	0,004	0,077
-392,336	800,000	0,037	0,109
-391,321	-81,678	0,077	-0,018
-390,306	13,789	-0,091	-0,052
-389,292	-41,758	0,075	0,028
-388,277	-129,412	0,058	-0,006
-387,263	800,000	-0,040	-0,091
-386,248	800,000	0,058	0,141
-385,233	-200,000	-0,008	0,115
-384,219	56,471	0,083	0,059
-383,204	800,000	-0,023	-0,050
-382,190	-79,151	-0,195	-0,048
-381,175	509,466	-0,023	0,039
-380,160	800,000	0,012	0,033
-379,146	191,121	0,149	0,165
-378,131	141,016	-0,120	0,117
-377,117	-200,000	-0,021	-0,097
-376,102	800,000	0,031	0,066
-375,088	121,299	0,033	0,030
-374,073	20,300	0,044	-0,026
-373,058	14,175	0,060	0,034
-372,044	-132,149	-0,173	0,016
-371,029	-94,774	-0,021	-0,004
-370,015	-105,609	0,179	0,029
-369,000	209,873	-0,020	0,024
-367,985	-200,000	-0,005	-0,105
-366,971	-75,533	-0,099	0,026
-365,956	800,000	0,012	-0,028
-364,942	-83,199	0,124	-0,029
-363,927	-124,189	0,049	-0,006
-362,912	-81,300	-0,110	-0,026
-361,898	-124,335	-0,043	0,005
-360,883	295,014	0,043	-0,057
-359,869	-31,016	0,034	0,014
-358,854	788,039	0,026	0,053
-357,839	-200,000	0,007	0,034
-356,825	-80,672	-0,110	-0,027
-355,810	-200,000	0,003	0,056
-354,796	-8,995	-0,100	0,049
-353,781	-65,373	0,100	-0,029
-352,766	-200,000	-0,035	0,119
-351,752	339,215	0,087	-0,125
-350,737	-111,220	-0,058	-0,009
-349,723	8,877	-0,067	-0,037
-348,708	62,665	-0,080	0,059
-347,693	26,511	-0,040	-0,025
-346,679	-81,936	-0,221	-0,053
-345,664	-133,408	-0,059	0,005
-344,650	67,057	0,047	-0,035
-343,635	261,989	0,103	0,131
-342,620	24,759	0,119	0,072
-341,606	-200,000	0,029	0,119
-340,591	800,000	-0,033	-0,070
-339,577	-130,062	0,093	-0,009
-338,562	800,000	-0,040	-0,085
-337,548	-200,000	-0,016	0,185
-336,533	-90,683	-0,042	-0,009
-335,518	139,034	-0,086	0,083
-334,504	-60,602	0,149	0,046
-333,489	-200,000	0,009	-0,078
-332,475	-145,050	-0,026	-0,002
-331,460	129,604	-0,106	0,099
-330,445	800,000	0,037	0,096
-329,431	322,966	0,060	-0,084
-328,416	112,017	0,103	0,091
-327,402	11,190	-0,034	-0,019
-326,387	170,704	0,065	0,069
-325,372	-128,622	-0,056	-0,006
-324,358	64,472	-0,092	0,068
-323,343	-200,000	-0,021	0,072
-322,329	-200,000	0,003	0,029
-321,314	-40,006	0,028	-0,011
-320,299	800,000	0,025	-0,073
-319,285	189,281	-0,081	0,089
-318,270	34,300	-0,143	-0,091
-317,256	-149,386	0,089	0,005
-316,241	800,000	-0,055	-0,172
-315,226	-14,571	0,165	0,078
-314,212	78,619	0,044	0,034
-313,197	72,618	-0,093	-0,071
-312,183	-81,972	0,047	-0,011
-311,168	-200,000	0,020	0,096
-310,153	262,243	0,047	-0,059
-309,139	800,000	-0,016	0,044
-308,124	800,000	0,042	-0,104
-307,110	-52,700	-0,165	0,056
-306,095	-170,800	0,026	-0,001
-305,080	-200,000	-0,024	0,115
-304,066	800,000	0,039	-0,089
-303,051	448,467	-0,030	-0,048
-302,037	-200,000	-0,023	0,147
-301,022	658,385	-0,053	-0,101
-300,008	800,000	0,074	0,217
-298,993	-200,000	0,020	0,149
-297,978	800,000	0,021	0,063
-296,964	-200,000	0,033	0,118
-295,949	-200,000	0,040	-0,160
-294,935	47,135	0,117	-0,080
-293,920	500,308	-0,050	-0,085
-292,905	5,427	0,118	0,063
-291,891	-137,048	-0,047	-0,004
-290,876	-152,469	-0,112	-0,006
-289,862	800,000	-0,044	-0,139
-288,847	-104,820	0,072	-0,012
-287,832	-36,320	-0,043	-0,017
-286,818	116,497	0,097	-0,087
-285,803	-52,923	0,192	0,064
-284,789	107,235	0,031	0,027
-283,774	66,393	-0,084	0,063
-282,759	-200,000	0,097	-0,000
-281,745	800,000	-0,030	0,065
-280,730	-50,982	-0,193	0,066
-279,716	-52,468	-0,086	-0,029
-278,701	-168,816	-0,102	0,003
-277,686	-200,000	0,023	0,076
-276,672	-200,000	0,007	0,058
-275,657	800,000	0,034	-0,104
-274,643	800,000	-0,052	-0,116
-273,628	-200,000	-0,013	-0,174
-272,613	148,918	-0,046	-0,045
-271,599	-18,568	0,066	-0,030
-270,584	258,294	0,095	-0,120
-269,570	345,763	0,044	-0,063
-268,555	-19,452	0,086	0,039
-267,540	-46,735	-0,103	-0,037
-266,526	-13,095	0,054	-0,026
-265,511	800,000	-0,037	-0,080
-264,497	-70,443	-0,037	0,010
-263,482	115,664	-0,049	-0,044
-262,467	96,178	-0,053	-0,045
-261,453	213,829	-0,031	-0,035
-260,438	-53,762	-0,078	0,026
-259,424	-66,421	-0,023	-0,007
-258,409	-116,112	-0,053	-0,007
-257,395	96,118	-0,060	0,050
-256,380	122,006	0,042	0,038
-255,365	252,052	0,132	-0,165
-254,351	21,825	0,075	0,044
-253,336	231,964	0,057	0,068
-252,322	733,988	-0,025	-0,050
-251,307	-28,106	0,098	-0,041
-250,292	-200,000	0,012	-0,096
-249,278	16,938	0,099	-0,057
-248,263	800,000	0,046	-0,097
-247,249	158,482	-0,071	0,072
-246,234	-62,063	0,076	-0,023
-245,219	-200,000	0,000	0,063
-244,205	-200,000	-0,001	-0,042
-243,190	-9,812	0,125	-0,061
-242,176	473,741	-0,026	0,042
-241,161	800,000	0,065	0,140
-240,146	168,117	0,045	0,047
-239,132	800,000	0,050	0,114
-238,117	800,000	-0,028	-0,057
-237,103	800,000	0,034	-0,075
-236,088	-98,301	0,119	-0,022
-235,073	-200,000	0,029	0,122
-234,059	800,000	-0,032	-0,082
-233,044	800,000	0,034	0,072
-232,030	800,000	0,066	0,177
-231,015	-200,000	-0,022	-0,177
-230,000	101,120	-0,038	0,032
-228,986	-200,000	0,026	0,091
-227,971	136,871	-0,100	0,096
-226,957	-33,386	0,168	0,068
-225,942	-177,426	-0,089	0,002
-224,927	800,000	0,054	0,160
-223,913	-14,090	-0,146	-0,069
-222,898	-45,715	0,059	0,021
-221,884	800,000	0,031	-0,079
-220,869	418,225	0,100	0,157
-219,855	694,083	0,104	0,201
-218,840	-200,000	-0,040	0,144
-217,825	-200,000	-0,039	0,128
-216,811	-105,331	-0,245	-0,040
-215,796	-200,000	0,017	-0,075
-214,782	625,738	0,048	-0,089
-213,767	-53,245	0,089	-0,030
-212,752	-200,000	0,000	-0,052
-211,738	-42,671	0,084	-0,031
-210,723	104,237	-0,047	0,040
-209,709	33,395	0,044	-0,028
-208,694	49,497	-0,042	-0,029
-207,679	266,448	0,041	-0,053
-206,665	112,053	0,042	-0,037
-205,650	800,000	0,030	0,071
-204,636	800,000	-0,059	0,186
-203,621	38,919	-0,122	-0,080
-202,606	-41,996	0,078	-0,029
-201,592	-143,594	-0,137	-0,009
-200,577	-200,000	-0,017	0,062
-199,563	-200,000	-0,010	-0,064
-198,548	216,473	-0,079	0,092
-197,533	800,000	0,094	0,196
-196,519	419,732	-0,076	0,120
-195,504	258,603	-0,139	-0,175
-194,490	-127,677	-0,112	-0,012
-193,475	22,973	0,120	0,072
-192,460	-200,000	0,004	0,176
-191,446	-72,805	-0,035	0,009
-190,431	28,651	-0,040	0,024
-189,417	-123,562	0,108	0,012
-188,402	800,000	0,030	-0,091
-187,387	-83,474	0,113	0,026
-186,373	433,393	0,014	-0,022
-185,358	-200,000	0,025	-0,159
-184,344	71,976	0,043	-0,032
-183,329	100,661	0,055	-0,046
-182,315	408,032	0,036	0,055
-181,300	-200,000	0,001	0,022
-180,285	800,000	-0,052	-0,159
-179,271	-200,000	-0,029	0,104
-178,256	-200,000	0,009	0,158
-177,242	-15,233	0,052	-0,024
-176,227	218,078	0,050	-0,059
-175,212	-200,000	-0,004	-0,123
-174,198	256,263	-0,065	-0,081
-173,183	168,763	0,049	-0,051
-172,169	-79,735	-0,065	-0,016
-171,154	-200,000	0,005	0,085
-170,139	-5,733	-0,041	0,021
-169,125	40,095	0,121	-0,079
-168,110	-200,000	0,008	-0,055
-167,096	78,416	0,060	0,047
-166,081	800,000	0,023	-0,075
-165,066	47,928	-0,111	-0,076
-164,052	800,000	0,033	0,075
-163,037	-48,728	-0,123	0,043
-162,023	-200,000	-0,002	0,073
-161,008	-200,000	-0,039	0,174
-159,993	-22,569	-0,114	-0,050
-158,979	781,983	0,023	-0,046
-157,964	-164,714	-0,114	0,004
-156,950	180,584	0,051	-0,054
-155,935	638,914	-0,050	-0,094
-154,920	159,606	0,104	0,105
-153,906	-200,000	-0,012	-0,160
-152,891	-142,824	-0,186	-0,013
-151,877	11,575	-0,059	-0,033
-150,862	-200,000	-0,012	-0,061
-149,847	800,000	0,040	-0,107
-148,833	9,173	-0,071	-0,039
-147,818	-52,464	-0,089	-0,030
-146,804	779,790	-0,010	0,021
-145,789	227,194	0,073	0,087
-144,775	212,325	-0,038	0,044
-143,760	-59,843	-0,018	0,006
-142,745	50,362	0,095	-0,065
-141,731	-28,551	0,067	-0,028
-140,716	178,566	0,089	0,095
-139,702	800,000	-0,049	0,113
-138,687	66,336	0,021	0,016
-137,672	-14,397	-0,134	-0,063
-136,658	-105,632	-0,066	-0,011
-135,643	-200,000	0,010	-0,052
-134,629	-91,470	-0,135	-0,028
-133,614	668,130	0,047	-0,088
-132,599	-175,214	0,091	0,002
-131,585	10,430	-0,022	0,012
-130,570	16,888	0,133	-0,077
-129,556	800,000	-0,010	0,022
-128,541	-67,095	-0,198	0,056
-127,526	-200,000	-0,000	0,002
-126,512	140,780	-0,060	-0,058
-125,497	-12,973	0,079	0,037
-124,483	563,408	-0,035	-0,062
-123,468	117,514	0,045	-0,041
-122,453	64,414	0,027	-0,020
-121,439	150,940	0,033	-0,032
-120,424	277,821	0,070	0,091
-119,410	-65,737	-0,065	0,019
-118,395	390,683	0,020	-0,030
-117,380	-190,674	0,058	0,000
-116,366	44,490	-0,015	-0,010
-115,351	-91,242	-0,129	-0,027
-114,337	474,248	-0,055	-0,091
-113,322	-200,000	-0,012	0,093
-112,307	-106,436	-0,082	0,013
-111,293	318,048	0,037	0,051
-110,278	-200,000	0,035	0,167
-109,264	-114,348	-0,100	0,014
-108,249	-200,000	0,021	-0,186
-107,234	800,000	0,054	-0,132
-106,220	-200,000	-0,034	0,137
-105,205	39,808	-0,052	-0,034
-104,191	-200,000	-0,028	-0,135
-103,176	171,259	0,076	-0,080
-102,162	611,268	-0,021	-0,038
-101,147	81,717	-0,057	0,045
-100,132	-136,648	-0,063	-0,005
-99,118	435,384	-0,071	-0,112
-98,103	140,009	-0,068	0,065
-97,089	-91,232	0,148	-0,031
-96,074	-10,800	-0,052	0,025
-95,059	89,623	0,076	0,061
-94,045	-142,896	0,080	-0,006
-93,030	-126,610	-0,032	-0,003
-92,016	800,000	-0,081	-0,167
-91,001	-200,000	0,008	-0,057
-89,986	-62,544	-0,064	0,019
-88,972	-42,953	-0,040	0,015
-87,957	-200,000	0,152	0,000
-86,943	88,284	-0,124	-0,100
-85,928	451,659	-0,036	-0,058
-84,913	-58,207	-0,106	0,033
-83,899	270,597	0,059	0,075
-82,884	-90,977	0,121	-0,025
-81,870	-200,000	0,017	0,082
-80,855	406,303	0,100	-0,154
-79,840	800,000	-0,060	-0,193
-78,826	-51,528	0,059	0,020
-77,811	-200,000	-0,026	-0,142
-76,797	800,000	-0,037	-0,083
-75,782	80,050	-0,039	-0,031
-74,767	482,373	0,017	-0,029
-73,753	380,287	0,098	0,146
-72,738	-132,293	-0,091	-0,008
-71,724	29,065	0,051	0,031
-70,709	800,000	-0,031	0,062
-69,694	-115,035	-0,053	-0,007
-68,680	46,506	0,052	0,035
-67,665	-28,719	0,124	0,052
-66,651	-200,000	0,007	-0,054
-65,636	-60,806	-0,072	-0,022
-64,622	-81,176	0,042	0,010
-63,607	631,478	0,067	-0,124
-62,592	-101,373	-0,139	0,024
-61,578	800,000	0,013	-0,038
-60,563	-200,000	-0,008	-0,154
-59,549	-68,364	-0,107	0,030
-58,534	-120,614	-1,217	-0,148
-57,519	800,000	-0,727	-1,523
-56,505	-200,000	-0,916	-4,318
-55,490	81,942	0,517	-0,406
-54,476	800,000	4,911	11,935
-53,461	-200,000	13,367	253,479
-52,446	-200,000	688,990	2269,747
-51,432	595,966	1623,112	2927,349
-50,417	120,846	1636,310	1476,283
-49,403	73,551	1290,381	979,359
-48,388	38,492	1025,023	661,598
-47,373	24,499	982,786	588,299
-46,359	23,785	972,384	579,708
-45,344	22,876	968,086	574,152
-44,330	22,795	966,717	573,050
-43,315	22,700	965,178	571,808
-42,300	22,658	964,180	571,057
-41,286	22,628	963,362	570,451
-40,271	22,619	962,327	569,785
-39,257	22,633	961,436	569,281
-38,242	22,608	960,634	568,704
-37,227	22,642	959,734	568,256
-36,213	22,601	958,820	567,560
-35,198	22,580	958,103	567,047
-34,184	22,641	957,305	566,748
-33,169	22,599	956,596	566,172
-32,154	22,662	955,513	565,710
-31,140	22,631	954,788	565,160
-30,125	22,679	953,808	564,712
-29,111	22,686	952,996	564,231
-28,096	22,692	952,351	563,846
-27,082	22,639	951,681	563,257
-26,067	22,687	950,757	562,842
-25,052	22,600	950,413	562,335
-24,038	22,634	949,594	561,938
-23,023	22,635	948,924	561,523
-22,009	22,646	948,167	561,087
-20,994	22,703	947,442	560,820
-19,979	22,700	947,053	560,558
-18,965	22,687	946,322	560,059
-17,950	22,727	945,559	559,715
-16,936	22,605	945,152	559,063
-15,921	22,638	944,304	558,644
-14,906	22,559	943,631	557,970
-13,892	22,603	942,777	557,583
-12,877	22,572	942,364	557,219
-11,863	22,570	941,599	556,738
-10,848	22,539	941,457	556,533
-9,833	22,640	940,789	556,436
-8,819	22,613	940,184	555,973
-7,804	22,535	939,572	555,342
-6,790	22,495	938,952	554,826
-5,775	22,632	938,136	554,754
-4,760	22,602	937,557	554,296
-3,746	22,529	937,044	553,740
-2,731	22,419	936,400	552,990
-1,717	22,432	935,587	552,529
-0,702	22,353	934,925	551,867
0,313	22,231	934,253	551,919
1,327	25,186	932,302	560,012
2,342	34,681	796,714	503,871
3,356	32,531	451,961	282,569
4,371	1,816	293,573	152,925
5,386	-2,695	274,454	138,689
6,400	-4,055	268,846	134,582
7,415	-4,474	266,419	132,970
8,429	-4,261	265,191	132,540
9,444	-4,119	264,412	132,268
10,459	-4,260	263,523	131,684
11,473	-4,325	263,075	131,389
12,488	-4,473	262,626	131,020
13,502	-4,541	262,086	130,677
14,517	-4,307	261,578	130,623
15,531	-4,452	261,232	130,307
16,546	-4,335	260,865	130,218
17,561	-4,306	260,493	130,047
18,575	-4,457	260,265	129,786
19,590	-4,305	259,897	129,727
20,604	-4,219	259,579	129,634
21,619	-4,311	259,376	129,438
22,634	-4,275	258,894	129,219
23,648	-4,296	258,568	129,026
24,663	-4,262	258,405	128,963
25,677	-4,477	258,188	128,652
26,692	-4,333	257,782	128,567
27,707	-4,438	257,786	128,464
28,721	-4,283	257,286	128,341
29,736	-4,373	257,051	128,132
30,750	-4,506	256,772	127,864
31,765	-4,338	256,645	127,937
32,780	-4,462	256,318	127,654
33,794	-4,434	256,204	127,611
34,809	-4,338	256,024	127,594
35,823	-4,375	255,661	127,369
36,838	-4,282	255,323	127,271
37,853	-4,384	255,172	127,095
38,867	-4,368	255,060	127,042
39,882	-4,456	254,714	126,782
40,896	-4,589	254,591	126,592
41,911	-4,452	254,396	126,603
42,926	-4,290	253,964	126,519
43,940	-4,530	253,877	126,255
44,955	-4,644	253,668	126,039
45,969	-4,436	253,388	126,071
46,984	-4,682	253,298	125,801
47,999	-4,763	252,924	125,533
49,013	-4,895	252,545	125,219
50,028	-5,013	252,330	124,999
51,042	-5,048	252,048	124,818
52,057	-5,254	251,917	124,563
53,071	-5,257	251,713	124,449
54,086	-5,048	251,594	124,560
55,101	-5,135	251,516	124,435
56,115	-4,974	251,411	124,511
57,130	-4,386	251,207	124,907
58,144	-4,275	250,980	124,878
59,159	-4,245	250,840	124,823
60,174	-4,175	250,557	124,731
61,188	-4,211	250,360	124,591
62,203	-4,208	250,330	124,568
63,217	-4,649	250,253	124,139
64,232	-4,192	249,755	124,273
65,247	-4,209	249,375	124,058
66,261	-4,072	249,169	124,062
67,276	-4,358	249,009	123,727
68,290	-4,762	248,832	123,283
69,305	-4,671	248,554	123,211
70,320	-4,688	248,476	123,148
71,334	-4,596	248,247	123,101
72,349	-4,242	248,122	123,330
73,363	-4,332	247,914	123,139
74,378	-4,302	247,655	123,025
75,393	-4,182	247,488	123,033
76,407	-4,219	247,328	122,911
77,422	-4,334	247,198	122,738
78,436	-4,206	246,937	122,705
79,451	-4,260	246,610	122,487
80,466	-4,597	246,423	122,098
81,480	-4,595	246,227	121,992
82,495	-4,789	246,175	121,792
83,509	-4,560	245,982	121,879
84,524	-4,714	245,743	121,619
85,539	-4,757	245,433	121,419
86,553	-4,686	245,245	121,374
87,568	-4,693	245,129	121,300
88,582	-4,590	245,050	121,337
89,597	-4,761	244,744	121,031
90,611	-4,710	244,685	121,035
91,626	-4,424	244,488	121,165
92,641	-4,254	244,275	121,191
93,655	-4,605	244,184	120,842
94,670	-4,624	243,821	120,636
95,684	-4,579	243,673	120,589
96,699	-4,685	243,591	120,449
97,714	-4,542	243,280	120,404
98,728	-4,571	242,977	120,219
99,743	-4,899	242,872	119,884
100,757	-4,714	242,558	119,871
101,772	-4,477	242,506	120,032
102,787	-4,576	242,355	119,864
103,801	-4,549	242,194	119,797
104,816	-4,292	241,994	119,900
105,830	-4,264	241,967	119,898
106,845	-4,381	241,908	119,762
107,860	-4,328	241,464	119,575
108,874	-4,527	241,292	119,316
109,889	-4,631	241,040	119,095
110,903	-4,475	240,965	119,175
111,918	-4,578	240,749	118,973
112,933	-4,725	240,769	118,851
113,947	-4,544	240,555	118,884
114,962	-4,376	240,352	118,911
115,976	-4,498	240,323	118,785
116,991	-4,527	240,108	118,645
118,006	-4,409	239,723	118,541
119,020	-4,405	239,603	118,474
120,035	-4,599	239,606	118,306
121,049	-4,291	239,490	118,490
122,064	-4,299	239,135	118,297
123,079	-4,516	239,035	118,060
124,093	-4,521	238,777	117,918
125,108	-4,692	238,591	117,676
126,122	-4,815	238,405	117,474
127,137	-4,984	238,283	117,266
128,151	-4,641	237,913	117,352
129,166	-4,641	237,920	117,345
130,181	-4,507	237,671	117,320
131,195	-4,795	237,499	116,992
132,210	-4,618	237,314	117,034
133,224	-4,482	237,276	117,115
134,239	-4,450	237,055	117,021
135,254	-4,577	236,965	116,863
136,268	-4,431	236,676	116,829
137,283	-4,858	236,382	116,328
138,297	-4,821	235,940	116,131
139,312	-4,852	235,961	116,105
140,327	-4,612	236,041	116,328
141,341	-4,169	235,843	116,576
142,356	-4,292	235,822	116,457
143,370	-4,114	235,729	116,543
144,385	-4,223	235,502	116,333
145,400	-4,078	235,236	116,308
146,414	-4,245	235,083	116,088
147,429	-4,152	235,021	116,121
148,443	-4,253	234,757	115,899
149,458	-4,232	234,557	115,808
150,473	-4,195	234,482	115,789
151,487	-4,160	234,164	115,650
152,502	-4,227	234,043	115,527
153,516	-4,226	233,870	115,432
154,531	-4,228	233,809	115,389
155,546	-4,244	233,612	115,269
156,560	-4,131	233,314	115,202
157,575	-4,313	233,220	115,001
158,589	-4,221	232,953	114,932
159,604	-4,060	232,945	115,045
160,619	-4,116	232,774	114,906
161,633	-4,074	232,681	114,884
162,648	-4,250	232,553	114,671
163,662	-4,300	232,325	114,508
164,677	-4,430	232,230	114,348
165,692	-4,166	231,888	114,379
166,706	-4,003	231,909	114,507
167,721	-3,851	231,644	114,485
168,735	-4,281	231,661	114,146
169,750	-4,234	231,400	114,043
170,764	-4,168	231,219	113,996
171,779	-4,129	231,154	113,984
172,794	-4,110	231,049	113,937
173,808	-4,246	230,777	113,686
174,823	-4,509	230,379	113,274
175,837	-4,646	230,165	113,051
176,852	-4,550	230,264	113,165
177,867	-4,336	230,207	113,295
178,881	-4,128	230,020	113,355
179,896	-3,978	229,948	113,427
180,910	-3,954	229,754	113,339
181,925	-4,049	229,459	113,110
182,940	-4,033	229,348	113,057
183,954	-4,355	229,383	112,813
184,969	-4,051	229,035	112,869
185,983	-3,764	228,950	113,040
186,998	-3,992	228,862	112,810
188,013	-3,999	228,647	112,688
189,027	-3,889	228,475	112,679
190,042	-4,048	228,426	112,521
191,056	-3,987	228,159	112,427
192,071	-4,124	227,993	112,229
193,086	-4,159	227,805	112,099
194,100	-4,018	227,685	112,140
195,115	-4,176	227,439	111,886
196,129	-4,554	227,145	111,440
197,144	-1,802	227,989	113,972
198,159	1,718	229,026	117,210
199,173	3,918	229,531	119,164
200,188	4,141	229,525	119,323
201,202	4,282	229,392	119,353
202,217	4,410	229,232	119,357
203,232	4,516	229,216	119,420
204,246	4,667	229,079	119,455
205,261	4,885	228,860	119,498
206,275	4,835	228,865	119,451
207,290	4,889	228,661	119,376
208,304	4,711	228,553	119,172
209,319	4,831	228,387	119,167
210,334	4,940	227,968	119,022
211,348	4,761	227,769	118,770
212,363	4,059	227,676	118,171
213,377	3,742	227,476	117,814
214,392	3,773	227,370	117,773
215,407	3,898	227,135	117,736
216,421	4,306	226,989	117,962
217,436	4,033	226,847	117,669
218,450	3,776	226,495	117,280
219,465	3,813	226,491	117,296
220,480	3,764	226,447	117,225
221,494	3,500	226,134	116,851
222,509	3,821	226,137	117,087
223,523	3,800	226,039	117,010
224,538	3,770	225,813	116,860
225,553	4,054	225,521	116,913
226,567	4,096	225,444	116,895
227,582	4,230	225,463	116,997
228,596	4,254	225,372	116,957
229,611	3,918	225,121	116,562
230,626	4,035	224,706	116,425
231,640	3,714	224,646	116,141
232,655	4,201	224,750	116,553
233,669	4,666	224,723	116,879
234,684	4,673	224,561	116,790
235,699	4,388	224,281	116,419
236,713	4,089	224,085	116,082
237,728	3,984	223,989	115,942
238,742	3,780	223,808	115,685
239,757	3,846	223,605	115,619
240,772	3,826	223,398	115,487
241,786	3,788	223,305	115,400
242,801	4,216	223,167	115,640
243,815	4,403	223,123	115,747
244,830	4,245	222,900	115,502
245,844	4,110	222,704	115,289
246,859	4,146	222,585	115,245
247,874	4,274	222,463	115,267
248,888	4,267	222,318	115,176
249,903	4,026	222,147	114,898
250,917	3,803	222,053	114,672
251,932	3,992	221,832	114,689
252,947	4,087	221,600	114,630
253,961	4,003	221,425	114,466
254,976	3,556	221,531	114,178
255,990	4,083	221,291	114,435
257,005	4,134	221,161	114,396
258,020	4,036	221,137	114,301
259,034	4,315	221,020	114,437
260,049	4,089	220,909	114,202
261,063	4,164	220,535	114,054
262,078	4,312	220,487	114,129
263,093	4,210	220,352	113,973
264,107	4,153	220,213	113,849
265,122	4,240	220,083	113,836
266,136	4,628	220,013	114,076
267,151	4,314	219,880	113,765
268,166	4,051	219,509	113,369
269,180	3,898	219,383	113,181
270,195	3,589	219,326	112,914
271,209	3,971	218,979	113,006
272,224	3,933	219,027	112,993
273,239	4,102	218,859	113,020
274,253	4,041	218,646	112,856
275,268	3,859	218,417	112,594
276,282	3,607	218,370	112,375
277,297	3,677	218,088	112,272
278,312	3,771	218,155	112,365
279,326	3,894	218,101	112,416
280,341	3,988	217,879	112,361
281,355	4,050	217,712	112,310
282,370	4,064	217,488	112,194
283,384	3,790	217,364	111,921
284,399	3,778	217,047	111,739
285,414	3,696	217,108	111,701
286,428	3,786	217,011	111,706
287,443	4,086	216,900	111,857
288,457	4,145	216,862	111,871
289,472	3,833	216,611	111,504
290,487	3,325	216,360	110,998
291,501	3,624	216,094	111,067
292,516	3,385	216,162	110,920
293,530	3,782	216,032	111,130
294,545	3,667	215,890	110,964
295,560	3,768	215,713	110,936
296,574	3,811	215,694	110,948
297,589	3,916	215,491	110,909
298,603	4,243	215,283	111,028
299,618	3,901	215,263	110,761
300,633	4,109	215,206	110,872
301,647	4,273	215,087	110,919
302,662	4,320	214,941	110,867
303,676	4,161	214,957	110,751
304,691	4,174	214,621	110,577
305,706	4,310	214,516	110,611
306,720	4,113	214,306	110,351
307,735	4,052	214,089	110,186
308,749	4,038	213,954	110,097
309,764	3,841	213,888	109,912
310,779	4,305	213,775	110,176
311,793	4,132	213,647	109,977
312,808	4,086	213,491	109,854
313,822	4,108	213,395	109,810
314,837	4,004	213,157	109,604
315,852	3,623	212,940	109,211
316,866	3,917	212,875	109,378
317,881	4,297	212,827	109,613
318,895	4,146	212,619	109,389
319,910	3,936	212,600	109,221
320,925	3,744	212,276	108,908
321,939	3,650	212,038	108,710
322,954	3,541	212,127	108,668
323,968	4,034	212,123	109,006
324,983	3,915	211,894	108,795
325,997	4,312	211,642	108,936
327,012	3,960	211,622	108,667
328,027	4,095	211,575	108,728
329,041	4,519	211,388	108,922
330,056	4,425	211,384	108,844
331,070	4,075	211,033	108,407
332,085	3,740	210,764	108,023
333,100	3,793	210,672	108,004
334,114	4,011	210,615	108,119
335,129	4,082	210,469	108,084
336,143	4,062	210,169	107,906
337,158	3,817	210,220	107,751
338,173	3,827	209,986	107,628
339,187	3,800	209,929	107,571
340,202	3,740	209,667	107,385
341,216	3,458	209,670	107,179
342,231	3,764	209,463	107,278
343,246	3,886	209,366	107,304
344,260	3,694	209,282	107,117
345,275	3,893	209,205	107,207
346,289	4,214	208,984	107,308
347,304	3,924	208,866	107,036
348,319	3,903	208,751	106,953
349,333	4,078	208,583	106,979
350,348	4,108	208,479	106,936
351,362	4,130	208,418	106,911
352,377	4,031	208,286	106,765
353,392	4,192	208,007	106,725
354,406	3,977	207,981	106,553
355,421	193,496	1345,577	1432,596
356,435	154,358	1484,288	1432,724
