DTS Sentinel unit serial number:	SN410029Multiplexer serial number:	ORYXHardware model number:	OX2-SRSoftware version number:	ORYX F/W v4,00 Oryx Data Collector v3.7.2.0data status	okinstallation	B6 Nyhavnadifferential loss correction	single-endedforward channel	channel 2reverse channel	N/Adate	2023/12/09time	17:15:09forward acquisition time	300,00reverse acquisition time	0,00gamma	499,1914k internal	0,3131k external	0,3131temperature offset calibration	1,0000default loss term (dB/km)	0,3820temperature slope calibration	1,0000multiplexer offset coefficient	1,0000multiplexer slope coefficient	1,0000fibre end	0,00T internal ref (°C)	20,98T ext. ref 1 (°C)	4,70T ext. ref 2 (°C)	4,69length (m)	temperature (°C)	Stokes	anti-Stokes-744,400	-147,086	0,030	-0,002
-743,385	-88,020	-0,275	0,061
-742,371	15,536	0,122	0,071
-741,356	235,047	-0,182	0,224
-740,342	405,646	0,071	0,112
-739,327	-125,486	-0,252	-0,028
-738,312	800,000	0,051	-0,108
-737,298	-147,196	-0,318	0,020
-736,283	-47,004	0,148	-0,053
-735,269	48,175	-0,235	0,163
-734,254	366,096	-0,032	0,049
-733,239	-78,912	-0,442	-0,111
-732,225	-142,560	0,147	0,011
-731,210	800,000	0,037	-0,090
-730,196	247,259	-0,057	0,071
-729,181	16,735	0,052	0,031
-728,167	-200,000	0,028	-0,141
-727,152	-200,000	0,027	-0,129
-726,137	800,000	-0,034	-0,083
-725,123	38,179	-0,231	-0,153
-724,108	360,304	-0,055	-0,082
-723,094	-200,000	0,024	-0,110
-722,079	-200,000	-0,037	-0,134
-721,064	-200,000	0,001	-0,028
-720,050	-87,787	-0,095	0,021
-719,035	-17,846	-0,053	0,024
-718,021	-8,001	-0,087	0,043
-717,006	7,616	-0,171	-0,095
-715,991	597,549	-0,062	-0,114
-714,977	106,252	-0,048	0,042
-713,962	-57,235	-0,061	-0,020
-712,948	-48,001	0,053	0,019
-711,933	-200,000	-0,018	-0,101
-710,918	-8,703	-0,123	0,061
-709,904	-136,795	-0,219	0,018
-708,889	9,042	-0,040	-0,022
-707,875	129,215	-0,046	0,044
-706,860	378,385	-0,027	-0,041
-705,845	32,748	0,091	-0,058
-704,831	-183,309	-0,099	-0,001
-703,816	800,000	0,058	-0,132
-702,802	-132,242	-0,144	0,014
-701,787	569,505	-0,085	-0,154
-700,772	-138,877	-0,191	-0,015
-699,758	800,000	0,061	-0,151
-698,743	-153,624	0,151	0,008
-697,729	333,630	0,017	0,024
-696,714	55,980	-0,039	0,028
-695,699	-200,000	0,012	0,074
-694,685	751,605	0,064	-0,129
-693,670	-109,342	-0,163	0,025
-692,656	-200,000	0,020	0,092
-691,641	-200,000	0,011	0,094
-690,627	-200,000	0,002	0,030
-689,612	376,807	-0,029	0,045
-688,597	-64,266	-0,119	0,036
-687,583	568,385	-0,042	-0,077
-686,568	-57,909	-0,105	0,034
-685,554	121,071	0,031	-0,029
-684,539	-52,325	0,073	0,025
-683,524	677,095	0,046	-0,090
-682,510	14,074	0,118	0,068
-681,495	37,816	-0,155	-0,102
-680,481	-122,331	-0,099	0,012
-679,466	277,190	-0,067	-0,089
-678,451	-200,000	-0,026	0,093
-677,437	474,363	0,025	-0,042
-676,422	-4,120	-0,045	0,023
-675,408	30,567	0,061	-0,039
-674,393	24,737	0,062	-0,038
-673,378	37,734	-0,162	-0,107
-672,364	180,164	-0,030	-0,033
-671,349	-200,000	0,022	-0,110
-670,335	-132,372	0,104	-0,010
-669,320	203,857	0,091	0,105
-668,305	-16,526	0,109	0,051
-667,291	94,684	0,048	0,041
-666,276	34,566	0,021	-0,014
-665,262	76,088	-0,073	0,057
-664,247	800,000	-0,066	-0,149
-663,232	-200,000	0,004	0,015
-662,218	-200,000	-0,013	-0,088
-661,203	-102,863	-0,098	0,017
-660,189	-178,683	0,082	-0,001
-659,174	-53,552	-0,083	0,028
-658,159	-200,000	-0,023	-0,132
-657,145	-35,158	-0,118	-0,047
-656,130	62,916	0,075	0,055
-655,116	782,527	-0,066	0,135
-654,101	545,556	0,071	0,127
-653,086	291,269	0,044	0,060
-652,072	-119,469	-0,019	-0,002
-651,057	-129,255	-0,108	0,011
-650,043	175,098	0,041	-0,044
-649,028	244,289	0,030	-0,038
-648,014	215,950	-0,058	-0,069
-646,999	-6,342	-0,143	0,072
-645,984	-133,471	0,143	-0,013
-644,970	800,000	0,020	0,065
-643,955	-200,000	0,016	0,062
-642,941	-133,361	-0,124	0,011
-641,926	-117,805	0,015	-0,002
-640,911	537,032	0,059	0,105
-639,897	-34,155	0,050	0,020
-638,882	-200,000	-0,001	0,052
-637,868	-87,928	-0,049	0,011
-636,853	-200,000	-0,015	0,055
-635,838	336,744	-0,049	-0,070
-634,824	-200,000	0,007	-0,070
-633,809	-173,046	-0,061	-0,001
-632,795	82,276	-0,054	0,043
-631,780	-123,014	0,102	-0,012
-630,765	-77,788	-0,062	-0,016
-629,751	-200,000	-0,008	-0,147
-628,736	82,023	-0,022	-0,017
-627,722	-200,000	-0,003	0,151
-626,707	-200,000	0,014	0,052
-625,692	800,000	0,034	-0,083
-624,678	-18,354	-0,094	0,043
-623,663	304,084	-0,005	0,007
-622,649	13,665	-0,074	-0,042
-621,634	-17,085	-0,080	0,037
-620,619	-200,000	-0,000	-0,093
-619,605	-200,000	-0,001	-0,016
-618,590	63,809	0,045	0,034
-617,576	800,000	-0,035	-0,086
-616,561	-94,442	-0,028	0,006
-615,546	355,052	-0,036	0,054
-614,532	91,849	-0,087	-0,073
-613,517	-33,975	-0,127	0,051
-612,503	88,639	-0,063	-0,052
-611,488	-200,000	-0,003	0,070
-610,474	-200,000	-0,019	0,174
-609,459	800,000	-0,032	0,092
-608,444	-117,359	0,063	0,008
-607,430	54,191	-0,095	0,067
-606,415	-117,539	-0,082	-0,011
-605,401	-118,667	-0,127	0,016
-604,386	-200,000	-0,007	0,100
-603,371	-177,005	0,015	-0,000
-602,357	-104,478	0,036	-0,006
-601,342	268,664	-0,069	0,089
-600,328	169,328	0,057	-0,061
-599,313	-200,000	0,010	0,093
-598,298	-200,000	0,000	-0,083
-597,284	800,000	-0,008	-0,024
-596,269	-87,111	0,105	0,024
-595,255	-200,000	-0,006	-0,155
-594,240	238,058	0,076	-0,093
-593,225	-123,372	0,108	0,013
-592,211	-200,000	0,014	-0,122
-591,196	75,167	0,053	0,041
-590,182	324,389	0,068	0,097
-589,167	13,753	0,061	0,035
-588,152	-148,522	0,163	0,010
-587,138	-96,930	-0,124	0,024
-586,123	-200,000	-0,026	-0,151
-585,109	225,103	0,057	-0,069
-584,094	319,852	-0,028	-0,040
-583,079	66,644	0,205	0,154
-582,065	35,670	0,057	-0,037
-581,050	-101,339	-0,119	0,021
-580,036	-200,000	0,040	-0,135
-579,021	-200,000	0,006	-0,062
-578,006	800,000	-0,021	-0,063
-576,992	800,000	-0,008	0,018
-575,977	117,728	-0,095	-0,087
-574,963	-81,257	0,040	-0,010
-573,948	386,979	0,106	0,162
-572,934	48,062	-0,040	-0,028
-571,919	188,714	-0,002	0,002
-570,904	-78,294	-0,016	0,004
-569,890	800,000	0,019	-0,060
-568,875	-65,966	0,106	-0,031
-567,861	-71,414	0,043	0,012
-566,846	-200,000	-0,011	0,059
-565,831	23,239	0,075	-0,045
-564,817	-200,000	0,025	0,113
-563,802	800,000	-0,032	0,077
-562,788	254,213	-0,078	-0,098
-561,773	800,000	-0,020	0,061
-560,758	-6,286	0,064	0,032
-559,744	800,000	-0,048	-0,111
-558,729	165,805	-0,042	0,044
-557,715	800,000	-0,056	-0,121
-556,700	800,000	-0,024	0,056
-555,685	377,968	0,057	-0,087
-554,671	800,000	0,040	0,121
-553,656	244,231	-0,100	0,125
-552,642	-51,099	0,088	-0,030
-551,627	243,348	-0,040	0,050
-550,612	-126,394	0,074	0,008
-549,598	297,285	-0,039	-0,053
-548,583	-72,023	-0,043	-0,012
-547,569	-160,051	0,038	0,001
-546,554	231,238	0,092	-0,112
-545,539	194,632	0,017	-0,019
-544,525	-186,894	0,069	0,001
-543,510	48,330	0,069	0,048
-542,496	800,000	0,039	0,091
-541,481	-70,675	-0,070	0,019
-540,466	-46,316	0,062	0,022
-539,452	237,312	0,032	0,039
-538,437	249,030	0,015	0,019
-537,423	-200,000	-0,008	0,162
-536,408	35,237	-0,116	-0,075
-535,393	129,133	0,073	0,069
-534,379	-3,270	-0,080	0,041
-533,364	-116,161	-0,036	-0,005
-532,350	-46,393	0,040	0,014
-531,335	176,622	-0,041	0,044
-530,321	800,000	0,052	-0,124
-529,306	136,816	-0,037	-0,036
-528,291	-111,369	-0,094	0,014
-527,277	105,445	-0,048	-0,042
-526,262	-93,486	-0,106	-0,021
-525,248	130,970	0,047	0,045
-524,233	-29,818	0,023	0,010
-523,218	-200,000	0,012	-0,084
-522,204	800,000	0,015	-0,030
-521,189	-169,650	-0,129	-0,003
-520,175	-95,498	-0,057	0,011
-519,160	275,307	0,060	-0,078
-518,145	118,867	0,041	-0,037
-517,131	-200,000	0,030	-0,102
-516,116	779,361	0,038	-0,078
-515,102	-140,467	-0,043	0,003
-514,087	168,649	0,053	-0,056
-513,072	-4,659	-0,075	-0,038
-512,058	-200,000	0,008	0,043
-511,043	-113,622	0,022	0,003
-510,029	-26,082	0,060	0,026
-509,014	-52,812	0,128	0,043
-507,999	-28,487	0,030	0,013
-506,985	-89,495	-0,100	-0,022
-505,970	324,225	-0,051	-0,072
-504,956	-116,499	0,028	-0,004
-503,941	-154,122	0,076	0,004
-502,926	-200,000	-0,005	-0,035
-501,912	-43,592	-0,068	0,025
-500,897	-40,329	-0,048	0,018
-499,883	-31,280	-0,128	0,053
-498,868	-124,437	-0,044	-0,005
-497,853	-145,838	-0,213	0,014
-496,839	221,312	-0,026	-0,031
-495,824	161,172	0,025	0,026
-494,810	672,067	0,014	0,026
-493,795	-176,877	-0,033	-0,001
-492,781	-200,000	0,002	0,047
-491,766	122,451	0,023	0,021
-490,751	-15,674	-0,140	-0,065
-489,737	170,063	0,060	-0,064
-488,722	-37,219	0,059	0,023
-487,708	-42,522	-0,132	-0,049
-486,693	800,000	0,035	0,112
-485,678	-200,000	0,018	0,169
-484,664	149,540	0,044	-0,044
-483,649	800,000	0,018	0,054
-482,635	-93,486	0,064	0,013
-481,620	104,251	-0,069	0,059
-480,605	260,153	-0,068	0,087
-479,591	11,370	-0,146	-0,082
-478,576	-67,036	-0,199	0,057
-477,562	-200,000	0,006	-0,075
-476,547	800,000	-0,065	-0,141
-475,532	-76,198	0,160	0,041
-474,518	-2,300	0,054	-0,028
-473,503	41,831	0,017	0,011
-472,489	-200,000	-0,004	0,184
-471,474	-200,000	-0,002	-0,016
-470,459	58,804	-0,113	0,081
-469,445	172,845	0,072	-0,076
-468,430	-155,927	0,109	-0,005
-467,416	800,000	-0,038	0,095
-466,401	-128,723	0,124	-0,013
-465,386	-27,151	0,210	0,090
-464,372	800,000	0,017	-0,041
-463,357	544,192	-0,037	-0,066
-462,343	-103,926	-0,172	0,029
-461,328	28,635	-0,086	-0,053
-460,313	150,934	-0,140	0,140
-459,299	602,506	0,078	-0,143
-458,284	-87,326	-0,115	-0,026
-457,270	4,480	-0,098	-0,053
-456,255	-200,000	-0,046	-0,159
-455,241	17,687	-0,077	-0,045
-454,226	800,000	-0,067	0,161
-453,211	-200,000	0,009	0,060
-452,197	-73,445	0,060	0,016
-451,182	-137,069	-0,049	-0,004
-450,168	-141,216	0,096	0,007
-449,153	-8,296	-0,052	0,026
-448,138	-51,317	0,077	-0,026
-447,124	166,411	-0,065	0,068
-446,109	-104,953	0,118	-0,020
-445,095	-82,084	0,100	0,024
-444,080	-154,883	0,151	0,007
-443,065	473,236	0,062	0,103
-442,051	80,090	0,055	-0,044
-441,036	182,256	0,012	-0,013
-440,022	-109,795	-0,045	-0,007
-439,007	-28,204	-0,045	-0,019
-437,992	-200,000	-0,013	0,089
-436,978	60,157	-0,013	-0,009
-435,963	153,521	0,033	-0,033
-434,949	-178,963	-0,003	0,000
-433,934	-200,000	0,003	-0,022
-432,919	-200,000	0,025	-0,124
-431,905	-82,395	-0,066	-0,016
-430,890	-25,270	0,170	0,074
-429,876	266,896	-0,085	-0,110
-428,861	-200,000	0,005	0,073
-427,846	90,005	-0,095	0,078
-426,832	15,816	-0,066	0,038
-425,817	299,522	-0,115	-0,156
-424,803	264,741	-0,006	0,008
-423,788	191,147	-0,072	-0,080
-422,773	275,570	0,048	0,062
-421,759	-200,000	-0,004	0,074
-420,744	-200,000	0,014	0,069
-419,730	-200,000	0,010	-0,148
-418,715	-200,000	0,003	-0,119
-417,701	23,830	-0,050	-0,030
-416,686	-93,860	0,068	0,014
-415,671	164,989	0,038	-0,039
-414,657	800,000	-0,026	0,054
-413,642	93,798	0,083	0,069
-412,628	800,000	-0,003	-0,009
-411,613	800,000	0,099	-0,254
-410,598	-200,000	-0,031	-0,102
-409,584	800,000	-0,064	-0,162
-408,569	68,291	0,045	0,034
-407,555	-200,000	0,006	0,103
-406,540	-36,290	0,076	-0,030
-405,525	27,932	0,106	-0,065
-404,511	-59,223	-0,130	0,041
-403,496	-200,000	0,002	0,098
-402,482	-93,673	-0,066	-0,013
-401,467	-28,817	0,109	-0,046
-400,452	800,000	-0,046	-0,131
-399,438	800,000	-0,026	0,078
-398,423	44,374	0,100	-0,067
-397,409	-67,920	0,073	-0,021
-396,394	800,000	-0,043	-0,114
-395,379	32,794	-0,101	0,064
-394,365	-122,613	-0,160	0,019
-393,350	-38,984	0,134	-0,052
-392,336	-75,515	0,016	0,004
-391,321	-200,000	0,006	0,113
-390,306	38,032	0,072	0,047
-389,292	-151,812	0,082	-0,004
-388,277	800,000	0,039	-0,118
-387,263	-103,272	0,110	-0,019
-386,248	35,178	-0,054	-0,034
-385,233	223,798	-0,023	0,028
-384,219	483,851	0,058	-0,097
-383,204	-135,028	-0,044	-0,004
-382,190	13,949	0,142	-0,081
-381,175	-200,000	-0,012	-0,100
-380,160	-200,000	0,054	-0,185
-379,146	-137,448	0,077	-0,006
-378,131	371,144	-0,053	0,079
-377,117	800,000	-0,028	0,064
-376,102	-29,946	0,163	-0,068
-375,088	-52,006	-0,182	-0,062
-374,073	-200,000	0,005	0,162
-373,058	71,844	0,094	0,071
-372,044	93,394	0,037	0,031
-371,029	-123,174	-0,042	-0,005
-370,015	-70,757	0,054	0,015
-369,000	335,252	-0,085	-0,121
-367,985	126,679	-0,080	-0,074
-366,971	-27,933	0,038	0,016
-365,956	324,563	0,080	-0,113
-364,942	-84,860	0,055	0,013
-363,927	114,165	-0,039	-0,035
-362,912	-200,000	-0,004	0,075
-361,898	-55,058	0,074	0,024
-360,883	-101,209	-0,138	-0,025
-359,869	-158,193	-0,150	0,006
-358,854	-89,136	0,163	-0,035
-357,839	-69,098	0,023	-0,007
-356,825	173,945	-0,013	-0,014
-355,810	115,769	-0,076	0,068
-354,796	-200,000	-0,004	-0,069
-353,781	-79,346	-0,092	-0,023
-352,766	-200,000	0,014	-0,077
-351,752	800,000	0,030	0,073
-350,737	-200,000	-0,012	-0,067
-349,723	176,922	0,064	-0,068
-348,708	-200,000	0,001	0,081
-347,693	171,589	0,044	-0,046
-346,679	236,611	-0,064	-0,077
-345,664	-200,000	-0,022	-0,107
-344,650	-127,306	0,104	0,011
-343,635	73,611	-0,072	-0,055
-342,620	393,777	0,074	0,114
-341,606	117,729	0,106	0,095
-340,591	433,665	0,022	0,036
-339,577	224,081	-0,009	-0,010
-338,562	-82,333	-0,051	-0,012
-337,548	-79,456	0,060	-0,015
-336,533	-200,000	0,033	0,128
-335,518	-200,000	-0,004	0,176
-334,504	-65,132	-0,129	-0,038
-333,489	800,000	-0,056	-0,120
-332,475	88,472	-0,052	0,043
-331,460	22,573	-0,099	-0,059
-330,445	174,219	-0,084	-0,089
-329,431	38,516	0,077	0,050
-328,416	-110,962	0,102	0,015
-327,402	800,000	0,033	0,077
-326,387	-153,339	-0,037	-0,002
-325,372	-200,000	0,001	0,051
-324,358	-200,000	0,005	-0,067
-323,343	549,123	-0,066	0,116
-322,329	-111,723	0,137	0,020
-321,314	12,497	0,084	0,047
-320,299	800,000	0,050	0,119
-319,285	-23,117	0,102	-0,045
-318,270	-200,000	-0,014	-0,072
-317,256	-35,476	-0,149	-0,059
-316,241	-20,198	-0,144	0,064
-315,226	48,953	0,078	0,053
-314,212	-199,719	0,217	-0,001
-313,197	-42,066	-0,056	-0,021
-312,183	0,290	-0,152	0,079
-311,168	-29,071	-0,072	0,030
-310,153	-200,000	-0,028	-0,097
-309,139	392,288	-0,070	-0,107
-308,124	335,727	-0,019	-0,027
-307,110	423,477	0,039	-0,062
-306,095	204,327	0,035	-0,039
-305,080	800,000	0,052	0,110
-304,066	-0,451	0,125	0,065
-303,051	-200,000	0,019	-0,090
-302,037	800,000	0,034	-0,070
-301,022	-117,159	0,033	0,004
-300,008	800,000	-0,057	-0,143
-298,993	-200,000	-0,026	0,107
-297,978	-127,139	0,062	0,007
-296,964	800,000	-0,034	-0,071
-295,949	-134,142	0,098	0,009
-294,935	-200,000	-0,025	-0,112
-293,920	-140,417	0,085	0,006
-292,905	205,629	-0,063	0,071
-291,891	-147,510	-0,073	0,004
-290,876	-200,000	0,005	-0,076
-289,862	800,000	-0,072	-0,149
-288,847	-200,000	0,027	0,107
-287,832	-65,346	0,134	-0,039
-286,818	36,487	-0,050	-0,032
-285,803	95,930	0,028	0,024
-284,789	-200,000	-0,008	-0,146
-283,774	-45,025	0,104	-0,038
-282,759	800,000	0,019	-0,039
-281,745	263,377	-0,048	-0,061
-280,730	305,988	0,020	0,028
-279,716	87,724	-0,080	0,064
-278,701	-76,339	-0,060	-0,015
-277,686	-200,000	0,021	0,092
-276,672	800,000	-0,036	0,074
-275,657	107,081	-0,093	-0,080
-274,643	-149,678	-0,160	-0,009
-273,628	567,297	0,063	0,111
-272,613	8,648	0,118	0,065
-271,599	800,000	-0,017	-0,038
-270,584	-200,000	0,005	0,066
-269,570	-35,845	0,100	-0,039
-268,555	-200,000	0,023	0,122
-267,540	55,154	-0,052	0,037
-266,526	274,809	-0,065	-0,084
-265,511	91,720	0,103	0,085
-264,497	600,442	0,071	-0,130
-263,482	-7,200	-0,034	0,017
-262,467	-133,247	-0,086	0,008
-261,453	-72,085	-0,027	0,007
-260,438	-17,691	-0,174	0,079
-259,424	-200,000	0,003	0,091
-258,409	151,127	-0,119	0,118
-257,395	800,000	0,079	-0,190
-256,380	-62,230	-0,117	0,035
-255,365	619,847	0,043	0,079
-254,351	-37,685	0,108	-0,042
-253,336	-69,657	-0,029	-0,008
-252,322	399,818	-0,089	-0,136
-251,307	800,000	-0,059	0,143
-250,292	800,000	0,079	0,184
-249,278	-11,691	-0,134	0,064
-248,263	800,000	0,064	0,165
-247,249	399,551	0,036	0,055
-246,234	-163,662	0,021	-0,001
-245,219	482,404	0,024	0,039
-244,205	574,836	-0,072	0,128
-243,190	66,710	0,129	0,096
-242,176	312,416	0,155	-0,213
-241,161	380,690	-0,106	-0,159
-240,146	535,849	0,024	-0,042
-239,132	-200,000	0,008	0,048
-238,117	800,000	-0,026	-0,068
-237,103	511,838	-0,069	-0,118
-236,088	195,634	0,024	-0,027
-235,073	800,000	0,037	0,100
-234,059	-200,000	0,012	0,039
-233,044	-69,949	0,149	0,041
-232,030	800,000	-0,034	0,082
-231,015	-200,000	-0,001	-0,029
-230,000	-200,000	-0,000	0,027
-228,986	621,550	0,026	0,047
-227,971	67,764	0,047	0,035
-226,957	-15,255	-0,069	0,032
-225,942	-6,335	0,112	0,056
-224,927	-200,000	0,004	-0,036
-223,913	-200,000	0,002	-0,103
-222,898	-67,132	-0,097	-0,028
-221,884	-4,285	-0,024	0,012
-220,869	32,452	-0,108	0,068
-219,855	245,419	0,080	0,098
-218,840	-200,000	-0,005	-0,056
-217,825	96,024	-0,043	-0,035
-216,811	163,443	-0,083	-0,085
-215,796	358,946	-0,160	-0,233
-214,782	-200,000	0,028	-0,111
-213,767	-67,669	0,126	0,036
-212,752	-67,036	0,087	-0,025
-211,738	-79,204	0,089	-0,022
-210,723	-200,000	-0,011	0,119
-209,709	-200,000	-0,017	0,061
-208,694	516,722	0,102	0,173
-207,679	-200,000	-0,012	-0,076
-206,665	180,854	0,054	-0,057
-205,650	87,018	0,080	-0,064
-204,636	-59,071	-0,049	0,015
-203,621	-151,683	0,077	-0,004
-202,606	-95,432	0,056	0,011
-201,592	315,035	0,021	0,029
-200,577	284,576	-0,057	-0,075
-199,563	137,919	0,106	-0,101
-198,548	-200,000	0,015	0,105
-197,533	330,925	-0,070	0,098
-196,519	-97,044	-0,119	0,023
-195,504	-95,349	-0,092	0,018
-194,490	-92,310	-0,099	-0,020
-193,475	-200,000	-0,006	0,021
-192,460	-64,318	0,016	0,005
-191,446	-132,520	0,099	0,009
-190,431	-78,358	0,062	-0,015
-189,417	395,521	0,009	0,014
-188,402	-104,451	-0,168	0,028
-187,387	-200,000	0,016	-0,150
-186,373	-200,000	0,014	-0,147
-185,358	433,697	0,033	-0,052
-184,344	-20,046	0,083	0,037
-183,329	-18,470	-0,094	-0,042
-182,315	0,388	0,155	0,080
-181,300	-117,182	0,052	-0,007
-180,285	-161,264	-0,107	0,004
-179,271	-200,000	-0,007	-0,071
-178,256	-37,206	0,034	0,013
-177,242	277,819	0,078	0,101
-176,227	-95,649	0,147	0,028
-175,212	52,134	-0,045	0,031
-174,198	477,278	0,011	-0,019
-173,183	764,067	-0,028	0,055
-172,169	-83,888	-0,243	-0,056
-171,154	96,078	0,075	0,062
-170,139	489,041	0,085	0,142
-169,125	8,545	-0,093	0,051
-168,110	800,000	0,015	0,030
-167,096	-198,091	0,011	0,000
-166,081	-200,000	-0,007	0,135
-165,066	800,000	-0,064	-0,173
-164,052	-200,000	0,019	-0,089
-163,037	-119,021	0,116	-0,015
-162,023	800,000	0,024	-0,054
-161,008	-200,000	-0,026	0,133
-159,993	800,000	-0,032	0,099
-158,979	67,188	-0,063	-0,047
-157,964	-127,302	0,120	-0,013
-156,950	-200,000	-0,012	-0,160
-155,935	22,223	-0,105	0,062
-154,920	-200,000	0,004	0,176
-153,906	92,239	0,098	0,080
-152,891	-200,000	0,015	0,178
-151,877	800,000	-0,061	-0,143
-150,862	-112,565	0,129	0,019
-149,847	-121,232	0,062	0,007
-148,833	87,791	0,051	0,041
-147,818	-200,000	-0,020	-0,103
-146,804	-80,643	0,092	0,022
-145,789	-200,000	0,011	0,139
-144,775	66,309	-0,031	-0,023
-143,760	-58,959	-0,019	-0,006
-142,745	311,102	0,029	0,039
-141,731	-200,000	0,006	-0,074
-140,716	7,820	0,097	0,053
-139,702	-200,000	-0,004	0,191
-138,687	211,960	0,104	0,120
-137,672	-138,572	-0,134	-0,010
-136,658	-95,632	-0,070	-0,013
-135,643	-76,179	0,068	-0,017
-134,629	-200,000	-0,010	0,052
-133,614	89,565	0,109	0,088
-132,599	-23,195	0,066	0,029
-131,585	52,167	-0,117	0,081
-130,570	19,966	0,091	-0,053
-129,556	128,984	0,110	-0,102
-128,541	-200,000	-0,032	0,172
-127,526	-200,000	-0,011	0,100
-126,512	-29,742	-0,040	0,016
-125,497	-167,807	-0,070	-0,002
-124,483	-51,377	0,073	-0,025
-123,468	-18,736	0,111	-0,050
-122,453	800,000	-0,010	-0,028
-121,439	126,106	-0,048	-0,044
-120,424	564,373	0,055	0,097
-119,410	-200,000	0,024	0,135
-118,395	125,947	0,013	-0,012
-117,380	174,628	0,071	0,075
-116,366	-2,805	0,067	-0,034
-115,351	-200,000	-0,011	0,079
-114,337	70,764	0,064	0,048
-113,322	191,135	0,088	-0,096
-112,307	157,728	-0,093	-0,094
-111,293	334,983	0,070	-0,099
-110,278	463,128	0,054	-0,087
-109,264	-188,812	0,091	-0,001
-108,249	-2,170	-0,029	0,015
-107,234	378,214	0,060	-0,089
-106,220	56,137	0,020	0,014
-105,205	-12,884	0,133	-0,062
-104,191	-94,735	-0,065	0,013
-103,176	-38,597	0,077	-0,029
-102,162	15,126	0,030	-0,017
-101,147	139,111	-0,045	0,043
-100,132	800,000	0,063	-0,192
-99,118	800,000	-0,014	0,041
-98,103	117,694	0,043	0,038
-97,089	-200,000	0,026	-0,094
-96,074	-200,000	-0,006	-0,054
-95,059	-168,665	-0,053	-0,001
-94,045	-200,000	-0,002	0,035
-93,030	-154,494	0,068	-0,003
-92,016	445,054	-0,087	-0,139
-91,001	-200,000	-0,028	0,179
-89,986	119,720	0,052	0,047
-88,972	309,311	0,056	0,076
-87,957	48,191	0,060	-0,041
-86,943	-200,000	0,055	0,000
-85,928	-200,000	0,016	-0,091
-84,913	-200,000	-0,010	-0,042
-83,899	230,629	0,032	-0,038
-82,884	-46,969	-0,179	-0,063
-81,870	-3,593	-0,054	0,027
-80,855	51,033	0,022	0,015
-79,840	-117,807	0,038	-0,005
-78,826	116,469	0,024	-0,021
-77,811	34,731	-0,115	-0,072
-76,797	800,000	-0,032	0,090
-75,782	25,690	0,080	-0,048
-74,767	62,710	0,033	0,024
-73,753	219,609	0,022	-0,026
-72,738	74,886	-0,139	0,106
-71,724	-123,861	-0,124	-0,014
-70,709	800,000	-0,021	-0,055
-69,694	-34,879	0,140	-0,055
-68,680	-200,000	-0,022	0,073
-67,665	-200,000	-0,005	-0,079
-66,651	-9,542	0,097	0,047
-65,636	724,895	-0,060	0,117
-64,622	94,741	0,048	0,039
-63,607	-200,000	0,004	0,023
-62,592	36,224	0,013	-0,008
-61,578	692,415	-0,063	-0,121
-60,563	129,574	-0,079	-0,073
-59,549	-23,653	-0,078	0,034
-58,534	-71,616	-1,486	-0,399
-57,519	800,000	-0,648	-1,396
-56,505	-200,000	-1,204	-4,666
-55,490	-110,847	0,689	-0,102
-54,476	800,000	5,097	11,785
-53,461	-200,000	14,596	261,136
-52,446	-200,000	697,051	2238,009
-51,432	564,757	1623,099	2858,731
-50,417	117,780	1630,529	1453,147
-49,403	74,866	1284,448	977,906
-48,388	37,389	1022,897	654,962
-47,373	23,159	982,245	582,181
-46,359	22,440	971,244	573,286
-45,344	21,281	966,953	566,947
-44,330	21,191	965,547	565,807
-43,315	21,048	964,138	564,494
-42,300	21,040	963,045	563,805
-41,286	21,019	962,157	563,194
-40,271	21,036	961,053	562,582
-39,257	21,059	960,051	562,048
-38,242	21,039	959,236	561,484
-37,227	21,033	958,596	561,067
-36,213	20,974	957,558	560,246
-35,198	20,941	956,772	559,659
-34,184	20,983	955,960	559,298
-33,169	20,943	955,101	558,642
-32,154	20,989	954,306	558,303
-31,140	21,034	953,290	557,831
-30,125	20,999	952,745	557,379
-29,111	21,034	951,828	556,931
-28,096	21,017	951,242	556,513
-27,082	21,059	950,297	556,072
-26,067	21,044	949,586	555,587
-25,052	20,977	948,746	554,857
-24,038	21,014	948,130	554,595
-23,023	20,983	947,583	554,154
-22,009	21,057	946,884	553,959
-20,994	21,058	946,330	553,615
-19,979	21,036	945,803	553,216
-18,965	20,999	945,211	552,728
-17,950	21,076	944,490	552,530
-16,936	20,940	943,858	551,706
-15,921	20,993	943,182	551,457
-14,906	20,902	942,314	550,639
-13,892	20,906	941,768	550,311
-12,877	20,888	941,324	549,972
-11,863	20,916	940,472	549,543
-10,848	20,913	940,154	549,326
-9,833	20,993	939,692	549,287
-8,819	20,958	939,091	548,802
-7,804	20,915	938,310	548,189
-6,790	20,902	937,637	547,732
-5,775	20,950	937,055	547,520
-4,760	20,962	936,455	547,189
-3,746	20,851	935,890	546,487
-2,731	20,688	935,230	545,564
-1,717	20,716	934,530	545,223
-0,702	20,795	933,527	544,865
0,313	20,526	933,076	544,577
1,327	23,521	931,224	552,855
2,342	32,656	794,268	495,807
3,356	30,002	450,399	277,139
4,371	0,113	294,134	151,142
5,386	-4,341	275,203	137,186
6,400	-5,417	269,620	133,392
7,415	-5,756	267,240	131,891
8,429	-5,563	266,006	131,446
9,444	-5,713	265,182	130,891
10,459	-5,718	264,539	130,557
11,473	-5,683	263,975	130,299
12,488	-5,848	263,458	129,883
13,502	-5,979	263,007	129,530
14,517	-6,103	262,642	129,226
15,531	-5,903	262,180	129,168
16,546	-5,980	261,972	128,984
17,561	-5,716	261,369	128,914
18,575	-5,717	261,105	128,772
19,590	-5,973	260,787	128,373
20,604	-5,732	260,438	128,405
21,619	-5,916	260,159	128,092
22,634	-5,944	259,707	127,833
23,648	-5,976	259,382	127,634
24,663	-5,742	259,092	127,688
25,677	-5,856	258,986	127,523
26,692	-5,813	258,677	127,397
27,707	-5,813	258,377	127,238
28,721	-5,906	258,155	127,035
29,736	-5,942	257,791	126,813
30,750	-6,201	257,800	126,576
31,765	-5,955	257,484	126,628
32,780	-5,955	257,166	126,460
33,794	-5,829	256,887	126,422
34,809	-6,089	256,770	126,125
35,823	-5,997	256,488	126,056
36,838	-5,785	255,933	125,958
37,853	-6,139	256,081	125,709
38,867	-5,991	255,741	125,660
39,882	-5,989	255,447	125,506
40,896	-5,959	255,234	125,416
41,911	-5,940	255,076	125,345
42,926	-6,008	254,816	125,146
43,940	-6,235	254,584	124,823
44,955	-6,148	254,291	124,744
45,969	-6,170	254,226	124,682
46,984	-6,327	253,900	124,373
47,999	-6,460	253,599	124,100
49,013	-6,695	253,439	123,805
50,028	-6,635	252,986	123,625
51,042	-6,827	252,947	123,428
52,057	-6,815	252,653	123,284
53,071	-6,689	252,459	123,288
54,086	-6,701	252,331	123,204
55,101	-6,495	252,172	123,294
56,115	-6,355	251,871	123,256
57,130	-5,818	251,838	123,694
58,144	-5,726	251,764	123,725
59,159	-5,939	251,595	123,448
60,174	-5,764	251,274	123,430
61,188	-5,896	251,075	123,207
62,203	-5,821	250,859	123,155
63,217	-5,786	250,563	123,028
64,232	-5,995	250,579	122,846
65,247	-5,909	250,305	122,775
66,261	-5,915	250,016	122,617
67,276	-6,129	249,802	122,318
68,290	-6,278	249,469	122,016
69,305	-6,424	249,221	121,759
70,320	-6,363	249,109	121,745
71,334	-6,130	249,027	121,894
72,349	-5,941	248,903	121,983
73,363	-5,610	248,574	122,093
74,378	-5,859	248,580	121,873
75,393	-5,787	248,167	121,721
76,407	-5,893	248,021	121,548
77,422	-6,019	247,700	121,274
78,436	-5,787	247,670	121,445
79,451	-5,719	247,304	121,312
80,466	-5,993	247,107	120,973
81,480	-6,168	246,785	120,657
82,495	-6,060	246,613	120,653
83,509	-5,997	246,481	120,631
84,524	-6,092	246,336	120,469
85,539	-6,152	246,177	120,329
86,553	-6,182	245,995	120,205
87,568	-6,235	245,762	120,035
88,582	-6,307	245,673	119,921
89,597	-6,152	245,265	119,841
90,611	-6,117	245,233	119,844
91,626	-6,039	245,157	119,862
92,641	-5,840	244,920	119,902
93,655	-5,885	244,626	119,710
94,670	-6,085	244,558	119,498
95,684	-6,093	244,343	119,376
96,699	-5,876	244,123	119,439
97,714	-6,067	243,768	119,095
98,728	-6,183	243,698	118,954
99,743	-6,166	243,467	118,845
100,757	-6,296	243,384	118,686
101,772	-6,264	243,197	118,610
102,787	-6,242	242,955	118,500
103,801	-5,988	242,758	118,604
104,816	-6,024	242,717	118,544
105,830	-6,007	242,616	118,498
106,845	-6,062	242,484	118,378
107,860	-5,980	242,143	118,268
108,874	-6,101	242,007	118,091
109,889	-6,213	241,721	117,848
110,903	-5,989	241,706	118,016
111,918	-6,262	241,535	117,696
112,933	-6,098	241,128	117,622
113,947	-5,969	241,150	117,729
114,962	-6,065	241,011	117,572
115,976	-5,967	240,584	117,434
116,991	-5,738	240,473	117,556
118,006	-5,883	240,401	117,392
119,020	-6,097	240,256	117,135
120,035	-5,908	240,143	117,225
121,049	-5,857	240,004	117,188
122,064	-6,056	239,744	116,888
123,079	-6,044	239,589	116,812
124,093	-5,919	239,233	116,730
125,108	-6,302	239,114	116,349
126,122	-6,317	238,870	116,208
127,137	-6,455	238,793	116,048
128,151	-6,332	238,514	116,002
129,166	-6,213	238,265	115,967
130,181	-6,201	238,235	115,952
131,195	-6,438	238,168	115,717
132,210	-6,262	237,860	115,699
133,224	-6,190	237,886	115,760
134,239	-6,074	237,634	115,721
135,254	-6,086	237,598	115,683
136,268	-6,105	237,217	115,472
137,283	-6,375	236,887	115,083
138,297	-6,435	236,708	114,938
139,312	-6,446	236,550	114,841
140,327	-6,066	236,410	115,069
141,341	-5,709	236,420	115,351
142,356	-5,556	236,257	115,384
143,370	-5,806	236,177	115,135
144,385	-5,550	235,950	115,219
145,400	-5,676	235,778	115,024
146,414	-5,538	235,564	115,019
147,429	-5,587	235,409	114,894
148,443	-5,722	235,249	114,698
149,458	-5,783	235,206	114,618
150,473	-5,688	234,904	114,537
151,487	-5,695	234,762	114,451
152,502	-5,607	234,614	114,440
153,516	-5,524	234,409	114,395
154,531	-5,706	234,254	114,164
155,546	-5,665	234,016	114,071
156,560	-5,830	233,897	113,872
157,575	-5,889	233,772	113,754
158,589	-5,847	233,436	113,613
159,604	-5,693	233,485	113,749
160,619	-5,582	233,254	113,715
161,633	-5,492	233,199	113,749
162,648	-5,667	233,028	113,516
163,662	-5,674	232,849	113,414
164,677	-5,614	232,662	113,360
165,692	-5,767	232,467	113,134
166,706	-5,738	232,427	113,128
167,721	-5,773	232,386	113,070
168,735	-5,724	232,150	112,984
169,750	-5,627	231,863	112,910
170,764	-5,537	231,684	112,883
171,779	-5,594	231,617	112,796
172,794	-5,534	231,549	112,800
173,808	-5,811	231,292	112,447
174,823	-6,258	230,955	111,923
175,837	-6,340	230,695	111,723
176,852	-5,940	230,677	112,017
177,867	-5,840	230,822	112,156
178,881	-5,660	230,625	112,191
179,896	-5,633	230,391	112,089
180,910	-5,482	230,212	112,110
181,925	-5,486	230,024	112,005
182,940	-5,550	229,914	111,891
183,954	-5,439	229,727	111,877
184,969	-5,533	229,596	111,730
185,983	-5,566	229,506	111,650
186,998	-5,477	229,408	111,662
188,013	-5,388	229,102	111,573
189,027	-5,400	228,954	111,481
190,042	-5,322	228,796	111,455
191,056	-5,493	228,566	111,200
192,071	-5,372	228,466	111,235
193,086	-5,432	228,300	111,098
194,100	-5,765	228,289	110,825
195,115	-5,888	227,968	110,565
196,129	-6,367	227,641	110,027
197,144	-3,357	228,474	112,749
198,159	0,690	229,876	116,575
199,173	3,437	230,422	118,975
200,188	3,769	230,379	119,201
201,202	3,804	230,246	119,149
202,217	3,953	230,202	119,231
203,232	4,148	230,026	119,279
204,246	4,468	229,777	119,388
205,261	4,280	229,882	119,286
206,275	4,472	229,642	119,299
207,290	4,432	229,549	119,209
208,304	4,385	229,336	119,051
209,319	4,530	229,135	119,049
210,334	4,379	228,938	118,819
211,348	3,984	228,748	118,407
212,363	3,928	228,487	118,218
213,377	3,808	228,156	117,944
214,392	3,509	228,142	117,696
215,407	3,553	228,050	117,672
216,421	3,641	227,848	117,625
217,436	3,528	227,697	117,449
218,450	3,310	227,542	117,192
219,465	3,323	227,305	117,070
220,480	3,478	227,167	117,107
221,494	3,445	227,149	117,061
222,509	3,545	227,063	117,084
223,523	3,342	226,866	116,817
224,538	3,428	226,622	116,746
225,553	3,306	226,513	116,587
226,567	3,749	226,335	116,822
227,582	4,077	226,248	117,016
228,596	3,997	226,102	116,869
229,611	3,565	225,910	116,431
230,626	3,517	225,743	116,299
231,640	3,486	225,588	116,185
232,655	3,677	225,548	116,298
233,669	4,222	225,457	116,654
234,684	4,320	225,327	116,650
235,699	3,944	225,130	116,254
236,713	3,947	224,879	116,116
237,728	3,758	224,647	115,843
238,742	3,547	224,453	115,574
239,757	3,513	224,363	115,491
240,772	3,498	224,260	115,417
241,786	3,615	224,040	115,382
242,801	3,716	224,089	115,473
243,815	4,063	223,967	115,660
244,830	4,050	223,652	115,478
245,844	3,775	223,537	115,202
246,859	3,434	223,479	114,906
247,874	3,781	223,371	115,100
248,888	3,872	223,172	115,055
249,903	3,555	223,095	114,768
250,917	3,549	222,930	114,668
251,932	3,640	222,715	114,615
252,947	3,488	222,508	114,385
253,961	3,519	222,460	114,374
254,976	3,541	222,268	114,281
255,990	3,895	222,100	114,448
257,005	3,732	222,041	114,286
258,020	3,878	221,872	114,298
259,034	4,021	221,815	114,364
260,049	3,982	221,590	114,209
261,063	3,776	221,481	113,990
262,078	4,062	221,337	114,118
263,093	4,190	221,333	114,200
264,107	4,005	221,086	113,926
265,122	3,958	220,996	113,834
266,136	4,184	220,883	113,933
267,151	4,277	220,685	113,890
268,166	3,808	220,299	113,335
269,180	3,428	220,195	112,991
270,195	3,587	220,176	113,088
271,209	3,561	220,008	112,973
272,224	3,537	219,891	112,885
273,239	3,834	219,598	112,943
274,253	3,623	219,447	112,700
275,268	3,348	219,380	112,453
276,282	3,280	219,299	112,352
277,297	3,030	219,090	112,052
278,312	3,434	218,972	112,277
279,326	3,526	218,748	112,220
280,341	3,530	218,636	112,156
281,355	3,600	218,700	112,229
282,370	3,443	218,501	112,003
283,384	3,348	218,278	111,809
284,399	3,294	218,027	111,630
285,414	3,419	217,875	111,634
286,428	3,520	217,869	111,695
287,443	3,809	217,866	111,893
288,457	4,035	217,524	111,872
289,472	3,585	217,508	111,527
290,487	3,363	217,176	111,186
291,501	3,135	217,024	110,933
292,516	3,360	216,933	111,040
293,530	3,318	216,924	110,994
294,545	3,277	216,718	110,849
295,560	3,517	216,584	110,944
296,574	3,564	216,428	110,889
297,589	3,663	216,264	110,866
298,603	3,464	216,294	110,728
299,618	3,622	215,997	110,680
300,633	3,437	215,999	110,538
301,647	3,876	215,755	110,719
302,662	3,658	215,723	110,536
303,676	3,526	215,573	110,354
304,691	3,787	215,353	110,420
305,706	4,193	215,262	110,654
306,720	4,139	215,118	110,532
307,735	3,717	215,000	110,159
308,749	3,625	214,855	110,009
309,764	3,514	214,817	109,900
310,779	4,025	214,573	110,132
311,793	3,835	214,500	109,948
312,808	4,051	214,140	109,907
313,822	3,911	214,129	109,792
314,837	3,598	213,916	109,450
315,852	3,516	213,799	109,322
316,866	3,544	213,777	109,321
317,881	3,914	213,603	109,486
318,895	3,826	213,490	109,355
319,910	3,588	213,308	109,083
320,925	3,444	213,108	108,869
321,939	3,265	212,944	108,648
322,954	3,363	212,915	108,693
323,968	3,593	212,802	108,789
324,983	3,779	212,714	108,866
325,997	3,910	212,486	108,832
327,012	3,897	212,416	108,778
328,027	3,617	212,241	108,481
329,041	4,121	212,169	108,790
330,056	4,021	212,000	108,623
331,070	3,672	211,803	108,266
332,085	3,254	211,618	107,867
333,100	3,585	211,548	108,056
334,114	3,903	211,315	108,151
335,129	3,670	211,199	107,918
336,143	3,615	211,086	107,812
337,158	3,473	210,961	107,639
338,173	3,602	210,830	107,652
339,187	3,464	210,612	107,435
340,202	3,376	210,525	107,319
341,216	3,267	210,305	107,121
342,231	3,675	210,255	107,371
343,246	3,408	210,270	107,183
344,260	3,631	210,006	107,195
345,275	3,491	209,934	107,051
346,289	3,630	209,771	107,055
347,304	3,644	209,736	107,037
348,319	3,807	209,483	107,012
349,333	3,587	209,379	106,797
350,348	3,771	209,321	106,885
351,362	3,763	209,264	106,841
352,377	3,828	209,119	106,803
353,392	3,539	208,848	106,455
354,406	3,609	208,793	106,466
355,421	194,509	1343,547	1430,434
356,435	155,239	1481,881	1430,518
