DTS Sentinel unit serial number:	SN410029Multiplexer serial number:	ORYXHardware model number:	OX2-SRSoftware version number:	ORYX F/W v4,00 Oryx Data Collector v3.7.2.0data status	okinstallation	B6 Nyhavnadifferential loss correction	single-endedforward channel	channel 2reverse channel	N/Adate	2023/12/10time	04:15:08forward acquisition time	300,00reverse acquisition time	0,00gamma	499,1914k internal	0,3125k external	0,3125temperature offset calibration	1,0000default loss term (dB/km)	0,3820temperature slope calibration	1,0000multiplexer offset coefficient	1,0000multiplexer slope coefficient	1,0000fibre end	0,00T internal ref (°C)	22,14T ext. ref 1 (°C)	6,17T ext. ref 2 (°C)	6,14length (m)	temperature (°C)	Stokes	anti-Stokes-744,400	800,000	0,026	-0,070
-743,385	-135,530	-0,253	-0,022
-742,371	800,000	-0,023	-0,060
-741,356	18,206	-0,190	0,113
-740,342	122,135	0,143	0,133
-739,327	-16,056	-0,187	0,088
-738,312	800,000	0,055	-0,151
-737,298	-41,043	-0,270	0,103
-736,283	-106,382	-0,074	-0,012
-735,269	-23,180	-0,166	0,074
-734,254	-138,264	0,009	0,001
-733,239	-47,054	-0,517	-0,187
-732,225	-84,789	0,246	-0,057
-731,210	491,904	0,067	0,114
-730,196	-140,330	0,038	-0,003
-729,181	-69,159	-0,196	0,056
-728,167	202,452	0,065	0,075
-727,152	26,480	0,091	-0,057
-726,137	-37,900	-0,077	-0,030
-725,123	18,804	-0,105	-0,063
-724,108	-200,000	-0,008	-0,089
-723,094	-200,000	0,026	-0,089
-722,079	-45,307	-0,059	-0,022
-721,064	18,465	0,074	-0,044
-720,050	12,996	0,120	-0,069
-719,035	440,549	0,022	0,036
-718,021	-200,000	-0,018	-0,068
-717,006	-77,371	-0,142	0,037
-715,991	667,972	0,064	-0,123
-714,977	-200,000	-0,052	-0,210
-713,962	-150,878	0,031	0,002
-712,948	-37,297	0,038	-0,015
-711,933	422,545	-0,045	0,073
-710,918	800,000	-0,020	0,059
-709,904	-33,412	-0,197	-0,081
-708,889	-103,969	-0,155	0,027
-707,875	800,000	0,032	0,075
-706,860	-200,000	-0,006	-0,100
-705,845	-200,000	0,030	0,120
-704,831	-200,000	-0,005	0,019
-703,816	-200,000	-0,001	0,021
-702,802	78,202	-0,163	-0,129
-701,787	263,956	-0,133	-0,173
-700,772	-135,559	-0,128	0,011
-699,758	800,000	0,027	0,059
-698,743	-8,903	0,073	-0,036
-697,729	-115,496	-0,008	-0,001
-696,714	100,346	0,073	0,063
-695,699	453,794	0,020	-0,033
-694,685	-86,802	-0,041	-0,009
-693,670	98,380	0,127	-0,109
-692,656	-200,000	0,002	-0,054
-691,641	8,949	-0,109	0,061
-690,627	40,558	0,187	0,125
-689,612	-4,809	-0,041	-0,021
-688,597	276,974	-0,026	0,035
-687,583	124,486	0,063	-0,059
-686,568	800,000	-0,031	-0,095
-685,554	-200,000	-0,024	0,097
-684,539	-46,003	0,225	0,082
-683,524	-19,575	0,136	-0,062
-682,510	49,699	0,053	0,037
-681,495	-200,000	-0,024	0,101
-680,481	-8,048	-0,145	-0,072
-679,466	28,971	-0,053	0,033
-678,451	41,709	0,092	0,062
-677,437	-45,184	-0,078	-0,029
-676,422	-19,828	0,084	-0,039
-675,408	-170,194	-0,161	-0,004
-674,393	-200,000	-0,001	0,023
-673,378	228,047	0,041	0,049
-672,364	119,765	-0,070	0,065
-671,349	800,000	-0,020	-0,053
-670,335	138,074	0,059	0,058
-669,320	-200,000	-0,036	0,144
-668,305	-56,049	0,132	0,043
-667,291	-200,000	0,006	-0,158
-666,276	-16,070	-0,130	0,061
-665,262	800,000	0,034	0,073
-664,247	200,261	-0,047	-0,054
-663,232	-200,000	0,010	0,035
-662,218	553,532	0,025	0,045
-661,203	353,128	-0,037	0,055
-660,189	800,000	0,063	0,140
-659,174	-200,000	0,032	0,122
-658,159	-200,000	-0,014	0,062
-657,145	-200,000	0,009	-0,141
-656,130	-200,000	-0,005	-0,036
-655,116	-200,000	0,009	-0,088
-654,101	-64,675	-0,113	0,034
-653,086	93,547	-0,019	0,016
-652,072	800,000	0,024	0,077
-651,057	250,169	-0,081	-0,102
-650,043	175,837	-0,015	-0,017
-649,028	83,971	-0,058	0,047
-648,014	637,026	0,042	0,080
-646,999	-200,000	-0,009	0,030
-645,984	-200,000	-0,003	0,046
-644,970	-200,000	-0,018	-0,065
-643,955	283,339	-0,069	-0,093
-642,941	-200,000	-0,021	0,138
-641,926	-39,751	-0,079	-0,031
-640,911	460,752	-0,041	0,068
-639,897	483,479	0,037	-0,063
-638,882	-200,000	-0,014	0,133
-637,868	70,149	-0,103	0,079
-636,853	-200,000	0,000	0,068
-635,838	-105,548	0,101	0,017
-634,824	-76,438	0,022	-0,006
-633,809	73,185	-0,144	0,112
-632,795	-122,179	-0,049	-0,006
-631,780	-14,432	-0,087	-0,041
-630,765	8,417	0,048	-0,027
-629,751	800,000	-0,022	-0,054
-628,736	-48,813	-0,129	-0,046
-627,722	99,893	0,033	-0,028
-626,707	87,677	-0,074	-0,060
-625,692	115,944	0,105	0,096
-624,678	138,181	0,030	-0,029
-623,663	-200,000	0,022	-0,108
-622,649	499,191	-0,065	-0,111
-621,634	80,135	0,015	0,012
-620,619	196,164	-0,049	0,056
-619,605	800,000	0,012	-0,027
-618,590	-129,058	0,188	0,019
-617,576	-200,000	-0,025	0,155
-616,561	174,003	-0,123	-0,132
-615,546	131,836	-0,082	-0,079
-614,532	467,476	0,010	0,016
-613,517	-200,000	0,016	-0,110
-612,503	800,000	-0,009	0,025
-611,488	800,000	0,035	-0,078
-610,474	-15,167	0,052	-0,024
-609,459	32,333	0,028	0,018
-608,444	-200,000	0,023	0,109
-607,430	-164,533	-0,169	-0,006
-606,415	13,821	0,014	-0,008
-605,401	-64,953	0,055	-0,016
-604,386	85,851	-0,123	0,100
-603,371	-12,210	-0,023	0,011
-602,357	-200,000	0,004	0,023
-601,342	-35,815	-0,074	0,029
-600,328	245,740	-0,096	-0,120
-599,313	800,000	-0,036	-0,076
-598,298	553,696	-0,025	0,045
-597,284	99,840	-0,064	0,055
-596,269	-129,215	0,201	0,020
-595,255	-200,000	0,015	-0,060
-594,240	435,544	-0,072	-0,116
-593,225	-184,113	-0,146	0,002
-592,211	-200,000	-0,017	-0,117
-591,196	-3,093	-0,097	-0,050
-590,182	99,637	0,050	0,043
-589,167	-84,473	-0,076	0,018
-588,152	105,927	0,045	-0,039
-587,138	-200,000	0,037	-0,124
-586,123	-99,917	0,046	-0,008
-585,109	43,861	0,083	-0,056
-584,094	-200,000	0,005	-0,069
-583,079	-15,050	0,050	-0,024
-582,065	-179,557	-0,067	0,001
-581,050	246,787	0,082	0,103
-580,036	219,140	0,033	0,039
-579,021	-25,669	-0,104	-0,045
-578,006	366,507	-0,097	0,146
-576,992	87,321	0,095	0,077
-575,977	18,723	-0,082	-0,048
-574,963	-73,577	0,069	0,018
-573,948	224,536	0,058	0,069
-572,934	-154,857	-0,178	0,009
-571,919	-144,062	0,027	-0,002
-570,904	800,000	0,044	-0,100
-569,890	-200,000	0,010	0,100
-568,875	-114,164	-0,098	-0,014
-567,861	81,693	0,069	0,055
-566,846	-18,257	-0,101	0,047
-565,831	-36,472	0,061	-0,024
-564,817	-17,603	-0,021	0,010
-563,802	-93,772	-0,064	-0,013
-562,788	-200,000	-0,003	0,019
-561,773	-200,000	0,021	0,164
-560,758	179,774	0,018	-0,020
-559,744	-122,262	0,074	-0,009
-558,729	214,436	-0,086	0,101
-557,715	46,211	0,038	-0,026
-556,700	-76,762	-0,115	0,029
-555,685	109,118	-0,117	-0,104
-554,671	19,625	0,093	0,055
-553,656	345,457	0,024	0,034
-552,642	550,113	0,073	-0,129
-551,627	-200,000	0,005	-0,058
-550,612	39,558	-0,070	0,046
-549,598	800,000	-0,049	-0,141
-548,583	-200,000	0,010	0,115
-547,569	-42,833	0,108	0,040
-546,554	53,228	0,041	-0,029
-545,539	307,909	0,040	0,056
-544,525	800,000	-0,054	0,154
-543,510	-99,143	-0,092	-0,017
-542,496	56,807	-0,063	-0,046
-541,481	800,000	-0,024	-0,074
-540,466	120,590	-0,062	-0,057
-539,452	-108,901	-0,014	0,002
-538,437	-154,116	-0,042	0,002
-537,423	800,000	0,028	0,068
-536,408	49,309	0,094	0,065
-535,393	-10,387	-0,086	0,042
-534,379	800,000	0,067	-0,149
-533,364	-159,827	0,051	0,002
-532,350	503,418	-0,048	0,082
-531,335	800,000	0,019	0,049
-530,321	210,888	0,031	-0,036
-529,306	-200,000	-0,014	-0,084
-528,291	54,624	-0,083	-0,059
-527,277	-67,744	-0,029	0,008
-526,262	-200,000	0,007	0,097
-525,248	800,000	-0,050	0,148
-524,233	-200,000	-0,000	-0,030
-523,218	-200,000	0,017	0,160
-522,204	55,185	-0,075	0,054
-521,189	106,837	0,061	0,054
-520,175	800,000	-0,063	-0,169
-519,160	-200,000	0,010	-0,049
-518,145	-200,000	0,032	-0,151
-517,131	800,000	0,044	0,107
-516,116	-31,775	0,086	-0,035
-515,102	260,821	0,032	0,041
-514,087	-200,000	-0,032	-0,106
-513,072	-16,422	-0,126	-0,059
-512,058	-200,000	0,041	0,152
-511,043	81,363	0,022	-0,017
-510,029	-200,000	-0,028	-0,091
-509,014	-24,171	-0,027	0,012
-507,999	232,469	-0,022	0,027
-506,985	37,002	-0,132	-0,086
-505,970	15,321	-0,070	-0,041
-504,956	-200,000	0,003	-0,059
-503,941	2,408	-0,075	-0,040
-502,926	234,743	0,075	0,092
-501,912	-180,217	0,115	0,002
-500,897	199,941	-0,082	-0,093
-499,883	238,565	0,066	0,081
-498,868	800,000	0,036	-0,085
-497,853	-200,000	-0,007	-0,125
-496,839	-200,000	0,003	0,036
-495,824	14,360	0,137	-0,079
-494,810	266,169	-0,099	0,127
-493,795	-81,050	-0,247	-0,060
-492,781	-200,000	-0,003	0,027
-491,766	473,599	-0,065	-0,108
-490,751	218,220	-0,080	-0,094
-489,737	-0,386	-0,048	-0,025
-488,722	92,864	-0,074	-0,061
-487,708	186,319	-0,078	0,086
-486,693	364,716	0,058	0,086
-485,678	-200,000	0,006	0,067
-484,664	-200,000	-0,013	-0,099
-483,649	-200,000	-0,016	0,068
-482,635	148,351	-0,101	0,101
-481,620	-144,196	0,024	-0,002
-480,605	-200,000	0,022	-0,094
-479,591	129,549	0,107	0,101
-478,576	-200,000	0,016	-0,069
-477,562	-10,933	-0,059	0,029
-476,547	800,000	-0,038	-0,113
-475,532	-200,000	-0,017	-0,155
-474,518	18,786	-0,021	0,013
-473,503	-24,357	0,184	-0,081
-472,489	227,654	0,121	0,146
-471,474	33,633	-0,050	0,032
-470,459	214,741	-0,054	0,063
-469,445	516,301	-0,030	-0,051
-468,430	-200,000	-0,014	-0,068
-467,416	-74,129	-0,111	-0,029
-466,401	122,520	0,067	-0,061
-465,386	-65,062	-0,248	-0,073
-464,372	154,469	-0,107	0,109
-463,357	-200,000	-0,002	-0,051
-462,343	800,000	-0,045	-0,107
-461,328	-12,723	0,088	0,042
-460,313	-51,055	-0,041	0,014
-459,299	-200,000	0,006	0,026
-458,284	688,120	0,025	0,048
-457,270	-165,901	-0,077	0,002
-456,255	800,000	-0,050	-0,150
-455,241	270,160	0,062	0,081
-454,226	-200,000	-0,009	0,106
-453,211	800,000	0,028	0,063
-452,197	28,146	0,052	0,032
-451,182	-200,000	0,036	0,140
-450,168	76,361	-0,018	0,014
-449,153	650,010	-0,055	-0,105
-448,138	-200,000	-0,003	-0,115
-447,124	294,009	-0,075	0,101
-446,109	-166,000	0,122	0,004
-445,095	208,749	0,106	-0,123
-444,080	-140,747	-0,140	-0,011
-443,065	312,495	-0,077	-0,107
-442,051	-53,329	0,050	-0,017
-441,036	-118,100	-0,073	-0,009
-440,022	-126,564	-0,171	0,018
-439,007	120,583	-0,058	0,053
-437,992	212,383	0,066	0,077
-436,978	-44,104	-0,118	0,044
-435,963	-200,000	-0,005	0,136
-434,949	224,639	0,066	0,079
-433,934	-23,368	-0,144	0,063
-432,919	203,715	-0,048	-0,054
-431,905	-87,365	0,051	0,011
-430,890	-128,500	0,172	0,018
-429,876	-194,969	-0,073	0,000
-428,861	347,703	0,104	-0,151
-427,846	-52,652	-0,046	-0,015
-426,832	800,000	0,027	-0,060
-425,817	-66,401	0,076	-0,022
-424,803	-200,000	0,020	-0,157
-423,788	50,457	0,087	0,060
-422,773	18,548	0,119	0,070
-421,759	38,172	-0,046	-0,030
-420,744	-200,000	-0,006	0,143
-419,730	-104,016	-0,035	0,006
-418,715	800,000	-0,013	-0,035
-417,701	-200,000	0,008	0,101
-416,686	-192,113	-0,091	-0,001
-415,671	665,864	0,013	-0,025
-414,657	-200,000	0,007	0,119
-413,642	800,000	-0,038	0,102
-412,628	-106,041	0,052	-0,009
-411,613	800,000	-0,041	-0,097
-410,598	-1,223	0,037	-0,019
-409,584	-44,643	-0,074	0,027
-408,569	149,661	0,017	-0,017
-407,555	-142,134	-0,114	0,008
-406,540	-36,909	-0,038	0,015
-405,525	366,766	0,017	-0,025
-404,511	-34,003	-0,106	-0,043
-403,496	235,168	-0,066	0,080
-402,482	800,000	0,013	-0,039
-401,467	-100,434	0,063	-0,011
-400,452	800,000	0,062	0,155
-399,438	-72,034	0,014	-0,004
-398,423	-64,857	0,089	-0,026
-397,409	27,690	-0,050	-0,031
-396,394	372,837	0,041	-0,062
-395,379	-200,000	-0,041	0,138
-394,365	-144,077	0,107	0,007
-393,350	-122,166	0,098	0,012
-392,336	502,074	-0,040	0,069
-391,321	-71,530	0,069	0,019
-390,306	229,357	0,036	-0,043
-389,292	-136,176	-0,118	-0,010
-388,277	-153,339	0,122	-0,006
-387,263	2,042	0,052	-0,028
-386,248	-200,000	-0,001	0,135
-385,233	306,618	-0,057	0,078
-384,219	139,440	-0,051	0,050
-383,204	-7,066	-0,116	-0,057
-382,190	-89,387	-0,137	-0,029
-381,175	603,842	-0,005	0,009
-380,160	-200,000	0,004	0,046
-379,146	22,068	0,127	0,076
-378,131	800,000	-0,029	0,090
-377,117	778,198	0,033	0,067
-376,102	-75,043	0,057	-0,015
-375,088	-100,591	-0,126	-0,023
-374,073	276,867	0,070	0,091
-373,058	-116,319	0,140	0,019
-372,044	-200,000	-0,013	0,048
-371,029	1,951	-0,052	-0,028
-370,015	800,000	-0,033	-0,087
-369,000	55,500	0,075	-0,053
-367,985	-90,151	-0,032	-0,007
-366,971	-193,450	0,135	0,001
-365,956	800,000	0,052	-0,118
-364,942	-5,119	0,076	0,038
-363,927	29,996	-0,030	0,019
-362,912	242,935	0,016	0,020
-361,898	-2,252	-0,116	0,060
-360,883	18,494	-0,029	0,017
-359,869	-200,000	0,045	0,160
-358,854	-48,967	0,140	0,049
-357,839	-16,293	0,109	0,051
-356,825	112,428	-0,091	-0,081
-355,810	64,717	0,114	-0,084
-354,796	-200,000	-0,002	-0,081
-353,781	-200,000	0,011	-0,040
-352,766	-200,000	0,004	-0,165
-351,752	-176,068	0,045	-0,001
-350,737	-200,000	-0,029	0,136
-349,723	-200,000	0,011	0,089
-348,708	-69,682	0,070	-0,020
-347,693	-185,564	0,088	-0,001
-346,679	372,356	-0,032	-0,048
-345,664	-200,000	-0,003	-0,047
-344,650	-200,000	0,039	0,183
-343,635	191,494	0,068	0,075
-342,620	-200,000	0,021	0,100
-341,606	12,965	-0,117	0,066
-340,591	800,000	-0,089	-0,196
-339,577	-158,794	0,166	0,007
-338,562	103,253	-0,123	-0,106
-337,548	-57,571	0,036	0,011
-336,533	250,393	0,047	0,058
-335,518	800,000	-0,032	0,087
-334,504	-200,000	0,014	0,050
-333,489	-200,000	0,023	-0,114
-332,475	107,442	0,127	-0,111
-331,460	-72,801	-0,052	-0,014
-330,445	800,000	-0,045	-0,111
-329,431	800,000	0,052	0,122
-328,416	-12,101	0,201	-0,096
-327,402	-126,918	0,125	0,013
-326,387	-200,000	0,006	-0,053
-325,372	-13,884	0,149	-0,070
-324,358	-200,000	0,019	-0,087
-323,343	518,075	-0,032	-0,056
-322,329	800,000	0,027	-0,085
-321,314	-200,000	-0,009	0,059
-320,299	153,448	0,026	0,026
-319,285	-200,000	0,006	0,069
-318,270	-200,000	-0,004	-0,045
-317,256	547,548	-0,117	-0,206
-316,241	-116,820	0,081	-0,011
-315,226	-6,790	0,045	0,022
-314,212	128,814	0,074	0,069
-313,197	84,242	0,078	0,063
-312,183	-200,000	-0,013	-0,094
-311,168	-115,190	-0,072	0,010
-310,153	-65,114	-0,115	-0,034
-309,139	-200,000	0,000	-0,042
-308,124	55,615	-0,128	-0,091
-307,110	-200,000	-0,027	0,165
-306,095	-43,188	-0,039	-0,014
-305,080	-1,997	0,076	-0,039
-304,066	-88,149	0,077	-0,017
-303,051	59,143	-0,097	-0,070
-302,037	-93,736	-0,070	0,014
-301,022	-112,387	0,091	0,013
-300,008	-200,000	-0,012	-0,046
-298,993	204,836	0,100	-0,114
-297,978	28,956	0,101	0,062
-296,964	-200,000	-0,010	-0,065
-295,949	134,649	-0,064	0,061
-294,935	800,000	-0,034	-0,079
-293,920	394,250	0,028	-0,042
-292,905	96,474	0,039	0,032
-291,891	-74,712	0,179	0,047
-290,876	-146,754	0,063	0,004
-289,862	608,026	0,055	0,101
-288,847	800,000	0,030	0,074
-287,832	-107,518	0,029	-0,005
-286,818	-200,000	-0,021	0,083
-285,803	800,000	0,068	-0,149
-284,789	235,015	0,005	0,006
-283,774	-124,419	0,053	-0,006
-282,759	515,454	-0,024	-0,041
-281,745	181,568	0,070	-0,076
-280,730	86,348	-0,075	0,060
-279,716	236,670	0,079	0,096
-278,701	800,000	-0,007	0,019
-277,686	-200,000	0,029	0,098
-276,672	-32,662	-0,056	-0,023
-275,657	-200,000	0,021	-0,082
-274,643	287,051	-0,066	-0,087
-273,628	-200,000	-0,021	-0,132
-272,613	217,760	-0,044	-0,052
-271,599	36,958	-0,043	0,028
-270,584	-118,330	0,118	0,015
-269,570	11,221	0,013	-0,007
-268,555	415,450	-0,041	0,064
-267,540	-140,397	-0,092	-0,007
-266,526	78,127	0,102	-0,079
-265,511	88,002	0,011	-0,009
-264,497	53,911	0,020	-0,014
-263,482	589,212	-0,036	-0,066
-262,467	-200,000	-0,018	-0,092
-261,453	236,339	-0,016	-0,020
-260,438	-19,339	-0,156	-0,071
-259,424	-115,305	0,056	0,008
-258,409	-4,077	0,070	-0,036
-257,395	-156,008	0,011	0,001
-256,380	421,400	0,023	0,037
-255,365	697,539	0,044	0,085
-254,351	460,829	0,054	0,088
-253,336	-189,114	-0,182	-0,002
-252,322	692,299	0,037	-0,070
-251,307	423,951	0,025	-0,039
-250,292	181,260	0,073	0,078
-249,278	11,048	0,133	-0,074
-248,263	-200,000	-0,013	0,151
-247,249	800,000	0,023	0,066
-246,234	-161,703	-0,086	0,003
-245,219	114,140	-0,069	-0,061
-244,205	537,810	-0,072	0,125
-243,190	800,000	0,073	-0,148
-242,176	225,662	0,031	0,037
-241,161	-62,819	0,041	0,012
-240,146	-14,960	-0,081	0,038
-239,132	800,000	0,016	0,051
-238,117	195,304	-0,066	-0,074
-237,103	-42,558	0,086	-0,032
-236,088	-200,000	-0,016	0,058
-235,073	90,599	0,040	-0,033
-234,059	-200,000	-0,001	0,013
-233,044	-200,000	-0,017	0,105
-232,030	0,218	0,034	0,018
-231,015	121,254	-0,020	-0,018
-230,000	724,571	-0,037	-0,073
-228,986	-200,000	0,001	-0,072
-227,971	56,231	-0,048	-0,034
-226,957	326,297	0,095	-0,133
-225,942	105,890	0,151	0,131
-224,927	-102,160	0,177	0,031
-223,913	754,160	0,036	-0,071
-222,898	13,412	0,063	0,036
-221,884	800,000	0,040	-0,086
-220,869	167,663	-0,050	-0,052
-219,855	421,895	-0,055	0,087
-218,840	323,403	0,049	0,069
-217,825	-37,928	0,019	0,007
-216,811	113,513	-0,081	-0,071
-215,796	31,478	-0,104	-0,065
-214,782	605,335	0,024	-0,044
-213,767	-200,000	-0,005	-0,044
-212,752	-200,000	-0,040	0,153
-211,738	-200,000	0,022	0,079
-210,723	102,785	0,120	0,103
-209,709	-27,156	0,075	-0,032
-208,694	800,000	0,025	0,062
-207,679	-149,045	0,062	0,004
-206,665	800,000	0,016	0,048
-205,650	-200,000	0,001	0,093
-204,636	-182,996	0,062	-0,001
-203,621	800,000	-0,026	0,074
-202,606	-86,391	-0,073	-0,016
-201,592	-98,301	-0,079	0,015
-200,577	148,799	0,068	-0,067
-199,563	-15,374	-0,082	0,038
-198,548	269,916	0,030	0,039
-197,533	-133,062	0,129	-0,012
-196,519	476,587	0,067	0,111
-195,504	86,661	0,069	-0,055
-194,490	-60,457	0,047	-0,014
-193,475	582,204	-0,019	-0,035
-192,460	-200,000	-0,008	-0,028
-191,446	800,000	0,017	0,037
-190,431	800,000	0,015	0,032
-189,417	159,154	0,111	0,113
-188,402	136,420	-0,060	-0,057
-187,387	36,948	-0,148	-0,095
-186,373	800,000	0,009	0,022
-185,358	428,631	0,040	-0,063
-184,344	-200,000	0,003	-0,026
-183,329	800,000	0,024	0,061
-182,315	-200,000	0,027	0,089
-181,300	-200,000	-0,001	-0,020
-180,285	-200,000	0,011	-0,116
-179,271	-161,680	-0,060	0,002
-178,256	-200,000	-0,011	-0,044
-177,242	43,974	-0,026	-0,017
-176,227	-200,000	0,007	0,042
-175,212	-200,000	0,011	0,145
-174,198	-32,913	-0,166	0,067
-173,183	-200,000	-0,024	-0,135
-172,169	-33,164	-0,048	0,019
-171,154	115,527	0,004	0,004
-170,139	-93,418	-0,121	0,024
-169,125	-8,154	0,175	0,086
-168,110	-56,292	-0,089	-0,029
-167,096	-36,194	-0,109	-0,043
-166,081	-200,000	-0,037	-0,126
-165,066	-200,000	-0,009	-0,099
-164,052	-200,000	-0,010	-0,075
-163,037	382,091	0,028	0,042
-162,023	711,056	0,045	0,088
-161,008	11,020	0,109	0,060
-159,993	121,474	0,065	-0,059
-158,979	-138,785	0,165	-0,013
-157,964	395,711	0,012	0,018
-156,950	9,011	0,091	-0,050
-155,935	-200,000	-0,014	0,073
-154,920	181,750	0,030	0,032
-153,906	-159,551	-0,086	0,003
-152,891	-200,000	0,017	-0,062
-151,877	-200,000	-0,007	-0,024
-150,862	26,255	-0,103	-0,062
-149,847	206,533	0,065	-0,074
-148,833	367,982	0,056	0,082
-147,818	-58,579	0,097	-0,031
-146,804	74,528	-0,048	-0,037
-145,789	159,921	0,109	0,111
-144,775	237,061	-0,043	-0,051
-143,760	-200,000	0,013	-0,073
-142,745	800,000	0,036	0,104
-141,731	-0,388	0,140	0,072
-140,716	25,533	0,033	-0,020
-139,702	-200,000	0,031	-0,103
-138,687	-200,000	-0,010	0,100
-137,672	795,406	0,090	0,180
-136,658	-200,000	0,017	0,170
-135,643	-61,353	-0,135	-0,041
-134,629	386,191	0,054	0,082
-133,614	654,459	-0,030	-0,057
-132,599	16,674	0,121	0,069
-131,585	58,516	-0,109	0,077
-130,570	89,714	-0,087	-0,071
-129,556	-200,000	0,032	-0,118
-128,541	-7,693	-0,107	0,053
-127,526	-20,642	-0,063	-0,028
-126,512	201,710	-0,035	0,039
-125,497	17,719	0,078	0,045
-124,483	479,711	-0,033	0,054
-123,468	-200,000	-0,000	0,149
-122,453	-26,778	-0,122	0,052
-121,439	-119,019	0,053	-0,007
-120,424	-175,367	0,032	-0,001
-119,410	206,369	0,044	0,050
-118,395	82,656	-0,006	0,005
-117,380	-12,724	0,161	0,076
-116,366	-50,434	-0,012	-0,004
-115,351	529,120	0,027	0,047
-114,337	73,770	-0,060	-0,046
-113,322	-200,000	-0,062	-0,213
-112,307	-200,000	0,001	0,019
-111,293	-166,299	0,150	0,005
-110,278	151,694	0,066	-0,065
-109,264	-68,113	-0,080	-0,023
-108,249	-200,000	-0,011	-0,085
-107,234	800,000	-0,032	-0,097
-106,220	-127,328	-0,036	-0,004
-105,205	-88,509	-0,114	0,024
-104,191	800,000	-0,021	-0,054
-103,176	140,961	0,105	0,101
-102,162	-200,000	0,027	0,123
-101,147	6,909	-0,097	-0,052
-100,132	29,332	-0,083	-0,051
-99,118	512,744	-0,031	-0,053
-98,103	30,067	0,024	-0,015
-97,089	-200,000	-0,004	0,061
-96,074	-200,000	-0,029	-0,121
-95,059	272,371	-0,037	0,048
-94,045	14,932	0,119	-0,067
-93,030	-104,189	-0,171	0,029
-92,016	559,118	0,069	-0,122
-91,001	645,821	0,045	-0,084
-89,986	23,224	0,130	0,077
-88,972	-125,980	0,071	-0,008
-87,957	-117,699	0,087	-0,011
-86,943	57,962	-0,090	0,064
-85,928	94,546	0,024	-0,020
-84,913	-65,786	0,152	-0,044
-83,899	-83,889	-0,027	-0,006
-82,884	-131,992	0,118	-0,011
-81,870	27,584	0,082	-0,050
-80,855	180,184	0,110	0,117
-79,840	-61,141	0,023	-0,007
-78,826	109,664	-0,030	0,026
-77,811	3,964	-0,065	-0,034
-76,797	-33,505	0,184	-0,073
-75,782	-110,432	0,166	0,025
-74,767	-200,000	0,007	0,153
-73,753	-76,809	0,051	-0,013
-72,738	800,000	0,019	0,049
-71,724	-200,000	0,003	-0,095
-70,709	-200,000	-0,026	-0,108
-69,694	-4,534	-0,043	0,022
-68,680	-200,000	-0,014	-0,138
-67,665	-160,043	-0,063	-0,002
-66,651	-26,340	-0,068	0,029
-65,636	-50,598	-0,069	-0,023
-64,622	-200,000	-0,018	-0,144
-63,607	-128,766	0,088	0,009
-62,592	-161,146	0,133	0,005
-61,578	-200,000	0,023	0,076
-60,563	164,556	0,090	0,093
-59,549	128,841	0,049	0,045
-58,534	-108,181	-1,384	-0,215
-57,519	678,780	-0,785	-1,489
-56,505	-200,000	-0,920	-4,494
-55,490	42,458	0,558	-0,367
-54,476	800,000	4,930	11,660
-53,461	-200,000	13,750	252,720
-52,446	-200,000	690,458	2244,917
-51,432	580,878	1622,214	2894,889
-50,417	118,339	1633,734	1461,393
-49,403	72,403	1287,959	972,420
-48,388	37,748	1023,418	657,740
-47,373	24,130	981,211	585,873
-46,359	23,344	970,818	577,069
-45,344	22,343	966,575	571,257
-44,330	22,286	965,145	570,203
-43,315	22,215	963,498	568,975
-42,300	22,136	962,646	568,195
-41,286	22,125	961,671	567,558
-40,271	22,131	960,662	566,961
-39,257	22,182	959,705	566,540
-38,242	22,198	958,746	566,003
-37,227	22,132	957,839	565,232
-36,213	22,150	957,145	564,856
-35,198	22,074	956,283	564,082
-34,184	22,132	955,744	563,928
-33,169	22,092	954,759	563,195
-32,154	22,159	953,830	562,841
-31,140	22,242	952,750	562,447
-30,125	22,226	951,975	561,918
-29,111	22,193	951,147	561,301
-28,096	22,195	950,720	561,032
-27,082	22,206	949,877	560,548
-26,067	22,198	949,228	560,117
-25,052	22,121	948,394	559,357
-24,038	22,181	947,795	559,171
-23,023	22,188	947,149	558,792
-22,009	22,212	946,493	558,460
-20,994	22,197	945,984	558,087
-19,979	22,199	945,262	557,646
-18,965	22,199	944,755	557,326
-17,950	22,172	944,079	556,819
-16,936	22,181	943,153	556,280
-15,921	22,117	942,737	555,809
-14,906	22,102	941,961	555,280
-13,892	22,065	941,363	554,790
-12,877	22,046	940,832	554,394
-11,863	22,026	939,965	553,796
-10,848	22,090	939,629	553,779
-9,833	22,130	939,122	553,585
-8,819	22,092	938,611	553,143
-7,804	22,034	937,898	552,517
-6,790	22,024	937,233	552,071
-5,775	22,083	936,697	551,920
-4,760	22,019	936,003	551,287
-3,746	21,975	935,457	550,804
-2,731	21,881	934,663	550,020
-1,717	21,836	934,065	549,503
-0,702	21,862	933,366	549,151
0,313	21,610	932,753	548,825
1,327	24,861	930,796	557,838
2,342	34,431	795,318	502,099
3,356	32,320	451,299	281,711
4,371	1,465	293,827	152,634
5,386	-2,971	274,750	138,515
6,400	-4,275	269,076	134,432
7,415	-4,631	266,658	132,885
8,429	-4,481	265,377	132,372
9,444	-4,491	264,733	132,030
10,459	-4,427	264,041	131,731
11,473	-4,425	263,485	131,444
12,488	-4,613	262,873	130,956
13,502	-4,715	262,360	130,597
14,517	-4,872	261,864	130,197
15,531	-4,692	261,350	130,092
16,546	-4,762	261,059	129,872
17,561	-4,830	260,742	129,641
18,575	-4,703	260,520	129,634
19,590	-4,875	260,034	129,226
20,604	-4,728	259,783	129,222
21,619	-4,737	259,425	129,024
22,634	-4,737	259,072	128,837
23,648	-4,865	258,755	128,553
24,663	-4,830	258,592	128,492
25,677	-4,675	258,292	128,470
26,692	-4,656	257,957	128,309
27,707	-4,835	257,810	128,066
28,721	-4,725	257,625	128,059
29,736	-4,797	257,229	127,788
30,750	-4,742	257,033	127,728
31,765	-4,867	256,818	127,499
32,780	-4,864	256,501	127,332
33,794	-4,854	256,285	127,223
34,809	-4,815	256,123	127,165
35,823	-4,801	255,960	127,085
36,838	-4,969	255,618	126,757
37,853	-4,866	255,384	126,720
38,867	-4,914	255,150	126,551
39,882	-4,832	255,064	126,568
40,896	-4,834	254,818	126,434
41,911	-4,890	254,416	126,173
42,926	-4,864	254,309	126,132
43,940	-5,171	254,150	125,773
44,955	-5,082	253,770	125,652
45,969	-5,020	253,526	125,574
46,984	-4,958	253,308	125,509
47,999	-5,530	253,058	124,876
49,013	-5,433	252,807	124,825
50,028	-5,365	252,492	124,717
51,042	-5,632	252,321	124,390
52,057	-5,661	252,104	124,248
53,071	-5,582	251,840	124,174
54,086	-5,456	251,668	124,187
55,101	-5,528	251,626	124,093
56,115	-5,067	251,521	124,429
57,130	-4,734	251,338	124,615
58,144	-4,553	251,183	124,683
59,159	-4,714	251,106	124,495
60,174	-4,790	250,820	124,276
61,188	-4,785	250,646	124,184
62,203	-4,644	250,295	124,120
63,217	-4,632	250,148	124,046
64,232	-4,740	249,949	123,844
65,247	-4,806	249,760	123,682
66,261	-4,381	249,450	123,882
67,276	-4,824	249,131	123,334
68,290	-5,031	248,943	123,053
69,305	-5,288	248,821	122,762
70,320	-5,083	248,535	122,785
71,334	-4,811	248,468	122,972
72,349	-4,749	248,332	122,947
73,363	-4,698	248,147	122,888
74,378	-4,708	247,917	122,755
75,393	-4,729	247,738	122,637
76,407	-4,855	247,522	122,412
77,422	-4,896	247,222	122,218
78,436	-4,925	247,178	122,161
79,451	-4,906	247,025	122,091
80,466	-4,860	246,720	121,968
81,480	-4,781	246,391	121,861
82,495	-5,006	246,323	121,627
83,509	-5,125	246,309	121,509
84,524	-4,987	245,903	121,413
85,539	-5,061	245,550	121,166
86,553	-5,229	245,431	120,955
87,568	-5,227	245,275	120,870
88,582	-5,167	245,187	120,866
89,597	-5,089	244,966	120,811
90,611	-4,908	244,694	120,818
91,626	-4,899	244,568	120,753
92,641	-4,901	244,633	120,772
93,655	-5,094	244,341	120,456
94,670	-4,972	244,149	120,453
95,684	-4,837	243,817	120,390
96,699	-4,736	243,648	120,380
97,714	-4,901	243,526	120,172
98,728	-4,894	243,418	120,114
99,743	-5,046	242,924	119,733
100,757	-5,205	242,880	119,568
101,772	-5,038	242,743	119,630
102,787	-4,911	242,423	119,566
103,801	-4,874	242,312	119,531
104,816	-5,024	242,202	119,342
105,830	-4,892	242,160	119,420
106,845	-4,812	241,877	119,336
107,860	-4,728	241,829	119,371
108,874	-4,709	241,381	119,155
109,889	-5,017	241,331	118,866
110,903	-4,943	241,119	118,812
111,918	-4,930	240,947	118,728
112,933	-4,821	240,898	118,782
113,947	-4,845	240,644	118,627
114,962	-4,641	240,427	118,677
115,976	-4,586	240,234	118,616
116,991	-4,805	240,080	118,350
118,006	-4,858	239,979	118,245
119,020	-4,872	239,783	118,128
120,035	-4,889	239,710	118,066
121,049	-4,671	239,559	118,161
122,064	-4,725	239,345	118,000
123,079	-4,862	239,188	117,800
124,093	-4,922	239,007	117,651
125,108	-5,029	238,669	117,388
126,122	-5,247	238,558	117,145
127,137	-5,250	238,256	116,984
128,151	-5,209	238,167	116,963
129,166	-5,044	237,906	116,959
130,181	-5,206	237,843	116,785
131,195	-5,202	237,573	116,646
132,210	-4,987	237,523	116,785
133,224	-4,888	237,210	116,701
134,239	-4,643	237,119	116,844
135,254	-4,877	237,124	116,646
136,268	-5,015	236,817	116,374
137,283	-5,118	236,461	116,105
138,297	-5,128	236,228	115,973
139,312	-5,248	236,232	115,867
140,327	-5,031	236,012	115,924
141,341	-4,594	236,070	116,294
142,356	-4,522	235,877	116,247
143,370	-4,802	235,839	115,992
144,385	-4,607	235,583	116,012
145,400	-4,466	235,482	116,066
146,414	-4,526	235,163	115,849
147,429	-4,727	234,997	115,597
148,443	-4,512	234,866	115,694
149,458	-4,475	234,683	115,623
150,473	-4,606	234,492	115,414
151,487	-4,458	234,349	115,452
152,502	-4,546	234,133	115,265
153,516	-4,404	234,024	115,314
154,531	-4,574	233,899	115,106
155,546	-4,719	233,748	114,906
156,560	-4,546	233,495	114,910
157,575	-4,643	233,276	114,715
158,589	-4,728	233,211	114,604
159,604	-4,446	232,942	114,686
160,619	-4,490	232,829	114,585
161,633	-4,376	232,706	114,605
162,648	-4,497	232,693	114,493
163,662	-4,325	232,525	114,536
164,677	-4,377	232,172	114,311
165,692	-4,580	232,144	114,126
166,706	-4,411	232,099	114,228
167,721	-4,562	231,862	113,982
168,735	-4,225	231,629	114,122
169,750	-4,466	231,561	113,889
170,764	-4,409	231,467	113,877
171,779	-4,474	231,328	113,748
172,794	-4,294	231,082	113,757
173,808	-4,514	230,877	113,474
174,823	-5,023	230,552	112,905
175,837	-4,986	230,407	112,853
176,852	-4,652	230,278	113,041
177,867	-4,573	230,178	113,044
178,881	-4,473	230,194	113,120
179,896	-4,576	230,085	112,976
180,910	-4,520	229,805	112,872
181,925	-4,393	229,657	112,888
182,940	-4,367	229,531	112,837
183,954	-4,516	229,396	112,644
184,969	-4,461	229,277	112,618
185,983	-4,318	229,039	112,603
186,998	-4,470	228,975	112,443
188,013	-4,424	228,819	112,392
189,027	-4,415	228,620	112,291
190,042	-4,223	228,419	112,332
191,056	-4,061	228,222	112,350
192,071	-4,111	228,097	112,240
193,086	-4,437	228,007	111,933
194,100	-4,320	227,711	111,868
195,115	-4,472	227,403	111,590
196,129	-5,033	227,335	111,114
197,144	-3,002	227,940	112,969
198,159	0,702	228,984	116,349
199,173	3,728	229,794	119,099
200,188	4,313	229,657	119,471
201,202	4,323	229,533	119,403
202,217	4,257	229,513	119,332
203,232	4,315	229,345	119,278
204,246	4,297	229,353	119,258
205,261	4,410	229,016	119,159
206,275	4,502	229,187	119,308
207,290	4,564	228,912	119,203
208,304	4,596	228,694	119,103
209,319	4,611	228,512	119,009
210,334	4,803	228,286	119,028
211,348	4,150	228,140	118,440
212,363	4,095	227,796	118,208
213,377	3,771	227,527	117,810
214,392	3,871	227,439	117,830
215,407	3,823	227,446	117,787
216,421	4,108	227,120	117,826
217,436	4,027	226,905	117,642
218,450	3,563	226,850	117,248
219,465	3,710	226,505	117,171
220,480	3,676	226,394	117,078
221,494	3,436	226,320	116,846
222,509	3,901	226,246	117,152
223,523	3,756	226,154	116,983
224,538	3,710	225,979	116,847
225,553	3,801	225,800	116,813
226,567	3,878	225,719	116,820
227,582	4,062	225,527	116,850
228,596	4,049	225,533	116,832
229,611	4,133	225,254	116,741
230,626	3,767	225,037	116,341
231,640	3,776	224,746	116,187
232,655	4,135	224,873	116,514
233,669	4,359	224,968	116,722
234,684	4,574	224,644	116,706
235,699	4,412	224,516	116,507
236,713	4,162	224,263	116,177
237,728	3,918	223,951	115,821
238,742	3,787	223,879	115,675
239,757	3,840	223,697	115,611
240,772	3,783	223,575	115,494
241,786	3,686	223,529	115,387
242,801	4,154	223,285	115,603
243,815	4,158	223,298	115,602
244,830	4,257	223,113	115,570
245,844	4,019	222,876	115,258
246,859	4,058	222,755	115,215
247,874	4,111	222,644	115,187
248,888	4,099	222,503	115,095
249,903	4,075	222,352	114,988
250,917	3,842	222,263	114,758
251,932	3,567	222,086	114,451
252,947	3,496	221,950	114,318
253,961	3,706	221,635	114,302
254,976	3,741	221,621	114,310
255,990	3,966	221,485	114,397
257,005	4,122	221,241	114,377
258,020	3,974	221,309	114,292
259,034	4,280	221,289	114,499
260,049	4,027	220,876	114,087
261,063	4,119	220,763	114,087
262,078	3,975	220,720	113,948
263,093	4,049	220,759	114,013
264,107	4,253	220,423	113,980
265,122	4,302	220,264	113,924
266,136	4,214	220,238	113,836
267,151	4,364	220,059	113,843
268,166	3,993	219,724	113,386
269,180	3,814	219,473	113,115
270,195	3,899	219,396	113,128
271,209	3,573	219,343	112,851
272,224	3,837	219,039	112,878
273,239	3,942	218,954	112,901
274,253	3,799	218,948	112,783
275,268	3,561	218,728	112,485
276,282	3,467	218,494	112,286
277,297	3,807	218,334	112,442
278,312	3,643	218,228	112,258
279,326	3,679	218,205	112,262
280,341	3,616	218,003	112,103
281,355	3,950	217,973	112,321
282,370	3,758	217,901	112,134
283,384	3,473	217,543	111,731
284,399	3,370	217,365	111,555
285,414	3,645	217,286	111,705
286,428	3,818	217,148	111,750
287,443	4,051	217,067	111,868
288,457	3,985	216,843	111,694
289,472	3,917	216,786	111,606
290,487	3,264	216,467	110,958
291,501	3,223	216,355	110,861
292,516	3,446	216,203	110,934
293,530	3,378	216,188	110,868
294,545	3,724	215,842	110,930
295,560	3,547	215,895	110,820
296,574	4,048	215,684	111,063
297,589	3,980	215,634	110,978
298,603	3,902	215,581	110,886
299,618	3,788	215,340	110,669
300,633	3,614	215,393	110,562
301,647	3,930	215,203	110,681
302,662	4,057	215,157	110,740
303,676	4,280	214,929	110,772
304,691	4,127	214,810	110,591
305,706	4,158	214,611	110,501
306,720	4,258	214,546	110,530
307,735	3,803	214,315	110,075
308,749	3,866	214,060	109,979
309,764	3,798	214,207	109,996
310,779	4,131	213,955	110,095
311,793	4,220	213,886	110,113
312,808	4,111	213,667	109,913
313,822	3,928	213,466	109,669
314,837	3,806	213,332	109,504
315,852	3,776	213,051	109,329
316,866	3,906	213,151	109,462
317,881	3,909	212,988	109,371
318,895	4,122	212,818	109,425
319,910	3,926	212,594	109,161
320,925	3,603	212,438	108,843
321,939	3,395	212,215	108,571
322,954	3,315	212,285	108,540
323,968	3,855	212,199	108,869
324,983	4,040	212,137	108,958
325,997	4,149	211,844	108,876
327,012	3,872	211,676	108,584
328,027	3,804	211,637	108,506
329,041	4,112	211,623	108,707
330,056	4,378	211,509	108,826
331,070	3,981	211,182	108,368
332,085	3,703	210,925	108,031
333,100	3,597	210,835	107,901
334,114	3,808	210,717	107,979
335,129	3,748	210,662	107,899
336,143	3,847	210,430	107,841
337,158	3,696	210,314	107,666
338,173	3,572	210,337	107,580
339,187	3,649	210,052	107,479
340,202	3,728	209,908	107,451
341,216	3,576	209,561	107,158
342,231	3,566	209,589	107,156
343,246	3,480	209,462	107,022
344,260	3,425	209,428	106,956
345,275	3,664	209,293	107,045
346,289	3,896	209,262	107,181
347,304	3,937	208,976	107,052
348,319	3,909	208,974	107,022
349,333	3,660	208,742	106,722
350,348	3,886	208,710	106,853
351,362	3,988	208,625	106,870
352,377	3,909	208,509	106,747
353,392	3,772	208,269	106,520
354,406	4,075	208,054	106,610
355,421	193,541	1345,127	1431,622
356,435	154,402	1483,759	1431,744
