DTS Sentinel unit serial number:	SN410029Multiplexer serial number:	ORYXHardware model number:	OX2-SRSoftware version number:	ORYX F/W v4,00 Oryx Data Collector v3.7.2.0data status	okinstallation	B6 Nyhavnadifferential loss correction	single-endedforward channel	channel 2reverse channel	N/Adate	2023/12/08time	19:30:08forward acquisition time	300,00reverse acquisition time	0,00gamma	499,1914k internal	0,3157k external	0,3157temperature offset calibration	1,0000default loss term (dB/km)	0,3820temperature slope calibration	1,0000multiplexer offset coefficient	1,0000multiplexer slope coefficient	1,0000fibre end	0,00T internal ref (°C)	15,24T ext. ref 1 (°C)	-1,43T ext. ref 2 (°C)	-1,42length (m)	temperature (°C)	Stokes	anti-Stokes-744,400	175,052	0,104	0,111
-743,385	-85,272	-0,229	-0,052
-742,371	157,723	0,111	0,113
-741,356	51,914	-0,237	0,166
-740,342	800,000	0,032	0,075
-739,327	-103,168	-0,391	0,068
-738,312	-200,000	-0,029	0,133
-737,298	-129,627	-0,363	-0,037
-736,283	74,773	-0,080	-0,062
-735,269	-118,630	-0,235	0,030
-734,254	168,388	0,033	0,035
-733,239	-50,044	-0,445	-0,154
-732,225	73,555	0,094	-0,072
-731,210	-83,393	0,087	-0,020
-730,196	-200,000	-0,023	0,106
-729,181	-47,933	-0,104	-0,037
-728,167	-200,000	0,017	-0,060
-727,152	-23,505	-0,075	0,033
-726,137	-65,102	-0,032	0,009
-725,123	800,000	0,007	-0,018
-724,108	800,000	-0,012	-0,032
-723,094	270,929	0,050	-0,065
-722,079	29,160	-0,133	-0,083
-721,064	31,801	0,061	0,039
-720,050	789,706	-0,025	0,051
-719,035	-41,069	-0,042	0,016
-718,021	141,769	-0,050	0,049
-717,006	-200,000	-0,004	0,063
-715,991	-200,000	-0,026	-0,195
-714,977	598,128	0,051	-0,093
-713,962	402,511	0,016	0,024
-712,948	-200,000	-0,004	0,024
-711,933	-144,315	-0,140	0,009
-710,918	-34,537	-0,123	0,049
-709,904	-79,821	-0,237	-0,058
-708,889	4,842	-0,065	-0,035
-707,875	-200,000	0,011	-0,076
-706,860	800,000	-0,025	-0,062
-705,845	-200,000	-0,018	-0,117
-704,831	800,000	0,040	-0,124
-703,816	-25,630	-0,093	-0,040
-702,802	259,970	0,060	0,076
-701,787	1,505	-0,168	-0,089
-700,772	30,581	0,193	-0,121
-699,758	-71,605	0,066	0,018
-698,743	-182,027	-0,158	0,002
-697,729	-84,651	-0,180	-0,041
-696,714	584,955	-0,024	0,044
-695,699	369,536	0,067	-0,100
-694,685	-62,977	-0,042	0,013
-693,670	-200,000	-0,006	-0,044
-692,656	-200,000	0,013	-0,089
-691,641	-135,292	0,067	-0,006
-690,627	-20,159	-0,042	0,019
-689,612	-200,000	-0,003	-0,042
-688,597	-200,000	-0,008	-0,079
-687,583	-13,231	-0,121	0,057
-686,568	-200,000	0,019	0,076
-685,554	-200,000	-0,002	-0,120
-684,539	800,000	0,030	-0,080
-683,524	177,328	0,036	-0,038
-682,510	126,297	0,098	0,091
-681,495	643,733	-0,025	-0,047
-680,481	-200,000	-0,034	-0,115
-679,466	74,184	-0,049	-0,038
-678,451	-0,923	-0,078	0,040
-677,437	400,171	-0,092	-0,143
-676,422	310,346	0,081	-0,112
-675,408	-155,541	0,108	-0,005
-674,393	-180,498	-0,103	-0,002
-673,378	142,431	-0,123	-0,120
-672,364	-147,350	-0,097	-0,006
-671,349	-45,983	-0,037	-0,013
-670,335	42,108	0,150	0,100
-669,320	-200,000	-0,009	0,126
-668,305	-141,338	0,066	0,005
-667,291	-200,000	0,016	-0,061
-666,276	-112,102	0,035	0,005
-665,262	-120,650	-0,051	0,006
-664,247	-59,249	0,113	0,036
-663,232	34,340	0,137	-0,088
-662,218	-109,211	0,137	-0,021
-661,203	-102,009	0,059	-0,010
-660,189	800,000	-0,034	0,078
-659,174	30,705	-0,069	-0,043
-658,159	800,000	0,022	0,046
-657,145	-87,928	0,057	0,013
-656,130	-95,533	0,086	-0,017
-655,116	453,710	-0,056	0,092
-654,101	114,745	-0,131	0,117
-653,086	-8,113	-0,055	-0,027
-652,072	53,552	-0,117	0,082
-651,057	336,562	-0,069	-0,098
-650,043	658,068	-0,043	-0,082
-649,028	11,732	-0,097	-0,055
-648,014	32,347	0,070	-0,044
-646,999	-200,000	0,007	0,026
-645,984	224,087	-0,077	0,092
-644,970	-21,792	0,160	0,071
-643,955	-200,000	-0,025	-0,208
-642,941	-200,000	-0,004	-0,016
-641,926	-78,378	0,056	-0,014
-640,911	51,615	-0,026	-0,018
-639,897	-39,196	0,038	-0,015
-638,882	-200,000	0,015	-0,068
-637,868	84,064	0,049	0,039
-636,853	-116,474	0,054	-0,007
-635,838	-59,984	-0,051	0,016
-634,824	243,996	-0,108	-0,134
-633,809	-8,169	0,161	0,079
-632,795	294,320	-0,012	0,016
-631,780	800,000	-0,019	0,058
-630,765	-175,848	-0,241	-0,005
-629,751	800,000	-0,024	-0,067
-628,736	40,029	-0,114	-0,075
-627,722	-200,000	-0,003	-0,121
-626,707	-8,591	0,039	-0,019
-625,692	39,482	0,094	-0,062
-624,678	145,479	-0,017	-0,016
-623,663	88,709	0,063	-0,051
-622,649	-200,000	0,002	-0,074
-621,634	270,126	-0,040	-0,052
-620,619	-200,000	-0,009	-0,081
-619,605	-200,000	0,004	-0,089
-618,590	-200,000	-0,009	0,055
-617,576	429,950	0,097	0,154
-616,561	-166,057	-0,149	0,005
-615,546	-55,907	0,095	0,031
-614,532	-200,000	0,006	-0,048
-613,517	370,653	0,037	0,055
-612,503	-21,025	-0,127	-0,057
-611,488	-200,000	0,005	-0,153
-610,474	-200,000	-0,024	-0,102
-609,459	555,940	-0,056	0,100
-608,444	-27,427	-0,074	0,031
-607,430	-49,433	-0,139	-0,048
-606,415	704,279	-0,057	0,111
-605,401	-200,000	0,003	0,148
-604,386	-78,048	-0,148	-0,037
-603,371	-200,000	0,027	-0,098
-602,357	599,756	0,030	0,054
-601,342	190,214	-0,093	-0,103
-600,328	-200,000	-0,008	-0,094
-599,313	79,841	-0,133	-0,104
-598,298	800,000	0,010	0,030
-597,284	-62,323	-0,031	-0,010
-596,269	-200,000	-0,000	-0,017
-595,255	195,025	0,073	0,081
-594,240	-200,000	-0,037	-0,159
-593,225	107,130	-0,057	0,049
-592,211	8,848	-0,058	0,032
-591,196	110,959	0,057	0,050
-590,182	800,000	0,066	0,146
-589,167	-177,402	0,061	0,001
-588,152	800,000	0,008	-0,018
-587,138	-93,057	-0,073	0,015
-586,123	156,810	-0,110	-0,111
-585,109	-89,264	-0,061	-0,013
-584,094	-200,000	0,013	0,084
-583,079	800,000	-0,053	0,117
-582,065	800,000	-0,046	-0,095
-581,050	-29,569	-0,115	0,048
-580,036	-200,000	0,036	0,122
-579,021	147,062	-0,088	-0,087
-578,006	29,173	-0,088	0,055
-576,992	-50,141	0,137	-0,047
-575,977	-99,716	-0,039	-0,007
-574,963	-200,000	0,013	0,134
-573,948	52,887	-0,060	0,042
-572,934	-142,874	0,133	-0,009
-571,919	333,515	-0,062	-0,088
-570,904	46,395	-0,123	0,083
-569,890	800,000	-0,055	0,114
-568,875	57,032	0,095	0,068
-567,861	60,451	0,100	0,072
-566,846	-200,000	0,017	0,129
-565,831	466,625	-0,061	-0,100
-564,817	192,611	-0,060	-0,067
-563,802	-72,695	0,036	-0,010
-562,788	-94,050	0,145	-0,029
-561,773	287,181	0,066	-0,087
-560,758	230,476	-0,079	0,095
-559,744	608,737	0,055	0,100
-558,729	-73,947	-0,087	0,023
-557,715	-200,000	0,007	0,027
-556,700	708,996	-0,098	-0,191
-555,685	116,632	-0,083	0,075
-554,671	-77,997	-0,094	0,024
-553,656	-200,000	-0,003	0,072
-552,642	293,797	0,024	-0,032
-551,627	-90,965	0,014	-0,003
-550,612	-121,859	0,135	-0,016
-549,598	277,088	-0,094	-0,122
-548,583	120,017	-0,092	-0,083
-547,569	64,302	0,031	0,023
-546,554	800,000	0,039	-0,110
-545,539	-67,540	0,101	-0,029
-544,525	27,987	-0,032	0,020
-543,510	-200,000	0,037	-0,141
-542,496	92,381	-0,124	-0,102
-541,481	800,000	0,016	-0,052
-540,466	653,402	0,090	-0,169
-539,452	-200,000	-0,016	0,113
-538,437	-33,029	0,107	-0,043
-537,423	-170,891	-0,060	-0,001
-536,408	122,697	0,041	-0,038
-535,393	-25,515	-0,060	-0,026
-534,379	78,106	-0,098	0,076
-533,364	-200,000	0,005	0,083
-532,350	-76,450	-0,022	0,005
-531,335	141,549	-0,106	-0,102
-530,321	-200,000	-0,010	0,127
-529,306	31,362	-0,060	-0,037
-528,291	214,614	-0,016	-0,018
-527,277	-170,567	0,053	0,001
-526,262	-200,000	-0,021	-0,100
-525,248	-146,638	0,046	-0,003
-524,233	-200,000	-0,039	-0,181
-523,218	-200,000	0,012	0,085
-522,204	92,718	0,038	0,031
-521,189	-200,000	-0,018	-0,077
-520,175	800,000	-0,046	-0,122
-519,160	-59,226	0,042	-0,013
-518,145	19,270	-0,066	-0,039
-517,131	-59,102	-0,121	-0,038
-516,116	754,544	0,110	0,219
-515,102	-200,000	0,000	-0,025
-514,087	-200,000	0,020	0,075
-513,072	-25,780	-0,121	-0,052
-512,058	-200,000	-0,012	-0,099
-511,043	-200,000	-0,025	0,090
-510,029	800,000	-0,018	0,045
-509,014	51,137	0,048	-0,033
-507,999	-1,452	0,137	-0,070
-506,985	-200,000	-0,002	-0,019
-505,970	-81,151	-0,106	-0,025
-504,956	-200,000	-0,004	-0,053
-503,941	-92,909	-0,109	0,022
-502,926	-46,206	0,091	-0,033
-501,912	367,978	0,076	0,113
-500,897	15,510	-0,146	0,083
-499,883	-200,000	-0,018	-0,082
-498,868	-73,849	-0,151	0,040
-497,853	-133,976	0,045	-0,004
-496,839	655,858	0,039	0,074
-495,824	-200,000	-0,007	0,036
-494,810	204,653	0,051	0,058
-493,795	-84,436	-0,116	0,027
-492,781	209,161	-0,087	-0,099
-491,766	-106,142	-0,074	0,012
-490,751	-122,242	0,116	0,014
-489,737	278,316	-0,034	0,045
-488,722	-75,152	-0,067	-0,017
-487,708	358,793	0,030	0,044
-486,693	239,336	0,060	-0,073
-485,678	-200,000	-0,023	0,109
-484,664	690,118	-0,043	-0,082
-483,649	800,000	0,076	0,153
-482,635	800,000	0,009	-0,026
-481,620	112,655	-0,054	-0,048
-480,605	247,580	0,092	0,114
-479,591	-200,000	-0,014	0,086
-478,576	-200,000	0,002	-0,040
-477,562	-52,481	-0,115	-0,038
-476,547	-27,261	0,051	-0,022
-475,532	157,258	0,079	0,080
-474,518	111,801	0,119	0,105
-473,503	587,391	0,018	-0,032
-472,489	456,956	-0,021	0,033
-471,474	278,452	0,043	0,056
-470,459	800,000	-0,019	0,058
-469,445	800,000	0,048	-0,141
-468,430	297,954	0,141	-0,189
-467,416	162,087	0,031	-0,032
-466,401	-73,969	0,108	-0,028
-465,386	-74,763	-0,040	-0,010
-464,372	-200,000	-0,003	0,014
-463,357	-200,000	0,010	-0,101
-462,343	-73,615	0,062	-0,016
-461,328	-11,860	0,068	0,033
-460,313	-91,957	0,093	0,019
-459,299	-200,000	0,000	-0,030
-458,284	254,394	0,062	0,078
-457,270	-125,736	-0,035	0,004
-456,255	-200,000	0,039	-0,148
-455,241	-200,000	-0,006	0,029
-454,226	800,000	0,006	-0,018
-453,211	93,812	-0,101	-0,083
-452,197	398,728	0,074	0,113
-451,182	173,427	0,145	0,153
-450,168	-89,305	0,043	0,009
-449,153	-62,480	-0,137	-0,041
-448,138	-103,975	-0,142	-0,024
-447,124	-5,105	-0,072	-0,036
-446,109	73,894	0,047	-0,036
-445,095	519,636	0,069	0,118
-444,080	183,451	0,100	0,108
-443,065	11,998	0,051	0,028
-442,051	-45,859	0,140	0,050
-441,036	148,233	-0,051	0,050
-440,022	31,854	-0,076	-0,047
-439,007	71,890	0,049	-0,037
-437,992	800,000	0,036	0,112
-436,978	-148,398	0,085	-0,005
-435,963	-200,000	-0,014	0,153
-434,949	800,000	0,056	0,150
-433,934	475,612	-0,059	0,098
-432,919	48,713	-0,049	0,033
-431,905	242,029	0,034	-0,041
-430,890	800,000	0,024	0,061
-429,876	-135,506	0,052	0,004
-428,861	-200,000	0,004	-0,066
-427,846	-200,000	-0,009	0,034
-426,832	-200,000	-0,028	-0,155
-425,817	-79,228	-0,082	0,020
-424,803	46,311	0,041	-0,028
-423,788	800,000	0,010	-0,019
-422,773	391,919	0,086	0,131
-421,759	-200,000	0,014	-0,115
-420,744	704,966	-0,052	0,101
-419,730	-200,000	-0,005	0,026
-418,715	-200,000	0,004	-0,132
-417,701	-200,000	0,011	-0,079
-416,686	-10,259	-0,120	0,058
-415,671	-157,625	0,083	-0,004
-414,657	-188,516	0,134	0,001
-413,642	-200,000	0,002	-0,052
-412,628	72,735	0,021	0,016
-411,613	-200,000	0,010	0,049
-410,598	-55,944	0,127	-0,041
-409,584	-200,000	-0,004	0,029
-408,569	448,491	-0,048	-0,077
-407,555	92,601	0,026	0,021
-406,540	438,743	-0,071	0,113
-405,525	40,146	-0,085	-0,056
-404,511	800,000	-0,077	-0,186
-403,496	-200,000	-0,009	-0,100
-402,482	-47,571	-0,050	0,018
-401,467	-68,033	0,099	0,028
-400,452	-48,866	-0,144	0,050
-399,438	-149,592	-0,108	-0,006
-398,423	255,389	0,063	-0,078
-397,409	800,000	-0,033	-0,104
-396,394	197,326	-0,058	-0,064
-395,379	49,748	0,046	-0,031
-394,365	-66,779	0,159	-0,045
-393,350	-70,911	0,039	-0,011
-392,336	22,142	-0,108	0,064
-391,321	10,105	0,079	0,044
-390,306	57,561	-0,050	-0,035
-389,292	-27,721	0,120	-0,050
-388,277	11,584	0,107	-0,060
-387,263	-60,569	-0,060	0,018
-386,248	-100,289	0,225	0,040
-385,233	205,958	0,046	-0,053
-384,219	-200,000	0,001	0,086
-383,204	504,323	-0,040	0,067
-382,190	-55,617	0,083	0,027
-381,175	-200,000	0,037	-0,155
-380,160	82,606	0,066	-0,052
-379,146	303,088	0,046	0,062
-378,131	-200,000	-0,022	-0,083
-377,117	-48,778	-0,156	0,054
-376,102	93,140	0,086	0,070
-375,088	-29,782	-0,046	-0,019
-374,073	159,258	0,060	0,061
-373,058	-200,000	0,033	-0,144
-372,044	800,000	-0,055	0,129
-371,029	-200,000	-0,003	0,028
-370,015	800,000	0,031	0,074
-369,000	146,584	0,067	0,065
-367,985	153,907	-0,019	0,019
-366,971	492,129	-0,042	-0,071
-365,956	124,318	-0,074	-0,068
-364,942	-117,414	0,114	0,015
-363,927	124,362	0,075	0,068
-362,912	102,541	0,085	-0,072
-361,898	187,816	0,054	0,059
-360,883	158,800	-0,100	0,101
-359,869	211,848	0,038	0,044
-358,854	800,000	0,043	0,095
-357,839	-200,000	-0,028	-0,094
-356,825	208,764	0,085	-0,097
-355,810	800,000	0,050	-0,107
-354,796	800,000	-0,035	0,076
-353,781	204,437	-0,060	-0,067
-352,766	473,469	0,056	-0,091
-351,752	271,508	0,038	-0,049
-350,737	-200,000	-0,001	0,082
-349,723	-13,056	0,067	0,031
-348,708	-58,460	0,150	0,047
-347,693	490,682	0,091	0,151
-346,679	2,373	-0,115	-0,060
-345,664	800,000	-0,050	-0,152
-344,650	612,603	0,023	0,042
-343,635	599,908	0,037	0,067
-342,620	6,156	0,175	-0,094
-341,606	800,000	-0,013	0,033
-340,591	-78,991	-0,076	0,019
-339,577	-200,000	-0,006	0,079
-338,562	142,360	-0,062	0,060
-337,548	-103,795	-0,024	0,004
-336,533	-200,000	0,017	0,080
-335,518	-160,644	0,023	-0,001
-334,504	132,199	-0,042	-0,040
-333,489	312,576	-0,056	-0,077
-332,475	-125,516	0,099	0,011
-331,460	800,000	-0,047	-0,108
-330,445	69,461	0,078	0,058
-329,431	7,841	-0,144	0,078
-328,416	-18,972	0,044	-0,020
-327,402	242,065	-0,047	0,057
-326,387	179,303	-0,122	-0,129
-325,372	87,605	-0,060	-0,048
-324,358	17,724	0,050	-0,029
-323,343	800,000	0,045	-0,101
-322,329	44,891	0,137	0,091
-321,314	-94,775	0,069	0,013
-320,299	123,646	-0,030	0,027
-319,285	-34,827	-0,054	0,021
-318,270	-113,482	0,062	0,009
-317,256	-200,000	0,023	-0,174
-316,241	677,003	-0,033	0,062
-315,226	-25,655	0,043	0,018
-314,212	103,547	0,050	-0,043
-313,197	157,064	0,019	-0,020
-312,183	-200,000	0,001	0,054
-311,168	372,765	-0,111	0,164
-310,153	679,562	-0,044	0,083
-309,139	453,284	0,034	0,054
-308,124	70,257	-0,163	-0,122
-307,110	394,263	-0,049	0,074
-306,095	-9,850	0,112	-0,054
-305,080	800,000	0,056	-0,161
-304,066	198,681	0,075	-0,083
-303,051	-200,000	-0,131	-0,000
-302,037	-174,935	-0,045	0,001
-301,022	-74,324	0,087	-0,023
-300,008	101,352	-0,097	-0,082
-298,993	177,314	0,043	0,045
-297,978	800,000	0,022	-0,068
-296,964	-63,529	-0,091	-0,027
-295,949	-131,698	-0,077	0,007
-294,935	-55,940	-0,078	-0,025
-293,920	384,099	0,108	0,162
-292,905	-12,624	0,108	0,051
-291,891	800,000	-0,060	-0,131
-290,876	88,417	0,060	0,048
-289,862	323,709	0,024	0,033
-288,847	30,766	-0,068	0,042
-287,832	-9,645	0,063	0,030
-286,818	-125,645	0,135	0,015
-285,803	-164,074	-0,044	0,001
-284,789	-138,118	0,079	-0,006
-283,774	-140,275	-0,015	-0,001
-282,759	-200,000	-0,007	0,027
-281,745	170,006	-0,058	-0,060
-280,730	-52,729	-0,049	0,016
-279,716	800,000	-0,019	-0,047
-278,701	71,807	0,076	-0,057
-277,686	82,964	-0,082	0,064
-276,672	63,147	0,057	0,041
-275,657	553,239	-0,099	0,173
-274,643	46,642	-0,069	-0,046
-273,628	-67,345	-0,073	-0,021
-272,613	95,114	-0,106	0,087
-271,599	70,554	0,065	0,049
-270,584	77,743	-0,054	0,042
-269,570	60,263	0,103	-0,074
-268,555	-53,312	-0,128	-0,042
-267,540	-133,972	0,026	0,002
-266,526	765,595	0,027	-0,053
-265,511	272,547	0,070	0,089
-264,497	-14,663	-0,024	0,011
-263,482	-124,185	0,077	-0,009
-262,467	-59,076	-0,048	0,015
-261,453	-46,923	-0,122	-0,043
-260,438	-37,276	0,076	0,029
-259,424	800,000	0,044	-0,140
-258,409	-200,000	0,008	0,042
-257,395	800,000	-0,035	0,077
-256,380	-103,811	-0,106	-0,018
-255,365	57,854	0,073	-0,052
-254,351	-135,011	0,178	0,015
-253,336	335,868	-0,109	-0,154
-252,322	473,514	-0,023	-0,037
-251,307	-87,130	-0,142	0,031
-250,292	222,632	-0,036	0,042
-249,278	-200,000	-0,013	0,090
-248,263	-200,000	0,000	-0,002
-247,249	-2,025	0,107	0,054
-246,234	-43,222	0,055	0,020
-245,219	-80,416	0,062	-0,015
-244,205	737,859	-0,025	-0,048
-243,190	-200,000	0,057	-0,205
-242,176	-115,561	0,024	0,003
-241,161	-200,000	0,008	-0,052
-240,146	-200,000	-0,019	-0,163
-239,132	-200,000	0,012	-0,040
-238,117	-33,848	-0,097	0,039
-237,103	82,800	0,084	0,066
-236,088	-135,683	0,064	0,005
-235,073	-139,680	0,043	0,003
-234,059	-124,102	-0,009	0,001
-233,044	45,235	0,096	0,064
-232,030	800,000	0,029	-0,089
-231,015	-200,000	0,003	-0,029
-230,000	800,000	-0,008	-0,021
-228,986	800,000	0,019	-0,047
-227,971	-200,000	0,001	-0,042
-226,957	-200,000	0,004	0,072
-225,942	800,000	-0,016	0,035
-224,927	-116,198	-0,068	-0,009
-223,913	24,837	-0,082	-0,049
-222,898	116,725	0,059	0,052
-221,884	-109,805	0,083	-0,012
-220,869	154,085	-0,050	0,050
-219,855	800,000	-0,054	0,121
-218,840	400,826	0,043	0,065
-217,825	149,621	-0,086	0,084
-216,811	400,229	0,042	0,064
-215,796	-200,000	-0,010	0,054
-214,782	541,406	-0,042	-0,073
-213,767	90,688	0,081	0,066
-212,752	-8,518	0,069	0,033
-211,738	22,045	0,095	0,056
-210,723	321,694	-0,036	0,049
-209,709	-86,165	-0,113	0,025
-208,694	-200,000	0,004	-0,018
-207,679	-138,498	0,033	0,003
-206,665	-200,000	0,020	0,065
-205,650	77,075	-0,027	0,020
-204,636	-200,000	-0,018	0,061
-203,621	23,397	-0,087	0,051
-202,606	75,401	-0,039	-0,030
-201,592	800,000	-0,010	-0,029
-200,577	259,785	0,078	0,097
-199,563	-200,000	-0,017	0,073
-198,548	238,372	0,065	0,078
-197,533	441,893	-0,101	0,161
-196,519	183,263	0,083	0,088
-195,504	-128,657	0,087	-0,009
-194,490	-152,089	0,049	0,003
-193,475	800,000	0,024	-0,061
-192,460	42,668	-0,102	0,067
-191,446	800,000	-0,017	-0,053
-190,431	-128,215	-0,055	-0,006
-189,417	-96,184	-0,055	-0,010
-188,402	-200,000	-0,002	0,034
-187,387	800,000	-0,061	-0,160
-186,373	459,614	0,025	-0,040
-185,358	-200,000	0,000	0,084
-184,344	-200,000	0,002	-0,015
-183,329	563,804	0,045	0,079
-182,315	300,596	-0,039	0,052
-181,300	-200,000	-0,005	-0,044
-180,285	800,000	-0,021	0,064
-179,271	800,000	0,056	-0,141
-178,256	305,623	-0,123	0,166
-177,242	-93,070	-0,147	-0,029
-176,227	574,361	0,032	0,057
-175,212	140,071	-0,074	-0,070
-174,198	800,000	-0,054	0,150
-173,183	-1,689	0,099	0,050
-172,169	170,649	0,048	-0,049
-171,154	-15,920	0,039	0,018
-170,139	2,003	0,054	-0,028
-169,125	-46,986	0,164	-0,057
-168,110	800,000	-0,077	-0,166
-167,096	-86,688	0,082	-0,018
-166,081	-200,000	-0,004	-0,140
-165,066	287,471	-0,072	-0,094
-164,052	5,857	-0,114	0,061
-163,037	-155,748	-0,112	-0,005
-162,023	-200,000	0,006	0,070
-161,008	93,179	0,059	0,048
-159,993	91,069	0,049	0,040
-158,979	-200,000	0,024	-0,128
-157,964	794,082	-0,059	-0,118
-156,950	79,394	-0,010	-0,007
-155,935	557,105	0,040	0,070
-154,920	105,134	0,124	0,105
-153,906	-200,000	-0,012	0,098
-152,891	800,000	-0,042	0,087
-151,877	-188,332	0,077	0,001
-150,862	-200,000	-0,025	-0,114
-149,847	-200,000	0,002	-0,155
-148,833	800,000	0,009	-0,029
-147,818	-96,777	0,079	0,015
-146,804	-78,141	0,080	-0,020
-145,789	-200,000	-0,014	0,068
-144,775	-150,145	-0,077	-0,004
-143,760	-200,000	0,004	-0,119
-142,745	800,000	-0,044	-0,120
-141,731	-151,597	-0,147	0,008
-140,716	53,531	0,028	-0,020
-139,702	37,889	0,045	0,029
-138,687	2,706	0,046	-0,024
-137,672	-200,000	0,002	0,015
-136,658	800,000	-0,056	-0,156
-135,643	195,465	-0,083	-0,091
-134,629	266,903	-0,040	-0,051
-133,614	98,654	-0,051	-0,043
-132,599	-200,000	-0,004	-0,100
-131,585	-94,139	0,150	-0,029
-130,570	777,968	-0,050	-0,100
-129,556	-200,000	-0,037	-0,117
-128,541	394,895	-0,058	-0,087
-127,526	-9,220	-0,073	-0,035
-126,512	800,000	0,023	0,061
-125,497	25,797	0,099	0,059
-124,483	750,052	0,004	-0,008
-123,468	800,000	0,039	0,095
-122,453	483,481	-0,013	0,021
-121,439	800,000	0,036	0,114
-120,424	-200,000	-0,014	0,092
-119,410	-179,043	-0,084	0,001
-118,395	-84,861	0,038	0,008
-117,380	-200,000	0,005	0,095
-116,366	800,000	0,022	-0,060
-115,351	-150,755	-0,101	0,005
-114,337	-136,905	-0,105	-0,009
-113,322	147,891	-0,061	-0,059
-112,307	28,884	0,104	-0,063
-111,293	128,442	0,114	0,105
-110,278	132,427	-0,029	-0,027
-109,264	293,525	-0,017	0,022
-108,249	-15,091	0,060	-0,027
-107,234	-98,180	-0,121	-0,022
-106,220	9,289	-0,061	-0,033
-105,205	800,000	-0,021	-0,058
-104,191	-164,762	-0,163	0,005
-103,176	258,433	-0,034	0,043
-102,162	-200,000	0,006	-0,076
-101,147	-200,000	0,002	-0,117
-100,132	244,401	-0,010	0,012
-99,118	-155,844	-0,069	-0,003
-98,103	-77,489	0,078	-0,019
-97,089	-104,861	-0,084	-0,014
-96,074	-38,001	0,054	0,021
-95,059	423,985	0,034	0,053
-94,045	272,758	-0,057	0,072
-93,030	-200,000	-0,011	-0,084
-92,016	-52,517	-0,098	-0,032
-91,001	556,153	-0,046	-0,079
-89,986	488,808	-0,138	-0,228
-88,972	288,866	0,062	0,081
-87,957	-200,000	-0,001	0,206
-86,943	23,980	0,079	0,047
-85,928	-87,908	-0,123	-0,026
-84,913	30,486	0,062	0,038
-83,899	403,541	-0,024	-0,037
-82,884	-109,532	0,036	-0,005
-81,870	-200,000	-0,004	0,021
-80,855	-151,390	-0,058	0,003
-79,840	668,915	0,024	0,044
-78,826	16,278	-0,056	-0,031
-77,811	800,000	-0,041	-0,082
-76,797	67,902	0,109	0,080
-75,782	27,278	-0,125	-0,075
-74,767	800,000	0,069	0,138
-73,753	243,734	0,040	0,048
-72,738	77,859	0,172	0,132
-71,724	800,000	0,061	0,138
-70,709	-117,216	-0,090	0,012
-69,694	-200,000	-0,035	-0,112
-68,680	-200,000	-0,010	0,209
-67,665	-200,000	-0,005	0,164
-66,651	-50,027	0,065	0,022
-65,636	207,765	-0,037	0,042
-64,622	136,973	0,086	-0,081
-63,607	800,000	0,032	-0,073
-62,592	623,930	0,005	-0,008
-61,578	104,414	-0,101	0,085
-60,563	-55,135	0,058	-0,019
-59,549	309,874	-0,091	0,122
-58,534	-21,163	-2,120	-0,927
-57,519	-200,000	-0,089	-0,854
-56,505	-200,000	-1,357	-5,003
-55,490	60,792	0,798	0,567
-54,476	800,000	5,214	12,124
-53,461	-200,000	17,845	290,379
-52,446	800,000	726,056	2231,173
-51,432	537,240	1639,144	2805,146
-50,417	109,817	1629,282	1401,980
-49,403	73,357	1283,472	962,828
-48,388	31,583	1026,248	631,874
-47,373	19,902	988,401	570,081
-46,359	18,217	976,386	557,608
-45,344	15,585	972,402	546,707
-44,330	15,777	971,034	546,543
-43,315	15,285	969,343	543,964
-42,300	15,258	968,055	543,130
-41,286	15,239	967,241	542,592
-40,271	15,283	966,002	542,019
-39,257	15,292	965,061	541,498
-38,242	15,293	964,267	541,033
-37,227	15,241	963,598	540,467
-36,213	15,271	962,698	540,037
-35,198	15,258	961,784	539,463
-34,184	15,323	960,936	539,176
-33,169	15,172	960,199	538,253
-32,154	15,284	959,071	537,962
-31,140	15,333	958,359	537,697
-30,125	15,318	957,542	537,169
-29,111	15,357	956,501	536,690
-28,096	15,324	956,314	536,456
-27,082	15,334	955,482	536,002
-26,067	15,263	954,636	535,279
-25,052	15,279	953,799	534,840
-24,038	15,252	953,267	534,431
-23,023	15,217	952,593	533,922
-22,009	15,283	951,993	533,774
-20,994	15,270	951,307	533,329
-19,979	15,319	950,650	533,095
-18,965	15,326	949,996	532,729
-17,950	15,279	949,387	532,218
-16,936	15,192	948,931	531,661
-15,921	15,238	948,184	531,368
-14,906	15,143	947,527	530,676
-13,892	15,137	946,813	530,238
-12,877	15,138	946,127	529,835
-11,863	15,123	945,406	529,363
-10,848	15,174	945,091	529,327
-9,833	15,179	944,721	529,115
-8,819	15,227	943,964	528,822
-7,804	15,190	943,345	528,336
-6,790	15,233	942,516	527,988
-5,775	15,186	942,099	527,586
-4,760	15,166	941,465	527,147
-3,746	15,171	940,909	526,830
-2,731	15,053	940,191	526,034
-1,717	14,985	939,735	525,541
-0,702	15,024	938,823	525,134
0,313	14,825	938,300	525,007
1,327	18,174	936,064	534,250
2,342	27,161	789,992	474,562
3,356	23,771	444,576	262,021
4,371	-5,766	294,898	144,333
5,386	-9,605	276,590	131,729
6,400	-11,120	270,907	127,606
7,415	-10,981	268,349	126,518
8,429	-11,055	267,125	125,861
9,444	-11,216	266,329	125,328
10,459	-10,904	265,651	125,281
11,473	-11,026	264,891	124,801
12,488	-11,278	264,516	124,385
13,502	-11,449	263,961	123,959
14,517	-11,373	263,510	123,804
15,531	-11,136	262,994	123,765
16,546	-11,182	262,691	123,570
17,561	-11,461	262,671	123,298
18,575	-11,265	262,104	123,197
19,590	-11,293	261,730	122,985
20,604	-11,072	261,292	122,966
21,619	-11,573	261,270	122,496
22,634	-11,282	260,727	122,491
23,648	-11,467	260,431	122,176
24,663	-11,260	260,225	122,253
25,677	-11,272	259,839	122,050
26,692	-11,376	259,692	121,877
27,707	-11,400	259,499	121,754
28,721	-11,271	259,173	121,705
29,736	-11,313	258,780	121,472
30,750	-11,355	258,559	121,321
31,765	-11,375	258,413	121,224
32,780	-11,293	258,148	121,161
33,794	-11,353	258,041	121,047
34,809	-11,355	257,748	120,897
35,823	-11,284	257,461	120,814
36,838	-11,405	257,281	120,613
37,853	-11,281	256,775	120,474
38,867	-11,270	256,654	120,415
39,882	-11,396	256,503	120,223
40,896	-11,386	256,164	120,062
41,911	-11,428	256,021	119,948
42,926	-11,588	255,827	119,707
43,940	-11,530	255,580	119,631
44,955	-11,553	255,285	119,463
45,969	-11,449	254,942	119,382
46,984	-11,857	254,939	119,015
47,999	-11,924	254,577	118,777
49,013	-12,109	254,315	118,484
50,028	-12,254	254,176	118,283
51,042	-12,185	253,770	118,143
52,057	-12,351	253,588	117,904
53,071	-12,309	253,321	117,806
54,086	-12,093	253,204	117,927
55,101	-11,866	252,939	117,989
56,115	-11,672	252,913	118,134
57,130	-11,308	252,831	118,399
58,144	-11,142	252,579	118,413
59,159	-11,177	252,476	118,324
60,174	-11,267	252,253	118,132
61,188	-11,239	252,045	118,048
62,203	-11,240	251,797	117,921
63,217	-11,246	251,539	117,784
64,232	-11,441	251,421	117,551
65,247	-11,235	251,160	117,595
66,261	-11,274	250,894	117,426
67,276	-11,421	250,525	117,118
68,290	-11,642	250,470	116,894
69,305	-11,757	250,060	116,593
70,320	-11,719	249,972	116,575
71,334	-11,475	249,850	116,714
72,349	-11,369	249,740	116,743
73,363	-11,231	249,509	116,742
74,378	-11,258	249,355	116,636
75,393	-11,251	249,011	116,471
76,407	-11,106	248,909	116,536
77,422	-11,325	248,661	116,224
78,436	-11,384	248,533	116,103
79,451	-11,280	248,238	116,044
80,466	-11,486	247,889	115,696
81,480	-11,578	247,821	115,577
82,495	-11,733	247,572	115,320
83,509	-11,523	247,421	115,416
84,524	-11,640	247,259	115,232
85,539	-11,849	246,959	114,906
86,553	-11,663	246,731	114,946
87,568	-11,677	246,587	114,856
88,582	-11,441	246,410	114,962
89,597	-11,501	246,034	114,726
90,611	-11,586	246,025	114,640
91,626	-11,325	245,807	114,747
92,641	-11,263	245,630	114,706
93,655	-11,620	245,587	114,377
94,670	-11,612	245,357	114,267
95,684	-11,435	245,003	114,239
96,699	-11,569	244,902	114,070
97,714	-11,472	244,763	114,076
98,728	-11,649	244,409	113,753
99,743	-11,740	244,249	113,593
100,757	-11,677	244,011	113,525
101,772	-11,728	243,956	113,447
102,787	-11,528	243,674	113,471
103,801	-11,500	243,572	113,437
104,816	-11,525	243,528	113,385
105,830	-11,351	243,408	113,463
106,845	-11,311	243,095	113,340
107,860	-11,420	242,935	113,166
108,874	-11,257	242,637	113,151
109,889	-11,591	242,537	112,820
110,903	-11,585	242,287	112,698
111,918	-11,654	242,044	112,518
112,933	-11,482	241,923	112,593
113,947	-11,513	241,913	112,553
114,962	-11,506	241,771	112,482
115,976	-11,287	241,385	112,473
116,991	-11,456	241,327	112,298
118,006	-11,322	241,119	112,300
119,020	-11,430	241,043	112,166
120,035	-11,472	240,836	112,025
121,049	-11,180	240,603	112,146
122,064	-11,350	240,514	111,955
123,079	-11,146	240,151	111,943
124,093	-11,648	240,052	111,478
125,108	-11,737	239,794	111,276
126,122	-11,810	239,631	111,131
127,137	-11,899	239,398	110,940
128,151	-11,767	239,165	110,929
129,166	-11,906	239,086	110,771
130,181	-11,651	238,860	110,862
131,195	-11,834	238,623	110,595
132,210	-11,621	238,502	110,701
133,224	-11,507	238,301	110,690
134,239	-11,317	238,127	110,752
135,254	-11,506	238,126	110,589
136,268	-11,223	237,735	110,625
137,283	-12,002	237,662	109,955
138,297	-12,008	237,317	109,781
139,312	-11,977	237,278	109,778
140,327	-11,467	237,289	110,182
141,341	-11,241	237,209	110,317
142,356	-11,064	236,971	110,338
143,370	-11,114	236,780	110,200
144,385	-10,997	236,688	110,241
145,400	-10,972	236,496	110,162
146,414	-11,017	236,164	109,961
147,429	-11,196	236,146	109,800
148,443	-11,185	235,930	109,699
149,458	-11,167	235,842	109,662
150,473	-11,063	235,518	109,585
151,487	-11,173	235,416	109,439
152,502	-11,218	235,233	109,309
153,516	-11,078	235,063	109,332
154,531	-11,066	234,814	109,215
155,546	-11,296	234,812	109,023
156,560	-11,100	234,459	109,004
157,575	-11,398	234,370	108,717
158,589	-11,416	234,135	108,584
159,604	-11,044	234,016	108,813
160,619	-11,103	233,978	108,739
161,633	-10,902	233,750	108,783
162,648	-10,751	233,672	108,856
163,662	-11,077	233,444	108,483
164,677	-11,248	233,250	108,248
165,692	-10,993	233,109	108,374
166,706	-11,075	233,066	108,280
167,721	-10,784	232,851	108,399
168,735	-10,817	232,727	108,305
169,750	-11,174	232,700	108,003
170,764	-11,080	232,317	107,889
171,779	-11,153	232,320	107,824
172,794	-10,865	232,050	107,914
173,808	-11,147	231,725	107,533
174,823	-11,674	231,462	106,990
175,837	-11,615	231,240	106,923
176,852	-11,418	231,345	107,116
177,867	-11,134	231,265	107,292
178,881	-11,182	231,134	107,184
179,896	-11,093	231,099	107,227
180,910	-10,877	230,801	107,248
181,925	-10,921	230,641	107,129
182,940	-10,819	230,588	107,175
183,954	-10,982	230,392	106,947
184,969	-10,902	230,168	106,896
185,983	-10,837	230,022	106,869
186,998	-10,691	229,912	106,921
188,013	-11,034	229,764	106,577
189,027	-10,929	229,677	106,609
190,042	-11,036	229,451	106,412
191,056	-10,809	229,117	106,422
192,071	-10,766	229,011	106,397
193,086	-10,906	228,937	106,245
194,100	-11,004	228,738	106,067
195,115	-11,369	228,324	105,586
196,129	-11,869	228,074	105,076
197,144	-6,985	229,997	109,733
198,159	-0,056	231,916	116,032
199,173	2,986	232,679	118,770
200,188	3,370	232,495	118,964
201,202	3,268	232,523	118,888
202,217	3,458	232,404	118,965
203,232	3,673	232,202	119,017
204,246	3,832	232,215	119,137
205,261	3,889	232,062	119,091
206,275	4,009	231,915	119,099
207,290	3,896	231,844	118,964
208,304	4,058	231,666	118,987
209,319	4,021	231,417	118,820
210,334	3,715	231,299	118,513
211,348	3,547	230,905	118,171
212,363	3,488	230,723	118,021
213,377	3,103	230,582	117,643
214,392	2,935	230,386	117,404
215,407	3,337	230,229	117,621
216,421	3,336	230,233	117,612
217,436	3,298	229,861	117,383
218,450	2,933	229,627	116,973
219,465	2,946	229,499	116,907
220,480	2,936	229,502	116,891
221,494	3,056	229,202	116,820
222,509	3,106	229,315	116,905
223,523	3,071	229,044	116,730
224,538	3,040	228,786	116,564
225,553	3,047	228,833	116,583
226,567	3,395	228,638	116,738
227,582	3,324	228,668	116,689
228,596	3,534	228,361	116,682
229,611	3,183	228,332	116,390
230,626	3,017	228,058	116,114
231,640	2,971	227,809	115,941
232,655	3,376	227,833	116,251
233,669	3,841	227,644	116,496
234,684	4,037	227,583	116,603
235,699	3,694	227,376	116,227
236,713	3,422	227,207	115,925
237,728	3,178	227,084	115,667
238,742	2,993	226,850	115,398
239,757	2,997	226,708	115,318
240,772	3,065	226,571	115,290
241,786	3,061	226,470	115,225
242,801	3,374	226,326	115,377
243,815	3,512	226,334	115,475
244,830	3,385	226,148	115,274
245,844	3,306	225,779	115,016
246,859	3,126	225,706	114,833
247,874	3,311	225,526	114,871
248,888	3,567	225,470	115,024
249,903	3,448	225,321	114,849
250,917	3,391	225,084	114,675
251,932	3,086	225,015	114,401
252,947	3,271	224,677	114,357
253,961	2,981	224,580	114,081
254,976	3,237	224,375	114,158
255,990	3,514	224,257	114,294
257,005	3,394	224,276	114,205
258,020	3,443	224,164	114,173
259,034	3,682	224,119	114,318
260,049	3,698	223,820	114,167
261,063	3,398	223,705	113,876
262,078	3,429	223,731	113,902
263,093	3,637	223,462	113,909
264,107	3,555	223,388	113,800
265,122	3,421	223,295	113,644
266,136	3,664	223,085	113,706
267,151	3,624	222,924	113,585
268,166	3,316	222,633	113,198
269,180	3,022	222,338	112,821
270,195	3,036	222,365	112,836
271,209	2,972	222,228	112,709
272,224	3,100	222,123	112,740
273,239	3,246	222,034	112,792
274,253	3,144	221,707	112,541
275,268	2,800	221,683	112,265
276,282	2,871	221,352	112,141
277,297	2,852	221,334	112,107
278,312	3,151	221,187	112,242
279,326	3,258	221,022	112,226
280,341	3,262	220,843	112,129
281,355	3,314	220,753	112,111
282,370	3,188	220,585	111,924
283,384	2,628	220,524	111,473
284,399	2,807	220,198	111,429
285,414	2,837	220,157	111,421
286,428	3,036	220,002	111,477
287,443	3,406	220,003	111,738
288,457	3,235	219,825	111,513
289,472	3,234	219,563	111,368
290,487	2,628	219,508	110,890
291,501	2,685	219,353	110,843
292,516	2,926	219,066	110,863
293,530	2,815	219,145	110,813
294,545	2,716	218,941	110,628
295,560	3,063	218,819	110,809
296,574	3,044	218,661	110,704
297,589	3,227	218,479	110,735
298,603	3,212	218,476	110,713
299,618	3,226	218,298	110,623
300,633	3,274	218,049	110,522
301,647	3,435	218,017	110,612
302,662	3,374	217,875	110,486
303,676	3,430	217,668	110,411
304,691	3,311	217,678	110,321
305,706	3,375	217,390	110,210
306,720	3,097	217,383	109,997
307,735	3,080	217,155	109,860
308,749	3,247	216,896	109,839
309,764	3,205	216,948	109,826
310,779	3,358	216,700	109,800
311,793	3,381	216,719	109,816
312,808	3,227	216,474	109,572
313,822	3,373	216,172	109,513
314,837	2,949	216,298	109,265
315,852	3,045	215,953	109,149
316,866	2,990	215,954	109,101
317,881	3,556	215,753	109,393
318,895	3,308	215,669	109,163
319,910	3,066	215,584	108,938
320,925	3,039	215,183	108,707
321,939	2,682	214,995	108,349
322,954	2,803	215,044	108,450
323,968	3,224	214,985	108,709
324,983	3,217	214,949	108,676
325,997	3,215	214,752	108,566
327,012	3,142	214,554	108,404
328,027	3,213	214,397	108,366
329,041	3,756	214,274	108,678
330,056	3,732	214,286	108,658
331,070	3,233	213,920	108,110
332,085	2,951	213,868	107,875
333,100	3,032	213,729	107,852
334,114	3,403	213,555	108,016
335,129	3,361	213,376	107,886
336,143	3,102	213,379	107,696
337,158	3,017	213,299	107,586
338,173	3,308	213,019	107,640
339,187	2,899	212,888	107,277
340,202	2,818	212,713	107,122
341,216	2,924	212,477	107,068
342,231	3,089	212,435	107,153
343,246	2,718	212,446	106,889
344,260	2,989	212,305	106,998
345,275	3,150	212,159	107,028
346,289	3,312	211,984	107,043
347,304	3,300	211,911	106,988
348,319	3,340	211,549	106,824
349,333	3,069	211,502	106,602
350,348	3,030	211,564	106,596
351,362	3,374	211,395	106,741
352,377	3,347	211,253	106,641
353,392	3,262	211,131	106,511
354,406	3,442	210,899	106,509
355,421	195,623	1340,424	1418,581
356,435	156,250	1478,018	1418,559
