DTS Sentinel unit serial number:	SN410029Multiplexer serial number:	ORYXHardware model number:	OX2-SRSoftware version number:	ORYX F/W v4,00 Oryx Data Collector v3.7.2.0data status	okinstallation	B6 Nyhavnadifferential loss correction	single-endedforward channel	channel 2reverse channel	N/Adate	2023/12/11time	02:10:08forward acquisition time	300,00reverse acquisition time	0,00gamma	499,1914k internal	0,3122k external	0,3122temperature offset calibration	1,0000default loss term (dB/km)	0,3820temperature slope calibration	1,0000multiplexer offset coefficient	1,0000multiplexer slope coefficient	1,0000fibre end	0,00T internal ref (°C)	21,88T ext. ref 1 (°C)	4,85T ext. ref 2 (°C)	4,88length (m)	temperature (°C)	Stokes	anti-Stokes-744,400	537,427	0,076	-0,136
-743,385	-50,482	-0,177	0,062
-742,371	478,257	-0,009	-0,015
-741,356	-61,859	-0,296	0,092
-740,342	-142,546	0,056	-0,004
-739,327	-134,791	-0,220	-0,020
-738,312	112,107	-0,048	0,044
-737,298	77,089	-0,164	0,130
-736,283	77,771	0,063	-0,050
-735,269	-183,277	-0,280	0,004
-734,254	60,995	0,135	-0,100
-733,239	-57,321	-0,443	-0,144
-732,225	296,197	0,032	-0,044
-731,210	315,250	0,093	0,131
-730,196	42,076	-0,077	0,052
-729,181	-140,653	-0,071	-0,005
-728,167	145,452	-0,030	-0,030
-727,152	91,183	-0,063	0,053
-726,137	-200,000	-0,009	-0,077
-725,123	73,318	-0,088	-0,069
-724,108	800,000	-0,082	-0,170
-723,094	-200,000	-0,030	-0,110
-722,079	800,000	-0,089	-0,226
-721,064	41,489	0,118	-0,079
-720,050	18,961	0,048	0,029
-719,035	-92,475	-0,058	0,012
-718,021	21,586	-0,032	-0,019
-717,006	135,584	-0,080	0,078
-715,991	-161,397	-0,156	-0,006
-714,977	-200,000	0,000	0,002
-713,962	-200,000	0,007	-0,082
-712,948	-42,232	-0,031	0,012
-711,933	136,800	0,050	0,049
-710,918	698,355	0,062	-0,121
-709,904	-200,000	-0,007	0,041
-708,889	668,681	0,043	0,083
-707,875	2,675	-0,098	0,053
-706,860	117,086	-0,074	0,068
-705,845	-200,000	-0,017	-0,120
-704,831	-23,337	0,012	0,006
-703,816	800,000	-0,022	0,055
-702,802	-200,000	-0,007	-0,040
-701,787	-31,121	-0,189	-0,079
-700,772	-98,416	-0,185	-0,035
-699,758	-102,164	-0,037	0,007
-698,743	-122,938	-0,096	0,011
-697,729	673,086	-0,017	-0,032
-696,714	767,083	0,029	-0,059
-695,699	120,146	0,008	0,007
-694,685	-81,986	-0,061	0,015
-693,670	-200,000	-0,005	-0,096
-692,656	50,207	-0,055	-0,039
-691,641	553,585	0,031	0,055
-690,627	557,208	-0,019	-0,033
-689,612	193,714	-0,016	0,018
-688,597	20,092	0,041	-0,024
-687,583	194,350	-0,083	-0,094
-686,568	-113,425	-0,026	0,004
-685,554	800,000	-0,081	-0,183
-684,539	-104,702	0,064	-0,011
-683,524	-200,000	-0,022	0,119
-682,510	-200,000	-0,012	0,081
-681,495	-200,000	0,012	-0,146
-680,481	-200,000	0,001	-0,085
-679,466	800,000	-0,045	-0,124
-678,451	-200,000	0,008	-0,035
-677,437	800,000	0,017	-0,052
-676,422	-200,000	-0,005	-0,103
-675,408	-87,188	0,075	0,017
-674,393	98,660	0,055	0,047
-673,378	-16,500	-0,122	-0,057
-672,364	-200,000	0,005	0,082
-671,349	800,000	-0,022	-0,051
-670,335	-200,000	-0,004	-0,130
-669,320	15,628	0,033	-0,019
-668,305	158,541	-0,090	-0,093
-667,291	-52,231	0,068	-0,023
-666,276	-130,206	-0,162	-0,016
-665,262	-161,793	0,042	0,002
-664,247	800,000	-0,027	-0,087
-663,232	-62,801	-0,143	-0,044
-662,218	244,608	0,035	-0,043
-661,203	5,545	0,115	-0,063
-660,189	-200,000	0,021	0,113
-659,174	3,881	-0,137	-0,074
-658,159	-20,791	-0,060	-0,027
-657,145	182,802	0,030	0,033
-656,130	77,704	0,175	-0,138
-655,116	-200,000	-0,006	0,078
-654,101	176,596	0,074	0,080
-653,086	-200,000	-0,010	-0,047
-652,072	636,535	0,051	-0,097
-651,057	407,184	-0,097	-0,152
-650,043	236,072	0,048	-0,059
-649,028	53,684	0,019	-0,013
-648,014	-200,000	-0,014	0,051
-646,999	-200,000	-0,009	0,054
-645,984	800,000	-0,033	0,084
-644,970	800,000	-0,051	-0,159
-643,955	396,948	-0,042	0,065
-642,941	-162,321	-0,040	-0,001
-641,926	92,433	0,071	-0,060
-640,911	180,273	-0,055	0,061
-639,897	800,000	0,040	0,088
-638,882	-200,000	-0,019	0,068
-637,868	-80,466	0,125	-0,031
-636,853	800,000	-0,045	-0,115
-635,838	706,113	-0,060	0,118
-634,824	-94,799	0,071	-0,014
-633,809	1,349	0,023	0,012
-632,795	20,462	0,014	0,008
-631,780	403,750	-0,076	0,120
-630,765	-143,844	0,034	0,002
-629,751	-200,000	0,003	-0,030
-628,736	-89,377	0,007	-0,002
-627,722	-200,000	-0,029	-0,107
-626,707	215,406	0,065	-0,076
-625,692	-34,475	-0,072	0,029
-624,678	-150,970	-0,162	0,009
-623,663	-55,098	0,012	-0,004
-622,649	186,388	-0,063	-0,069
-621,634	-200,000	-0,002	-0,032
-620,619	-200,000	-0,011	0,040
-619,605	-200,000	-0,013	-0,059
-618,590	-161,356	0,076	-0,003
-617,576	334,012	-0,032	-0,046
-616,561	-40,134	-0,119	-0,046
-615,546	-200,000	-0,008	0,117
-614,532	368,043	-0,101	-0,152
-613,517	87,646	0,080	0,066
-612,503	800,000	-0,009	0,025
-611,488	-200,000	0,013	0,166
-610,474	-131,841	0,102	0,010
-609,459	-200,000	-0,012	-0,048
-608,444	-52,261	-0,114	-0,039
-607,430	-65,107	-0,081	-0,024
-606,415	-200,000	-0,018	-0,156
-605,401	800,000	0,042	-0,088
-604,386	-114,325	-0,046	0,007
-603,371	-62,334	-0,063	0,019
-602,357	-200,000	-0,005	-0,031
-601,342	-32,348	-0,051	-0,021
-600,328	106,196	-0,026	0,023
-599,313	129,061	0,043	0,041
-598,298	-81,116	0,116	-0,028
-597,284	800,000	-0,051	0,129
-596,269	281,515	0,042	0,055
-595,255	-132,120	0,064	0,006
-594,240	-77,856	-0,201	0,051
-593,225	-39,959	-0,165	-0,064
-592,211	-124,335	0,019	0,002
-591,196	-200,000	-0,000	-0,055
-590,182	121,494	0,028	-0,026
-589,167	800,000	0,028	0,061
-588,152	265,617	-0,056	0,072
-587,138	443,444	-0,024	0,039
-586,123	169,280	-0,085	-0,091
-585,109	6,061	-0,018	0,010
-584,094	-72,737	0,070	0,019
-583,079	-49,825	0,138	-0,048
-582,065	188,277	-0,018	0,020
-581,050	-200,000	0,006	0,072
-580,036	532,623	-0,071	0,126
-579,021	48,507	-0,086	0,060
-578,006	-200,000	0,016	0,081
-576,992	154,085	-0,106	0,107
-575,977	219,159	0,121	0,143
-574,963	-129,460	0,140	0,014
-573,948	344,275	0,034	-0,050
-572,934	308,857	-0,102	-0,142
-571,919	-146,765	-0,021	-0,001
-570,904	-200,000	-0,030	-0,160
-569,890	100,200	0,051	-0,044
-568,875	92,895	0,076	0,064
-567,861	60,968	0,076	0,056
-566,846	-200,000	-0,022	0,094
-565,831	800,000	0,059	0,173
-564,817	-94,236	-0,122	-0,024
-563,802	376,016	0,046	-0,069
-562,788	-17,858	0,011	-0,005
-561,773	114,074	-0,065	-0,058
-560,758	-87,132	0,110	0,025
-559,744	29,717	-0,085	-0,053
-558,729	6,411	-0,035	0,019
-557,715	62,058	-0,086	-0,063
-556,700	-61,281	-0,109	0,034
-555,685	-28,752	-0,101	0,043
-554,671	-200,000	-0,003	-0,150
-553,656	-3,128	-0,101	-0,052
-552,642	293,599	0,084	0,114
-551,627	800,000	0,024	-0,062
-550,612	57,749	-0,052	-0,038
-549,598	-15,529	-0,060	-0,028
-548,583	-200,000	-0,017	-0,078
-547,569	800,000	0,049	-0,119
-546,554	-200,000	-0,010	0,053
-545,539	129,384	0,068	-0,064
-544,525	-112,106	0,165	0,024
-543,510	208,153	-0,035	0,040
-542,496	34,587	0,105	-0,068
-541,481	-200,000	0,007	0,113
-540,466	75,233	-0,037	0,029
-539,452	-200,000	-0,028	0,108
-538,437	800,000	0,058	0,122
-537,423	60,028	-0,081	-0,059
-536,408	800,000	0,025	0,067
-535,393	800,000	-0,051	0,146
-534,379	-200,000	-0,019	0,065
-533,364	652,769	-0,046	-0,087
-532,350	-0,591	0,018	-0,009
-531,335	-179,215	0,171	0,003
-530,321	95,794	-0,077	0,065
-529,306	-200,000	-0,012	-0,048
-528,291	81,874	-0,078	-0,062
-527,277	-200,000	0,003	-0,014
-526,262	19,150	0,097	0,058
-525,248	800,000	0,059	0,122
-524,233	800,000	-0,022	0,052
-523,218	-200,000	0,007	-0,023
-522,204	-200,000	0,008	-0,030
-521,189	-63,750	-0,131	0,040
-520,175	-80,445	0,043	-0,011
-519,160	118,654	0,060	0,055
-518,145	-200,000	0,041	0,142
-517,131	278,307	0,064	0,084
-516,116	-126,804	0,093	-0,010
-515,102	224,072	-0,035	-0,042
-514,087	6,960	-0,066	-0,036
-513,072	328,647	0,042	-0,059
-512,058	-200,000	0,007	-0,112
-511,043	191,694	0,031	-0,034
-510,029	-39,931	-0,095	0,037
-509,014	459,648	0,027	0,044
-507,999	302,156	-0,053	0,073
-506,985	-200,000	-0,017	-0,079
-505,970	800,000	0,034	0,085
-504,956	-81,831	0,041	0,010
-503,941	-138,526	-0,093	-0,007
-502,926	-179,214	0,044	0,001
-501,912	476,465	0,039	0,066
-500,897	362,876	0,018	-0,027
-499,883	171,956	-0,068	0,072
-498,868	-57,604	0,108	0,035
-497,853	387,095	-0,053	0,081
-496,839	77,807	0,079	0,062
-495,824	103,324	-0,038	0,033
-494,810	-200,000	0,008	-0,050
-493,795	-186,609	-0,042	0,000
-492,781	800,000	0,032	0,092
-491,766	-200,000	-0,000	0,005
-490,751	716,504	-0,050	0,098
-489,737	-200,000	-0,006	0,108
-488,722	-200,000	0,039	0,167
-487,708	800,000	0,017	0,040
-486,693	317,302	-0,086	-0,121
-485,678	73,078	-0,017	0,013
-484,664	-200,000	0,023	0,161
-483,649	8,295	0,074	0,041
-482,635	84,118	-0,066	-0,053
-481,620	-19,921	0,119	-0,054
-480,605	455,396	-0,049	0,081
-479,591	72,490	-0,012	0,009
-478,576	-42,385	-0,130	0,049
-477,562	800,000	0,016	-0,052
-476,547	408,172	-0,066	-0,104
-475,532	76,112	-0,044	-0,034
-474,518	133,572	0,087	0,083
-473,503	450,380	0,091	0,148
-472,489	5,214	0,047	0,026
-471,474	-159,721	0,043	0,002
-470,459	32,667	-0,085	-0,054
-469,445	-119,461	-0,091	-0,012
-468,430	601,065	0,011	0,021
-467,416	3,780	0,096	0,051
-466,401	42,576	-0,039	-0,026
-465,386	122,770	0,024	0,023
-464,372	133,314	-0,020	0,019
-463,357	800,000	0,031	0,066
-462,343	-72,633	0,035	-0,009
-461,328	-200,000	-0,004	-0,027
-460,313	-200,000	0,005	-0,043
-459,299	-150,997	0,120	-0,007
-458,284	-180,007	-0,011	-0,000
-457,270	-167,021	-0,117	0,003
-456,255	138,634	-0,101	-0,098
-455,241	44,461	-0,110	-0,074
-454,226	-200,000	0,028	-0,136
-453,211	-13,879	0,086	0,041
-452,197	216,210	-0,031	0,037
-451,182	800,000	-0,036	0,086
-450,168	-135,077	0,135	0,012
-449,153	251,234	-0,031	-0,039
-448,138	-124,428	-0,092	-0,010
-447,124	-65,136	-0,158	0,047
-446,109	-61,297	-0,083	-0,026
-445,095	-200,000	0,001	0,005
-444,080	-102,982	-0,065	-0,011
-443,065	-98,665	0,093	0,017
-442,051	-120,749	0,143	0,018
-441,036	-200,000	-0,015	0,066
-440,022	-123,276	0,129	-0,015
-439,007	33,506	0,101	-0,064
-437,992	48,960	-0,094	-0,065
-436,978	794,258	0,040	0,082
-435,963	-182,975	0,080	-0,001
-434,949	222,837	-0,024	0,029
-433,934	347,900	-0,013	0,019
-432,919	-200,000	-0,001	0,131
-431,905	189,083	0,043	0,047
-430,890	-84,062	0,099	0,023
-429,876	-164,753	0,098	-0,003
-428,861	-37,565	0,112	0,044
-427,846	-110,915	-0,076	-0,011
-426,832	148,134	-0,087	0,086
-425,817	99,949	0,059	0,050
-424,803	145,522	0,037	-0,036
-423,788	-148,365	0,090	-0,005
-422,773	-200,000	-0,007	0,097
-421,759	-50,894	-0,065	0,023
-420,744	519,282	-0,044	-0,076
-419,730	-63,782	-0,145	-0,044
-418,715	156,500	0,054	0,055
-417,701	-200,000	-0,023	-0,175
-416,686	566,206	-0,052	-0,094
-415,671	17,410	0,060	-0,035
-414,657	38,153	-0,034	-0,022
-413,642	-139,469	-0,124	-0,010
-412,628	-200,000	0,043	-0,167
-411,613	-111,076	-0,078	-0,012
-410,598	-100,154	0,165	0,030
-409,584	-200,000	0,020	0,087
-408,569	183,916	0,043	0,046
-407,555	-83,608	-0,091	0,021
-406,540	-73,950	0,092	0,024
-405,525	800,000	0,026	0,059
-404,511	-175,354	0,104	0,002
-403,496	-200,000	0,014	-0,049
-402,482	-200,000	-0,002	-0,095
-401,467	-200,000	0,049	0,166
-400,452	90,946	0,035	-0,029
-399,438	-200,000	0,008	0,099
-398,423	360,744	0,057	0,084
-397,409	-148,643	-0,060	-0,004
-396,394	-105,384	-0,105	-0,017
-395,379	54,065	0,093	-0,066
-394,365	60,858	-0,069	-0,050
-393,350	720,090	0,023	0,046
-392,336	-200,000	-0,030	-0,107
-391,321	800,000	-0,010	-0,032
-390,306	1,868	-0,037	0,019
-389,292	800,000	-0,016	-0,040
-388,277	-87,490	0,077	0,017
-387,263	-107,575	-0,117	0,019
-386,248	-200,000	-0,020	0,153
-385,233	523,252	-0,036	-0,062
-384,219	-81,041	-0,068	-0,017
-383,204	468,933	0,017	-0,028
-382,190	268,630	0,063	-0,082
-381,175	87,274	-0,027	-0,022
-380,160	-95,606	0,147	-0,029
-379,146	-64,941	0,095	0,028
-378,131	-54,363	-0,106	0,035
-377,117	-200,000	-0,015	-0,086
-376,102	-200,000	0,002	-0,010
-375,088	127,669	-0,048	-0,045
-374,073	498,497	0,102	0,174
-373,058	512,706	0,041	-0,070
-372,044	557,116	-0,042	-0,076
-371,029	458,201	0,052	0,085
-370,015	81,006	-0,090	0,072
-369,000	-200,000	-0,004	0,022
-367,985	-20,558	-0,043	-0,020
-366,971	-36,208	-0,114	0,045
-365,956	-200,000	0,019	0,072
-364,942	-66,461	0,125	-0,036
-363,927	93,768	0,094	-0,078
-362,912	18,255	-0,027	-0,016
-361,898	800,000	0,049	-0,111
-360,883	-200,000	-0,021	-0,101
-359,869	-48,833	-0,075	0,026
-358,854	156,458	0,084	0,085
-357,839	163,367	-0,034	-0,035
-356,825	681,240	0,045	0,087
-355,810	-39,361	-0,072	-0,027
-354,796	26,972	0,023	0,014
-353,781	-111,338	0,039	0,006
-352,766	-53,931	-0,017	-0,006
-351,752	329,536	0,028	0,040
-350,737	-75,136	-0,062	-0,016
-349,723	800,000	-0,028	0,059
-348,708	405,785	0,033	-0,051
-347,693	-149,911	0,004	-0,000
-346,679	45,523	-0,052	-0,035
-345,664	56,459	0,056	-0,040
-344,650	417,001	0,024	0,037
-343,635	800,000	0,014	0,028
-342,620	147,464	0,035	-0,035
-341,606	-173,685	-0,081	0,002
-340,591	220,286	-0,010	-0,012
-339,577	-12,173	-0,155	-0,074
-338,562	-40,870	-0,114	0,043
-337,548	461,752	0,011	0,018
-336,533	-163,066	0,020	0,001
-335,518	388,926	-0,014	0,021
-334,504	-200,000	-0,012	0,051
-333,489	-200,000	-0,024	-0,127
-332,475	29,430	-0,071	0,044
-331,460	-41,716	-0,096	0,036
-330,445	-200,000	-0,026	0,094
-329,431	208,493	-0,036	0,041
-328,416	-133,400	0,068	-0,006
-327,402	-200,000	-0,003	-0,110
-326,387	-200,000	-0,015	0,089
-325,372	212,547	-0,072	-0,083
-324,358	141,675	-0,048	-0,047
-323,343	139,670	-0,082	-0,080
-322,329	501,199	0,023	-0,039
-321,314	787,230	-0,033	-0,067
-320,299	58,152	-0,009	-0,006
-319,285	-100,399	0,087	-0,016
-318,270	-120,484	-0,164	0,020
-317,256	169,094	-0,088	-0,092
-316,241	-101,863	0,105	-0,018
-315,226	-68,367	0,069	-0,020
-314,212	-200,000	0,002	-0,084
-313,197	-200,000	0,012	-0,097
-312,183	293,168	0,093	0,124
-311,168	89,177	0,131	-0,107
-310,153	-200,000	-0,034	-0,197
-309,139	153,925	-0,027	-0,027
-308,124	-80,209	0,096	0,023
-307,110	-61,828	0,065	-0,020
-306,095	800,000	-0,035	0,092
-305,080	10,177	-0,073	-0,041
-304,066	-73,850	0,127	0,034
-303,051	17,292	-0,179	-0,104
-302,037	-36,750	0,084	-0,033
-301,022	427,449	-0,044	-0,069
-300,008	800,000	-0,069	-0,210
-298,993	800,000	0,056	0,114
-297,978	219,166	0,077	0,091
-296,964	-57,539	-0,142	0,045
-295,949	800,000	-0,021	-0,056
-294,935	393,137	0,023	0,036
-293,920	-200,000	-0,015	-0,161
-292,905	556,411	0,045	-0,080
-291,891	-173,717	0,084	-0,002
-290,876	49,470	0,139	0,096
-289,862	39,010	-0,136	0,089
-288,847	92,002	-0,087	0,072
-287,832	-200,000	-0,011	0,107
-286,818	-200,000	0,024	-0,115
-285,803	42,368	0,140	0,093
-284,789	681,716	0,068	0,130
-283,774	64,061	0,067	0,049
-282,759	577,003	-0,018	-0,033
-281,745	-200,000	0,001	0,008
-280,730	634,669	0,015	0,028
-279,716	25,436	0,085	-0,052
-278,701	74,304	-0,019	0,015
-277,686	-61,932	0,163	0,049
-276,672	81,193	0,141	0,111
-275,657	221,092	0,035	-0,041
-274,643	-114,317	-0,145	0,020
-273,628	-200,000	0,046	-0,234
-272,613	-91,454	-0,104	0,021
-271,599	-156,716	0,096	-0,004
-270,584	-200,000	-0,002	-0,058
-269,570	-200,000	-0,007	0,110
-268,555	-200,000	-0,012	0,062
-267,540	800,000	-0,039	-0,095
-266,526	-200,000	0,001	-0,144
-265,511	800,000	0,029	0,076
-264,497	800,000	-0,026	-0,063
-263,482	-200,000	-0,047	0,207
-262,467	-41,981	0,083	0,031
-261,453	-114,620	0,035	0,005
-260,438	103,627	-0,134	0,115
-259,424	-200,000	-0,003	-0,081
-258,409	277,749	0,115	-0,151
-257,395	-200,000	0,006	0,072
-256,380	-93,685	-0,111	0,022
-255,365	408,400	-0,031	0,048
-254,351	-84,547	0,124	-0,028
-253,336	299,986	-0,021	-0,028
-252,322	94,787	-0,020	0,016
-251,307	800,000	-0,014	-0,039
-250,292	-64,190	-0,088	-0,026
-249,278	389,247	0,062	0,094
-248,263	-123,312	0,152	-0,018
-247,249	-124,975	0,038	0,004
-246,234	-200,000	0,013	-0,127
-245,219	-200,000	0,019	-0,123
-244,205	-200,000	-0,025	-0,085
-243,190	800,000	0,043	-0,094
-242,176	-200,000	-0,031	-0,127
-241,161	-60,628	-0,100	0,031
-240,146	-200,000	0,002	-0,023
-239,132	139,945	0,050	0,048
-238,117	153,763	0,024	0,024
-237,103	6,944	0,019	-0,010
-236,088	-24,241	0,092	-0,040
-235,073	63,210	-0,041	0,030
-234,059	-200,000	-0,020	-0,216
-233,044	-100,820	0,078	-0,014
-232,030	66,744	0,090	-0,067
-231,015	800,000	-0,006	0,018
-230,000	-200,000	-0,001	-0,165
-228,986	194,106	-0,100	-0,111
-227,971	-200,000	0,023	0,169
-226,957	-146,553	0,056	-0,004
-225,942	81,963	-0,066	-0,052
-224,927	-200,000	-0,001	-0,029
-223,913	30,748	-0,125	-0,078
-222,898	-200,000	-0,011	-0,066
-221,884	800,000	-0,042	-0,095
-220,869	-200,000	-0,003	-0,080
-219,855	-109,901	0,189	0,029
-218,840	-200,000	-0,020	-0,071
-217,825	134,794	-0,029	0,027
-216,811	800,000	0,010	0,026
-215,796	294,809	0,076	-0,102
-214,782	-97,197	0,093	0,018
-213,767	74,336	-0,093	-0,071
-212,752	-121,246	0,082	-0,010
-211,738	251,953	0,066	0,082
-210,723	-71,036	-0,062	0,017
-209,709	-130,298	-0,173	0,017
-208,694	86,670	0,089	-0,072
-207,679	-200,000	-0,009	0,073
-206,665	-200,000	-0,027	0,096
-205,650	-197,488	0,074	0,000
-204,636	260,895	0,066	-0,084
-203,621	147,804	-0,131	-0,129
-202,606	-200,000	-0,011	0,039
-201,592	28,570	0,062	-0,038
-200,577	800,000	-0,009	0,025
-199,563	-200,000	0,014	-0,128
-198,548	166,208	-0,073	-0,076
-197,533	-75,224	0,048	-0,012
-196,519	-81,835	-0,079	-0,019
-195,504	487,554	-0,084	-0,141
-194,490	322,782	0,030	-0,041
-193,475	-200,000	0,092	0,000
-192,460	800,000	0,036	-0,104
-191,446	56,878	-0,060	-0,042
-190,431	-63,845	0,039	-0,012
-189,417	800,000	-0,008	0,020
-188,402	-72,748	0,110	0,029
-187,387	349,444	-0,118	0,171
-186,373	-200,000	-0,023	0,108
-185,358	15,934	0,139	-0,080
-184,344	-200,000	-0,010	-0,076
-183,329	-50,774	0,139	-0,047
-182,315	619,546	0,080	0,147
-181,300	381,628	0,055	-0,083
-180,285	-70,299	-0,036	-0,010
-179,271	116,462	-0,097	0,086
-178,256	-200,000	0,022	0,075
-177,242	-103,456	0,091	-0,015
-176,227	-200,000	0,061	-0,000
-175,212	-200,000	-0,009	-0,049
-174,198	-32,632	-0,190	-0,077
-173,183	800,000	-0,039	-0,110
-172,169	-174,556	0,003	0,000
-171,154	-86,062	0,065	-0,015
-170,139	-14,240	0,107	-0,050
-169,125	184,100	-0,052	0,056
-168,110	222,910	-0,065	-0,077
-167,096	23,868	0,013	-0,008
-166,081	-29,809	0,018	0,007
-165,066	131,718	0,034	0,032
-164,052	-200,000	0,001	-0,074
-163,037	-200,000	0,010	0,035
-162,023	-200,000	-0,007	0,098
-161,008	350,230	0,065	0,094
-159,993	800,000	-0,039	0,097
-158,979	-200,000	-0,006	-0,022
-157,964	95,336	-0,122	0,102
-156,950	-200,000	0,014	0,063
-155,935	-200,000	0,055	0,223
-154,920	-200,000	0,019	0,071
-153,906	-29,849	-0,095	0,039
-152,891	-164,996	-0,071	0,002
-151,877	30,636	-0,079	-0,049
-150,862	800,000	0,039	-0,103
-149,847	524,114	-0,061	0,104
-148,833	-118,046	0,042	-0,005
-147,818	28,489	0,052	0,032
-146,804	50,329	0,108	-0,074
-145,789	486,795	0,014	-0,023
-144,775	800,000	0,026	-0,060
-143,760	134,034	-0,072	-0,068
-142,745	800,000	-0,009	-0,019
-141,731	-47,887	0,161	-0,057
-140,716	800,000	0,021	-0,052
-139,702	177,241	0,085	0,090
-138,687	-200,000	-0,015	0,120
-137,672	-69,851	0,136	-0,038
-136,658	-200,000	-0,011	-0,166
-135,643	-128,495	-0,084	-0,009
-134,629	-61,172	0,057	-0,017
-133,614	-200,000	-0,009	-0,060
-132,599	-200,000	-0,013	0,118
-131,585	453,798	-0,027	0,043
-130,570	95,057	0,090	0,075
-129,556	-64,785	-0,063	-0,018
-128,541	655,646	-0,051	-0,096
-127,526	5,178	-0,123	0,066
-126,512	-200,000	-0,025	-0,109
-125,497	207,489	-0,064	0,073
-124,483	800,000	0,014	0,041
-123,468	-15,208	-0,042	-0,019
-122,453	-11,391	-0,101	-0,048
-121,439	157,078	-0,054	0,055
-120,424	800,000	-0,024	0,075
-119,410	-200,000	0,021	-0,140
-118,395	16,107	-0,102	0,059
-117,380	622,948	-0,082	0,150
-116,366	-97,920	-0,143	-0,027
-115,351	-200,000	0,007	-0,041
-114,337	800,000	0,012	-0,040
-113,322	800,000	0,042	-0,092
-112,307	613,653	0,086	0,157
-111,293	331,730	0,042	0,059
-110,278	-200,000	0,010	-0,079
-109,264	-45,625	-0,024	-0,009
-108,249	-200,000	0,013	-0,237
-107,234	108,972	0,061	-0,053
-106,220	510,643	0,047	0,080
-105,205	-200,000	0,053	-0,198
-104,191	100,626	-0,032	0,027
-103,176	-144,061	0,170	-0,011
-102,162	800,000	0,030	-0,084
-101,147	-200,000	0,004	0,074
-100,132	-200,000	0,002	-0,124
-99,118	-200,000	0,010	-0,066
-98,103	-10,144	0,070	0,034
-97,089	-200,000	-0,022	0,124
-96,074	-75,490	-0,076	0,020
-95,059	800,000	-0,068	-0,151
-94,045	800,000	-0,058	-0,134
-93,030	-200,000	-0,024	-0,086
-92,016	-131,451	-0,091	0,009
-91,001	-106,666	0,066	0,011
-89,986	-200,000	0,004	0,107
-88,972	-88,487	0,073	0,016
-87,957	182,222	-0,025	0,026
-86,943	-75,889	-0,128	0,033
-85,928	67,949	-0,090	0,067
-84,913	62,359	-0,211	-0,153
-83,899	-122,251	-0,171	-0,020
-82,884	300,345	-0,063	-0,084
-81,870	334,848	0,090	-0,127
-80,855	35,778	0,042	0,027
-79,840	-72,289	-0,073	-0,019
-78,826	-121,583	0,075	-0,009
-77,811	-129,557	-0,125	-0,012
-76,797	517,786	0,070	-0,120
-75,782	14,060	-0,030	-0,017
-74,767	776,673	0,028	0,055
-73,753	83,970	0,104	-0,083
-72,738	5,534	-0,067	0,036
-71,724	800,000	-0,057	0,144
-70,709	800,000	-0,012	-0,025
-69,694	-200,000	0,003	-0,032
-68,680	444,667	0,061	0,098
-67,665	-158,371	0,063	-0,003
-66,651	10,523	0,143	0,079
-65,636	-200,000	0,005	-0,059
-64,622	76,019	-0,083	0,064
-63,607	556,699	0,012	-0,021
-62,592	-200,000	-0,044	-0,154
-61,578	117,157	0,053	0,047
-60,563	-17,212	0,141	0,064
-59,549	-106,632	0,049	0,008
-58,534	-98,973	-1,445	-0,264
-57,519	689,613	-0,713	-1,361
-56,505	-200,000	-0,965	-4,352
-55,490	-15,466	0,706	-0,326
-54,476	800,000	4,992	11,899
-53,461	-200,000	14,060	255,542
-52,446	-200,000	694,887	2254,531
-51,432	581,960	1625,221	2904,874
-50,417	117,842	1633,545	1460,096
-49,403	73,682	1287,530	978,123
-48,388	37,604	1024,398	658,441
-47,373	23,885	982,740	586,471
-46,359	23,159	972,135	577,737
-45,344	22,075	967,912	571,658
-44,330	22,058	966,376	570,670
-43,315	21,919	965,018	569,394
-42,300	21,940	963,789	568,715
-41,286	21,872	962,905	567,949
-40,271	21,896	961,930	567,427
-39,257	21,879	960,933	566,762
-38,242	21,891	960,016	566,239
-37,227	21,945	959,114	565,859
-36,213	21,929	958,184	565,236
-35,198	21,853	957,369	564,486
-34,184	21,906	956,715	564,251
-33,169	21,835	955,872	563,501
-32,154	21,980	954,870	563,355
-31,140	21,889	954,081	562,574
-30,125	21,983	953,192	562,331
-29,111	21,894	952,644	561,698
-28,096	21,962	951,633	561,300
-27,082	21,897	951,193	560,810
-26,067	21,980	950,267	560,509
-25,052	21,896	949,650	559,851
-24,038	21,926	949,023	559,556
-23,023	21,890	948,415	559,058
-22,009	21,939	947,501	558,657
-20,994	21,926	947,082	558,344
-19,979	21,946	946,428	558,001
-18,965	21,917	945,837	557,536
-17,950	21,910	945,116	557,069
-16,936	21,896	944,412	556,588
-15,921	21,911	943,725	556,206
-14,906	21,832	942,927	555,464
-13,892	21,790	942,442	555,023
-12,877	21,752	941,921	554,571
-11,863	21,762	941,251	554,185
-10,848	21,802	940,743	553,993
-9,833	21,911	940,120	553,950
-8,819	21,865	939,559	553,453
-7,804	21,727	939,042	552,687
-6,790	21,805	938,373	552,520
-5,775	21,798	937,593	552,014
-4,760	21,850	937,015	551,820
-3,746	21,785	936,406	551,232
-2,731	21,643	935,636	550,310
-1,717	21,593	935,136	549,834
-0,702	21,605	934,368	549,398
0,313	21,428	933,750	549,307
1,327	24,480	931,824	557,734
2,342	33,974	795,646	501,520
3,356	31,697	451,070	280,868
4,371	0,785	293,566	151,941
5,386	-3,777	274,454	137,720
6,400	-5,546	268,625	133,142
7,415	-5,852	266,302	131,698
8,429	-5,292	265,035	131,571
9,444	-5,386	264,222	131,070
10,459	-5,400	263,653	130,763
11,473	-5,294	262,956	130,503
12,488	-5,597	262,607	130,043
13,502	-5,655	261,973	129,665
14,517	-5,474	261,593	129,629
15,531	-5,060	261,178	129,785
16,546	-5,280	260,882	129,428
17,561	-5,161	260,643	129,406
18,575	-5,088	260,313	129,296
19,590	-5,138	259,808	128,988
20,604	-5,005	259,557	128,971
21,619	-5,258	259,294	128,603
22,634	-5,245	258,893	128,404
23,648	-5,205	258,654	128,310
24,663	-5,137	258,341	128,204
25,677	-5,030	258,085	128,160
26,692	-5,281	257,952	127,860
27,707	-5,267	257,693	127,732
28,721	-5,319	257,357	127,508
29,736	-5,192	257,057	127,461
30,750	-5,417	256,911	127,178
31,765	-5,236	256,669	127,206
32,780	-5,347	256,495	127,011
33,794	-5,099	256,199	127,072
34,809	-5,164	256,000	126,905
35,823	-5,304	255,597	126,570
36,838	-5,201	255,266	126,486
37,853	-5,246	255,251	126,427
38,867	-5,464	255,006	126,103
39,882	-5,247	254,769	126,165
40,896	-5,467	254,552	125,854
41,911	-5,226	254,353	125,955
42,926	-5,392	254,055	125,651
43,940	-5,281	254,007	125,714
44,955	-5,522	253,676	125,328
45,969	-5,456	253,454	125,265
46,984	-5,746	253,279	124,914
47,999	-5,773	253,003	124,743
49,013	-6,116	252,767	124,318
50,028	-5,923	252,452	124,319
51,042	-6,036	252,268	124,120
52,057	-6,030	251,932	123,948
53,071	-6,066	251,834	123,857
54,086	-6,001	251,658	123,816
55,101	-6,002	251,455	123,705
56,115	-5,702	251,271	123,862
57,130	-5,284	251,171	124,163
58,144	-5,042	251,099	124,326
59,159	-5,065	250,768	124,130
60,174	-5,123	250,639	124,006
61,188	-5,283	250,453	123,765
62,203	-5,271	250,227	123,652
63,217	-5,328	250,026	123,493
64,232	-5,286	249,864	123,439
65,247	-5,203	249,434	123,286
66,261	-5,309	249,293	123,114
67,276	-5,558	249,064	122,777
68,290	-5,468	248,825	122,725
69,305	-5,786	248,499	122,282
70,320	-5,706	248,436	122,309
71,334	-5,473	248,404	122,481
72,349	-5,252	248,102	122,509
73,363	-5,207	247,996	122,485
74,378	-5,024	247,733	122,499
75,393	-5,256	247,514	122,183
76,407	-5,276	247,483	122,140
77,422	-5,183	247,125	122,031
78,436	-5,314	247,007	121,850
79,451	-5,309	246,677	121,681
80,466	-5,162	246,528	121,721
81,480	-5,337	246,158	121,380
82,495	-5,490	246,014	121,168
83,509	-5,376	245,859	121,178
84,524	-5,464	245,760	121,044
85,539	-5,524	245,416	120,813
86,553	-5,651	245,358	120,667
87,568	-5,476	245,314	120,782
88,582	-5,569	245,143	120,609
89,597	-5,403	244,798	120,567
90,611	-5,496	244,602	120,382
91,626	-5,334	244,536	120,475
92,641	-5,171	244,310	120,489
93,655	-5,060	244,018	120,428
94,670	-5,235	243,825	120,175
95,684	-5,505	243,669	119,862
96,699	-5,473	243,573	119,831
97,714	-5,508	243,374	119,693
98,728	-5,749	243,187	119,390
99,743	-5,642	242,841	119,298
100,757	-5,835	242,727	119,071
101,772	-5,555	242,476	119,170
102,787	-5,645	242,319	119,007
103,801	-5,544	242,128	118,987
104,816	-5,531	242,183	119,014
105,830	-5,355	242,025	119,071
106,845	-5,344	241,834	118,976
107,860	-5,386	241,532	118,782
108,874	-5,376	241,301	118,666
109,889	-5,381	241,066	118,536
110,903	-5,335	240,909	118,486
111,918	-5,489	240,700	118,246
112,933	-5,492	240,623	118,195
113,947	-5,238	240,398	118,283
114,962	-5,308	240,318	118,176
115,976	-5,445	240,064	117,927
116,991	-5,430	240,019	117,907
118,006	-5,294	239,708	117,856
119,020	-5,358	239,631	117,755
120,035	-5,367	239,512	117,679
121,049	-5,305	239,423	117,675
122,064	-5,285	239,265	117,603
123,079	-5,260	238,942	117,454
124,093	-5,616	238,778	117,072
125,108	-5,573	238,508	116,965
126,122	-5,687	238,296	116,757
127,137	-5,581	238,064	116,720
128,151	-5,674	238,016	116,610
129,166	-5,555	237,806	116,594
130,181	-5,616	237,575	116,420
131,195	-5,773	237,423	116,208
132,210	-5,399	237,274	116,428
133,224	-5,407	237,177	116,364
134,239	-5,384	237,037	116,303
135,254	-5,431	236,803	116,140
136,268	-5,638	236,683	115,903
137,283	-5,741	236,378	115,661
138,297	-5,765	236,226	115,556
139,312	-5,710	235,998	115,479
140,327	-5,422	235,941	115,673
141,341	-5,049	235,958	115,971
142,356	-5,096	235,755	115,823
143,370	-5,196	235,602	115,657
144,385	-5,150	235,406	115,588
145,400	-5,180	235,406	115,554
146,414	-5,036	235,188	115,552
147,429	-5,227	234,990	115,291
148,443	-5,033	234,692	115,290
149,458	-5,060	234,643	115,234
150,473	-5,246	234,330	114,921
151,487	-5,213	234,177	114,862
152,502	-5,039	233,962	114,885
153,516	-5,033	233,795	114,798
154,531	-5,001	233,625	114,730
155,546	-5,109	233,453	114,549
156,560	-5,309	233,262	114,286
157,575	-5,380	233,101	114,141
158,589	-5,391	232,950	114,047
159,604	-5,093	232,813	114,207
160,619	-5,031	232,863	114,271
161,633	-4,855	232,658	114,300
162,648	-4,917	232,611	114,217
163,662	-4,997	232,318	113,999
164,677	-5,241	232,005	113,643
165,692	-5,305	232,154	113,655
166,706	-5,000	231,832	113,728
167,721	-4,747	231,691	113,848
168,735	-4,839	231,527	113,685
169,750	-5,024	231,267	113,401
170,764	-5,166	231,188	113,242
171,779	-5,132	231,085	113,207
172,794	-5,092	230,999	113,186
173,808	-5,204	230,628	112,906
174,823	-5,632	230,343	112,421
175,837	-5,586	230,253	112,403
176,852	-5,486	230,244	112,468
177,867	-5,132	230,092	112,661
178,881	-4,903	229,810	112,692
179,896	-5,065	229,776	112,538
180,910	-4,821	229,636	112,650
181,925	-5,058	229,547	112,412
182,940	-5,077	229,371	112,301
183,954	-4,894	229,125	112,313
184,969	-4,907	229,059	112,260
185,983	-4,933	228,910	112,157
186,998	-4,810	228,654	112,117
188,013	-4,772	228,599	112,109
189,027	-4,786	228,581	112,080
190,042	-4,969	228,305	111,793
191,056	-5,000	228,162	111,688
192,071	-4,945	227,931	111,608
193,086	-5,077	227,680	111,373
194,100	-5,128	227,573	111,272
195,115	-5,879	227,120	110,460
196,129	-6,766	226,852	109,636
197,144	-3,323	227,769	112,733
198,159	1,761	229,215	117,387
199,173	4,189	229,854	119,590
200,188	4,329	229,900	119,711
201,202	4,391	229,716	119,653
202,217	4,607	229,692	119,797
203,232	4,785	229,488	119,818
204,246	4,716	229,370	119,693
205,261	4,778	229,172	119,627
206,275	5,154	228,977	119,804
207,290	5,288	228,763	119,785
208,304	5,177	228,797	119,707
209,319	5,095	228,596	119,528
210,334	5,113	228,399	119,428
211,348	4,444	228,340	118,871
212,363	4,392	227,968	118,627
213,377	4,227	227,639	118,318
214,392	4,226	227,572	118,272
215,407	4,375	227,525	118,352
216,421	4,397	227,295	118,238
217,436	4,158	227,114	117,950
218,450	3,920	226,952	117,674
219,465	3,988	226,766	117,619
220,480	3,989	226,613	117,530
221,494	4,072	226,573	117,562
222,509	4,266	226,284	117,549
223,523	4,290	226,308	117,570
224,538	4,084	226,070	117,279
225,553	3,943	226,015	117,132
226,567	4,213	225,903	117,270
227,582	4,460	225,830	117,409
228,596	4,670	225,480	117,376
229,611	4,375	225,313	117,054
230,626	4,125	225,233	116,813
231,640	3,917	225,043	116,547
232,655	4,042	225,092	116,656
233,669	4,851	225,068	117,246
234,684	4,748	224,950	117,096
235,699	4,550	224,600	116,754
236,713	4,420	224,419	116,551
237,728	4,216	224,191	116,269
238,742	4,031	224,139	116,092
239,757	4,156	223,868	116,035
240,772	3,984	223,821	115,871
241,786	3,896	223,593	115,676
242,801	4,593	223,544	116,165
243,815	4,611	223,443	116,116
244,830	4,349	223,320	115,845
245,844	4,395	223,002	115,704
246,859	4,392	222,991	115,685
247,874	4,484	222,804	115,647
248,888	4,368	222,678	115,485
249,903	4,282	222,530	115,333
250,917	3,949	222,463	115,039
251,932	4,153	222,194	115,042
252,947	4,239	222,079	115,036
253,961	4,073	221,834	114,775
254,976	3,989	221,757	114,663
255,990	4,439	221,630	114,922
257,005	4,589	221,488	114,950
258,020	4,424	221,392	114,767
259,034	4,537	221,264	114,774
260,049	4,549	221,046	114,660
261,063	4,284	220,921	114,389
262,078	4,608	220,818	114,565
263,093	4,414	220,721	114,361
264,107	4,400	220,475	114,213
265,122	4,611	220,390	114,315
266,136	4,519	220,250	114,163
267,151	4,602	220,117	114,146
268,166	4,241	219,815	113,713
269,180	3,864	219,653	113,341
270,195	4,012	219,592	113,409
271,209	3,918	219,510	113,287
272,224	4,031	219,294	113,249
273,239	4,380	219,194	113,443
274,253	4,162	218,957	113,151
275,268	4,038	218,702	112,918
276,282	3,956	218,608	112,799
277,297	3,764	218,548	112,617
278,312	3,933	218,437	112,674
279,326	4,095	218,322	112,723
280,341	4,416	218,177	112,873
281,355	4,105	218,118	112,605
282,370	4,195	217,775	112,483
283,384	3,909	217,736	112,244
284,399	3,880	217,693	112,191
285,414	3,813	217,566	112,067
286,428	4,093	217,264	112,105
287,443	4,216	217,281	112,194
288,457	4,427	216,932	112,157
289,472	4,376	216,829	112,056
290,487	3,707	216,649	111,468
291,501	3,757	216,484	111,409
292,516	3,768	216,530	111,431
293,530	3,750	216,355	111,318
294,545	3,903	216,137	111,306
295,560	4,010	216,032	111,320
296,574	3,841	216,020	111,182
297,589	4,278	215,910	111,431
298,603	4,251	215,690	111,288
299,618	4,225	215,515	111,169
300,633	4,344	215,404	111,187
301,647	4,434	215,554	111,320
302,662	4,324	215,175	111,036
303,676	4,321	215,061	110,965
304,691	4,362	214,910	110,906
305,706	4,416	214,913	110,936
306,720	4,303	214,695	110,732
307,735	4,271	214,586	110,644
308,749	3,906	214,368	110,260
309,764	3,991	214,317	110,285
310,779	4,197	214,203	110,364
311,793	4,334	213,895	110,293
312,808	4,434	213,643	110,224
313,822	4,291	213,669	110,126
314,837	4,013	213,397	109,778
315,852	4,089	213,286	109,765
316,866	4,204	213,084	109,733
317,881	4,355	213,191	109,886
318,895	4,467	212,913	109,813
319,910	4,162	212,820	109,538
320,925	4,092	212,436	109,281
321,939	3,519	212,430	108,862
322,954	3,891	212,369	109,085
323,968	4,139	212,407	109,271
324,983	4,177	212,264	109,214
325,997	4,427	212,080	109,287
327,012	4,083	211,901	108,941
328,027	4,252	211,736	108,966
329,041	4,355	211,807	109,066
330,056	4,531	211,669	109,109
331,070	4,197	211,316	108,682
332,085	4,134	210,937	108,433
333,100	4,111	211,039	108,459
334,114	4,236	210,899	108,466
335,129	4,116	210,741	108,291
336,143	3,953	210,580	108,084
337,158	3,905	210,411	107,954
338,173	4,067	210,337	108,020
339,187	3,988	210,242	107,906
340,202	3,736	210,024	107,608
341,216	3,659	209,871	107,466
342,231	4,013	209,802	107,669
343,246	3,845	209,711	107,495
344,260	3,802	209,568	107,382
345,275	3,963	209,421	107,410
346,289	3,984	209,453	107,431
347,304	4,376	209,226	107,579
348,319	4,130	209,055	107,310
349,333	4,279	208,906	107,327
350,348	4,185	208,781	107,188
351,362	4,408	208,833	107,360
352,377	4,226	208,697	107,154
353,392	4,132	208,439	106,947
354,406	4,398	208,262	107,031
355,421	194,453	1343,860	1434,481
356,435	155,176	1482,326	1434,600
