DTS Sentinel unit serial number:	SN410029Multiplexer serial number:	ORYXHardware model number:	OX2-SRSoftware version number:	ORYX F/W v4,00 Oryx Data Collector v3.7.2.0data status	okinstallation	B6 Nyhavnadifferential loss correction	single-endedforward channel	channel 2reverse channel	N/Adate	2023/12/08time	11:25:08forward acquisition time	300,00reverse acquisition time	0,00gamma	499,1914k internal	0,3160k external	0,3160temperature offset calibration	1,0000default loss term (dB/km)	0,3820temperature slope calibration	1,0000multiplexer offset coefficient	1,0000multiplexer slope coefficient	1,0000fibre end	0,00T internal ref (°C)	14,91T ext. ref 1 (°C)	-1,40T ext. ref 2 (°C)	-1,39length (m)	temperature (°C)	Stokes	anti-Stokes-744,400	-68,273	0,086	-0,024
-743,385	-32,718	-0,333	0,136
-742,371	-200,000	0,006	0,075
-741,356	-55,741	-0,184	0,060
-740,342	-72,181	0,263	0,071
-739,327	-79,183	-0,247	0,061
-738,312	176,904	0,156	0,168
-737,298	-99,710	-0,436	0,080
-736,283	-59,852	0,138	0,043
-735,269	-133,884	-0,371	0,034
-734,254	800,000	0,059	0,191
-733,239	-93,617	-0,490	-0,099
-732,225	-67,438	0,229	0,066
-731,210	-200,000	0,027	-0,119
-730,196	230,030	-0,075	-0,091
-729,181	262,658	0,110	0,141
-728,167	-119,690	0,143	-0,018
-727,152	-112,675	-0,111	-0,016
-726,137	165,448	-0,089	0,093
-725,123	144,420	0,042	-0,042
-724,108	-200,000	-0,121	-0,000
-723,094	800,000	0,018	-0,056
-722,079	-114,516	-0,072	-0,010
-721,064	20,970	-0,067	-0,040
-720,050	-200,000	0,001	0,071
-719,035	25,206	0,105	-0,064
-718,021	-200,000	0,012	0,052
-717,006	17,858	-0,143	-0,083
-715,991	-200,000	-0,020	0,082
-714,977	800,000	-0,009	0,026
-713,962	704,648	0,037	0,071
-712,948	125,226	-0,084	-0,078
-711,933	755,225	0,032	-0,064
-710,918	-19,744	-0,081	-0,037
-709,904	-200,000	-0,012	-0,054
-708,889	28,608	-0,047	-0,029
-707,875	-49,256	-0,006	-0,002
-706,860	800,000	-0,023	-0,059
-705,845	-200,000	0,025	-0,100
-704,831	-42,525	-0,067	-0,025
-703,816	-200,000	-0,022	-0,095
-702,802	286,369	0,059	0,078
-701,787	-24,069	-0,176	-0,077
-700,772	800,000	-0,021	0,062
-699,758	40,926	0,117	-0,077
-698,743	-40,654	0,125	0,047
-697,729	82,531	0,047	0,037
-696,714	800,000	-0,051	-0,155
-695,699	-7,348	-0,135	-0,067
-694,685	-136,731	0,041	-0,003
-693,670	66,217	-0,082	-0,061
-692,656	768,980	0,093	0,187
-691,641	-62,922	0,068	0,020
-690,627	800,000	-0,010	0,033
-689,612	-57,723	-0,148	-0,047
-688,597	536,073	-0,050	-0,088
-687,583	800,000	-0,047	-0,131
-686,568	41,042	0,072	0,047
-685,554	-64,101	0,028	-0,008
-684,539	-111,840	0,133	0,020
-683,524	204,420	0,084	0,095
-682,510	-52,643	-0,103	0,035
-681,495	-200,000	0,004	0,029
-680,481	434,341	-0,051	0,081
-679,466	-200,000	-0,018	-0,152
-678,451	354,397	-0,074	0,108
-677,437	-200,000	0,013	0,091
-676,422	69,460	-0,081	-0,062
-675,408	800,000	0,012	-0,035
-674,393	-44,334	-0,170	-0,062
-673,378	250,528	-0,055	0,069
-672,364	624,868	0,042	0,079
-671,349	310,261	-0,104	0,144
-670,335	550,095	-0,072	-0,127
-669,320	-16,861	0,095	-0,044
-668,305	717,121	0,026	0,051
-667,291	39,676	-0,089	0,058
-666,276	538,591	-0,089	-0,157
-665,262	12,782	-0,199	-0,113
-664,247	57,215	-0,062	-0,044
-663,232	292,140	0,041	-0,055
-662,218	800,000	0,066	0,165
-661,203	-125,014	0,176	0,020
-660,189	-17,395	-0,023	-0,010
-659,174	-200,000	0,018	-0,159
-658,159	305,536	-0,068	-0,093
-657,145	72,930	-0,220	-0,169
-656,130	-200,000	-0,007	-0,049
-655,116	-200,000	-0,055	0,190
-654,101	310,500	0,092	0,127
-653,086	-32,642	-0,131	0,053
-652,072	77,939	0,053	0,042
-651,057	-40,568	0,086	0,032
-650,043	800,000	0,032	-0,075
-649,028	-137,510	-0,112	-0,009
-648,014	-17,171	0,099	-0,046
-646,999	-21,661	-0,070	0,031
-645,984	-61,720	0,119	-0,036
-644,970	-99,084	-0,066	0,012
-643,955	800,000	0,022	-0,060
-642,941	-71,373	-0,184	-0,050
-641,926	751,839	-0,026	0,053
-640,911	800,000	-0,044	0,133
-639,897	-94,836	0,083	0,016
-638,882	-145,427	-0,141	0,009
-637,868	98,833	0,008	-0,007
-636,853	-200,000	0,008	-0,187
-635,838	-40,666	-0,176	-0,067
-634,824	762,021	0,057	-0,114
-633,809	-2,458	0,120	-0,061
-632,795	-70,183	-0,029	-0,008
-631,780	49,296	-0,024	0,016
-630,765	120,700	0,020	-0,018
-629,751	191,773	-0,061	-0,067
-628,736	195,782	-0,025	-0,028
-627,722	283,736	-0,055	-0,072
-626,707	-6,848	-0,102	-0,051
-625,692	-68,191	-0,091	-0,026
-624,678	-200,000	0,021	0,074
-623,663	-200,000	0,002	0,099
-622,649	-126,638	-0,137	-0,015
-621,634	321,693	0,075	-0,105
-620,619	-61,562	0,025	-0,008
-619,605	-117,390	-0,079	-0,010
-618,590	-200,000	-0,002	0,037
-617,576	-137,214	0,046	0,004
-616,561	-1,613	-0,034	0,017
-615,546	259,512	-0,064	0,082
-614,532	12,063	-0,089	0,050
-613,517	-200,000	-0,010	-0,045
-612,503	138,604	-0,093	-0,089
-611,488	-122,546	0,141	0,017
-610,474	-135,767	-0,001	0,000
-609,459	-74,925	-0,052	0,014
-608,444	669,031	-0,040	-0,075
-607,430	-28,482	-0,070	-0,029
-606,415	11,880	0,038	-0,022
-605,401	-90,799	0,062	0,013
-604,386	-88,288	0,120	-0,026
-603,371	-145,039	0,052	-0,003
-602,357	387,940	0,074	-0,113
-601,342	-50,757	-0,046	-0,016
-600,328	397,919	0,068	-0,104
-599,313	88,070	-0,094	-0,077
-598,298	553,220	0,067	-0,119
-597,284	132,700	0,025	0,024
-596,269	8,791	0,117	-0,065
-595,255	-39,014	0,138	0,053
-594,240	525,146	0,042	-0,073
-593,225	-180,139	-0,097	-0,001
-592,211	-129,062	-0,029	0,003
-591,196	-200,000	-0,011	0,066
-590,182	61,604	0,035	0,025
-589,167	207,760	-0,085	-0,097
-588,152	-200,000	0,004	0,028
-587,138	292,500	-0,050	0,067
-586,123	547,044	-0,107	-0,189
-585,109	-104,104	0,118	0,020
-584,094	211,752	-0,078	-0,090
-583,079	-200,000	-0,001	0,089
-582,065	-200,000	-0,014	0,055
-581,050	-200,000	-0,025	-0,120
-580,036	-200,000	0,013	0,084
-579,021	-77,276	-0,046	-0,012
-578,006	673,066	0,014	-0,027
-576,992	-200,000	0,006	0,037
-575,977	-118,618	-0,087	0,011
-574,963	-28,299	0,155	0,065
-573,948	-200,000	0,020	-0,070
-572,934	800,000	0,014	-0,041
-571,919	234,882	-0,027	0,033
-570,904	-167,251	-0,110	-0,003
-569,890	-200,000	-0,019	-0,113
-568,875	-200,000	-0,059	-0,220
-567,861	-41,368	0,110	-0,041
-566,846	42,270	0,106	0,070
-565,831	155,240	-0,119	-0,120
-564,817	153,714	0,053	-0,053
-563,802	-200,000	0,009	0,085
-562,788	8,832	0,120	-0,066
-561,773	-72,005	0,036	0,010
-560,758	14,494	-0,137	-0,078
-559,744	619,046	-0,057	-0,104
-558,729	800,000	-0,069	0,185
-557,715	71,083	-0,158	-0,120
-556,700	-200,000	0,021	0,079
-555,685	-71,996	-0,098	-0,027
-554,671	30,793	0,040	0,025
-553,656	-25,394	-0,068	-0,029
-552,642	-74,494	0,082	0,022
-551,627	800,000	-0,045	0,102
-550,612	109,087	-0,135	-0,118
-549,598	294,086	-0,091	-0,122
-548,583	-200,000	0,005	-0,045
-547,569	-200,000	-0,032	0,128
-546,554	270,135	-0,055	0,070
-545,539	169,249	0,061	0,064
-544,525	-200,000	0,051	0,239
-543,510	178,339	0,018	0,019
-542,496	32,101	0,098	-0,061
-541,481	144,723	0,023	0,023
-540,466	-7,272	-0,132	-0,065
-539,452	564,049	0,102	0,182
-538,437	476,528	0,039	0,065
-537,423	-133,845	0,032	-0,003
-536,408	800,000	0,020	-0,063
-535,393	-45,476	-0,100	-0,036
-534,379	669,655	0,057	0,108
-533,364	-200,000	0,014	-0,118
-532,350	-37,191	-0,042	-0,016
-531,335	140,227	0,129	0,125
-530,321	62,025	-0,110	0,080
-529,306	253,312	-0,019	0,023
-528,291	601,056	0,074	0,135
-527,277	76,382	-0,080	-0,062
-526,262	-200,000	-0,002	-0,036
-525,248	95,149	0,098	-0,081
-524,233	800,000	0,069	-0,140
-523,218	-70,269	-0,019	-0,005
-522,204	-45,720	-0,028	0,010
-521,189	-47,900	0,100	-0,035
-520,175	-42,904	-0,133	-0,049
-519,160	265,769	0,015	0,019
-518,145	-86,357	0,053	-0,012
-517,131	-200,000	0,004	-0,077
-516,116	-15,038	0,135	-0,063
-515,102	154,837	-0,057	0,057
-514,087	-101,690	-0,136	-0,024
-513,072	236,029	0,047	-0,057
-512,058	-40,674	-0,051	0,019
-511,043	-200,000	-0,028	0,182
-510,029	800,000	-0,086	0,224
-509,014	19,604	-0,053	-0,031
-507,999	-93,488	0,087	-0,017
-506,985	-200,000	0,002	-0,073
-505,970	687,183	0,052	-0,100
-504,956	314,329	0,047	0,065
-503,941	9,735	0,125	0,069
-502,926	-17,148	0,085	-0,039
-501,912	77,538	0,032	0,025
-500,897	58,068	-0,085	0,061
-499,883	-116,675	0,025	0,003
-498,868	-154,579	0,018	-0,001
-497,853	61,310	0,071	-0,051
-496,839	-200,000	0,029	0,186
-495,824	-200,000	-0,042	0,140
-494,810	-200,000	-0,009	0,067
-493,795	-200,000	-0,007	0,051
-492,781	-66,102	0,114	-0,033
-491,766	-6,965	0,141	0,069
-490,751	0,682	-0,134	0,070
-489,737	-138,245	-0,078	-0,006
-488,722	-104,699	0,180	-0,030
-487,708	-168,703	-0,057	0,002
-486,693	-34,402	-0,138	0,055
-485,678	-200,000	0,002	0,135
-484,664	-22,990	-0,133	0,058
-483,649	152,657	0,062	0,061
-482,635	-62,440	-0,072	0,022
-481,620	68,219	0,118	0,088
-480,605	-200,000	-0,003	0,056
-479,591	16,278	-0,074	-0,043
-478,576	172,825	0,042	-0,044
-477,562	-200,000	0,032	-0,215
-476,547	-116,255	-0,063	-0,008
-475,532	40,675	0,017	0,011
-474,518	-122,651	0,081	-0,009
-473,503	41,556	0,042	0,027
-472,489	-62,346	0,090	0,027
-471,474	625,061	0,027	0,049
-470,459	191,107	-0,007	0,007
-469,445	68,258	0,031	-0,023
-468,430	123,691	0,013	-0,012
-467,416	-71,199	-0,021	0,006
-466,401	-140,467	0,204	-0,015
-465,386	430,212	0,033	0,052
-464,372	59,068	0,054	-0,039
-463,357	-200,000	0,002	0,019
-462,343	-200,000	0,015	0,110
-461,328	-154,110	-0,079	0,004
-460,313	119,077	-0,056	0,051
-459,299	28,523	0,088	0,054
-458,284	-123,128	-0,053	-0,006
-457,270	57,849	0,103	-0,073
-456,255	800,000	-0,018	-0,043
-455,241	-46,961	-0,127	0,045
-454,226	-8,950	0,075	-0,036
-453,211	-200,000	0,011	0,050
-452,197	1,931	-0,160	0,084
-451,182	39,723	0,028	0,018
-450,168	800,000	-0,048	0,106
-449,153	-6,654	0,021	0,011
-448,138	800,000	-0,035	-0,104
-447,124	340,630	-0,029	0,041
-446,109	-135,178	-0,064	-0,005
-445,095	-24,309	0,093	0,040
-444,080	550,386	-0,024	-0,042
-443,065	-54,401	0,117	0,038
-442,051	800,000	0,032	-0,081
-441,036	-200,000	-0,003	-0,254
-440,022	30,612	0,087	0,054
-439,007	800,000	-0,010	0,028
-437,992	800,000	-0,041	0,110
-436,978	176,674	0,104	0,110
-435,963	-128,578	0,063	0,006
-434,949	800,000	-0,030	0,069
-433,934	-200,000	0,039	-0,232
-432,919	128,113	0,045	-0,041
-431,905	-93,704	0,094	0,019
-430,890	52,949	-0,016	0,011
-429,876	51,708	0,123	0,085
-428,861	278,408	-0,056	0,072
-427,846	-27,935	-0,124	-0,052
-426,832	-54,250	0,154	0,051
-425,817	-104,018	-0,036	-0,006
-424,803	-200,000	0,023	0,096
-423,788	-140,123	-0,218	-0,016
-422,773	-200,000	0,004	0,078
-421,759	44,951	0,064	-0,043
-420,744	-200,000	-0,016	-0,085
-419,730	-200,000	0,003	0,071
-418,715	-55,471	-0,065	0,021
-417,701	420,119	0,029	0,046
-416,686	-111,873	-0,058	-0,008
-415,671	65,021	0,079	-0,058
-414,657	800,000	0,064	0,137
-413,642	130,112	0,072	0,067
-412,628	108,864	-0,147	-0,128
-411,613	26,038	-0,077	0,046
-410,598	-107,776	-0,091	-0,014
-409,584	49,113	0,130	-0,089
-408,569	800,000	0,014	0,041
-407,555	-200,000	0,020	-0,137
-406,540	206,839	0,076	-0,086
-405,525	591,693	0,010	0,018
-404,511	-200,000	0,014	-0,189
-403,496	-117,810	-0,100	-0,013
-402,482	317,200	0,035	-0,048
-401,467	4,008	-0,031	0,017
-400,452	-44,505	-0,115	0,042
-399,438	40,548	0,109	0,071
-398,423	800,000	0,035	-0,084
-397,409	800,000	0,045	0,135
-396,394	-200,000	0,000	-0,111
-395,379	-200,000	-0,012	-0,056
-394,365	-2,776	0,091	0,046
-393,350	249,614	0,127	0,156
-392,336	-200,000	-0,029	0,131
-391,321	64,658	-0,060	-0,044
-390,306	-200,000	0,014	-0,057
-389,292	-47,581	0,071	0,025
-388,277	-88,721	-0,251	0,054
-387,263	513,372	-0,044	0,074
-386,248	-200,000	-0,015	0,083
-385,233	800,000	-0,017	0,036
-384,219	-98,090	-0,029	-0,005
-383,204	-200,000	-0,003	-0,057
-382,190	281,677	-0,036	0,047
-381,175	-112,884	0,069	0,010
-380,160	425,655	-0,009	-0,014
-379,146	-200,000	-0,046	0,153
-378,131	800,000	0,028	0,086
-377,117	138,369	0,099	0,094
-376,102	701,683	-0,041	-0,079
-375,088	800,000	-0,048	-0,137
-374,073	-0,138	-0,037	-0,019
-373,058	-200,000	-0,010	0,199
-372,044	-134,855	0,054	0,005
-371,029	182,463	0,096	-0,103
-370,015	-71,140	0,042	0,011
-369,000	800,000	0,049	-0,114
-367,985	800,000	-0,016	0,045
-366,971	47,912	-0,148	0,100
-365,956	-36,525	0,119	0,046
-364,942	800,000	-0,026	0,054
-363,927	-13,824	-0,096	0,045
-362,912	243,332	0,065	0,079
-361,898	736,581	-0,041	0,080
-360,883	-200,000	0,006	0,107
-359,869	-122,340	0,076	-0,009
-358,854	-200,000	-0,000	-0,159
-357,839	83,713	-0,037	0,029
-356,825	-200,000	-0,016	0,099
-355,810	-28,025	0,119	0,050
-354,796	-119,541	-0,108	0,013
-353,781	114,271	-0,137	-0,121
-352,766	46,882	-0,087	-0,059
-351,752	162,550	-0,050	0,051
-350,737	-200,000	-0,004	0,065
-349,723	247,451	0,066	0,080
-348,708	282,891	-0,075	-0,098
-347,693	-200,000	-0,003	-0,014
-346,679	-136,321	-0,073	0,006
-345,664	-30,563	-0,106	0,043
-344,650	-40,995	0,092	0,034
-343,635	800,000	0,043	-0,137
-342,620	-24,630	0,016	-0,007
-341,606	113,490	-0,036	0,031
-340,591	-47,031	-0,041	0,014
-339,577	143,777	-0,033	-0,032
-338,562	800,000	0,037	0,085
-337,548	-200,000	0,017	-0,085
-336,533	-69,196	0,180	-0,050
-335,518	800,000	-0,029	0,063
-334,504	152,305	0,079	-0,078
-333,489	-138,246	-0,156	-0,012
-332,475	-200,000	0,023	-0,078
-331,460	183,482	-0,052	-0,055
-330,445	-200,000	0,004	0,019
-329,431	-200,000	0,013	0,173
-328,416	560,132	0,089	0,157
-327,402	-200,000	0,001	0,108
-326,387	-88,668	-0,035	0,008
-325,372	-41,040	-0,094	-0,035
-324,358	167,863	0,058	-0,059
-323,343	32,201	-0,075	-0,047
-322,329	428,671	0,115	0,181
-321,314	-122,033	0,123	-0,014
-320,299	-46,305	0,128	0,045
-319,285	-200,000	-0,037	0,137
-318,270	53,710	-0,089	-0,062
-317,256	800,000	0,023	-0,069
-316,241	-200,000	-0,026	-0,139
-315,226	-55,130	0,104	0,034
-314,212	-172,698	-0,103	0,002
-313,197	-200,000	-0,008	0,093
-312,183	-181,970	0,122	0,002
-311,168	158,661	0,087	0,088
-310,153	800,000	0,049	-0,109
-309,139	3,249	0,031	0,016
-308,124	-192,821	0,032	-0,000
-307,110	649,533	0,034	-0,063
-306,095	327,515	0,029	-0,041
-305,080	89,291	0,085	-0,068
-304,066	110,671	-0,030	-0,026
-303,051	-52,963	-0,063	0,021
-302,037	-200,000	-0,006	0,032
-301,022	315,995	-0,028	-0,038
-300,008	-200,000	-0,037	0,180
-298,993	-22,355	0,140	0,061
-297,978	-200,000	-0,019	0,171
-296,964	-200,000	-0,024	0,088
-295,949	-200,000	-0,020	-0,073
-294,935	136,687	-0,093	-0,088
-293,920	221,765	0,060	0,070
-292,905	800,000	-0,035	-0,080
-291,891	388,793	-0,107	0,161
-290,876	20,965	-0,217	-0,127
-289,862	46,402	-0,092	0,061
-288,847	42,121	-0,119	0,078
-287,832	800,000	0,030	-0,064
-286,818	376,375	0,027	-0,040
-285,803	31,875	0,109	0,068
-284,789	24,972	0,009	0,005
-283,774	-111,614	0,080	0,012
-282,759	800,000	-0,020	-0,043
-281,745	-51,492	-0,106	-0,036
-280,730	16,226	-0,066	-0,038
-279,716	-200,000	0,007	-0,051
-278,701	2,976	0,188	-0,099
-277,686	-200,000	-0,005	0,075
-276,672	-126,565	0,039	0,004
-275,657	800,000	-0,033	-0,090
-274,643	-41,927	-0,153	-0,056
-273,628	800,000	-0,019	0,046
-272,613	218,352	-0,056	0,064
-271,599	-200,000	-0,009	0,060
-270,584	-200,000	0,025	-0,112
-269,570	-200,000	0,020	-0,068
-268,555	176,866	-0,014	-0,015
-267,540	7,922	0,028	0,015
-266,526	-200,000	-0,019	-0,116
-265,511	-121,755	0,041	0,005
-264,497	336,615	-0,025	-0,036
-263,482	-135,745	0,010	0,001
-262,467	-124,182	0,037	-0,004
-261,453	-90,393	0,111	0,023
-260,438	-200,000	-0,023	0,119
-259,424	-200,000	-0,020	-0,086
-258,409	-127,879	0,139	-0,014
-257,395	-8,870	0,060	-0,029
-256,380	739,457	0,010	-0,019
-255,365	-200,000	0,005	0,083
-254,351	-200,000	-0,004	0,130
-253,336	-120,002	-0,076	-0,009
-252,322	-111,874	-0,118	0,017
-251,307	-130,775	0,137	-0,013
-250,292	170,538	-0,072	-0,075
-249,278	344,786	0,040	-0,057
-248,263	-200,000	-0,028	0,105
-247,249	-200,000	-0,014	-0,072
-246,234	215,551	-0,023	-0,027
-245,219	80,652	-0,127	0,099
-244,205	-153,243	0,121	0,006
-243,190	193,654	-0,062	-0,067
-242,176	-200,000	-0,011	-0,162
-241,161	-200,000	0,021	0,106
-240,146	-38,641	0,101	0,038
-239,132	-90,997	-0,039	0,008
-238,117	-81,420	-0,064	-0,015
-237,103	4,223	-0,066	0,035
-236,088	188,940	-0,018	-0,020
-235,073	-200,000	0,001	-0,130
-234,059	164,308	-0,079	0,080
-233,044	265,781	0,046	-0,058
-232,030	800,000	-0,028	-0,061
-231,015	-200,000	-0,013	-0,121
-230,000	-191,629	-0,114	0,001
-228,986	74,350	-0,068	-0,051
-227,971	176,007	0,043	-0,045
-226,957	269,851	0,064	0,082
-225,942	-200,000	-0,005	0,109
-224,927	355,495	0,061	-0,088
-223,913	-200,000	0,008	0,058
-222,898	761,890	0,051	-0,099
-221,884	43,498	0,065	-0,043
-220,869	741,203	-0,060	-0,117
-219,855	-200,000	0,016	-0,069
-218,840	-200,000	0,002	-0,111
-217,825	-42,331	-0,088	-0,032
-216,811	-200,000	-0,027	-0,150
-215,796	-107,013	0,028	0,004
-214,782	71,259	-0,041	0,030
-213,767	0,914	-0,033	-0,017
-212,752	420,991	0,006	0,010
-211,738	-117,742	0,123	0,016
-210,723	535,776	0,069	0,119
-209,709	-25,137	-0,147	-0,063
-208,694	-50,039	-0,143	0,049
-207,679	74,028	0,065	0,050
-206,665	800,000	0,033	0,072
-205,650	-200,000	0,039	-0,135
-204,636	37,596	0,146	0,093
-203,621	-200,000	0,034	-0,154
-202,606	-200,000	-0,013	0,085
-201,592	-15,699	-0,139	-0,063
-200,577	56,669	-0,146	-0,102
-199,563	800,000	0,034	-0,093
-198,548	-73,934	-0,087	-0,023
-197,533	800,000	0,044	-0,091
-196,519	241,106	-0,093	0,113
-195,504	-200,000	0,019	0,075
-194,490	464,802	0,025	0,040
-193,475	-21,962	-0,079	-0,035
-192,460	475,076	0,047	0,076
-191,446	-200,000	0,011	0,034
-190,431	-200,000	-0,011	0,145
-189,417	-40,893	-0,032	-0,012
-188,402	11,947	0,057	0,031
-187,387	-79,689	0,147	-0,035
-186,373	202,186	0,060	-0,067
-185,358	-200,000	0,034	-0,118
-184,344	-77,968	0,076	0,019
-183,329	457,011	0,052	0,084
-182,315	-13,628	0,099	-0,046
-181,300	155,674	-0,052	-0,052
-180,285	-200,000	-0,014	-0,113
-179,271	-86,313	-0,027	0,006
-178,256	65,206	0,045	-0,033
-177,242	-85,726	-0,133	-0,030
-176,227	604,569	-0,019	0,034
-175,212	123,348	0,100	0,090
-174,198	53,307	0,042	-0,029
-173,183	106,137	0,061	-0,052
-172,169	-20,950	0,075	0,033
-171,154	-102,593	0,100	-0,017
-170,139	73,408	0,054	-0,041
-169,125	-13,794	0,077	0,036
-168,110	1,978	-0,053	-0,028
-167,096	-200,000	-0,038	0,142
-166,081	-200,000	-0,012	0,038
-165,066	-200,000	0,004	0,161
-164,052	-200,000	0,036	0,145
-163,037	36,175	-0,071	0,045
-162,023	255,400	0,063	-0,078
-161,008	104,819	0,097	-0,083
-159,993	54,198	-0,107	-0,074
-158,979	-200,000	-0,012	-0,098
-157,964	463,254	0,016	0,025
-156,950	-49,308	-0,055	-0,019
-155,935	242,465	0,028	0,033
-154,920	-146,168	0,046	0,003
-153,906	299,023	-0,036	-0,048
-152,891	610,037	-0,038	-0,068
-151,877	-106,074	0,135	-0,022
-150,862	-200,000	0,006	0,033
-149,847	512,967	0,026	-0,043
-148,833	-12,069	0,037	-0,017
-147,818	67,361	-0,010	0,008
-146,804	-34,958	0,019	-0,008
-145,789	17,815	-0,058	0,033
-144,775	-200,000	0,006	0,033
-143,760	-200,000	0,002	0,047
-142,745	499,911	0,063	-0,105
-141,731	92,642	-0,088	0,071
-140,716	69,002	0,143	0,105
-139,702	175,578	0,029	0,031
-138,687	201,575	0,047	-0,052
-137,672	-150,944	-0,056	-0,003
-136,658	-200,000	0,005	-0,037
-135,643	-77,045	-0,071	-0,018
-134,629	305,714	-0,002	-0,003
-133,614	27,754	0,026	0,016
-132,599	51,319	0,192	0,131
-131,585	-200,000	0,019	0,098
-130,570	-114,635	0,136	-0,019
-129,556	27,824	0,044	0,027
-128,541	800,000	-0,022	0,048
-127,526	258,865	0,041	-0,051
-126,512	291,215	-0,037	0,049
-125,497	-97,746	-0,023	-0,004
-124,483	134,453	-0,060	0,056
-123,468	-200,000	-0,011	0,167
-122,453	-82,644	-0,046	-0,011
-121,439	-166,698	0,077	-0,002
-120,424	-200,000	0,018	-0,144
-119,410	-158,804	0,147	-0,006
-118,395	-200,000	0,005	-0,107
-117,380	593,786	0,054	0,097
-116,366	-6,406	0,051	-0,025
-115,351	-200,000	-0,030	-0,180
-114,337	-200,000	-0,045	0,143
-113,322	671,087	0,026	0,048
-112,307	-81,324	0,079	0,019
-111,293	-132,474	0,136	0,012
-110,278	-200,000	-0,012	0,054
-109,264	-200,000	-0,018	0,076
-108,249	-104,124	-0,085	0,014
-107,234	800,000	0,045	0,138
-106,220	197,331	0,041	0,045
-105,205	-28,929	-0,111	-0,046
-104,191	800,000	0,031	0,069
-103,176	-200,000	0,014	-0,047
-102,162	-52,884	-0,054	0,018
-101,147	-200,000	-0,032	-0,106
-100,132	-200,000	0,007	-0,076
-99,118	-66,361	0,076	-0,021
-98,103	-120,397	0,074	0,009
-97,089	-200,000	0,038	-0,181
-96,074	-103,430	-0,082	0,014
-95,059	119,300	-0,037	-0,033
-94,045	-16,037	0,116	-0,053
-93,030	156,033	0,097	-0,096
-92,016	-200,000	0,006	0,049
-91,001	-90,086	0,054	-0,011
-89,986	-20,502	-0,093	0,041
-88,972	-200,000	0,025	0,150
-87,957	167,464	-0,070	0,071
-86,943	45,914	-0,056	0,037
-85,928	-65,659	-0,054	-0,015
-84,913	-115,793	0,036	0,005
-83,899	-108,888	0,109	-0,017
-82,884	-146,736	0,076	-0,005
-81,870	10,462	-0,070	0,038
-80,855	-57,626	0,095	-0,030
-79,840	-94,026	0,106	0,021
-78,826	-94,036	-0,156	-0,030
-77,811	-2,393	-0,129	-0,065
-76,797	-148,396	-0,045	0,003
-75,782	3,518	-0,149	-0,078
-74,767	800,000	0,028	0,062
-73,753	26,707	-0,072	-0,043
-72,738	91,103	0,121	-0,097
-71,724	-35,804	-0,055	-0,021
-70,709	16,967	-0,060	-0,034
-69,694	-200,000	0,005	0,090
-68,680	-133,064	0,192	-0,017
-67,665	112,268	0,018	0,015
-66,651	-200,000	0,001	-0,011
-65,636	-92,284	0,083	0,017
-64,622	-133,373	0,037	0,003
-63,607	-63,159	-0,132	-0,039
-62,592	-200,000	0,043	0,155
-61,578	-200,000	0,008	0,127
-60,563	474,648	-0,030	0,049
-59,549	588,469	-0,020	0,035
-58,534	52,846	-2,004	-1,373
-57,519	-200,000	-0,198	-0,985
-56,505	-200,000	-1,281	-5,050
-55,490	89,913	0,841	0,673
-54,476	800,000	5,334	12,002
-53,461	-200,000	18,037	289,823
-52,446	800,000	728,290	2219,181
-51,432	530,150	1640,405	2789,445
-50,417	108,383	1629,444	1393,947
-49,403	72,418	1282,681	957,573
-48,388	31,024	1025,149	628,704
-47,373	19,833	987,275	568,664
-46,359	18,037	975,107	555,761
-45,344	15,255	971,317	544,501
-44,330	15,475	969,942	544,428
-43,315	14,986	968,016	541,731
-42,300	14,956	966,867	540,970
-41,286	14,929	965,956	540,351
-40,271	14,930	964,944	539,765
-39,257	14,993	964,004	539,423
-38,242	14,913	963,314	538,755
-37,227	14,975	962,534	538,498
-36,213	14,953	961,521	537,841
-35,198	14,880	960,740	537,146
-34,184	14,936	960,067	536,928
-33,169	14,935	959,095	536,361
-32,154	14,983	957,895	535,823
-31,140	14,927	957,267	535,271
-30,125	14,929	956,445	534,797
-29,111	14,941	955,563	534,321
-28,096	15,013	954,903	534,162
-27,082	14,970	954,176	533,597
-26,067	14,981	953,373	533,161
-25,052	14,932	952,868	532,700
-24,038	14,847	952,275	532,077
-23,023	14,867	951,554	531,717
-22,009	14,972	950,846	531,636
-20,994	14,977	950,287	531,317
-19,979	14,934	949,601	530,775
-18,965	14,969	948,887	530,466
-17,950	14,929	948,425	530,061
-16,936	14,865	947,791	529,479
-15,921	14,898	947,171	529,217
-14,906	14,846	946,235	528,509
-13,892	14,860	945,539	528,145
-12,877	14,858	944,898	527,758
-11,863	14,810	944,435	527,327
-10,848	14,840	943,988	527,150
-9,833	14,910	943,487	527,071
-8,819	14,876	942,744	526,530
-7,804	14,895	942,100	526,207
-6,790	14,862	941,536	525,767
-5,775	14,899	941,061	525,598
-4,760	14,858	940,481	525,123
-3,746	14,820	939,864	524,640
-2,731	14,677	939,144	523,766
-1,717	14,720	938,450	523,492
-0,702	14,680	937,743	522,952
0,313	14,493	937,098	522,791
1,327	17,957	935,203	532,574
2,342	27,387	788,303	473,692
3,356	23,919	443,322	261,253
4,371	-5,772	294,677	144,082
5,386	-9,545	276,475	131,607
6,400	-11,012	270,771	127,521
7,415	-11,042	268,420	126,375
8,429	-10,977	266,988	125,749
9,444	-10,947	266,109	125,351
10,459	-10,920	265,579	125,115
11,473	-11,218	264,990	124,556
12,488	-11,122	264,284	124,300
13,502	-11,464	263,988	123,841
14,517	-11,203	263,461	123,818
15,531	-11,347	262,957	123,441
16,546	-11,259	262,635	123,357
17,561	-11,180	262,178	123,202
18,575	-11,042	261,972	123,218
19,590	-11,414	261,729	122,760
20,604	-11,292	261,311	122,662
21,619	-11,473	261,058	122,370
22,634	-11,398	260,734	122,275
23,648	-11,381	260,325	122,087
24,663	-11,192	259,974	122,079
25,677	-11,405	259,969	121,877
26,692	-11,583	259,619	121,544
27,707	-11,451	259,351	121,525
28,721	-11,491	259,034	121,330
29,736	-11,199	258,628	121,387
30,750	-11,350	258,413	121,142
31,765	-11,256	258,142	121,087
32,780	-11,494	257,932	120,768
33,794	-11,453	257,776	120,721
34,809	-11,262	257,407	120,704
35,823	-11,565	257,320	120,388
36,838	-11,389	256,998	120,381
37,853	-11,420	256,709	120,207
38,867	-11,440	256,507	120,085
39,882	-11,351	256,266	120,039
40,896	-11,397	256,088	119,904
41,911	-11,512	255,704	119,613
42,926	-11,444	255,578	119,603
43,940	-11,520	255,370	119,429
44,955	-11,603	254,989	119,168
45,969	-11,753	254,897	118,983
46,984	-11,920	254,776	118,772
47,999	-12,058	254,322	118,430
49,013	-12,019	253,999	118,303
50,028	-12,100	253,825	118,141
51,042	-12,187	253,631	117,965
52,057	-12,567	253,370	117,505
53,071	-12,097	253,051	117,752
54,086	-12,348	253,104	117,550
55,101	-12,078	252,876	117,666
56,115	-11,871	252,593	117,702
57,130	-11,320	252,752	118,240
58,144	-11,216	252,539	118,218
59,159	-11,049	252,244	118,214
60,174	-11,250	252,069	117,949
61,188	-11,296	251,845	117,794
62,203	-11,331	251,757	117,712
63,217	-11,267	251,389	117,584
64,232	-11,329	251,174	117,421
65,247	-11,091	250,886	117,479
66,261	-11,209	250,720	117,290
67,276	-11,526	250,304	116,814
68,290	-11,741	250,154	116,551
69,305	-11,826	249,893	116,347
70,320	-11,678	249,752	116,397
71,334	-11,405	249,541	116,520
72,349	-11,104	249,545	116,767
73,363	-11,162	249,440	116,658
74,378	-11,317	249,130	116,371
75,393	-11,378	248,850	116,178
76,407	-11,320	248,794	116,191
77,422	-11,256	248,563	116,127
78,436	-11,304	248,182	115,898
79,451	-11,206	248,140	115,951
80,466	-11,575	247,830	115,485
81,480	-11,620	247,502	115,283
82,495	-11,570	247,299	115,221
83,509	-11,607	247,163	115,116
84,524	-11,544	246,919	115,045
85,539	-11,676	246,804	114,870
86,553	-11,852	246,613	114,624
87,568	-11,859	246,401	114,509
88,582	-11,717	246,029	114,445
89,597	-11,659	246,002	114,470
90,611	-11,441	245,934	114,611
91,626	-11,130	245,650	114,727
92,641	-11,217	245,443	114,548
93,655	-11,570	245,405	114,226
94,670	-11,500	244,986	114,079
95,684	-11,670	245,011	113,939
96,699	-11,618	244,678	113,818
97,714	-11,620	244,576	113,758
98,728	-11,908	244,384	113,420
99,743	-11,932	244,117	113,266
100,757	-11,761	243,685	113,197
101,772	-11,804	243,672	113,145
102,787	-11,694	243,496	113,144
103,801	-11,516	243,380	113,228
104,816	-11,510	243,041	113,064
105,830	-11,412	243,089	113,157
106,845	-11,310	242,775	113,085
107,860	-11,452	242,808	112,973
108,874	-11,525	242,435	112,730
109,889	-11,487	242,212	112,647
110,903	-11,546	242,091	112,533
111,918	-11,654	241,833	112,314
112,933	-11,622	241,760	112,297
113,947	-11,427	241,650	112,395
114,962	-11,527	241,449	112,210
115,976	-11,390	241,110	112,154
116,991	-11,416	241,021	112,081
118,006	-11,321	240,921	112,103
119,020	-11,637	240,590	111,681
120,035	-11,330	240,671	111,959
121,049	-11,305	240,540	111,908
122,064	-11,390	240,269	111,703
123,079	-11,710	240,021	111,318
124,093	-11,366	239,717	111,446
125,108	-11,349	239,449	111,325
126,122	-11,941	239,365	110,797
127,137	-11,991	239,118	110,631
128,151	-11,837	238,919	110,654
129,166	-11,749	238,854	110,685
130,181	-11,809	238,709	110,560
131,195	-11,722	238,381	110,468
132,210	-11,471	238,252	110,601
133,224	-11,391	238,081	110,576
134,239	-11,345	238,036	110,583
135,254	-11,423	237,802	110,401
136,268	-11,532	237,604	110,211
137,283	-12,039	237,332	109,669
138,297	-11,895	237,132	109,682
139,312	-11,981	236,842	109,469
140,327	-11,531	236,961	109,875
141,341	-10,985	236,804	110,230
142,356	-11,184	236,696	110,011
143,370	-11,064	236,456	109,985
144,385	-10,977	236,407	110,022
145,400	-10,960	236,157	109,909
146,414	-11,274	236,106	109,626
147,429	-11,009	235,859	109,712
148,443	-11,156	235,660	109,492
149,458	-11,127	235,470	109,418
150,473	-11,141	235,390	109,360
151,487	-11,210	235,181	109,198
152,502	-11,243	234,949	109,054
153,516	-10,985	234,711	109,138
154,531	-11,297	234,603	108,832
155,546	-11,278	234,499	108,788
156,560	-11,403	234,308	108,591
157,575	-11,312	234,017	108,519
158,589	-11,435	233,983	108,396
159,604	-11,098	233,739	108,539
160,619	-10,983	233,614	108,562
161,633	-10,735	233,378	108,638
162,648	-11,062	233,281	108,326
163,662	-11,154	233,038	108,131
164,677	-11,194	232,985	108,065
165,692	-11,204	232,901	108,009
166,706	-11,333	232,939	107,916
167,721	-10,853	232,529	108,093
168,735	-10,987	232,564	107,994
169,750	-11,358	232,479	107,654
170,764	-11,121	232,099	107,654
171,779	-10,910	232,031	107,778
172,794	-11,150	231,870	107,505
173,808	-11,279	231,643	107,290
174,823	-11,748	231,344	106,776
175,837	-11,813	231,115	106,611
176,852	-11,360	231,227	107,006
177,867	-11,081	231,091	107,151
178,881	-10,947	230,826	107,122
179,896	-11,041	230,716	106,989
180,910	-11,000	230,472	106,898
181,925	-10,970	230,353	106,857
182,940	-11,001	230,281	106,789
183,954	-11,003	230,192	106,737
184,969	-11,020	230,050	106,649
185,983	-10,849	229,724	106,620
186,998	-10,703	229,508	106,623
188,013	-10,811	229,511	106,532
189,027	-10,772	229,263	106,437
190,042	-10,819	229,202	106,363
191,056	-10,946	228,955	106,141
192,071	-10,860	228,830	106,140
193,086	-10,887	228,661	106,031
194,100	-10,699	228,549	106,115
195,115	-11,092	228,170	105,627
196,129	-11,267	228,061	105,433
197,144	-6,635	229,901	109,854
198,159	-0,746	231,595	115,226
199,173	2,572	232,238	118,112
200,188	2,936	232,371	118,452
201,202	3,140	232,110	118,466
202,217	3,188	232,017	118,445
203,232	3,499	231,859	118,594
204,246	3,351	231,916	118,499
205,261	3,452	231,731	118,471
206,275	3,759	231,597	118,630
207,290	3,814	231,458	118,590
208,304	3,726	231,247	118,404
209,319	3,594	231,116	118,224
210,334	3,488	230,988	118,067
211,348	3,609	230,745	118,025
212,363	3,092	230,386	117,433
213,377	2,792	230,238	117,118
214,392	2,794	229,846	116,909
215,407	2,950	229,920	117,056
216,421	2,791	229,840	116,883
217,436	2,837	229,570	116,770
218,450	2,664	229,351	116,517
219,465	2,688	229,279	116,488
220,480	2,611	229,100	116,328
221,494	2,620	228,977	116,262
222,509	2,864	228,865	116,381
223,523	2,896	228,837	116,380
224,538	2,952	228,458	116,220
225,553	2,805	228,452	116,095
226,567	2,942	228,261	116,091
227,582	3,422	228,169	116,398
228,596	3,272	228,021	116,199
229,611	2,990	227,923	115,925
230,626	2,696	227,598	115,526
231,640	2,591	227,537	115,405
232,655	2,993	227,415	115,638
233,669	3,362	227,426	115,912
234,684	3,458	227,339	115,931
235,699	3,319	227,062	115,674
236,713	2,912	226,878	115,262
237,728	2,925	226,601	115,121
238,742	2,701	226,525	114,904
239,757	3,040	226,324	115,046
240,772	2,935	226,100	114,844
241,786	2,946	225,922	114,751
242,801	3,068	225,978	114,861
243,815	3,413	225,933	115,087
244,830	3,445	225,711	114,988
245,844	2,876	225,520	114,454
246,859	2,667	225,480	114,266
247,874	3,081	225,330	114,490
248,888	3,121	225,133	114,410
249,903	2,826	225,045	114,134
250,917	2,851	224,851	114,044
251,932	2,865	224,530	113,882
252,947	2,541	224,511	113,621
253,961	2,679	224,270	113,591
254,976	2,808	224,206	113,644
255,990	3,087	224,181	113,829
257,005	3,145	224,041	113,791
258,020	3,214	223,827	113,724
259,034	3,041	223,781	113,562
260,049	3,147	223,518	113,497
261,063	3,273	223,278	113,459
262,078	3,231	223,184	113,369
263,093	3,161	223,091	113,260
264,107	3,072	223,015	113,145
265,122	3,310	222,857	113,231
266,136	3,369	222,737	113,204
267,151	3,565	222,540	113,238
268,166	3,111	222,257	112,749
269,180	2,921	222,084	112,511
270,195	2,962	221,942	112,460
271,209	2,945	221,817	112,374
272,224	3,248	221,676	112,516
273,239	3,121	221,591	112,369
274,253	2,666	221,589	112,023
275,268	2,739	221,231	111,886
276,282	2,622	221,178	111,764
277,297	2,734	220,887	111,688
278,312	2,825	220,787	111,694
279,326	3,031	220,645	111,764
280,341	2,940	220,643	111,686
281,355	3,002	220,474	111,635
282,370	2,974	220,251	111,493
283,384	2,643	219,980	111,104
284,399	2,605	219,971	111,062
285,414	2,833	219,790	111,127
286,428	2,923	219,718	111,146
287,443	2,968	219,717	111,168
288,457	3,204	219,453	111,196
289,472	2,888	219,261	110,859
290,487	2,554	219,022	110,487
291,501	2,345	218,831	110,229
292,516	2,404	218,818	110,255
293,530	2,637	218,643	110,326
294,545	2,632	218,487	110,234
295,560	2,989	218,329	110,402
296,574	2,831	218,467	110,348
297,589	2,657	218,202	110,079
298,603	2,777	218,030	110,069
299,618	2,907	217,940	110,107
300,633	2,887	217,883	110,054
301,647	3,262	217,652	110,197
302,662	3,410	217,614	110,275
303,676	3,137	217,408	109,965
304,691	3,032	217,348	109,849
305,706	3,307	217,114	109,918
306,720	3,135	216,982	109,718
307,735	2,829	216,700	109,347
308,749	2,689	216,674	109,224
309,764	3,125	216,456	109,415
310,779	3,299	216,432	109,518
311,793	3,180	216,066	109,239
312,808	3,425	216,047	109,394
313,822	2,921	216,006	109,004
314,837	2,848	215,741	108,809
315,852	2,758	215,707	108,717
316,866	2,849	215,702	108,770
317,881	2,932	215,567	108,751
318,895	3,342	215,326	108,911
319,910	2,708	215,178	108,376
320,925	2,658	214,870	108,176
321,939	2,487	214,693	107,956
322,954	2,799	214,707	108,175
323,968	3,154	214,546	108,336
324,983	3,027	214,558	108,242
325,997	3,362	214,465	108,422
327,012	3,168	214,265	108,175
328,027	3,132	214,142	108,078
329,041	3,596	214,088	108,368
330,056	3,220	213,904	108,000
331,070	2,758	213,659	107,541
332,085	2,496	213,333	107,182
333,100	2,587	213,152	107,146
334,114	3,032	213,229	107,488
335,129	3,142	213,132	107,507
336,143	3,203	212,771	107,359
337,158	2,904	212,863	107,186
338,173	3,259	212,596	107,291
339,187	2,608	212,542	106,798
340,202	2,773	212,368	106,816
341,216	2,411	212,222	106,480
342,231	2,805	212,091	106,680
343,246	2,925	211,938	106,677
344,260	2,868	211,770	106,543
345,275	3,061	211,865	106,716
346,289	3,023	211,759	106,627
347,304	2,944	211,591	106,478
348,319	3,022	211,199	106,326
349,333	2,942	211,159	106,240
350,348	3,220	210,995	106,341
351,362	3,016	211,064	106,224
352,377	3,134	210,990	106,260
353,392	3,111	210,553	106,015
354,406	2,960	210,751	106,000
355,421	197,497	1335,722	1418,271
356,435	157,844	1472,739	1418,241
