DTS Sentinel unit serial number:	SN410029Multiplexer serial number:	ORYXHardware model number:	OX2-SRSoftware version number:	ORYX F/W v4,00 Oryx Data Collector v3.7.2.0data status	okinstallation	B6 Nyhavnadifferential loss correction	single-endedforward channel	channel 2reverse channel	N/Adate	2023/12/09time	11:35:08forward acquisition time	300,00reverse acquisition time	0,00gamma	499,1914k internal	0,3139k external	0,3139temperature offset calibration	1,0000default loss term (dB/km)	0,3820temperature slope calibration	1,0000multiplexer offset coefficient	1,0000multiplexer slope coefficient	1,0000fibre end	0,00T internal ref (°C)	18,88T ext. ref 1 (°C)	2,87T ext. ref 2 (°C)	2,87length (m)	temperature (°C)	Stokes	anti-Stokes-744,400	-149,556	0,067	-0,004
-743,385	-141,485	-0,360	0,027
-742,371	-200,000	-0,003	-0,058
-741,356	-166,115	-0,219	0,007
-740,342	424,883	0,092	0,147
-739,327	100,818	-0,242	0,209
-738,312	233,350	0,150	0,183
-737,298	52,172	-0,209	0,147
-736,283	225,110	0,041	-0,050
-735,269	-166,160	-0,216	0,007
-734,254	-82,367	-0,109	0,026
-733,239	-34,554	-0,304	-0,123
-732,225	-17,858	0,106	0,049
-731,210	800,000	-0,020	0,055
-730,196	800,000	-0,061	0,164
-729,181	624,165	-0,011	-0,021
-728,167	112,255	0,087	0,078
-727,152	-200,000	0,042	0,140
-726,137	-74,888	-0,070	-0,018
-725,123	85,693	-0,106	0,087
-724,108	-200,000	-0,054	-0,185
-723,094	132,801	-0,185	-0,177
-722,079	652,286	-0,080	-0,153
-721,064	-200,000	0,007	0,129
-720,050	-200,000	0,033	-0,120
-719,035	-200,000	-0,001	0,046
-718,021	217,584	-0,025	-0,029
-717,006	240,541	-0,064	0,079
-715,991	800,000	-0,049	-0,133
-714,977	686,359	-0,069	0,134
-713,962	94,179	-0,050	0,042
-712,948	-101,907	-0,156	0,028
-711,933	15,247	-0,119	0,069
-710,918	129,917	-0,139	0,131
-709,904	-122,392	-0,095	0,011
-708,889	-200,000	-0,019	-0,164
-707,875	-200,000	-0,023	-0,109
-706,860	27,792	-0,110	0,068
-705,845	-22,613	-0,130	-0,058
-704,831	-200,000	0,004	-0,024
-703,816	596,081	-0,039	0,071
-702,802	800,000	0,014	-0,038
-701,787	180,557	0,048	-0,052
-700,772	139,990	-0,157	-0,154
-699,758	800,000	0,023	-0,061
-698,743	-8,052	0,061	0,030
-697,729	-41,457	-0,027	-0,010
-696,714	64,060	0,106	0,079
-695,699	298,056	-0,031	0,043
-694,685	-173,214	0,076	0,002
-693,670	363,914	-0,050	-0,074
-692,656	800,000	-0,015	-0,036
-691,641	45,738	-0,017	0,012
-690,627	143,789	-0,025	0,025
-689,612	-200,000	-0,012	-0,046
-688,597	-200,000	-0,001	0,017
-687,583	493,035	0,084	-0,143
-686,568	800,000	-0,052	-0,124
-685,554	800,000	-0,037	-0,096
-684,539	-200,000	0,001	0,035
-683,524	10,621	-0,077	-0,043
-682,510	800,000	0,054	0,132
-681,495	643,412	-0,010	-0,019
-680,481	-147,183	-0,105	-0,007
-679,466	403,269	-0,024	0,037
-678,451	-141,174	-0,073	-0,005
-677,437	800,000	-0,056	0,141
-676,422	800,000	0,019	-0,062
-675,408	-200,000	0,017	0,093
-674,393	-148,844	-0,087	0,005
-673,378	-200,000	-0,029	-0,125
-672,364	222,707	-0,079	0,095
-671,349	-200,000	-0,000	-0,153
-670,335	94,203	0,064	0,054
-669,320	-96,941	0,102	-0,020
-668,305	-74,549	-0,037	-0,010
-667,291	-35,366	0,107	0,043
-666,276	800,000	0,022	-0,066
-665,262	-99,752	-0,057	-0,010
-664,247	-102,394	0,179	0,031
-663,232	215,697	-0,136	-0,160
-662,218	37,181	0,142	-0,093
-661,203	-200,000	-0,015	0,127
-660,189	-139,108	-0,078	0,006
-659,174	-146,293	0,018	-0,001
-658,159	187,185	-0,084	-0,093
-657,145	257,578	0,057	-0,072
-656,130	-200,000	-0,011	0,049
-655,116	800,000	0,026	0,075
-654,101	280,970	0,042	-0,055
-653,086	1,846	0,084	0,045
-652,072	-77,043	0,042	0,011
-651,057	-198,665	-0,118	0,000
-650,043	75,415	-0,053	0,042
-649,028	-25,013	-0,056	-0,025
-648,014	-1,251	-0,031	0,016
-646,999	20,692	0,052	0,031
-645,984	319,941	-0,042	0,059
-644,970	-74,742	0,046	-0,012
-643,955	332,013	0,071	-0,101
-642,941	574,288	-0,101	-0,183
-641,926	800,000	-0,052	-0,122
-640,911	73,719	-0,030	0,023
-639,897	74,664	-0,112	0,087
-638,882	-200,000	-0,015	0,120
-637,868	-121,889	0,049	-0,006
-636,853	-114,048	0,052	0,007
-635,838	-200,000	0,004	-0,065
-634,824	-12,093	-0,105	-0,050
-633,809	-200,000	0,003	0,084
-632,795	800,000	-0,012	-0,039
-631,780	539,561	-0,056	0,098
-630,765	483,846	-0,062	0,104
-629,751	50,249	0,052	-0,036
-628,736	-0,561	-0,061	0,032
-627,722	712,141	0,061	-0,119
-626,707	-200,000	-0,033	0,120
-625,692	407,630	-0,059	0,092
-624,678	-165,933	-0,015	0,000
-623,663	-173,398	0,125	-0,003
-622,649	212,485	-0,064	-0,075
-621,634	9,785	-0,072	0,040
-620,619	260,581	-0,043	0,055
-619,605	125,219	-0,042	0,039
-618,590	-200,000	-0,002	-0,020
-617,576	-96,700	0,124	-0,024
-616,561	800,000	-0,033	-0,084
-615,546	-40,265	-0,124	-0,047
-614,532	-94,310	-0,083	-0,017
-613,517	800,000	-0,012	-0,031
-612,503	800,000	0,022	-0,059
-611,488	800,000	0,011	0,037
-610,474	119,407	-0,036	-0,033
-609,459	259,566	-0,067	0,086
-608,444	-120,561	-0,124	-0,015
-607,430	-200,000	0,009	-0,056
-606,415	800,000	0,010	-0,025
-605,401	-200,000	0,004	0,046
-604,386	61,011	0,128	0,094
-603,371	800,000	0,040	0,091
-602,357	-200,000	-0,006	0,056
-601,342	-200,000	-0,009	-0,051
-600,328	800,000	-0,068	-0,142
-599,313	-28,488	-0,037	0,016
-598,298	800,000	-0,016	0,051
-597,284	402,462	0,082	-0,128
-596,269	-61,030	0,088	0,027
-595,255	141,007	0,095	0,093
-594,240	800,000	-0,041	-0,127
-593,225	262,273	-0,054	-0,070
-592,211	-78,767	0,064	-0,016
-591,196	-13,736	0,045	-0,021
-590,182	437,093	0,043	-0,069
-589,167	-200,000	-0,044	0,176
-588,152	800,000	-0,018	-0,043
-587,138	-200,000	-0,001	-0,114
-586,123	-200,000	0,004	-0,022
-585,109	75,791	-0,110	0,086
-584,094	-121,371	-0,120	0,015
-583,079	-200,000	-0,001	0,142
-582,065	-200,000	0,007	0,060
-581,050	393,714	0,067	0,102
-580,036	312,424	-0,100	0,139
-579,021	44,530	-0,019	-0,013
-578,006	-200,000	-0,003	-0,028
-576,992	-181,636	0,106	0,001
-575,977	-200,000	0,005	-0,016
-574,963	-133,300	0,018	0,002
-573,948	800,000	0,028	-0,081
-572,934	-136,506	0,033	-0,003
-571,919	56,120	-0,059	0,042
-570,904	-200,000	0,027	-0,153
-569,890	-114,663	-0,214	0,030
-568,875	313,990	0,043	-0,059
-567,861	-83,257	0,123	0,029
-566,846	-71,480	0,093	-0,025
-565,831	700,644	0,056	0,110
-564,817	-114,848	-0,147	-0,020
-563,802	-200,000	-0,027	-0,172
-562,788	112,927	0,038	0,034
-561,773	-200,000	0,021	0,074
-560,758	99,382	0,036	0,031
-559,744	193,073	-0,110	-0,122
-558,729	108,251	0,028	0,025
-557,715	489,273	-0,045	-0,075
-556,700	54,787	-0,074	-0,053
-555,685	428,309	-0,061	-0,098
-554,671	712,539	0,043	-0,083
-553,656	-200,000	0,005	0,049
-552,642	37,663	0,019	0,013
-551,627	-17,428	-0,122	-0,056
-550,612	-15,732	0,131	0,061
-549,598	-98,881	-0,064	-0,012
-548,583	-33,347	-0,089	0,036
-547,569	800,000	0,031	-0,068
-546,554	-134,475	0,168	-0,015
-545,539	4,860	0,154	0,083
-544,525	365,976	-0,081	-0,120
-543,510	-200,000	-0,002	-0,092
-542,496	159,012	0,046	-0,047
-541,481	-82,761	-0,254	0,060
-540,466	50,668	-0,124	0,086
-539,452	100,699	0,064	0,055
-538,437	78,109	0,126	0,099
-537,423	-2,864	0,094	0,048
-536,408	39,343	-0,115	0,076
-535,393	800,000	-0,051	-0,152
-534,379	280,793	0,034	0,044
-533,364	800,000	-0,028	-0,077
-532,350	23,988	0,066	0,040
-531,335	364,156	-0,045	-0,067
-530,321	-19,782	0,087	0,039
-529,306	605,079	-0,060	-0,111
-528,291	145,661	0,051	0,051
-527,277	-200,000	0,003	0,012
-526,262	800,000	0,021	-0,066
-525,248	-14,731	-0,065	-0,030
-524,233	236,563	0,064	0,078
-523,218	-200,000	-0,021	-0,069
-522,204	-102,524	-0,034	0,006
-521,189	229,793	-0,036	0,043
-520,175	800,000	-0,067	-0,146
-519,160	185,755	-0,032	-0,035
-518,145	-131,884	0,102	-0,010
-517,131	-34,815	-0,012	-0,005
-516,116	-15,865	-0,084	0,039
-515,102	-200,000	0,003	-0,029
-514,087	758,823	-0,049	0,097
-513,072	365,471	0,041	0,061
-512,058	-106,877	0,053	-0,008
-511,043	800,000	0,026	0,084
-510,029	-56,484	0,099	0,032
-509,014	800,000	-0,038	0,110
-507,999	-200,000	0,001	0,020
-506,985	-200,000	0,002	0,088
-505,970	-151,693	-0,123	0,007
-504,956	-102,949	0,080	0,014
-503,941	340,638	-0,010	0,015
-502,926	178,407	0,054	-0,058
-501,912	-22,586	0,080	-0,035
-500,897	643,242	-0,031	-0,059
-499,883	-200,000	0,020	-0,070
-498,868	800,000	-0,047	-0,139
-497,853	800,000	0,044	-0,105
-496,839	62,273	-0,060	-0,044
-495,824	-6,839	0,057	-0,028
-494,810	192,294	-0,117	0,130
-493,795	43,933	0,066	0,044
-492,781	-96,430	-0,168	-0,032
-491,766	116,951	-0,041	-0,037
-490,751	-107,835	0,092	0,015
-489,737	495,509	-0,044	0,074
-488,722	-67,840	-0,043	-0,012
-487,708	766,423	-0,005	0,010
-486,693	-31,279	0,038	-0,016
-485,678	800,000	-0,011	-0,023
-484,664	-119,093	0,166	-0,021
-483,649	219,802	0,019	0,022
-482,635	469,638	-0,038	-0,064
-481,620	135,447	-0,031	0,030
-480,605	-110,214	0,152	-0,023
-479,591	-200,000	0,010	-0,047
-478,576	-200,000	-0,033	0,000
-477,562	44,905	0,159	-0,107
-476,547	-200,000	0,009	0,121
-475,532	-76,684	-0,100	0,026
-474,518	-156,245	0,123	0,006
-473,503	216,900	-0,033	0,039
-472,489	800,000	0,018	-0,038
-471,474	-39,225	-0,140	-0,054
-470,459	-200,000	0,012	-0,041
-469,445	610,798	-0,071	-0,131
-468,430	-200,000	0,001	0,012
-467,416	800,000	0,038	0,085
-466,401	-75,853	0,129	-0,033
-465,386	-200,000	-0,034	0,125
-464,372	-200,000	0,008	0,046
-463,357	-200,000	-0,008	0,102
-462,343	-121,966	0,064	0,008
-461,328	-107,630	-0,046	-0,007
-460,313	-116,293	-0,061	0,008
-459,299	125,011	0,129	0,120
-458,284	-200,000	-0,004	-0,117
-457,270	-104,554	0,093	-0,016
-456,255	-27,927	-0,084	0,035
-455,241	-94,956	0,079	-0,015
-454,226	311,227	0,022	-0,030
-453,211	158,353	-0,041	0,042
-452,197	-200,000	0,002	0,149
-451,182	-34,114	-0,012	-0,005
-450,168	-22,173	-0,087	-0,039
-449,153	57,115	0,075	0,054
-448,138	-39,476	-0,130	-0,050
-447,124	-177,424	0,156	-0,003
-446,109	634,288	0,023	0,043
-445,095	-97,944	0,084	-0,016
-444,080	800,000	-0,053	0,123
-443,065	-26,665	-0,064	-0,027
-442,051	722,200	-0,037	0,073
-441,036	188,097	0,104	-0,114
-440,022	47,360	-0,121	-0,083
-439,007	28,127	0,165	-0,102
-437,992	672,347	0,019	0,037
-436,978	731,467	-0,068	0,133
-435,963	-3,376	0,088	-0,045
-434,949	-200,000	0,002	0,201
-433,934	-19,293	-0,156	-0,071
-432,919	800,000	-0,040	-0,110
-431,905	-79,102	-0,107	0,026
-430,890	66,950	0,090	-0,067
-429,876	83,228	0,055	0,044
-428,861	-98,101	0,058	0,011
-427,846	135,222	0,050	0,048
-426,832	-48,467	0,064	-0,023
-425,817	33,974	0,104	-0,066
-424,803	-200,000	0,022	-0,174
-423,788	-98,987	0,166	0,030
-422,773	-43,419	-0,022	0,008
-421,759	-62,465	0,017	0,005
-420,744	175,469	0,007	0,008
-419,730	-0,052	0,060	-0,031
-418,715	800,000	0,048	0,124
-417,701	537,795	0,018	0,031
-416,686	-43,274	0,111	0,041
-415,671	-62,748	0,046	-0,014
-414,657	800,000	0,036	0,113
-413,642	27,770	-0,100	-0,062
-412,628	471,326	-0,047	0,077
-411,613	-29,815	-0,113	-0,047
-410,598	94,362	-0,076	-0,063
-409,584	327,018	0,084	0,118
-408,569	-84,148	0,100	0,023
-407,555	32,765	0,199	-0,126
-406,540	-200,000	0,002	-0,115
-405,525	-1,393	-0,081	0,042
-404,511	284,375	-0,113	-0,150
-403,496	46,636	-0,120	-0,081
-402,482	-87,147	-0,069	-0,015
-401,467	-169,842	-0,057	-0,001
-400,452	800,000	0,034	0,090
-399,438	-61,880	0,155	-0,047
-398,423	128,755	-0,081	-0,076
-397,409	562,260	-0,012	-0,021
-396,394	-200,000	0,012	-0,052
-395,379	-200,000	-0,004	-0,111
-394,365	-59,628	0,070	-0,022
-393,350	64,094	0,077	0,057
-392,336	-200,000	-0,003	-0,041
-391,321	81,516	-0,028	0,023
-390,306	-200,000	0,004	-0,020
-389,292	800,000	0,047	-0,123
-388,277	111,983	0,062	-0,055
-387,263	-65,205	-0,045	0,013
-386,248	-200,000	0,003	0,049
-385,233	-1,219	-0,119	0,061
-384,219	236,116	-0,047	0,057
-383,204	243,884	0,056	-0,068
-382,190	-133,751	-0,058	0,005
-381,175	72,076	0,058	-0,044
-380,160	-10,370	0,016	0,008
-379,146	-38,617	-0,126	-0,048
-378,131	66,202	-0,011	0,008
-377,117	384,021	0,014	0,021
-376,102	386,159	0,044	0,067
-375,088	-200,000	0,002	-0,010
-374,073	148,310	-0,071	-0,070
-373,058	90,321	-0,082	0,067
-372,044	-35,191	0,037	-0,015
-371,029	58,473	-0,112	-0,080
-370,015	-200,000	-0,001	-0,174
-369,000	800,000	-0,084	-0,199
-367,985	428,804	0,100	-0,159
-366,971	-200,000	-0,003	-0,081
-365,956	800,000	0,030	0,084
-364,942	-66,844	0,085	0,024
-363,927	-200,000	-0,002	0,011
-362,912	-52,340	-0,053	0,018
-361,898	-68,669	-0,144	-0,040
-360,883	34,645	0,078	0,050
-359,869	800,000	-0,036	-0,077
-358,854	124,221	0,066	0,061
-357,839	99,993	-0,055	-0,047
-356,825	87,115	0,102	0,083
-355,810	-200,000	0,024	-0,099
-354,796	150,396	-0,043	-0,042
-353,781	145,174	0,117	-0,114
-352,766	-100,383	0,150	-0,027
-351,752	586,195	-0,022	-0,040
-350,737	368,561	0,020	-0,029
-349,723	124,888	0,070	0,064
-348,708	185,055	0,061	0,066
-347,693	800,000	-0,010	0,027
-346,679	800,000	-0,071	0,228
-345,664	-200,000	-0,003	0,209
-344,650	-200,000	0,010	0,057
-343,635	-200,000	0,024	0,121
-342,620	-200,000	-0,003	0,051
-341,606	-108,377	0,129	-0,020
-340,591	-200,000	-0,002	0,014
-339,577	-11,288	-0,107	0,051
-338,562	-78,907	0,129	0,032
-337,548	-200,000	-0,005	-0,017
-336,533	-38,966	-0,055	0,021
-335,518	346,021	0,021	-0,031
-334,504	-200,000	0,000	0,052
-333,489	-200,000	0,028	-0,141
-332,475	42,847	0,046	0,030
-331,460	-20,550	-0,050	0,022
-330,445	62,250	0,128	-0,093
-329,431	800,000	0,010	-0,028
-328,416	260,037	0,053	0,066
-327,402	230,265	-0,066	0,079
-326,387	70,657	0,158	0,119
-325,372	-167,885	-0,022	0,001
-324,358	-200,000	-0,011	0,092
-323,343	-151,569	0,131	-0,007
-322,329	290,406	0,033	-0,044
-321,314	-180,562	0,165	-0,002
-320,299	-200,000	-0,035	0,126
-319,285	-75,614	0,071	0,018
-318,270	241,048	-0,042	0,051
-317,256	-128,309	-0,172	-0,018
-316,241	59,075	0,094	-0,067
-315,226	-78,760	-0,090	0,022
-314,212	-15,354	0,131	-0,061
-313,197	35,257	-0,046	0,029
-312,183	203,701	0,059	0,067
-311,168	11,526	-0,069	0,039
-310,153	720,817	-0,031	0,061
-309,139	237,818	0,029	0,035
-308,124	800,000	-0,048	0,113
-307,110	-79,466	-0,081	0,020
-306,095	229,554	0,047	0,056
-305,080	46,440	0,071	-0,048
-304,066	-127,347	-0,164	-0,017
-303,051	70,170	-0,105	-0,079
-302,037	-200,000	0,005	-0,216
-301,022	137,801	0,031	-0,030
-300,008	122,219	0,090	0,082
-298,993	164,142	0,028	-0,028
-297,978	134,430	-0,089	-0,084
-296,964	-200,000	-0,008	-0,033
-295,949	294,558	-0,071	-0,095
-294,935	-200,000	0,000	-0,042
-293,920	-121,450	0,146	0,017
-292,905	263,037	-0,063	0,080
-291,891	800,000	0,018	0,057
-290,876	675,669	0,034	-0,065
-289,862	-68,013	-0,117	0,033
-288,847	40,674	0,034	-0,022
-287,832	-144,494	-0,219	-0,015
-286,818	-112,905	0,115	0,016
-285,803	182,475	0,109	-0,118
-284,789	-119,593	0,049	0,006
-283,774	319,439	0,059	-0,081
-282,759	-46,671	-0,074	0,026
-281,745	-200,000	-0,037	-0,126
-280,730	235,953	0,049	0,059
-279,716	-200,000	-0,018	-0,083
-278,701	516,769	-0,138	0,235
-277,686	146,582	0,204	0,200
-276,672	13,290	-0,115	0,065
-275,657	40,189	0,109	0,071
-274,643	-106,819	-0,249	0,040
-273,628	92,637	-0,128	0,105
-272,613	119,417	-0,122	-0,110
-271,599	1,439	0,108	-0,056
-270,584	-67,371	-0,085	-0,024
-269,570	44,101	0,073	0,048
-268,555	-110,276	0,130	0,020
-267,540	185,863	0,064	-0,069
-266,526	31,806	-0,099	0,062
-265,511	-200,000	-0,000	0,084
-264,497	-200,000	-0,015	-0,059
-263,482	53,180	0,111	0,077
-262,467	-95,896	-0,119	0,023
-261,453	-71,787	-0,058	-0,016
-260,438	-84,256	-0,060	0,014
-259,424	-200,000	0,016	-0,105
-258,409	53,271	0,094	0,066
-257,395	-17,449	-0,010	-0,005
-256,380	-74,393	0,142	0,037
-255,365	-200,000	-0,007	0,110
-254,351	722,977	0,065	-0,126
-253,336	-100,583	0,034	-0,006
-252,322	-105,171	-0,067	0,011
-251,307	15,516	-0,104	0,059
-250,292	767,797	0,039	-0,078
-249,278	491,619	-0,013	0,023
-248,263	123,736	-0,020	0,018
-247,249	-200,000	-0,015	-0,081
-246,234	-23,581	-0,098	-0,043
-245,219	421,956	0,050	-0,078
-244,205	-200,000	0,022	-0,109
-243,190	-80,667	0,081	-0,020
-242,176	-87,296	0,121	-0,027
-241,161	800,000	0,045	0,136
-240,146	92,224	0,136	0,111
-239,132	-12,527	-0,063	0,030
-238,117	-113,349	-0,074	-0,011
-237,103	800,000	0,018	0,045
-236,088	505,267	-0,098	0,165
-235,073	73,808	0,081	-0,062
-234,059	568,422	0,037	-0,065
-233,044	-17,571	0,058	-0,026
-232,030	120,366	-0,089	-0,080
-231,015	18,426	-0,075	0,043
-230,000	800,000	0,026	-0,063
-228,986	-29,134	0,028	-0,012
-227,971	-200,000	0,024	0,205
-226,957	741,080	0,043	0,085
-225,942	800,000	-0,012	0,031
-224,927	-28,408	-0,094	-0,039
-223,913	-34,535	-0,122	0,048
-222,898	-114,634	0,065	-0,009
-221,884	-68,395	-0,024	-0,007
-220,869	-198,434	0,064	0,000
-219,855	800,000	0,051	0,152
-218,840	242,925	0,044	0,054
-217,825	-200,000	-0,006	0,050
-216,811	-200,000	-0,011	-0,054
-215,796	572,491	-0,081	-0,143
-214,782	-108,370	-0,081	-0,012
-213,767	197,472	0,079	0,087
-212,752	36,776	0,079	-0,050
-211,738	36,433	-0,135	-0,086
-210,723	82,643	0,070	0,055
-209,709	64,705	-0,072	-0,053
-208,694	800,000	-0,039	-0,082
-207,679	800,000	0,035	0,108
-206,665	199,866	0,070	-0,078
-205,650	21,142	-0,070	0,041
-204,636	1,553	0,054	-0,028
-203,621	-57,480	-0,143	0,045
-202,606	385,161	-0,069	-0,104
-201,592	-89,002	-0,070	0,015
-200,577	-200,000	0,002	0,135
-199,563	-144,642	0,042	-0,003
-198,548	-200,000	-0,009	0,104
-197,533	-200,000	-0,003	-0,045
-196,519	-100,270	0,104	0,019
-195,504	-200,000	-0,012	-0,106
-194,490	-200,000	0,003	-0,081
-193,475	-200,000	0,002	-0,041
-192,460	-58,671	0,077	-0,024
-191,446	-122,457	-0,085	-0,010
-190,431	-200,000	-0,004	-0,048
-189,417	-45,323	0,043	0,015
-188,402	5,945	-0,106	0,057
-187,387	50,425	0,038	-0,026
-186,373	800,000	0,009	0,020
-185,358	511,162	0,008	-0,014
-184,344	14,849	0,029	-0,017
-183,329	-28,668	0,050	-0,021
-182,315	339,211	-0,044	-0,062
-181,300	-39,352	-0,019	-0,007
-180,285	-51,285	-0,052	-0,018
-179,271	-200,000	0,023	0,076
-178,256	403,249	-0,038	0,058
-177,242	-76,717	0,049	0,012
-176,227	-111,778	0,185	0,027
-175,212	50,096	-0,138	-0,094
-174,198	-103,302	-0,097	-0,016
-173,183	-66,207	-0,104	-0,030
-172,169	65,332	-0,058	0,043
-171,154	102,253	0,050	0,042
-170,139	77,367	0,053	0,041
-169,125	766,745	-0,062	-0,124
-168,110	-200,000	0,032	0,140
-167,096	-34,892	-0,229	-0,090
-166,081	-200,000	0,005	0,084
-165,066	-120,448	-0,111	-0,014
-164,052	-124,013	-0,015	-0,002
-163,037	-84,819	0,148	0,034
-162,023	-104,221	-0,048	-0,008
-161,008	-200,000	-0,001	0,050
-159,993	800,000	-0,025	0,058
-158,979	35,136	-0,110	-0,070
-157,964	57,706	-0,056	0,040
-156,950	13,125	0,122	-0,068
-155,935	-53,429	0,134	-0,044
-154,920	101,367	0,063	-0,053
-153,906	800,000	-0,060	0,146
-152,891	441,359	0,042	0,067
-151,877	-148,623	0,120	0,007
-150,862	800,000	0,054	-0,114
-149,847	389,844	-0,162	-0,244
-148,833	-95,099	-0,072	0,014
-147,818	67,171	0,042	-0,031
-146,804	127,504	0,110	-0,101
-145,789	79,061	-0,042	0,033
-144,775	800,000	-0,051	-0,112
-143,760	-159,066	-0,214	-0,009
-142,745	-200,000	0,042	0,146
-141,731	179,056	-0,036	-0,038
-140,716	470,114	-0,060	0,098
-139,702	155,156	0,072	0,071
-138,687	115,516	-0,042	0,038
-137,672	-91,920	-0,020	0,004
-136,658	-150,897	0,055	-0,003
-135,643	62,216	-0,105	0,076
-134,629	-111,814	-0,107	-0,015
-133,614	3,760	0,046	-0,024
-132,599	-59,671	0,158	-0,049
-131,585	601,662	0,031	-0,056
-130,570	-200,000	-0,013	-0,079
-129,556	114,992	0,073	-0,064
-128,541	488,804	0,077	0,127
-127,526	-92,000	0,039	-0,008
-126,512	-14,233	-0,147	-0,069
-125,497	58,635	0,027	-0,019
-124,483	-200,000	0,042	-0,189
-123,468	37,098	0,034	0,022
-122,453	76,951	-0,037	-0,028
-121,439	-175,313	0,065	-0,001
-120,424	-200,000	-0,020	0,063
-119,410	-200,000	-0,005	0,116
-118,395	800,000	-0,018	-0,050
-117,380	183,247	-0,109	0,116
-116,366	231,839	0,023	-0,028
-115,351	9,010	-0,097	-0,053
-114,337	-108,240	0,071	0,011
-113,322	800,000	0,062	0,133
-112,307	-200,000	-0,005	0,088
-111,293	-200,000	0,006	-0,089
-110,278	289,407	0,074	0,098
-109,264	-65,123	-0,082	-0,024
-108,249	332,565	-0,008	0,011
-107,234	178,700	0,080	-0,085
-106,220	800,000	-0,040	-0,100
-105,205	-200,000	-0,020	0,152
-104,191	62,523	0,017	-0,012
-103,176	4,536	0,018	-0,010
-102,162	-21,305	0,032	0,014
-101,147	-60,757	-0,098	-0,030
-100,132	29,925	-0,120	0,073
-99,118	-109,052	-0,083	-0,013
-98,103	-10,049	-0,048	-0,023
-97,089	800,000	-0,043	0,136
-96,074	-200,000	0,013	0,099
-95,059	-200,000	-0,035	0,116
-94,045	-200,000	0,025	0,105
-93,030	-110,303	-0,084	-0,012
-92,016	-190,380	0,090	-0,001
-91,001	-200,000	0,012	-0,050
-89,986	59,124	0,079	0,056
-88,972	-1,869	0,067	0,034
-87,957	-200,000	-0,019	0,120
-86,943	-73,317	-0,171	-0,045
-85,928	-172,113	-0,140	0,003
-84,913	-200,000	-0,021	-0,100
-83,899	-8,822	0,016	0,008
-82,884	-200,000	0,009	0,137
-81,870	-200,000	-0,004	0,111
-80,855	734,139	-0,026	-0,051
-79,840	31,070	-0,058	0,036
-78,826	654,961	-0,053	0,098
-77,811	-125,277	-0,066	0,007
-76,797	800,000	0,049	-0,103
-75,782	313,649	0,013	-0,018
-74,767	800,000	0,023	0,058
-73,753	290,251	0,046	-0,060
-72,738	-43,939	-0,054	-0,020
-71,724	154,250	0,023	0,023
-70,709	-82,969	-0,113	0,026
-69,694	62,586	-0,113	-0,082
-68,680	18,463	-0,026	0,015
-67,665	-126,248	-0,105	-0,011
-66,651	-95,265	0,116	-0,022
-65,636	372,988	0,014	-0,021
-64,622	606,109	0,097	0,175
-63,607	227,756	-0,027	-0,032
-62,592	-200,000	0,045	0,148
-61,578	-68,395	0,112	-0,031
-60,563	267,100	0,036	0,046
-59,549	-200,000	-0,045	0,170
-58,534	-43,963	-1,687	-0,609
-57,519	573,848	-0,640	-1,131
-56,505	-200,000	-1,120	-4,734
-55,490	-96,629	0,672	-0,127
-54,476	800,000	5,190	12,253
-53,461	-200,000	15,500	273,928
-52,446	800,000	701,247	2233,479
-51,432	559,694	1618,362	2832,291
-50,417	120,437	1624,199	1456,032
-49,403	80,235	1283,584	996,038
-48,388	36,771	1026,973	653,668
-47,373	21,769	988,721	579,791
-46,359	20,730	977,574	569,813
-45,344	19,111	973,348	562,012
-44,330	19,204	972,126	561,590
-43,315	18,966	970,451	559,821
-42,300	18,920	969,449	559,068
-41,286	18,874	968,601	558,409
-40,271	18,953	967,381	557,940
-39,257	18,995	966,588	557,596
-38,242	18,958	965,839	557,024
-37,227	18,950	964,971	556,474
-36,213	18,920	964,146	555,879
-35,198	18,902	963,240	555,276
-34,184	18,963	962,480	555,015
-33,169	18,854	961,828	554,262
-32,154	18,988	960,779	554,070
-31,140	18,939	959,740	553,289
-30,125	18,989	959,015	553,012
-29,111	18,937	958,326	552,426
-28,096	18,950	957,688	552,076
-27,082	18,872	957,160	551,498
-26,067	18,974	956,213	551,259
-25,052	18,875	955,562	550,543
-24,038	18,883	954,806	550,112
-23,023	18,962	954,158	549,970
-22,009	18,926	953,498	549,452
-20,994	18,896	952,839	548,954
-19,979	18,938	952,087	548,634
-18,965	18,898	951,672	548,245
-17,950	18,884	950,888	547,727
-16,936	18,864	950,278	547,291
-15,921	18,859	949,647	546,889
-14,906	18,794	948,873	546,213
-13,892	18,727	948,426	545,719
-12,877	18,745	947,595	545,279
-11,863	18,728	947,073	544,902
-10,848	18,770	946,583	544,731
-9,833	18,854	946,097	544,699
-8,819	18,807	945,550	544,212
-7,804	18,802	944,736	543,707
-6,790	18,754	944,191	543,217
-5,775	18,862	943,639	543,225
-4,760	18,823	942,883	542,643
-3,746	18,840	942,378	542,383
-2,731	18,680	941,495	541,346
-1,717	18,648	940,840	540,849
-0,702	18,638	940,135	540,389
0,313	18,435	939,691	540,307
1,327	21,369	937,946	548,531
2,342	30,333	795,480	489,052
3,356	27,535	448,935	271,784
4,371	-1,667	294,527	149,133
5,386	-5,703	275,824	135,828
6,400	-6,917	270,184	131,911
7,415	-7,372	267,803	130,317
8,429	-7,198	266,462	129,814
9,444	-7,201	265,649	129,403
10,459	-7,392	265,057	128,929
11,473	-7,540	264,549	128,535
12,488	-7,648	264,048	128,183
13,502	-7,679	263,415	127,836
14,517	-7,806	263,016	127,517
15,531	-7,810	262,584	127,292
16,546	-7,852	262,207	127,060
17,561	-7,645	261,718	126,998
18,575	-7,484	261,403	126,978
19,590	-7,774	261,203	126,610
20,604	-7,736	260,980	126,524
21,619	-7,692	260,550	126,343
22,634	-7,641	260,004	126,114
23,648	-7,930	259,923	125,805
24,663	-7,901	259,722	125,722
25,677	-7,989	259,490	125,520
26,692	-7,754	259,051	125,506
27,707	-7,848	258,867	125,322
28,721	-7,801	258,549	125,199
29,736	-7,792	258,157	125,005
30,750	-7,851	258,080	124,904
31,765	-7,898	257,960	124,794
32,780	-7,955	257,672	124,593
33,794	-7,832	257,241	124,482
34,809	-7,828	257,221	124,465
35,823	-7,906	256,874	124,217
36,838	-8,052	256,733	124,009
37,853	-7,962	256,472	123,952
38,867	-8,113	256,329	123,738
39,882	-7,974	256,040	123,710
40,896	-7,914	255,763	123,617
41,911	-8,004	255,509	123,405
42,926	-7,983	255,267	123,296
43,940	-8,074	255,181	123,164
44,955	-8,048	254,803	122,993
45,969	-8,099	254,477	122,780
46,984	-8,430	254,368	122,428
47,999	-8,627	254,083	122,108
49,013	-8,633	253,821	121,966
50,028	-8,618	253,519	121,823
51,042	-8,792	253,207	121,511
52,057	-8,818	253,108	121,430
53,071	-8,650	252,774	121,405
54,086	-8,677	252,676	121,324
55,101	-8,483	252,579	121,434
56,115	-8,416	252,516	121,451
57,130	-7,926	252,552	121,881
58,144	-7,566	252,308	122,063
59,159	-7,566	251,990	121,899
60,174	-7,448	251,647	121,823
61,188	-7,768	251,631	121,529
62,203	-7,643	251,341	121,486
63,217	-7,762	251,027	121,222
64,232	-7,751	250,954	121,184
65,247	-7,669	250,685	121,114
66,261	-7,827	250,430	120,844
67,276	-8,007	250,212	120,575
68,290	-8,098	249,833	120,303
69,305	-8,363	249,755	120,029
70,320	-8,286	249,650	120,033
71,334	-8,152	249,600	120,113
72,349	-7,749	249,452	120,375
73,363	-7,552	249,128	120,376
74,378	-7,624	248,916	120,202
75,393	-7,859	248,700	119,886
76,407	-7,823	248,398	119,761
77,422	-7,737	248,349	119,800
78,436	-7,864	248,140	119,580
79,451	-7,850	247,782	119,409
80,466	-7,815	247,538	119,311
81,480	-8,123	247,321	118,935
82,495	-7,992	247,110	118,933
83,509	-7,883	246,906	118,916
84,524	-8,169	246,784	118,606
85,539	-8,169	246,489	118,454
86,553	-8,053	246,253	118,427
87,568	-8,165	246,280	118,336
88,582	-8,090	246,009	118,258
89,597	-8,198	245,796	118,054
90,611	-7,985	245,730	118,190
91,626	-7,809	245,702	118,314
92,641	-7,943	245,253	117,975
93,655	-7,828	245,078	117,977
94,670	-8,174	244,957	117,619
95,684	-8,046	244,788	117,634
96,699	-7,787	244,585	117,742
97,714	-8,068	244,571	117,491
98,728	-8,108	244,189	117,264
99,743	-8,203	244,063	117,113
100,757	-8,370	243,759	116,818
101,772	-8,213	243,521	116,824
102,787	-8,061	243,417	116,890
103,801	-8,105	243,291	116,783
104,816	-7,894	243,191	116,899
105,830	-7,709	242,974	116,938
106,845	-7,624	242,889	116,957
107,860	-7,668	242,753	116,844
108,874	-7,931	242,409	116,451
109,889	-8,047	242,261	116,273
110,903	-8,105	242,014	116,097
111,918	-8,062	241,955	116,094
112,933	-7,909	241,604	116,041
113,947	-8,056	241,461	115,841
114,962	-7,898	241,372	115,918
115,976	-8,013	241,205	115,732
116,991	-7,830	241,110	115,827
118,006	-7,968	240,890	115,598
119,020	-7,982	240,819	115,542
120,035	-7,806	240,468	115,507
121,049	-7,768	240,506	115,546
122,064	-7,750	240,243	115,424
123,079	-8,043	240,105	115,109
124,093	-8,068	239,921	114,990
125,108	-8,172	239,637	114,758
126,122	-8,248	239,404	114,575
127,137	-8,313	239,149	114,390
128,151	-8,455	238,989	114,188
129,166	-8,105	238,898	114,418
130,181	-8,069	238,497	114,245
131,195	-8,081	238,410	114,183
132,210	-8,168	238,348	114,073
133,224	-7,840	238,269	114,291
134,239	-7,766	238,132	114,275
135,254	-8,004	238,013	114,015
136,268	-7,850	237,727	113,992
137,283	-8,120	237,346	113,582
138,297	-8,305	237,208	113,356
139,312	-8,320	236,924	113,199
140,327	-8,102	236,867	113,337
141,341	-7,600	237,038	113,813
142,356	-7,556	236,906	113,774
143,370	-7,544	236,578	113,616
144,385	-7,478	236,545	113,644
145,400	-7,358	236,344	113,633
146,414	-7,544	236,159	113,385
147,429	-7,612	235,991	113,239
148,443	-7,563	235,793	113,173
149,458	-7,695	235,728	113,027
150,473	-7,505	235,374	112,999
151,487	-7,640	235,353	112,871
152,502	-7,647	235,259	112,810
153,516	-7,402	234,968	112,856
154,531	-7,713	234,854	112,543
155,546	-7,667	234,641	112,468
156,560	-7,581	234,535	112,475
157,575	-7,714	234,175	112,187
158,589	-7,645	234,037	112,166
159,604	-7,434	233,962	112,287
160,619	-7,521	233,902	112,179
161,633	-7,127	233,522	112,300
162,648	-7,266	233,371	112,107
163,662	-7,594	233,336	111,820
164,677	-7,824	233,222	111,573
165,692	-7,671	233,081	111,617
166,706	-7,515	232,959	111,672
167,721	-7,273	232,840	111,796
168,735	-7,406	232,671	111,600
169,750	-7,490	232,472	111,429
170,764	-7,502	232,362	111,357
171,779	-7,719	232,228	111,111
172,794	-7,386	232,032	111,270
173,808	-7,591	231,746	110,961
174,823	-8,105	231,522	110,441
175,837	-8,119	231,321	110,325
176,852	-7,589	231,193	110,668
177,867	-7,547	231,286	110,736
178,881	-7,315	231,093	110,815
179,896	-7,272	230,935	110,763
180,910	-7,459	230,763	110,525
181,925	-7,418	230,575	110,457
182,940	-7,401	230,427	110,390
183,954	-7,266	230,385	110,465
184,969	-7,511	230,191	110,171
185,983	-7,319	230,055	110,246
186,998	-7,275	229,765	110,131
188,013	-7,208	229,790	110,185
189,027	-7,195	229,545	110,069
190,042	-7,153	229,376	110,009
191,056	-7,170	229,116	109,862
192,071	-7,264	229,068	109,757
193,086	-7,336	228,873	109,598
194,100	-7,157	228,810	109,696
195,115	-7,327	228,718	109,510
196,129	-7,373	228,379	109,303
197,144	-3,159	229,752	113,221
198,159	1,924	231,253	117,911
199,173	3,636	231,590	119,406
200,188	3,729	231,601	119,473
201,202	3,773	231,310	119,346
202,217	3,771	231,319	119,339
203,232	4,129	231,146	119,517
204,246	4,259	231,019	119,541
205,261	4,250	230,899	119,462
206,275	4,300	230,838	119,458
207,290	4,564	230,674	119,567
208,304	4,439	230,510	119,374
209,319	4,453	230,353	119,293
210,334	4,098	230,110	118,883
211,348	4,144	229,931	118,816
212,363	3,721	229,699	118,359
213,377	3,553	229,455	118,093
214,392	3,409	229,318	117,902
215,407	3,794	229,140	118,096
216,421	3,671	229,168	118,005
217,436	3,629	228,737	117,740
218,450	3,384	228,577	117,459
219,465	3,239	228,593	117,346
220,480	3,578	228,283	117,435
221,494	3,274	228,156	117,128
222,509	3,579	228,237	117,392
223,523	3,424	228,052	117,168
224,538	3,521	227,716	117,059
225,553	3,309	227,814	116,937
226,567	3,683	227,517	117,059
227,582	3,764	227,510	117,107
228,596	4,015	227,369	117,215
229,611	3,633	227,168	116,810
230,626	3,653	226,771	116,611
231,640	3,440	226,728	116,416
232,655	3,739	226,786	116,663
233,669	4,319	226,614	117,005
234,684	4,283	226,435	116,875
235,699	3,947	226,244	116,511
236,713	3,464	226,094	116,057
237,728	3,533	225,868	115,983
238,742	3,544	225,639	115,864
239,757	3,606	225,436	115,795
240,772	3,415	225,534	115,692
241,786	3,410	225,331	115,574
242,801	3,677	225,125	115,658
243,815	3,844	225,250	115,838
244,830	3,741	225,159	115,704
245,844	3,422	224,846	115,293
246,859	3,687	224,720	115,416
247,874	3,700	224,533	115,320
248,888	3,784	224,451	115,331
249,903	3,637	224,214	115,089
250,917	3,628	223,990	114,957
251,932	3,532	223,801	114,778
252,947	3,468	223,808	114,723
253,961	3,511	223,602	114,639
254,976	3,479	223,432	114,519
255,990	3,735	223,401	114,683
257,005	3,729	223,131	114,530
258,020	3,981	222,928	114,603
259,034	3,939	222,913	114,554
260,049	3,971	222,827	114,524
261,063	3,929	222,492	114,310
262,078	3,885	222,518	114,281
263,093	4,018	222,483	114,351
264,107	3,789	222,295	114,074
265,122	3,900	222,172	114,083
266,136	3,983	222,048	114,071
267,151	4,035	221,855	114,000
268,166	3,725	221,598	113,629
269,180	3,363	221,343	113,220
270,195	3,472	221,259	113,248
271,209	3,307	221,120	113,045
272,224	3,707	220,994	113,265
273,239	3,534	220,842	113,049
274,253	3,518	220,632	112,920
275,268	3,522	220,406	112,797
276,282	3,242	220,374	112,565
277,297	3,420	220,108	112,550
278,312	3,320	220,052	112,438
279,326	3,509	220,070	112,576
280,341	3,421	219,766	112,345
281,355	3,908	219,688	112,653
282,370	3,510	219,537	112,274
283,384	3,280	219,162	111,904
284,399	3,391	219,206	111,998
285,414	3,532	218,988	111,979
286,428	3,661	219,054	112,097
287,443	3,687	218,849	112,001
288,457	3,889	218,658	112,040
289,472	3,425	218,643	111,685
290,487	3,084	218,335	111,269
291,501	3,060	218,212	111,179
292,516	3,206	218,042	111,189
293,530	3,257	217,973	111,181
294,545	2,965	217,833	110,887
295,560	3,619	217,628	111,247
296,574	3,343	217,710	111,079
297,589	3,640	217,454	111,154
298,603	3,709	217,380	111,156
299,618	3,711	217,345	111,130
300,633	3,650	217,100	110,950
301,647	3,714	217,023	110,947
302,662	3,766	216,839	110,881
303,676	4,025	216,736	111,005
304,691	3,823	216,547	110,753
305,706	3,826	216,464	110,702
306,720	3,849	216,269	110,610
307,735	3,550	216,094	110,296
308,749	3,408	215,862	110,065
309,764	3,735	215,758	110,237
310,779	3,822	215,809	110,315
311,793	3,734	215,610	110,141
312,808	3,980	215,346	110,173
313,822	3,830	215,299	110,031
314,837	3,600	215,207	109,810
315,852	3,659	214,893	109,682
316,866	3,382	214,954	109,505
317,881	3,733	214,698	109,616
318,895	3,983	214,570	109,719
319,910	3,652	214,426	109,399
320,925	3,286	214,254	109,041
321,939	3,160	213,932	108,778
322,954	3,106	213,985	108,757
323,968	3,513	213,821	108,953
324,983	3,605	213,957	109,078
325,997	3,922	213,806	109,217
327,012	3,957	213,527	109,089
328,027	3,625	213,411	108,785
329,041	4,047	213,340	109,038
330,056	4,377	213,175	109,177
331,070	3,696	212,963	108,578
332,085	3,541	212,713	108,331
333,100	3,617	212,634	108,335
334,114	3,767	212,559	108,393
335,129	3,666	212,423	108,242
336,143	3,589	212,122	108,025
337,158	3,552	212,054	107,955
338,173	3,373	212,035	107,810
339,187	3,481	211,821	107,767
340,202	3,302	211,636	107,538
341,216	3,167	211,494	107,361
342,231	3,382	211,341	107,425
343,246	3,207	211,384	107,315
344,260	3,140	211,213	107,171
345,275	3,183	211,188	107,179
346,289	3,358	211,044	107,219
347,304	3,787	210,814	107,392
348,319	3,675	210,625	107,208
349,333	3,560	210,534	107,072
350,348	3,666	210,397	107,067
351,362	3,749	210,334	107,083
352,377	3,751	210,178	106,995
353,392	3,844	209,962	106,941
354,406	3,849	209,874	106,890
355,421	196,188	1341,750	1430,053
356,435	156,691	1479,693	1430,104
