DTS Sentinel unit serial number:	SN410029Multiplexer serial number:	ORYXHardware model number:	OX2-SRSoftware version number:	ORYX F/W v4,00 Oryx Data Collector v3.7.2.0data status	okinstallation	B6 Nyhavnadifferential loss correction	single-endedforward channel	channel 2reverse channel	N/Adate	2023/12/10time	11:45:08forward acquisition time	300,00reverse acquisition time	0,00gamma	499,1914k internal	0,3123k external	0,3123temperature offset calibration	1,0000default loss term (dB/km)	0,3820temperature slope calibration	1,0000multiplexer offset coefficient	1,0000multiplexer slope coefficient	1,0000fibre end	0,00T internal ref (°C)	22,69T ext. ref 1 (°C)	6,61T ext. ref 2 (°C)	6,59length (m)	temperature (°C)	Stokes	anti-Stokes-744,400	800,000	0,041	-0,092
-743,385	61,748	-0,133	0,099
-742,371	-200,000	0,020	0,100
-741,356	30,041	-0,066	0,042
-740,342	70,668	0,204	-0,157
-739,327	-17,286	-0,247	0,115
-738,312	-25,709	0,045	-0,020
-737,298	0,192	-0,198	0,105
-736,283	325,514	0,080	-0,115
-735,269	82,339	-0,165	0,134
-734,254	334,736	-0,062	-0,089
-733,239	-142,999	-0,392	-0,028
-732,225	800,000	0,022	-0,059
-731,210	206,823	-0,085	-0,099
-730,196	92,669	0,071	-0,060
-729,181	-74,179	-0,102	-0,027
-728,167	21,718	0,023	-0,014
-727,152	-200,000	0,009	0,042
-726,137	-118,791	-0,125	0,016
-725,123	31,441	0,019	0,012
-724,108	-200,000	-0,000	0,045
-723,094	800,000	-0,065	-0,134
-722,079	-200,000	0,002	-0,193
-721,064	-200,000	-0,014	0,141
-720,050	202,653	0,082	0,095
-719,035	6,814	0,075	0,041
-718,021	800,000	-0,023	-0,073
-717,006	-66,868	-0,282	-0,082
-715,991	-200,000	-0,035	-0,116
-714,977	-70,708	-0,092	-0,026
-713,962	-200,000	-0,000	-0,071
-712,948	-127,199	-0,081	-0,009
-711,933	-13,698	-0,090	-0,043
-710,918	103,021	0,013	-0,011
-709,904	-200,000	0,050	-0,226
-708,889	-116,321	-0,055	-0,007
-707,875	-121,188	-0,178	-0,022
-706,860	7,984	-0,133	-0,074
-705,845	638,638	0,022	-0,041
-704,831	-64,039	-0,024	-0,007
-703,816	236,291	-0,038	-0,046
-702,802	52,311	0,011	-0,008
-701,787	-85,144	-0,013	0,003
-700,772	800,000	0,061	-0,167
-699,758	75,010	0,099	-0,078
-698,743	800,000	0,027	-0,057
-697,729	-158,422	0,017	-0,001
-696,714	-163,293	-0,018	-0,001
-695,699	-200,000	-0,014	-0,057
-694,685	388,675	-0,084	-0,130
-693,670	-57,886	0,157	-0,051
-692,656	800,000	-0,056	-0,129
-691,641	528,114	0,010	-0,017
-690,627	281,662	-0,025	0,033
-689,612	-0,535	-0,046	-0,024
-688,597	800,000	-0,014	0,040
-687,583	789,552	0,019	-0,038
-686,568	243,344	-0,023	-0,029
-685,554	-200,000	0,001	-0,133
-684,539	-200,000	-0,002	-0,126
-683,524	-200,000	-0,007	0,026
-682,510	-200,000	-0,018	-0,156
-681,495	800,000	0,015	-0,039
-680,481	800,000	-0,037	-0,106
-679,466	800,000	-0,052	-0,116
-678,451	-121,252	-0,098	-0,012
-677,437	693,276	0,023	0,045
-676,422	-13,299	0,079	-0,038
-675,408	800,000	0,092	-0,209
-674,393	203,653	-0,057	-0,066
-673,378	800,000	-0,054	-0,116
-672,364	204,839	-0,090	0,104
-671,349	451,466	-0,026	0,043
-670,335	103,672	0,061	0,053
-669,320	-200,000	-0,008	-0,075
-668,305	-200,000	0,007	-0,048
-667,291	800,000	-0,054	-0,152
-666,276	-200,000	-0,018	0,103
-665,262	-53,593	0,087	-0,029
-664,247	526,414	0,037	0,065
-663,232	89,975	0,129	-0,107
-662,218	-79,261	0,053	-0,013
-661,203	323,824	0,077	0,110
-660,189	223,410	0,048	0,058
-659,174	-200,000	0,000	-0,102
-658,159	-200,000	-0,014	-0,128
-657,145	43,801	-0,072	-0,049
-656,130	159,430	0,056	-0,058
-655,116	19,002	0,079	-0,047
-654,101	-55,952	0,100	0,033
-653,086	149,912	-0,016	0,016
-652,072	-22,918	-0,024	-0,011
-651,057	800,000	-0,027	0,086
-650,043	-54,157	-0,044	-0,015
-649,028	-31,367	-0,024	-0,010
-648,014	-176,241	-0,057	-0,001
-646,999	46,292	0,126	-0,087
-645,984	171,756	-0,071	-0,076
-644,970	591,885	0,013	-0,024
-643,955	-129,636	-0,043	-0,004
-642,941	-77,963	-0,129	-0,033
-641,926	-138,701	0,080	-0,006
-640,911	539,798	0,052	-0,092
-639,897	800,000	-0,022	-0,061
-638,882	800,000	0,035	-0,089
-637,868	-123,137	0,093	0,011
-636,853	-5,929	-0,066	0,034
-635,838	800,000	0,027	0,077
-634,824	-56,087	0,072	0,024
-633,809	283,625	-0,026	0,035
-632,795	-200,000	0,019	0,101
-631,780	-200,000	-0,031	0,139
-630,765	-195,205	-0,110	-0,001
-629,751	656,105	0,089	-0,170
-628,736	-139,244	-0,134	0,011
-627,722	-95,610	-0,058	-0,011
-626,707	800,000	-0,016	-0,036
-625,692	232,499	0,075	0,091
-624,678	800,000	0,005	0,017
-623,663	-200,000	0,003	-0,095
-622,649	643,720	-0,010	-0,019
-621,634	207,003	0,023	-0,027
-620,619	25,946	-0,107	-0,066
-619,605	-138,502	0,114	-0,009
-618,590	800,000	-0,025	-0,068
-617,576	589,250	-0,040	0,074
-616,561	128,702	0,026	-0,025
-615,546	-200,000	-0,012	0,098
-614,532	-200,000	0,009	-0,051
-613,517	-122,762	-0,125	-0,015
-612,503	-200,000	0,001	0,086
-611,488	800,000	0,054	0,164
-610,474	37,941	-0,055	-0,036
-609,459	-200,000	0,002	-0,129
-608,444	800,000	-0,060	-0,126
-607,430	800,000	-0,026	0,054
-606,415	-37,223	-0,137	-0,054
-605,401	6,679	-0,092	-0,050
-604,386	-122,137	-0,122	0,015
-603,371	-54,432	0,055	0,018
-602,357	-135,187	-0,073	0,006
-601,342	-200,000	-0,020	-0,084
-600,328	-200,000	-0,034	-0,134
-599,313	-26,734	-0,057	-0,025
-598,298	162,339	0,067	-0,069
-597,284	448,345	0,030	-0,050
-596,269	206,083	0,081	-0,093
-595,255	-200,000	0,001	0,020
-594,240	-104,474	-0,076	-0,013
-593,225	278,768	0,090	-0,119
-592,211	211,719	0,036	0,042
-591,196	-115,063	-0,147	-0,020
-590,182	800,000	0,025	-0,051
-589,167	16,070	0,041	0,024
-588,152	-55,837	-0,098	0,032
-587,138	-200,000	-0,003	0,161
-586,123	-90,916	-0,065	0,014
-585,109	-200,000	-0,023	-0,091
-584,094	-4,509	-0,035	0,018
-583,079	800,000	-0,017	0,039
-582,065	-49,978	-0,135	-0,047
-581,050	35,757	0,118	-0,077
-580,036	277,743	0,084	-0,111
-579,021	-78,085	-0,034	-0,009
-578,006	-200,000	-0,002	0,062
-576,992	-89,137	-0,057	0,012
-575,977	77,490	0,138	-0,109
-574,963	63,245	-0,038	0,029
-573,948	-171,536	0,119	0,003
-572,934	-200,000	-0,001	-0,035
-571,919	-200,000	-0,031	-0,120
-570,904	209,156	0,051	-0,059
-569,890	604,455	-0,039	-0,071
-568,875	82,399	-0,162	-0,130
-567,861	800,000	0,017	0,041
-566,846	-200,000	-0,010	0,057
-565,831	120,593	0,120	0,111
-564,817	-22,848	-0,154	0,068
-563,802	-110,995	-0,108	-0,016
-562,788	-3,056	-0,076	0,039
-561,773	346,241	-0,047	0,069
-560,758	-41,167	0,066	0,025
-559,744	-200,000	0,001	0,109
-558,729	-131,949	-0,073	0,007
-557,715	-50,012	-0,070	-0,024
-556,700	62,736	-0,010	0,008
-555,685	367,970	0,047	-0,071
-554,671	800,000	-0,031	-0,071
-553,656	800,000	-0,010	-0,031
-552,642	335,282	-0,030	-0,043
-551,627	346,770	-0,029	0,042
-550,612	337,550	0,020	0,028
-549,598	800,000	0,031	0,091
-548,583	-86,677	0,074	-0,017
-547,569	186,355	0,031	-0,035
-546,554	50,231	0,042	-0,029
-545,539	72,860	0,134	0,103
-544,525	-84,136	0,091	-0,021
-543,510	-200,000	-0,005	-0,059
-542,496	-68,079	-0,120	-0,034
-541,481	-59,560	0,053	0,017
-540,466	417,399	0,081	0,129
-539,452	124,228	-0,035	-0,033
-538,437	155,529	0,051	-0,052
-537,423	-200,000	0,015	0,121
-536,408	115,087	0,075	-0,068
-535,393	-200,000	0,008	-0,061
-534,379	-154,039	-0,105	0,005
-533,364	-85,306	0,061	-0,014
-532,350	211,916	0,073	0,085
-531,335	-23,635	0,021	-0,009
-530,321	16,419	0,036	0,021
-529,306	-111,470	0,119	0,018
-528,291	700,658	0,043	-0,084
-527,277	9,335	-0,041	-0,023
-526,262	-127,783	0,147	-0,015
-525,248	41,835	-0,057	0,038
-524,233	-164,205	0,071	-0,002
-523,218	-104,512	0,062	-0,011
-522,204	9,342	-0,108	-0,060
-521,189	-100,122	-0,064	-0,012
-520,175	-182,721	-0,206	-0,003
-519,160	-42,907	0,062	-0,023
-518,145	506,399	0,035	-0,060
-517,131	539,869	-0,025	0,044
-516,116	398,646	0,086	-0,134
-515,102	-152,027	-0,142	-0,008
-514,087	125,182	-0,043	0,040
-513,072	284,693	0,034	-0,046
-512,058	-95,581	0,139	0,027
-511,043	-200,000	0,022	0,119
-510,029	2,424	0,052	0,028
-509,014	-200,000	0,021	0,139
-507,999	-47,059	-0,111	-0,040
-506,985	638,231	-0,030	0,057
-505,970	13,159	-0,053	-0,030
-504,956	-90,984	-0,021	0,004
-503,941	-200,000	-0,007	-0,120
-502,926	340,400	0,009	0,013
-501,912	18,647	0,030	-0,018
-500,897	-158,292	-0,073	0,003
-499,883	-120,000	0,130	0,016
-498,868	370,184	0,075	0,112
-497,853	-200,000	-0,031	0,115
-496,839	59,070	0,058	0,042
-495,824	-200,000	0,001	0,070
-494,810	-200,000	0,020	0,102
-493,795	89,649	0,121	0,100
-492,781	779,018	-0,011	-0,022
-491,766	-36,880	-0,066	0,026
-490,751	-71,391	-0,019	-0,005
-489,737	2,388	0,042	-0,022
-488,722	592,987	-0,105	-0,193
-487,708	-200,000	0,007	0,038
-486,693	265,545	0,096	0,124
-485,678	-200,000	-0,015	0,052
-484,664	800,000	0,031	0,066
-483,649	-22,210	-0,060	-0,027
-482,635	-200,000	-0,019	-0,142
-481,620	335,192	-0,033	-0,047
-480,605	127,478	0,133	-0,124
-479,591	-46,284	-0,184	0,067
-478,576	241,774	-0,035	0,044
-477,562	-200,000	0,022	-0,135
-476,547	-157,227	0,136	-0,006
-475,532	66,402	-0,056	-0,042
-474,518	-89,539	-0,053	0,011
-473,503	800,000	-0,044	0,092
-472,489	334,116	-0,076	0,109
-471,474	109,638	0,090	-0,080
-470,459	800,000	-0,061	-0,179
-469,445	38,491	-0,091	0,060
-468,430	800,000	0,022	-0,054
-467,416	124,816	-0,050	0,047
-466,401	683,656	0,072	0,139
-465,386	69,208	-0,059	-0,045
-464,372	203,862	-0,047	0,054
-463,357	314,143	-0,066	-0,092
-462,343	-10,208	-0,045	0,022
-461,328	-200,000	0,030	0,162
-460,313	61,109	0,128	-0,093
-459,299	-124,392	0,126	-0,014
-458,284	-154,757	-0,030	-0,001
-457,270	-200,000	0,027	0,103
-456,255	-11,888	-0,131	-0,063
-455,241	-146,384	-0,119	-0,008
-454,226	800,000	0,018	-0,055
-453,211	-31,945	-0,022	0,009
-452,197	800,000	0,060	0,147
-451,182	9,938	-0,033	0,019
-450,168	435,379	0,045	-0,073
-449,153	220,682	0,056	-0,066
-448,138	381,443	-0,057	0,087
-447,124	-141,173	0,205	-0,015
-446,109	19,790	-0,158	-0,093
-445,095	-200,000	0,008	-0,156
-444,080	-49,242	0,153	0,053
-443,065	107,049	-0,042	0,037
-442,051	800,000	-0,037	0,080
-441,036	-115,491	-0,057	-0,008
-440,022	800,000	-0,015	-0,032
-439,007	-194,860	-0,079	0,000
-437,992	-200,000	-0,020	0,089
-436,978	456,759	0,032	0,053
-435,963	-103,779	0,104	0,018
-434,949	800,000	-0,009	0,018
-433,934	251,417	-0,091	-0,115
-432,919	-200,000	0,001	-0,173
-431,905	-87,439	0,206	-0,046
-430,890	-49,686	0,029	-0,010
-429,876	225,923	0,061	-0,073
-428,861	-200,000	0,006	0,098
-427,846	-45,483	0,098	-0,036
-426,832	-200,000	-0,011	-0,141
-425,817	286,639	0,075	-0,100
-424,803	27,994	0,059	0,036
-423,788	419,421	-0,076	-0,120
-422,773	-99,287	-0,037	-0,007
-421,759	95,614	0,019	0,016
-420,744	-104,259	-0,080	0,013
-419,730	-200,000	-0,007	-0,076
-418,715	-62,791	-0,072	-0,022
-417,701	-167,626	-0,141	-0,004
-416,686	-23,060	-0,086	-0,038
-415,671	-18,687	0,161	0,074
-414,657	330,349	-0,086	0,122
-413,642	242,632	-0,020	-0,025
-412,628	24,164	-0,092	-0,056
-411,613	800,000	-0,033	0,092
-410,598	184,925	-0,035	0,038
-409,584	800,000	-0,013	-0,035
-408,569	-200,000	-0,013	0,070
-407,555	202,827	-0,048	-0,054
-406,540	211,174	-0,116	0,135
-405,525	-200,000	-0,010	0,153
-404,511	800,000	-0,036	0,081
-403,496	-47,613	-0,056	-0,020
-402,482	-200,000	0,011	0,109
-401,467	299,196	-0,028	0,038
-400,452	-200,000	0,017	0,114
-399,438	-200,000	0,018	-0,126
-398,423	800,000	-0,017	0,036
-397,409	-200,000	0,029	0,096
-396,394	-70,551	0,127	-0,035
-395,379	-19,994	-0,083	0,037
-394,365	-200,000	0,003	-0,013
-393,350	-103,718	0,029	0,005
-392,336	205,162	-0,083	-0,095
-391,321	-200,000	-0,017	0,111
-390,306	462,014	0,088	0,145
-389,292	694,243	0,043	0,084
-388,277	-121,476	-0,071	-0,009
-387,263	112,986	0,049	0,043
-386,248	-200,000	0,016	0,122
-385,233	47,408	0,058	0,040
-384,219	308,946	0,143	0,197
-383,204	54,686	-0,025	0,018
-382,190	-200,000	0,012	0,050
-381,175	-48,700	0,087	0,031
-380,160	334,882	0,128	0,183
-379,146	132,696	0,063	0,060
-378,131	-101,289	0,084	-0,015
-377,117	679,288	-0,014	0,027
-376,102	-200,000	-0,002	-0,080
-375,088	86,477	-0,038	0,031
-374,073	-200,000	-0,009	-0,165
-373,058	-98,317	0,077	0,014
-372,044	800,000	0,027	0,080
-371,029	-200,000	0,002	-0,016
-370,015	-200,000	0,031	-0,115
-369,000	-151,012	0,112	-0,006
-367,985	258,430	-0,045	-0,057
-366,971	-63,878	0,069	-0,020
-365,956	-200,000	0,034	-0,000
-364,942	-38,877	0,129	0,050
-363,927	-117,083	0,050	0,007
-362,912	-12,988	-0,123	0,058
-361,898	-200,000	-0,002	0,088
-360,883	98,280	0,016	-0,013
-359,869	-91,692	-0,200	-0,041
-358,854	-98,033	0,122	-0,023
-357,839	-42,664	0,086	0,032
-356,825	-200,000	-0,010	0,061
-355,810	795,951	0,050	0,102
-354,796	800,000	-0,030	-0,083
-353,781	800,000	0,046	-0,117
-352,766	559,927	0,055	-0,098
-351,752	213,565	0,049	-0,057
-350,737	800,000	0,008	0,021
-349,723	800,000	-0,051	0,122
-348,708	130,817	-0,052	0,049
-347,693	800,000	0,023	0,057
-346,679	11,485	-0,054	0,030
-345,664	320,252	0,141	-0,197
-344,650	-4,421	-0,081	0,041
-343,635	88,096	0,054	0,044
-342,620	111,833	-0,058	0,051
-341,606	21,780	0,101	-0,060
-340,591	800,000	0,016	-0,039
-339,577	-143,471	-0,169	-0,012
-338,562	-22,326	0,054	0,024
-337,548	-182,401	0,057	0,001
-336,533	-200,000	0,030	-0,103
-335,518	-200,000	0,019	0,141
-334,504	-104,157	0,100	-0,017
-333,489	800,000	0,025	0,067
-332,475	548,223	0,081	-0,144
-331,460	-127,273	0,043	-0,005
-330,445	-200,000	0,015	0,134
-329,431	115,049	-0,037	0,033
-328,416	-81,107	0,144	-0,035
-327,402	398,516	0,045	0,069
-326,387	800,000	-0,057	0,168
-325,372	800,000	-0,020	-0,061
-324,358	-3,271	0,043	-0,022
-323,343	-74,371	0,019	-0,005
-322,329	450,500	0,059	-0,097
-321,314	327,927	0,008	-0,012
-320,299	156,199	0,025	0,025
-319,285	-200,000	-0,015	0,173
-318,270	442,480	-0,072	-0,116
-317,256	-166,184	-0,099	-0,003
-316,241	405,493	0,037	-0,057
-315,226	135,000	-0,014	-0,013
-314,212	414,580	0,071	0,111
-313,197	127,131	-0,028	0,026
-312,183	-200,000	0,005	-0,028
-311,168	271,787	-0,105	-0,136
-310,153	-200,000	0,005	-0,079
-309,139	-65,267	-0,105	0,031
-308,124	-77,862	0,057	-0,014
-307,110	800,000	-0,037	0,099
-306,095	-200,000	-0,029	0,177
-305,080	39,352	-0,047	-0,031
-304,066	212,997	-0,035	0,041
-303,051	32,082	0,136	0,086
-302,037	-200,000	-0,025	-0,109
-301,022	-145,615	0,025	-0,002
-300,008	800,000	0,026	0,068
-298,993	66,403	0,080	0,060
-297,978	33,598	-0,076	-0,049
-296,964	-200,000	0,023	0,092
-295,949	-50,054	0,005	0,002
-294,935	-200,000	0,005	0,087
-293,920	-39,232	-0,029	0,011
-292,905	17,674	0,069	0,040
-291,891	179,772	-0,057	0,061
-290,876	-115,493	0,061	0,008
-289,862	302,662	0,099	0,135
-288,847	100,005	-0,035	0,030
-287,832	25,379	-0,066	-0,040
-286,818	-200,000	-0,012	0,105
-285,803	-200,000	0,033	0,106
-284,789	235,394	0,040	-0,048
-283,774	800,000	0,007	0,018
-282,759	447,651	-0,033	-0,053
-281,745	-37,418	-0,057	-0,022
-280,730	121,322	0,018	-0,017
-279,716	-200,000	-0,020	-0,076
-278,701	257,404	0,087	-0,109
-277,686	422,518	0,051	0,080
-276,672	57,683	0,071	0,051
-275,657	-83,112	0,142	0,033
-274,643	-200,000	0,019	-0,069
-273,628	386,445	-0,036	0,055
-272,613	31,650	0,037	-0,024
-271,599	-200,000	0,004	-0,039
-270,584	-33,731	0,090	-0,036
-269,570	206,203	-0,048	-0,054
-268,555	-200,000	0,015	0,160
-267,540	64,846	-0,077	-0,057
-266,526	800,000	0,010	0,030
-265,511	-200,000	-0,013	0,071
-264,497	377,132	0,074	-0,111
-263,482	-28,288	-0,019	0,008
-262,467	-117,136	0,159	0,021
-261,453	-136,399	-0,178	-0,015
-260,438	32,803	-0,050	-0,032
-259,424	85,389	-0,041	0,033
-258,409	-200,000	0,000	-0,059
-257,395	-91,147	0,203	-0,042
-256,380	-200,000	0,007	-0,043
-255,365	-200,000	0,001	0,103
-254,351	-79,609	0,122	-0,030
-253,336	8,725	-0,136	0,075
-252,322	91,471	-0,085	-0,070
-251,307	175,996	-0,050	0,053
-250,292	-200,000	-0,008	0,082
-249,278	-25,128	0,125	0,054
-248,263	56,694	-0,100	-0,071
-247,249	181,766	0,129	0,139
-246,234	-103,032	0,069	-0,012
-245,219	780,511	0,045	-0,090
-244,205	800,000	-0,053	-0,136
-243,190	361,949	-0,048	-0,071
-242,176	800,000	0,021	-0,043
-241,161	-200,000	0,000	0,083
-240,146	800,000	-0,056	0,124
-239,132	-200,000	-0,003	-0,031
-238,117	187,117	0,052	-0,057
-237,103	-121,024	-0,228	-0,028
-236,088	-106,800	-0,139	-0,022
-235,073	-47,791	0,084	0,029
-234,059	800,000	-0,057	-0,142
-233,044	25,054	0,041	0,025
-232,030	800,000	-0,065	0,167
-231,015	264,309	0,034	-0,043
-230,000	291,403	0,089	-0,118
-228,986	-200,000	-0,011	0,102
-227,971	-200,000	-0,003	0,070
-226,957	-28,970	0,115	0,048
-225,942	-115,507	-0,069	0,009
-224,927	-200,000	0,002	-0,044
-223,913	-108,587	0,016	-0,002
-222,898	109,080	-0,137	-0,119
-221,884	-61,154	-0,097	0,030
-220,869	-105,922	0,042	-0,007
-219,855	-132,603	-0,051	0,005
-218,840	800,000	-0,025	0,054
-217,825	-162,084	0,093	-0,003
-216,811	800,000	-0,002	-0,005
-215,796	156,412	0,112	-0,113
-214,782	-61,654	-0,109	-0,033
-213,767	-162,199	0,069	-0,002
-212,752	172,497	0,014	0,015
-211,738	351,005	-0,071	-0,103
-210,723	247,965	0,088	0,109
-209,709	117,047	-0,091	-0,082
-208,694	-9,047	-0,063	-0,031
-207,679	-200,000	0,006	-0,026
-206,665	-200,000	-0,017	0,168
-205,650	120,625	0,128	-0,116
-204,636	800,000	0,047	-0,128
-203,621	402,450	0,047	0,072
-202,606	-137,266	-0,096	-0,008
-201,592	139,019	-0,073	0,070
-200,577	800,000	-0,043	0,114
-199,563	-200,000	-0,016	-0,101
-198,548	219,469	0,037	-0,044
-197,533	-200,000	0,023	0,088
-196,519	-9,564	0,067	-0,032
-195,504	800,000	-0,031	0,080
-194,490	250,470	0,104	-0,129
-193,475	20,649	0,032	-0,019
-192,460	-35,411	-0,077	0,030
-191,446	-81,525	0,034	-0,008
-190,431	111,658	0,026	-0,023
-189,417	580,059	-0,006	0,010
-188,402	20,763	-0,058	-0,034
-187,387	800,000	-0,029	-0,091
-186,373	-124,378	-0,115	-0,013
-185,358	654,107	0,022	0,042
-184,344	-169,714	0,098	0,003
-183,329	64,301	0,214	-0,157
-182,315	-200,000	0,029	0,122
-181,300	75,697	-0,051	-0,039
-180,285	-200,000	-0,002	-0,081
-179,271	-200,000	-0,024	-0,077
-178,256	-200,000	0,001	-0,133
-177,242	57,085	0,098	0,070
-176,227	-110,818	-0,172	-0,026
-175,212	-84,913	-0,133	0,030
-174,198	164,214	0,076	-0,078
-173,183	-161,784	-0,154	-0,006
-172,169	-171,468	-0,116	0,003
-171,154	-56,873	-0,066	-0,021
-170,139	336,250	0,003	-0,005
-169,125	-200,000	-0,001	0,155
-168,110	-200,000	-0,017	-0,072
-167,096	800,000	0,043	-0,109
-166,081	-200,000	-0,016	-0,099
-165,066	271,261	-0,026	-0,033
-164,052	-39,342	-0,061	0,023
-163,037	-42,112	-0,037	-0,014
-162,023	216,855	-0,034	-0,040
-161,008	-51,207	-0,035	-0,012
-159,993	358,256	0,032	0,047
-158,979	800,000	-0,037	-0,079
-157,964	-200,000	0,005	0,027
-156,950	93,112	0,012	-0,010
-155,935	-8,294	0,055	-0,027
-154,920	-200,000	-0,002	0,102
-153,906	-88,573	-0,182	0,039
-152,891	-200,000	0,013	-0,076
-151,877	-82,811	-0,022	0,005
-150,862	429,543	-0,060	-0,095
-149,847	-153,510	-0,071	0,004
-148,833	-200,000	0,015	0,067
-147,818	-175,493	0,136	0,003
-146,804	-200,000	-0,011	-0,046
-145,789	161,077	-0,059	-0,060
-144,775	94,738	-0,090	0,074
-143,760	-21,597	0,118	-0,052
-142,745	63,140	0,090	-0,066
-141,731	-151,165	0,142	0,008
-140,716	-99,970	0,187	-0,034
-139,702	800,000	-0,045	-0,127
-138,687	106,057	0,063	-0,054
-137,672	-68,702	-0,132	0,037
-136,658	-92,313	-0,108	-0,022
-135,643	800,000	0,033	-0,068
-134,629	-200,000	0,026	-0,109
-133,614	-114,690	0,111	-0,015
-132,599	-29,374	-0,032	0,013
-131,585	651,202	0,038	0,071
-130,570	-130,685	-0,174	0,017
-129,556	275,262	0,083	-0,107
-128,541	-116,657	-0,082	-0,011
-127,526	-200,000	0,037	-0,154
-126,512	760,062	0,042	-0,082
-125,497	-200,000	0,031	0,246
-124,483	359,560	0,083	-0,121
-123,468	800,000	-0,037	0,095
-122,453	14,776	0,091	0,052
-121,439	-113,310	0,087	-0,012
-120,424	271,386	0,089	0,114
-119,410	-39,790	-0,054	-0,020
-118,395	304,054	0,069	0,094
-117,380	316,374	0,043	0,059
-116,366	15,522	0,045	0,026
-115,351	239,583	-0,149	-0,181
-114,337	0,335	-0,131	-0,068
-113,322	800,000	0,044	0,093
-112,307	800,000	-0,039	0,079
-111,293	-94,865	0,056	-0,011
-110,278	-200,000	-0,024	0,083
-109,264	-200,000	0,006	0,035
-108,249	72,073	-0,055	-0,042
-107,234	-141,742	-0,044	-0,003
-106,220	168,663	-0,052	0,054
-105,205	800,000	0,029	0,093
-104,191	-200,000	0,046	0,198
-103,176	518,929	0,030	0,052
-102,162	331,508	0,067	0,094
-101,147	71,424	-0,129	0,097
-100,132	-130,216	-0,092	0,009
-99,118	-28,729	0,142	-0,059
-98,103	800,000	-0,043	0,114
-97,089	6,777	0,048	-0,026
-96,074	800,000	-0,034	-0,071
-95,059	176,293	0,093	-0,098
-94,045	-200,000	-0,000	-0,062
-93,030	-200,000	-0,011	0,125
-92,016	-200,000	-0,008	0,045
-91,001	28,039	0,058	-0,036
-89,986	-200,000	-0,005	0,020
-88,972	132,882	-0,052	0,049
-87,957	-200,000	-0,003	-0,056
-86,943	-27,060	0,018	0,008
-85,928	-40,099	-0,118	0,044
-84,913	435,184	-0,056	-0,088
-83,899	-93,050	0,031	-0,006
-82,884	531,306	-0,007	-0,012
-81,870	-200,000	-0,009	0,094
-80,855	625,340	0,059	-0,108
-79,840	-5,868	-0,096	0,048
-78,826	-29,397	-0,067	0,028
-77,811	-67,082	-0,206	-0,059
-76,797	800,000	0,008	0,017
-75,782	-200,000	0,010	-0,032
-74,767	58,413	-0,086	0,061
-73,753	-139,039	0,127	0,010
-72,738	-117,896	-0,158	0,020
-71,724	-19,557	-0,088	0,039
-70,709	85,896	-0,064	0,051
-69,694	-200,000	-0,008	-0,028
-68,680	800,000	-0,025	0,056
-67,665	-98,020	-0,050	0,009
-66,651	800,000	0,016	-0,051
-65,636	493,040	-0,031	0,052
-64,622	-200,000	-0,002	-0,009
-63,607	726,120	-0,049	0,096
-62,592	-125,984	0,019	-0,002
-61,578	102,202	0,104	0,088
-60,563	657,891	-0,016	0,029
-59,549	586,789	-0,035	0,063
-58,534	-179,389	-1,297	-0,020
-57,519	800,000	-0,752	-1,514
-56,505	-200,000	-0,873	-4,435
-55,490	-0,720	0,501	-0,257
-54,476	800,000	5,009	11,960
-53,461	-200,000	13,318	253,479
-52,446	-200,000	688,502	2273,422
-51,432	598,402	1623,003	2932,589
-50,417	121,120	1637,066	1478,635
-49,403	73,560	1291,202	980,264
-48,388	38,503	1025,770	662,285
-47,373	24,602	983,140	589,000
-46,359	23,840	972,868	580,322
-45,344	22,893	968,604	574,658
-44,330	22,878	967,139	573,718
-43,315	22,731	965,623	572,314
-42,300	22,716	964,695	571,692
-41,286	22,746	963,746	571,206
-40,271	22,696	962,879	570,506
-39,257	22,708	961,852	569,916
-38,242	22,627	961,017	569,134
-37,227	22,621	960,315	568,677
-36,213	22,651	959,367	568,191
-35,198	22,689	958,364	567,696
-34,184	22,729	957,888	567,520
-33,169	22,684	956,889	566,762
-32,154	22,703	955,973	566,259
-31,140	22,739	955,082	565,822
-30,125	22,775	954,221	565,406
-29,111	22,717	953,376	564,698
-28,096	22,734	952,759	564,363
-27,082	22,771	951,985	564,002
-26,067	22,644	951,439	563,247
-25,052	22,696	950,477	562,824
-24,038	22,785	949,771	562,667
-23,023	22,759	949,233	562,243
-22,009	22,798	948,514	561,920
-20,994	22,770	947,992	561,500
-19,979	22,721	947,332	560,929
-18,965	22,740	946,670	560,575
-17,950	22,747	946,085	560,231
-16,936	22,731	945,545	559,836
-15,921	22,722	944,743	559,311
-14,906	22,651	944,057	558,656
-13,892	22,663	943,355	558,256
-12,877	22,624	942,808	557,788
-11,863	22,545	942,189	557,149
-10,848	22,596	941,817	557,067
-9,833	22,675	941,236	556,953
-8,819	22,693	940,649	556,641
-7,804	22,609	939,939	555,930
-6,790	22,581	939,256	555,417
-5,775	22,630	938,663	555,198
-4,760	22,645	938,013	554,841
-3,746	22,598	937,496	554,363
-2,731	22,500	936,707	553,565
-1,717	22,431	936,050	552,938
-0,702	22,436	935,535	552,627
0,313	22,225	934,794	552,356
1,327	25,416	932,776	561,161
2,342	35,249	797,297	505,875
3,356	33,614	452,157	284,398
4,371	2,225	293,514	153,345
5,386	-2,339	274,348	139,007
6,400	-3,511	268,396	134,894
7,415	-4,293	266,029	132,974
8,429	-3,957	264,731	132,621
9,444	-3,992	263,846	132,134
10,459	-3,920	263,265	131,896
11,473	-4,107	262,772	131,468
12,488	-4,210	262,167	131,061
13,502	-4,034	261,639	130,944
14,517	-4,159	261,223	130,612
15,531	-4,226	260,742	130,299
16,546	-3,998	260,328	130,285
17,561	-4,179	260,010	129,952
18,575	-4,104	259,753	129,879
19,590	-4,124	259,223	129,585
20,604	-4,136	259,158	129,530
21,619	-4,267	258,818	129,232
22,634	-4,117	258,468	129,179
23,648	-4,359	258,244	128,840
24,663	-4,256	257,996	128,797
25,677	-4,335	257,762	128,598
26,692	-4,285	257,361	128,431
27,707	-4,278	257,425	128,458
28,721	-4,320	256,978	128,186
29,736	-4,261	256,583	128,030
30,750	-4,221	256,390	127,957
31,765	-4,402	256,199	127,691
32,780	-4,338	256,085	127,679
33,794	-4,340	255,659	127,453
34,809	-4,418	255,469	127,278
35,823	-4,319	255,127	127,183
36,838	-4,380	255,072	127,091
37,853	-4,381	254,722	126,905
38,867	-4,573	254,608	126,668
39,882	-4,278	254,296	126,761
40,896	-4,270	254,075	126,646
41,911	-4,501	254,011	126,401
42,926	-4,310	253,613	126,359
43,940	-4,314	253,398	126,237
44,955	-4,555	253,113	125,874
45,969	-4,779	252,981	125,602
46,984	-4,611	252,628	125,561
47,999	-4,795	252,431	125,292
49,013	-4,953	252,157	125,008
50,028	-5,032	251,857	124,779
51,042	-5,113	251,738	124,640
52,057	-4,994	251,457	124,592
53,071	-5,183	251,449	124,413
54,086	-4,982	251,144	124,425
55,101	-4,933	251,088	124,428
56,115	-4,610	250,861	124,583
57,130	-4,385	250,867	124,769
58,144	-4,068	250,689	124,943
59,159	-3,800	250,315	124,976
60,174	-4,115	250,123	124,598
61,188	-4,097	249,933	124,508
62,203	-4,213	249,737	124,299
63,217	-4,275	249,585	124,159
64,232	-4,109	249,315	124,156
65,247	-4,014	249,166	124,152
66,261	-4,143	248,933	123,915
67,276	-4,508	248,535	123,394
68,290	-4,609	248,443	123,252
69,305	-4,806	248,206	122,955
70,320	-4,702	248,069	122,965
71,334	-4,314	247,876	123,188
72,349	-4,064	247,793	123,349
73,363	-3,921	247,478	123,302
74,378	-4,061	247,340	123,104
75,393	-4,268	247,209	122,852
76,407	-4,319	246,975	122,682
77,422	-4,343	246,695	122,512
78,436	-4,316	246,556	122,454
79,451	-4,320	246,391	122,357
80,466	-4,247	246,153	122,290
81,480	-4,461	245,806	121,927
82,495	-4,464	245,669	121,845
83,509	-4,368	245,547	121,854
84,524	-4,644	245,284	121,481
85,539	-4,647	245,019	121,337
86,553	-4,438	244,832	121,408
87,568	-4,565	244,642	121,197
88,582	-4,474	244,463	121,173
89,597	-4,583	244,421	121,051
90,611	-4,510	244,251	121,017
91,626	-4,279	244,052	121,101
92,641	-4,163	243,821	121,072
93,655	-4,490	243,751	120,754
94,670	-4,325	243,452	120,732
95,684	-4,364	243,352	120,640
96,699	-4,433	243,131	120,461
97,714	-4,555	242,865	120,217
98,728	-4,536	242,760	120,170
99,743	-4,535	242,437	120,001
100,757	-4,727	242,202	119,715
101,772	-4,689	242,170	119,720
102,787	-4,667	242,005	119,646
103,801	-4,570	241,838	119,633
104,816	-4,217	241,696	119,844
105,830	-4,242	241,572	119,751
106,845	-4,221	241,373	119,659
107,860	-4,516	241,348	119,393
108,874	-4,432	241,067	119,312
109,889	-4,557	240,692	119,013
110,903	-4,423	240,513	119,024
111,918	-4,579	240,363	118,811
112,933	-4,500	240,293	118,831
113,947	-4,321	240,046	118,845
114,962	-4,180	239,982	118,918
115,976	-4,319	239,798	118,702
116,991	-4,255	239,567	118,630
118,006	-4,263	239,305	118,483
119,020	-4,473	239,310	118,303
120,035	-3,980	239,037	118,560
121,049	-4,260	238,993	118,300
122,064	-4,094	238,831	118,345
123,079	-4,176	238,640	118,173
124,093	-4,370	238,393	117,881
125,108	-4,260	238,099	117,815
126,122	-4,714	237,872	117,323
127,137	-4,875	237,754	117,124
128,151	-4,584	237,559	117,253
129,166	-4,539	237,549	117,274
130,181	-4,643	237,343	117,078
131,195	-4,664	237,054	116,908
132,210	-4,519	236,809	116,894
133,224	-4,154	236,696	117,123
134,239	-4,268	236,705	117,024
135,254	-4,222	236,373	116,887
136,268	-4,445	236,246	116,634
137,283	-4,787	236,192	116,321
138,297	-4,815	235,800	116,095
139,312	-4,594	235,583	116,156
140,327	-4,492	235,627	116,249
141,341	-4,119	235,682	116,566
142,356	-4,014	235,358	116,480
143,370	-3,913	235,245	116,494
144,385	-3,856	235,060	116,438
145,400	-4,013	234,981	116,263
146,414	-4,062	234,903	116,174
147,429	-3,835	234,473	116,133
148,443	-4,097	234,463	115,908
149,458	-4,039	234,225	115,826
150,473	-4,025	234,138	115,785
151,487	-4,073	233,846	115,592
152,502	-4,323	233,808	115,363
153,516	-3,894	233,582	115,583
154,531	-3,869	233,418	115,511
155,546	-3,942	233,245	115,357
156,560	-4,072	233,076	115,160
157,575	-4,207	232,841	114,927
158,589	-4,234	232,756	114,853
159,604	-3,875	232,446	114,974
160,619	-3,900	232,333	114,888
161,633	-3,758	232,189	114,919
162,648	-4,211	232,192	114,552
163,662	-4,010	231,812	114,513
164,677	-4,135	231,736	114,367
165,692	-3,959	231,722	114,488
166,706	-3,783	231,511	114,512
167,721	-3,749	231,311	114,430
168,735	-3,740	231,187	114,366
169,750	-4,011	231,247	114,172
170,764	-4,074	230,926	113,954
171,779	-4,000	230,790	113,935
172,794	-4,127	230,769	113,815
173,808	-3,984	230,391	113,730
174,823	-4,383	230,076	113,252
175,837	-4,663	229,879	112,926
176,852	-4,011	229,769	113,371
177,867	-4,059	229,775	113,327
178,881	-3,986	229,735	113,354
179,896	-3,892	229,537	113,320
180,910	-3,777	229,514	113,387
181,925	-4,108	229,284	113,006
182,940	-3,825	229,144	113,147
183,954	-3,909	229,097	113,049
184,969	-3,824	228,842	112,979
185,983	-3,711	228,613	112,944
186,998	-3,722	228,502	112,870
188,013	-3,714	228,402	112,816
189,027	-3,652	228,108	112,709
190,042	-3,598	227,959	112,667
191,056	-3,762	227,787	112,445
192,071	-3,994	227,783	112,254
193,086	-3,854	227,546	112,236
194,100	-3,795	227,443	112,220
195,115	-3,803	227,173	112,071
196,129	-4,316	226,915	111,539
197,144	-1,014	227,935	114,583
198,159	2,791	228,922	118,016
199,173	4,205	229,230	119,259
200,188	4,079	229,129	119,099
201,202	4,035	228,957	118,965
202,217	4,371	228,941	119,205
203,232	4,443	228,743	119,147
204,246	4,897	228,782	119,507
205,261	4,788	228,444	119,236
206,275	5,003	228,367	119,351
207,290	4,944	228,312	119,266
208,304	4,835	228,138	119,080
209,319	4,875	227,944	119,000
210,334	4,664	227,789	118,745
211,348	4,490	227,519	118,461
212,363	4,371	227,140	118,162
213,377	3,934	227,072	117,781
214,392	3,791	227,022	117,636
215,407	4,199	226,752	117,797
216,421	4,264	226,575	117,744
217,436	3,957	226,461	117,441
218,450	3,784	226,206	117,166
219,465	3,971	225,955	117,167
220,480	3,915	226,029	117,152
221,494	3,674	225,994	116,940
222,509	4,007	225,726	117,045
223,523	3,908	225,612	116,900
224,538	3,811	225,400	116,706
225,553	4,071	225,195	116,786
226,567	4,294	225,127	116,910
227,582	4,446	225,011	116,954
228,596	4,300	225,043	116,850
229,611	4,181	224,756	116,601
230,626	4,025	224,570	116,376
231,640	3,888	224,422	116,185
232,655	4,280	224,320	116,418
233,669	4,559	224,258	116,586
234,684	4,858	224,088	116,713
235,699	4,280	224,008	116,225
236,713	4,113	223,796	115,979
237,728	3,917	223,522	115,680
238,742	4,036	223,329	115,659
239,757	4,043	223,138	115,554
240,772	4,056	223,133	115,552
241,786	3,899	222,947	115,327
242,801	4,331	222,852	115,591
243,815	4,369	222,776	115,571
244,830	4,465	222,661	115,572
245,844	4,199	222,369	115,211
246,859	4,172	222,204	115,095
247,874	4,313	222,126	115,150
248,888	4,333	221,992	115,085
249,903	4,095	221,848	114,823
250,917	3,994	221,710	114,666
251,932	3,987	221,564	114,575
252,947	3,956	221,302	114,406
253,961	3,749	221,254	114,217
254,976	4,118	220,921	114,309
255,990	3,978	221,073	114,274
257,005	4,110	220,795	114,218
258,020	4,287	220,721	114,300
259,034	4,286	220,630	114,242
260,049	4,320	220,668	114,277
261,063	4,212	220,224	113,957
262,078	4,156	220,283	113,936
263,093	4,532	220,036	114,076
264,107	4,619	219,846	114,031
265,122	4,400	219,700	113,784
266,136	4,540	219,725	113,890
267,151	4,534	219,547	113,783
268,166	4,123	219,318	113,352
269,180	3,804	219,094	112,991
270,195	3,892	218,939	112,966
271,209	3,825	218,785	112,827
272,224	4,004	218,677	112,893
273,239	3,866	218,569	112,726
274,253	4,071	218,280	112,717
275,268	3,796	218,149	112,438
276,282	3,785	217,944	112,315
277,297	3,813	217,832	112,267
278,312	3,759	217,841	112,222
279,326	4,164	217,697	112,433
280,341	4,041	217,424	112,193
281,355	3,978	217,483	112,167
282,370	4,202	217,166	112,157
283,384	3,762	216,975	111,729
284,399	3,458	216,920	111,469
285,414	3,592	216,880	111,536
286,428	3,734	216,870	111,624
287,443	4,109	216,729	111,814
288,457	4,166	216,440	111,696
289,472	4,118	216,174	111,514
290,487	3,604	216,012	111,049
291,501	3,659	215,766	110,952
292,516	3,674	215,798	110,969
293,530	3,839	215,613	110,983
294,545	3,731	215,527	110,852
295,560	3,613	215,628	110,809
296,574	3,732	215,293	110,712
297,589	4,010	215,146	110,827
298,603	4,075	215,136	110,858
299,618	3,996	214,884	110,662
300,633	4,276	214,671	110,744
301,647	4,319	214,895	110,880
302,662	4,286	214,549	110,668
303,676	4,397	214,375	110,648
304,691	4,204	214,317	110,470
305,706	4,254	214,232	110,452
306,720	4,336	213,968	110,365
307,735	4,270	213,863	110,254
308,749	3,824	213,706	109,844
309,764	4,041	213,650	109,960
310,779	4,186	213,343	109,896
311,793	4,211	213,329	109,897
312,808	4,006	213,217	109,683
313,822	4,305	212,922	109,735
314,837	4,239	212,718	109,573
315,852	3,987	212,572	109,309
316,866	4,072	212,663	109,406
317,881	4,331	212,486	109,489
318,895	4,474	212,215	109,441
319,910	3,972	212,239	109,088
320,925	3,805	212,071	108,874
321,939	3,354	211,868	108,440
322,954	3,607	211,596	108,470
323,968	4,302	211,592	108,950
324,983	4,231	211,606	108,897
325,997	4,389	211,437	108,912
327,012	4,111	211,274	108,622
328,027	4,008	211,196	108,500
329,041	4,644	210,985	108,830
330,056	4,473	210,886	108,648
331,070	3,983	210,804	108,252
332,085	3,946	210,531	108,076
333,100	3,981	210,505	108,078
334,114	4,107	210,379	108,092
335,129	3,859	210,210	107,821
336,143	3,749	209,921	107,586
337,158	3,918	209,817	107,641
338,173	3,725	209,708	107,441
339,187	3,979	209,491	107,498
340,202	3,737	209,453	107,300
341,216	3,910	209,271	107,317
342,231	3,975	209,202	107,318
343,246	3,863	208,960	107,107
344,260	4,045	208,938	107,212
345,275	3,793	208,798	106,955
346,289	3,923	208,714	106,993
347,304	3,857	208,854	107,010
348,319	4,119	208,469	106,985
349,333	3,885	208,346	106,750
350,348	4,140	208,092	106,787
351,362	4,280	208,156	106,907
352,377	4,223	208,030	106,793
353,392	3,984	207,881	106,542
354,406	3,851	207,697	106,347
355,421	193,190	1345,746	1432,129
356,435	154,095	1484,500	1432,257
