DTS Sentinel unit serial number:	SN410029Multiplexer serial number:	ORYXHardware model number:	OX2-SRSoftware version number:	ORYX F/W v4,00 Oryx Data Collector v3.7.2.0data status	okinstallation	B6 Nyhavnadifferential loss correction	single-endedforward channel	channel 2reverse channel	N/Adate	2023/12/10time	05:45:08forward acquisition time	300,00reverse acquisition time	0,00gamma	499,1914k internal	0,3124k external	0,3124temperature offset calibration	1,0000default loss term (dB/km)	0,3820temperature slope calibration	1,0000multiplexer offset coefficient	1,0000multiplexer slope coefficient	1,0000fibre end	0,00T internal ref (°C)	22,50T ext. ref 1 (°C)	6,49T ext. ref 2 (°C)	6,46length (m)	temperature (°C)	Stokes	anti-Stokes-744,400	110,461	-0,074	-0,067
-743,385	2,775	-0,261	0,141
-742,371	-107,131	-0,115	-0,019
-741,356	-50,747	-0,232	0,081
-740,342	-169,244	0,148	-0,004
-739,327	295,848	-0,069	0,094
-738,312	-200,000	0,046	-0,199
-737,298	-35,281	-0,179	0,072
-736,283	-141,213	-0,084	-0,006
-735,269	-69,469	-0,299	0,085
-734,254	60,734	-0,082	-0,060
-733,239	-50,490	-0,437	-0,153
-732,225	-16,840	0,149	-0,070
-731,210	-200,000	-0,039	-0,160
-730,196	-200,000	-0,039	-0,133
-729,181	-136,810	-0,151	-0,013
-728,167	-13,833	-0,178	-0,085
-727,152	-200,000	-0,027	0,109
-726,137	32,574	-0,154	-0,099
-725,123	81,527	-0,063	-0,051
-724,108	-200,000	0,006	-0,144
-723,094	-45,652	0,081	-0,030
-722,079	423,526	-0,049	0,079
-721,064	-70,048	-0,013	-0,004
-720,050	-144,582	-0,145	0,010
-719,035	426,309	0,055	0,088
-718,021	263,386	-0,025	0,033
-717,006	800,000	-0,058	-0,127
-715,991	800,000	0,037	0,079
-714,977	800,000	0,019	0,050
-713,962	502,691	-0,122	0,211
-712,948	3,887	0,111	0,060
-711,933	77,403	0,066	0,052
-710,918	-64,664	-0,090	-0,027
-709,904	800,000	-0,023	0,051
-708,889	800,000	0,029	-0,085
-707,875	-108,116	0,099	-0,016
-706,860	41,205	0,084	-0,056
-705,845	414,183	-0,020	-0,032
-704,831	800,000	0,016	0,039
-703,816	595,689	0,046	-0,086
-702,802	329,061	-0,033	0,047
-701,787	-31,566	-0,163	-0,068
-700,772	563,359	-0,069	-0,125
-699,758	-200,000	0,032	-0,189
-698,743	-12,606	0,056	-0,027
-697,729	-200,000	0,031	0,134
-696,714	-63,029	-0,047	0,014
-695,699	-200,000	-0,003	-0,019
-694,685	9,321	-0,071	0,040
-693,670	231,131	0,076	-0,093
-692,656	-3,391	-0,018	0,009
-691,641	32,629	-0,075	-0,048
-690,627	130,140	-0,039	0,037
-689,612	800,000	-0,028	-0,075
-688,597	-200,000	-0,009	0,061
-687,583	-66,009	-0,187	-0,055
-686,568	-55,174	-0,089	0,030
-685,554	-90,620	0,128	-0,027
-684,539	419,140	-0,023	0,037
-683,524	-200,000	0,001	0,047
-682,510	179,223	0,045	0,049
-681,495	-74,824	0,082	-0,022
-680,481	486,431	-0,053	-0,091
-679,466	-168,441	-0,120	-0,003
-678,451	-54,058	-0,036	-0,012
-677,437	-80,725	-0,080	-0,020
-676,422	-27,852	0,141	0,060
-675,408	-200,000	0,005	-0,022
-674,393	220,114	-0,050	0,059
-673,378	80,752	0,055	-0,044
-672,364	-173,385	-0,145	-0,003
-671,349	217,499	0,070	0,083
-670,335	-82,451	-0,101	-0,024
-669,320	107,834	-0,109	0,096
-668,305	-156,050	-0,190	0,009
-667,291	800,000	0,065	-0,176
-666,276	425,428	-0,037	-0,059
-665,262	179,262	-0,061	-0,067
-664,247	274,641	-0,066	-0,088
-663,232	-200,000	-0,017	-0,093
-662,218	-23,263	0,050	0,022
-661,203	800,000	-0,076	-0,182
-660,189	-77,458	-0,066	0,017
-659,174	-104,785	-0,144	-0,024
-658,159	15,020	0,065	-0,038
-657,145	-101,475	-0,056	-0,010
-656,130	-26,816	0,072	-0,031
-655,116	-26,898	0,191	-0,082
-654,101	-18,686	0,150	-0,069
-653,086	56,087	-0,128	0,092
-652,072	-200,000	0,024	-0,100
-651,057	-158,446	0,041	-0,002
-650,043	459,300	-0,055	-0,091
-649,028	-200,000	-0,012	-0,065
-648,014	154,734	0,058	0,059
-646,999	270,224	0,063	0,083
-645,984	-20,850	-0,090	0,041
-644,970	-145,236	0,110	0,007
-643,955	193,686	0,072	0,081
-642,941	464,376	0,076	-0,127
-641,926	13,918	0,065	-0,037
-640,911	800,000	-0,075	0,157
-639,897	379,522	-0,051	0,078
-638,882	-164,789	0,086	0,003
-637,868	-200,000	-0,008	-0,046
-636,853	15,614	-0,092	0,053
-635,838	515,450	-0,060	-0,104
-634,824	-200,000	-0,037	0,121
-633,809	-200,000	0,002	-0,019
-632,795	94,547	0,064	0,054
-631,780	-200,000	-0,021	0,111
-630,765	-137,135	0,036	-0,003
-629,751	-200,000	0,011	-0,045
-628,736	-165,141	0,054	0,002
-627,722	88,533	-0,047	0,038
-626,707	-135,886	-0,233	-0,020
-625,692	-200,000	0,048	0,184
-624,678	-134,777	-0,063	0,006
-623,663	168,793	0,024	-0,026
-622,649	-85,719	0,051	0,012
-621,634	-154,963	-0,069	-0,003
-620,619	420,290	0,033	-0,052
-619,605	-200,000	0,004	-0,172
-618,590	208,987	0,094	-0,109
-617,576	800,000	0,021	-0,056
-616,561	-4,922	-0,059	-0,030
-615,546	768,037	-0,065	-0,131
-614,532	-200,000	0,007	-0,048
-613,517	281,808	-0,044	-0,058
-612,503	504,573	0,023	0,039
-611,488	-47,446	-0,093	-0,033
-610,474	800,000	-0,012	-0,031
-609,459	-59,076	0,116	-0,037
-608,444	52,959	-0,017	-0,012
-607,430	-200,000	0,003	-0,268
-606,415	800,000	0,023	-0,057
-605,401	-116,052	0,061	-0,008
-604,386	771,106	0,029	0,059
-603,371	78,452	0,028	-0,022
-602,357	-14,719	-0,121	-0,058
-601,342	800,000	0,029	-0,072
-600,328	-200,000	-0,022	-0,145
-599,313	-200,000	-0,004	-0,021
-598,298	-200,000	-0,023	0,086
-597,284	-97,632	0,018	0,003
-596,269	-19,948	-0,027	-0,012
-595,255	-200,000	0,003	-0,053
-594,240	-200,000	0,022	-0,111
-593,225	-123,334	0,068	-0,008
-592,211	524,417	-0,042	0,073
-591,196	744,990	0,029	0,058
-590,182	789,984	0,033	0,067
-589,167	12,401	-0,055	0,032
-588,152	800,000	0,042	-0,097
-587,138	800,000	-0,026	-0,083
-586,123	176,929	0,087	-0,094
-585,109	-200,000	0,017	-0,059
-584,094	-31,590	0,063	0,026
-583,079	-98,070	-0,214	-0,040
-582,065	-97,119	0,060	0,011
-581,050	-200,000	0,012	0,083
-580,036	-155,679	0,115	-0,005
-579,021	104,602	-0,057	-0,049
-578,006	800,000	0,028	-0,089
-576,992	274,527	0,068	-0,089
-575,977	800,000	0,066	-0,156
-574,963	800,000	-0,050	-0,119
-573,948	-200,000	0,024	-0,082
-572,934	763,435	0,084	-0,169
-571,919	-200,000	-0,003	0,059
-570,904	-200,000	0,018	-0,096
-569,890	135,018	-0,085	-0,082
-568,875	-166,940	0,038	-0,001
-567,861	-24,370	-0,147	0,064
-566,846	-200,000	0,029	-0,113
-565,831	8,599	0,054	0,030
-564,817	-200,000	0,002	0,009
-563,802	647,152	0,061	-0,115
-562,788	-126,747	0,083	-0,009
-561,773	-200,000	-0,012	0,168
-560,758	-200,000	-0,002	0,067
-559,744	313,593	-0,036	0,050
-558,729	213,121	0,044	0,051
-557,715	704,837	-0,035	-0,069
-556,700	-138,287	-0,057	0,005
-555,685	800,000	0,025	-0,065
-554,671	-103,560	-0,042	-0,007
-553,656	63,398	-0,081	-0,060
-552,642	150,061	-0,076	0,076
-551,627	143,437	0,052	0,051
-550,612	225,538	-0,053	0,063
-549,598	-200,000	-0,008	0,059
-548,583	622,714	0,033	-0,062
-547,569	800,000	0,020	-0,060
-546,554	-126,252	-0,061	-0,007
-545,539	459,895	-0,047	-0,077
-544,525	-155,512	0,153	-0,007
-543,510	-45,983	-0,075	-0,027
-542,496	146,617	0,120	-0,120
-541,481	-148,497	0,054	-0,003
-540,466	-102,980	0,096	0,017
-539,452	78,436	0,046	-0,036
-538,437	-200,000	-0,022	0,148
-537,423	-200,000	-0,027	0,157
-536,408	128,899	0,075	0,071
-535,393	53,517	0,039	-0,027
-534,379	3,385	-0,174	0,093
-533,364	-200,000	-0,035	0,166
-532,350	-55,272	-0,069	0,023
-531,335	393,665	0,079	0,122
-530,321	513,401	0,144	0,250
-529,306	800,000	-0,052	0,134
-528,291	164,539	-0,103	-0,107
-527,277	800,000	-0,028	0,090
-526,262	98,001	-0,089	-0,076
-525,248	-163,651	-0,041	0,001
-524,233	308,343	0,034	0,048
-523,218	76,538	-0,006	0,005
-522,204	-66,484	0,108	0,031
-521,189	190,007	0,010	0,011
-520,175	-200,000	-0,025	-0,086
-519,160	347,451	-0,116	-0,169
-518,145	-200,000	0,014	0,087
-517,131	-49,501	0,083	-0,029
-516,116	-87,132	0,137	0,031
-515,102	517,067	0,055	-0,095
-514,087	-101,181	0,091	-0,016
-513,072	-200,000	0,007	0,053
-512,058	-200,000	-0,005	-0,076
-511,043	407,573	0,046	0,073
-510,029	-200,000	-0,013	0,073
-509,014	800,000	-0,050	0,146
-507,999	-31,502	0,051	0,021
-506,985	-65,169	-0,154	-0,046
-505,970	-39,892	-0,108	-0,042
-504,956	-118,275	-0,062	-0,008
-503,941	19,623	-0,074	0,044
-502,926	176,960	0,034	-0,037
-501,912	800,000	-0,034	0,090
-500,897	56,084	0,024	0,017
-499,883	-200,000	-0,005	-0,042
-498,868	256,533	-0,030	-0,039
-497,853	0,838	-0,027	0,014
-496,839	-7,516	0,089	0,045
-495,824	553,678	0,025	0,045
-494,810	217,007	0,043	0,051
-493,795	12,568	0,090	0,051
-492,781	38,073	0,107	0,070
-491,766	-37,870	0,052	0,020
-490,751	-200,000	0,008	0,048
-489,737	-200,000	0,005	-0,019
-488,722	-37,261	-0,024	-0,009
-487,708	-200,000	0,030	-0,121
-486,693	800,000	-0,024	-0,066
-485,678	30,500	0,095	-0,060
-484,664	-200,000	-0,005	-0,094
-483,649	-85,023	0,016	0,004
-482,635	35,819	0,047	0,030
-481,620	-200,000	0,001	0,042
-480,605	569,252	0,030	-0,054
-479,591	283,774	0,167	0,222
-478,576	4,647	-0,149	-0,080
-477,562	9,265	-0,079	0,044
-476,547	-142,903	-0,095	-0,007
-475,532	-200,000	0,015	0,124
-474,518	-84,903	0,072	0,017
-473,503	3,658	0,051	0,028
-472,489	658,332	0,060	0,115
-471,474	-200,000	-0,019	0,068
-470,459	155,765	0,057	-0,058
-469,445	-92,138	-0,022	0,005
-468,430	800,000	0,041	-0,091
-467,416	81,635	0,019	-0,015
-466,401	-200,000	0,002	0,022
-465,386	-115,266	0,036	-0,005
-464,372	-200,000	-0,007	0,044
-463,357	-200,000	0,000	0,044
-462,343	299,366	-0,043	-0,058
-461,328	226,425	-0,049	-0,059
-460,313	-80,576	0,066	0,016
-459,299	223,912	0,018	0,021
-458,284	800,000	-0,051	0,122
-457,270	-200,000	0,015	0,074
-456,255	212,127	0,075	-0,087
-455,241	-55,427	-0,085	0,028
-454,226	105,336	0,076	0,067
-453,211	329,086	0,085	0,121
-452,197	96,566	0,018	0,015
-451,182	482,387	-0,079	-0,132
-450,168	-143,812	-0,076	0,005
-449,153	-162,281	-0,064	0,002
-448,138	-200,000	0,030	-0,147
-447,124	-200,000	-0,000	0,023
-446,109	206,245	0,053	-0,061
-445,095	264,498	-0,020	0,026
-444,080	-200,000	0,007	0,164
-443,065	-69,655	0,067	-0,019
-442,051	-200,000	0,014	-0,125
-441,036	-200,000	0,006	-0,162
-440,022	-72,626	-0,061	-0,017
-439,007	159,716	-0,032	0,033
-437,992	-200,000	-0,032	0,110
-436,978	-145,005	-0,047	0,003
-435,963	160,314	0,078	0,080
-434,949	243,300	-0,101	0,125
-433,934	-94,629	0,090	0,018
-432,919	-23,180	0,017	-0,007
-431,905	143,381	0,052	-0,051
-430,890	-200,000	0,027	0,180
-429,876	-200,000	-0,015	-0,089
-428,861	395,527	0,084	0,129
-427,846	392,179	0,051	0,078
-426,832	800,000	-0,029	0,062
-425,817	800,000	-0,049	-0,117
-424,803	-149,188	-0,169	-0,010
-423,788	-9,325	0,058	0,029
-422,773	419,360	0,060	-0,095
-421,759	272,175	-0,062	0,080
-420,744	258,333	-0,061	0,078
-419,730	28,487	0,052	-0,032
-418,715	-77,704	-0,105	0,027
-417,701	-8,442	0,063	-0,031
-416,686	206,518	-0,045	-0,052
-415,671	92,171	0,106	0,088
-414,657	399,383	-0,015	-0,023
-413,642	363,502	0,031	-0,046
-412,628	800,000	-0,041	-0,109
-411,613	800,000	-0,047	-0,124
-410,598	13,695	-0,099	-0,057
-409,584	-200,000	0,014	-0,081
-408,569	141,915	0,061	-0,059
-407,555	-200,000	-0,032	0,144
-406,540	-200,000	-0,004	0,033
-405,525	20,325	0,058	0,035
-404,511	-200,000	0,003	-0,142
-403,496	-122,339	-0,205	0,024
-402,482	800,000	0,036	0,114
-401,467	-129,007	0,111	-0,011
-400,452	155,621	0,050	0,050
-399,438	135,116	0,069	-0,066
-398,423	-68,108	-0,070	-0,020
-397,409	-200,000	-0,027	0,106
-396,394	258,633	-0,072	0,092
-395,379	-45,954	0,028	0,010
-394,365	-200,000	0,019	-0,126
-393,350	774,191	0,054	-0,109
-392,336	-154,747	-0,003	0,000
-391,321	800,000	-0,023	-0,048
-390,306	568,996	-0,048	-0,085
-389,292	-99,048	-0,140	-0,026
-388,277	5,635	0,056	0,030
-387,263	291,452	0,034	0,046
-386,248	314,047	-0,062	0,086
-385,233	-197,459	0,076	0,000
-384,219	773,368	0,063	-0,127
-383,204	-10,571	0,139	-0,067
-382,190	-200,000	-0,013	0,067
-381,175	800,000	-0,054	-0,144
-380,160	770,506	-0,032	-0,065
-379,146	-14,420	0,080	0,038
-378,131	236,931	0,038	0,046
-377,117	129,142	-0,047	-0,044
-376,102	-32,816	0,080	0,033
-375,088	800,000	-0,044	-0,093
-374,073	-3,252	0,041	-0,021
-373,058	-61,334	-0,064	0,020
-372,044	-200,000	0,018	0,082
-371,029	176,421	-0,065	-0,069
-370,015	785,560	-0,024	-0,048
-369,000	25,981	-0,019	-0,012
-367,985	311,514	-0,031	-0,043
-366,971	161,732	0,006	-0,007
-365,956	800,000	0,030	-0,090
-364,942	800,000	0,026	0,064
-363,927	-200,000	0,019	0,065
-362,912	-114,610	-0,103	0,014
-361,898	-11,976	0,014	0,007
-360,883	85,746	0,041	-0,033
-359,869	800,000	-0,020	-0,050
-358,854	70,357	-0,059	0,045
-357,839	-68,496	0,079	0,022
-356,825	233,281	-0,091	-0,110
-355,810	-147,586	-0,093	-0,006
-354,796	-200,000	0,009	0,119
-353,781	-125,737	-0,133	0,015
-352,766	252,317	-0,029	-0,037
-351,752	-4,520	-0,074	0,038
-350,737	-55,715	0,029	0,010
-349,723	518,454	-0,032	-0,056
-348,708	347,779	-0,020	-0,029
-347,693	73,693	-0,098	0,075
-346,679	-63,255	0,042	-0,013
-345,664	-200,000	-0,003	-0,037
-344,650	20,092	-0,020	-0,012
-343,635	-200,000	0,024	0,082
-342,620	24,689	0,068	0,041
-341,606	-200,000	-0,002	-0,026
-340,591	261,875	0,082	0,104
-339,577	800,000	-0,062	-0,145
-338,562	-200,000	0,018	-0,108
-337,548	211,415	0,049	-0,056
-336,533	144,412	0,038	0,037
-335,518	540,501	0,113	0,198
-334,504	-44,035	-0,048	0,018
-333,489	-200,000	-0,038	-0,161
-332,475	6,325	-0,051	0,028
-331,460	418,460	-0,057	-0,089
-330,445	82,702	0,046	-0,037
-329,431	-56,608	0,103	0,033
-328,416	320,903	0,073	0,101
-327,402	29,251	-0,052	0,032
-326,387	-200,000	-0,037	0,159
-325,372	776,858	0,016	0,033
-324,358	800,000	-0,024	-0,053
-323,343	199,420	-0,092	-0,104
-322,329	-78,835	0,101	-0,025
-321,314	154,880	0,107	0,108
-320,299	-200,000	-0,010	0,076
-319,285	-43,162	-0,124	0,046
-318,270	-35,962	0,124	-0,049
-317,256	70,538	0,084	-0,063
-316,241	-125,768	-0,097	-0,011
-315,226	800,000	-0,055	0,138
-314,212	-91,395	0,007	0,001
-313,197	169,643	0,039	0,041
-312,183	-200,000	-0,011	0,115
-311,168	-200,000	0,029	0,143
-310,153	578,848	-0,080	-0,144
-309,139	142,350	-0,061	0,059
-308,124	-143,120	0,049	-0,003
-307,110	-101,966	0,104	-0,018
-306,095	800,000	0,050	-0,106
-305,080	-200,000	0,016	-0,104
-304,066	135,497	0,022	-0,021
-303,051	-200,000	-0,007	-0,050
-302,037	505,286	-0,082	-0,139
-301,022	-200,000	0,012	-0,161
-300,008	409,377	0,049	0,076
-298,993	800,000	0,010	0,030
-297,978	-73,410	-0,110	-0,029
-296,964	-72,478	-0,008	-0,002
-295,949	27,674	0,028	-0,017
-294,935	334,342	0,049	-0,069
-293,920	-44,082	-0,098	0,036
-292,905	800,000	0,034	-0,081
-291,891	99,329	-0,156	0,132
-290,876	-148,759	-0,093	0,005
-289,862	-173,035	-0,068	-0,001
-288,847	192,838	0,052	-0,057
-287,832	-106,913	-0,094	-0,015
-286,818	-200,000	0,006	-0,148
-285,803	-162,477	0,173	-0,006
-284,789	-17,383	0,081	0,037
-283,774	260,612	0,064	0,081
-282,759	800,000	-0,022	-0,049
-281,745	-200,000	-0,026	-0,087
-280,730	-45,007	-0,064	0,023
-279,716	259,593	-0,036	0,046
-278,701	347,996	0,082	-0,118
-277,686	-104,699	-0,087	0,015
-276,672	800,000	-0,031	-0,079
-275,657	211,638	-0,034	-0,039
-274,643	445,093	-0,131	0,211
-273,628	84,757	0,047	-0,038
-272,613	537,998	-0,029	-0,050
-271,599	-68,674	0,076	0,022
-270,584	-200,000	-0,016	0,073
-269,570	-200,000	0,015	0,129
-268,555	-200,000	0,103	-0,000
-267,540	-76,502	0,076	0,019
-266,526	-30,274	0,089	-0,037
-265,511	36,648	-0,096	-0,062
-264,497	-44,337	0,086	0,031
-263,482	-114,065	0,116	-0,016
-262,467	120,707	-0,039	-0,036
-261,453	265,642	-0,021	-0,027
-260,438	11,845	-0,123	-0,069
-259,424	310,123	-0,048	0,065
-258,409	800,000	0,011	-0,031
-257,395	344,267	-0,019	0,027
-256,380	-123,454	0,117	0,013
-255,365	421,316	-0,054	0,085
-254,351	-200,000	0,046	0,151
-253,336	800,000	-0,026	0,059
-252,322	-200,000	0,014	-0,078
-251,307	-200,000	0,036	-0,201
-250,292	172,042	-0,010	0,011
-249,278	-61,361	0,125	-0,038
-248,263	-200,000	0,018	0,079
-247,249	-200,000	-0,023	0,080
-246,234	-97,422	-0,079	0,015
-245,219	128,693	-0,067	0,063
-244,205	21,410	-0,132	-0,078
-243,190	12,576	-0,121	0,068
-242,176	220,194	-0,076	-0,089
-241,161	800,000	0,030	-0,078
-240,146	579,123	-0,040	-0,072
-239,132	-121,525	-0,150	-0,018
-238,117	-200,000	0,015	-0,068
-237,103	-59,653	-0,072	-0,022
-236,088	-12,517	0,040	0,019
-235,073	383,950	-0,005	0,007
-234,059	-200,000	0,011	0,041
-233,044	554,739	0,046	0,081
-232,030	129,087	-0,004	0,003
-231,015	-121,272	-0,069	0,008
-230,000	-29,449	-0,138	-0,058
-228,986	86,209	-0,052	0,041
-227,971	276,865	-0,078	0,102
-226,957	5,411	-0,104	-0,056
-225,942	800,000	0,023	0,068
-224,927	800,000	0,046	0,127
-223,913	-200,000	-0,002	0,128
-222,898	-200,000	-0,038	-0,131
-221,884	800,000	0,030	-0,091
-220,869	308,702	-0,065	0,089
-219,855	-200,000	0,017	0,089
-218,840	-92,460	0,101	-0,021
-217,825	-62,049	0,047	0,014
-216,811	276,648	-0,061	-0,080
-215,796	800,000	0,029	-0,068
-214,782	8,379	-0,038	-0,021
-213,767	449,523	-0,011	0,018
-212,752	-108,679	0,181	0,028
-211,738	351,647	-0,063	0,092
-210,723	-170,777	0,131	-0,003
-209,709	44,008	-0,144	-0,096
-208,694	-200,000	0,006	0,042
-207,679	-143,125	0,119	0,008
-206,665	-71,229	-0,093	-0,025
-205,650	181,130	0,069	0,074
-204,636	-167,453	0,083	0,002
-203,621	214,804	0,070	0,082
-202,606	52,885	0,082	-0,057
-201,592	-60,910	-0,080	0,024
-200,577	-35,915	-0,042	0,017
-199,563	127,418	0,098	0,091
-198,548	58,604	0,136	0,097
-197,533	61,516	0,047	0,034
-196,519	-24,809	-0,047	-0,020
-195,504	800,000	0,026	0,060
-194,490	122,561	0,085	-0,078
-193,475	174,547	0,008	-0,009
-192,460	-13,825	0,064	0,030
-191,446	-105,237	-0,063	0,010
-190,431	86,338	0,054	-0,043
-189,417	84,060	0,150	0,119
-188,402	432,823	-0,026	0,041
-187,387	-3,158	-0,043	-0,022
-186,373	-108,509	-0,095	-0,015
-185,358	54,555	-0,071	-0,050
-184,344	800,000	-0,049	0,116
-183,329	314,229	0,030	0,042
-182,315	19,769	-0,169	0,099
-181,300	-51,761	0,060	0,020
-180,285	-113,925	0,099	0,014
-179,271	-154,221	-0,068	0,003
-178,256	800,000	0,017	0,036
-177,242	-102,322	0,052	-0,009
-176,227	70,907	0,012	0,009
-175,212	-83,886	0,103	-0,024
-174,198	-40,262	-0,123	-0,046
-173,183	800,000	-0,034	-0,100
-172,169	-96,288	-0,100	0,019
-171,154	-200,000	-0,009	-0,041
-170,139	-132,687	0,056	-0,005
-169,125	214,560	0,071	-0,082
-168,110	-133,606	0,014	-0,001
-167,096	-200,000	-0,008	0,037
-166,081	-33,423	-0,115	0,046
-165,066	-72,109	-0,043	-0,012
-164,052	-128,892	0,048	-0,005
-163,037	-200,000	0,038	0,288
-162,023	446,432	-0,105	-0,169
-161,008	-21,772	-0,062	0,028
-159,993	800,000	-0,046	0,145
-158,979	168,391	0,051	-0,053
-157,964	-74,213	-0,119	-0,031
-156,950	-83,289	-0,036	0,008
-155,935	417,749	0,024	0,038
-154,920	800,000	-0,033	-0,101
-153,906	-71,311	0,082	-0,022
-152,891	-200,000	0,005	-0,043
-151,877	468,919	0,081	-0,132
-150,862	18,153	-0,098	-0,057
-149,847	-200,000	0,013	-0,047
-148,833	800,000	-0,024	-0,062
-147,818	-200,000	-0,003	0,025
-146,804	91,609	0,031	0,026
-145,789	-200,000	0,028	0,096
-144,775	122,144	-0,031	-0,028
-143,760	671,682	0,050	-0,094
-142,745	500,270	-0,071	-0,120
-141,731	290,988	-0,026	0,034
-140,716	-200,000	-0,011	-0,063
-139,702	-46,015	-0,044	-0,016
-138,687	800,000	-0,063	-0,151
-137,672	-68,237	0,070	0,020
-136,658	-133,494	-0,111	0,010
-135,643	8,044	-0,182	0,099
-134,629	52,714	0,065	-0,045
-133,614	-200,000	0,005	-0,050
-132,599	26,668	0,032	-0,020
-131,585	-200,000	0,041	0,153
-130,570	-133,323	-0,101	-0,009
-129,556	-30,471	-0,048	-0,020
-128,541	81,855	-0,031	-0,024
-127,526	-146,130	0,102	-0,006
-126,512	69,055	-0,025	-0,019
-125,497	-200,000	-0,026	-0,092
-124,483	800,000	0,016	0,037
-123,468	-200,000	-0,045	0,228
-122,453	-20,029	-0,027	0,012
-121,439	-200,000	0,002	-0,051
-120,424	-200,000	0,021	0,092
-119,410	103,371	0,042	-0,036
-118,395	242,063	0,114	-0,139
-117,380	-12,662	-0,117	0,055
-116,366	270,140	0,033	-0,042
-115,351	800,000	-0,061	-0,173
-114,337	-37,034	-0,074	-0,029
-113,322	800,000	0,010	0,023
-112,307	195,071	0,037	0,041
-111,293	-200,000	0,008	-0,047
-110,278	-65,423	0,098	-0,029
-109,264	-95,806	-0,093	0,018
-108,249	-200,000	-0,002	0,052
-107,234	-20,710	-0,127	0,057
-106,220	800,000	0,007	-0,021
-105,205	-129,732	-0,114	0,011
-104,191	23,562	0,104	-0,062
-103,176	123,340	0,133	-0,121
-102,162	-172,118	0,130	-0,003
-101,147	-86,208	0,053	-0,012
-100,132	-19,124	-0,095	-0,043
-99,118	39,225	0,039	0,025
-98,103	173,918	0,030	-0,032
-97,089	256,026	-0,041	-0,051
-96,074	-117,824	0,146	-0,019
-95,059	55,320	0,034	-0,024
-94,045	-200,000	-0,057	-0,186
-93,030	-181,983	-0,096	-0,001
-92,016	115,825	-0,030	0,027
-91,001	323,002	0,025	0,035
-89,986	-2,344	-0,115	0,058
-88,972	150,813	-0,026	-0,026
-87,957	800,000	0,034	0,089
-86,943	-52,796	-0,033	0,011
-85,928	287,840	-0,086	-0,114
-84,913	800,000	0,026	-0,060
-83,899	51,658	0,096	-0,066
-82,884	342,205	0,039	0,055
-81,870	-200,000	-0,030	0,164
-80,855	99,323	0,092	-0,077
-79,840	-200,000	-0,013	-0,065
-78,826	-116,500	0,045	0,006
-77,811	-74,823	0,099	-0,026
-76,797	-200,000	-0,035	0,134
-75,782	35,189	0,039	-0,025
-74,767	-44,349	0,065	-0,024
-73,753	17,275	0,143	-0,082
-72,738	-200,000	0,007	-0,063
-71,724	-1,740	-0,215	0,109
-70,709	-92,044	0,050	-0,010
-69,694	-128,891	-0,121	-0,012
-68,680	-94,445	-0,103	-0,020
-67,665	-173,211	0,162	0,004
-66,651	-21,915	0,086	0,038
-65,636	-89,145	-0,159	0,034
-64,622	70,718	0,094	-0,070
-63,607	-200,000	0,012	-0,042
-62,592	57,333	-0,060	-0,043
-61,578	800,000	0,021	0,053
-60,563	800,000	-0,024	-0,055
-59,549	82,094	0,070	0,055
-58,534	-124,498	-1,266	-0,141
-57,519	800,000	-0,761	-1,643
-56,505	-200,000	-0,845	-4,453
-55,490	-30,353	0,588	-0,241
-54,476	800,000	4,954	11,678
-53,461	-200,000	13,392	253,654
-52,446	-200,000	689,758	2264,872
-51,432	592,627	1622,861	2919,717
-50,417	120,342	1635,159	1472,496
-49,403	73,415	1289,561	977,948
-48,388	38,292	1024,477	660,408
-47,373	24,467	981,932	587,540
-46,359	23,672	971,569	578,712
-45,344	22,716	967,437	573,106
-44,330	22,677	965,899	572,044
-43,315	22,587	964,563	570,938
-42,300	22,500	963,503	570,004
-41,286	22,578	962,605	569,704
-40,271	22,417	961,812	568,688
-39,257	22,545	960,779	568,469
-38,242	22,520	959,852	567,818
-37,227	22,480	959,026	567,178
-36,213	22,493	957,997	566,588
-35,198	22,446	957,181	565,933
-34,184	22,523	956,574	565,798
-33,169	22,440	955,728	565,008
-32,154	22,542	954,789	564,759
-31,140	22,582	953,871	564,323
-30,125	22,562	953,043	563,747
-29,111	22,542	952,289	563,212
-28,096	22,544	951,567	562,770
-27,082	22,559	950,867	562,383
-26,067	22,572	950,099	561,949
-25,052	22,573	949,292	561,452
-24,038	22,535	948,681	560,945
-23,023	22,515	948,304	560,637
-22,009	22,552	947,424	560,212
-20,994	22,528	946,928	559,818
-19,979	22,522	946,335	559,428
-18,965	22,555	945,697	559,133
-17,950	22,547	945,009	558,680
-16,936	22,515	944,247	558,105
-15,921	22,569	943,598	557,870
-14,906	22,415	943,045	557,034
-13,892	22,393	942,365	556,538
-12,877	22,436	941,619	556,213
-11,863	22,374	941,161	555,721
-10,848	22,390	940,619	555,431
-9,833	22,515	940,013	555,448
-8,819	22,460	939,507	554,953
-7,804	22,457	938,789	554,497
-6,790	22,474	938,055	554,095
-5,775	22,495	937,640	553,896
-4,760	22,461	936,939	553,350
-3,746	22,427	936,271	552,827
-2,731	22,286	935,643	551,990
-1,717	22,267	934,885	551,461
-0,702	22,281	934,193	551,073
0,313	22,032	933,570	550,755
1,327	25,109	931,808	559,338
2,342	34,793	796,275	503,768
3,356	32,861	451,434	282,670
4,371	1,862	293,261	152,772
5,386	-2,828	274,191	138,398
6,400	-4,056	268,472	134,362
7,415	-4,667	266,055	132,579
8,429	-4,201	264,735	132,335
9,444	-4,014	263,942	132,097
10,459	-4,228	263,474	131,657
11,473	-4,292	262,868	131,284
12,488	-4,258	262,394	131,066
13,502	-4,358	261,853	130,694
14,517	-4,282	261,271	130,460
15,531	-4,309	260,951	130,265
16,546	-4,357	260,599	130,034
17,561	-4,326	260,151	129,827
18,575	-4,307	259,947	129,731
19,590	-4,424	259,345	129,314
20,604	-4,420	259,242	129,254
21,619	-4,507	259,034	129,062
22,634	-4,569	258,609	128,783
23,648	-4,445	258,224	128,690
24,663	-4,577	258,046	128,473
25,677	-4,407	257,786	128,483
26,692	-4,395	257,501	128,340
27,707	-4,502	257,253	128,110
28,721	-4,685	257,076	127,849
29,736	-4,682	256,792	127,699
30,750	-4,386	256,591	127,850
31,765	-4,573	256,228	127,492
32,780	-4,335	255,935	127,544
33,794	-4,540	255,879	127,325
34,809	-4,403	255,596	127,292
35,823	-4,564	255,368	127,027
36,838	-4,428	255,034	126,968
37,853	-4,622	254,876	126,708
38,867	-4,628	254,622	126,565
39,882	-4,631	254,494	126,487
40,896	-4,479	254,050	126,389
41,911	-4,519	253,982	126,309
42,926	-4,705	253,731	126,011
43,940	-4,617	253,452	125,937
44,955	-4,642	253,367	125,862
45,969	-4,782	253,042	125,567
46,984	-4,954	252,841	125,307
47,999	-5,132	252,444	124,944
49,013	-5,307	252,294	124,708
50,028	-5,440	252,100	124,485
51,042	-5,499	251,668	124,210
52,057	-5,341	251,558	124,281
53,071	-5,249	251,328	124,236
54,086	-5,142	251,178	124,243
55,101	-5,050	251,036	124,241
56,115	-4,743	250,811	124,383
57,130	-4,551	250,841	124,553
58,144	-4,411	250,663	124,573
59,159	-4,323	250,381	124,497
60,174	-4,301	250,263	124,447
61,188	-4,551	250,053	124,117
62,203	-4,483	249,830	124,053
63,217	-4,387	249,608	124,014
64,232	-4,330	249,420	123,958
65,247	-4,236	249,186	123,911
66,261	-4,370	248,833	123,610
67,276	-4,616	248,643	123,295
68,290	-4,880	248,504	122,990
69,305	-5,016	248,369	122,797
70,320	-4,935	248,146	122,744
71,334	-4,667	247,878	122,829
72,349	-4,348	247,796	123,048
73,363	-4,455	247,688	122,893
74,378	-4,357	247,355	122,799
75,393	-4,534	247,243	122,583
76,407	-4,600	246,934	122,363
77,422	-4,432	246,755	122,406
78,436	-4,280	246,516	122,405
79,451	-4,487	246,379	122,151
80,466	-4,285	245,970	122,107
81,480	-4,885	246,062	121,637
82,495	-4,658	245,737	121,656
83,509	-4,722	245,574	121,510
84,524	-4,782	245,383	121,354
85,539	-4,790	245,033	121,164
86,553	-4,745	244,823	121,087
87,568	-4,768	244,659	120,976
88,582	-4,709	244,502	120,937
89,597	-4,748	244,406	120,845
90,611	-4,606	244,237	120,870
91,626	-4,540	244,087	120,840
92,641	-4,573	243,955	120,737
93,655	-4,450	243,713	120,708
94,670	-4,627	243,566	120,477
95,684	-4,719	243,286	120,251
96,699	-4,722	243,110	120,152
97,714	-4,726	242,942	120,054
98,728	-4,565	242,730	120,073
99,743	-4,705	242,525	119,845
100,757	-4,956	242,340	119,534
101,772	-4,833	242,258	119,585
102,787	-4,783	242,091	119,533
103,801	-4,641	241,892	119,542
104,816	-4,512	241,729	119,557
105,830	-4,476	241,452	119,439
106,845	-4,294	241,430	119,568
107,860	-4,536	241,280	119,284
108,874	-4,523	240,981	119,136
109,889	-4,667	240,833	118,933
110,903	-4,755	240,614	118,742
111,918	-4,909	240,342	118,471
112,933	-4,622	240,405	118,727
113,947	-4,476	240,105	118,688
114,962	-4,495	239,889	118,555
115,976	-4,417	239,792	118,561
116,991	-4,665	239,637	118,271
118,006	-4,656	239,469	118,185
119,020	-4,580	239,345	118,175
120,035	-4,359	239,257	118,302
121,049	-4,522	239,151	118,106
122,064	-4,606	238,929	117,917
123,079	-4,502	238,710	117,883
124,093	-4,537	238,372	117,677
125,108	-4,779	238,138	117,354
126,122	-4,826	237,942	117,209
127,137	-5,009	237,784	116,972
128,151	-4,891	237,697	117,015
129,166	-4,821	237,490	116,959
130,181	-4,856	237,188	116,771
131,195	-4,847	237,123	116,736
132,210	-4,790	237,073	116,748
133,224	-4,540	236,828	116,819
134,239	-4,423	236,675	116,827
135,254	-4,486	236,517	116,688
136,268	-4,590	236,172	116,423
137,283	-5,014	236,056	116,014
138,297	-5,148	235,825	115,783
139,312	-4,884	235,542	115,846
140,327	-4,563	235,524	116,084
141,341	-4,288	235,560	116,313
142,356	-4,275	235,432	116,249
143,370	-4,109	235,274	116,294
144,385	-4,276	235,099	116,064
145,400	-3,976	234,805	116,148
146,414	-4,183	234,609	115,875
147,429	-4,090	234,472	115,871
148,443	-4,376	234,389	115,592
149,458	-4,461	234,267	115,453
150,473	-4,253	234,026	115,490
151,487	-4,179	233,867	115,461
152,502	-4,134	233,737	115,422
153,516	-4,282	233,671	115,261
154,531	-4,118	233,356	115,226
155,546	-4,236	233,243	115,066
156,560	-4,341	233,039	114,871
157,575	-4,306	232,681	114,712
158,589	-4,515	232,793	114,592
159,604	-4,295	232,669	114,695
160,619	-4,238	232,422	114,608
161,633	-4,124	232,346	114,651
162,648	-4,178	232,166	114,509
163,662	-4,073	231,920	114,461
164,677	-4,309	231,802	114,206
165,692	-4,262	231,627	114,146
166,706	-4,053	231,527	114,251
167,721	-4,116	231,419	114,138
168,735	-4,097	231,086	113,979
169,750	-4,096	231,114	113,984
170,764	-4,122	230,764	113,780
171,779	-4,024	230,648	113,790
172,794	-4,231	230,678	113,632
173,808	-4,275	230,422	113,461
174,823	-4,810	230,103	112,875
175,837	-4,730	229,943	112,850
176,852	-4,256	229,786	113,132
177,867	-4,116	229,720	113,199
178,881	-4,030	229,577	113,186
179,896	-4,002	229,524	113,172
180,910	-4,067	229,386	113,043
181,925	-4,033	229,134	112,935
182,940	-4,056	228,997	112,840
183,954	-4,027	228,910	112,809
184,969	-4,119	228,778	112,663
185,983	-4,008	228,558	112,630
186,998	-3,901	228,334	112,593
188,013	-3,846	228,228	112,573
189,027	-4,144	228,184	112,311
190,042	-4,073	228,012	112,271
191,056	-3,835	227,838	112,359
192,071	-4,007	227,708	112,152
193,086	-4,097	227,477	111,959
194,100	-3,969	227,306	111,964
195,115	-4,396	227,116	111,530
196,129	-4,720	226,770	111,102
197,144	-2,642	227,679	113,142
198,159	0,996	228,484	116,346
199,173	3,598	229,315	118,775
200,188	4,397	229,127	119,285
201,202	3,986	229,142	118,965
202,217	4,294	228,951	119,092
203,232	4,477	228,798	119,143
204,246	4,624	228,687	119,189
205,261	4,589	228,543	119,075
206,275	4,695	228,342	119,042
207,290	4,759	228,305	119,062
208,304	4,717	228,027	118,874
209,319	4,741	227,995	118,865
210,334	4,711	227,818	118,738
211,348	4,473	227,381	118,318
212,363	4,034	227,171	117,862
213,377	3,888	227,063	117,684
214,392	3,447	227,000	117,303
215,407	3,818	226,810	117,479
216,421	3,904	226,709	117,481
217,436	3,892	226,293	117,246
218,450	3,654	226,227	117,020
219,465	3,747	225,959	116,942
220,480	3,777	226,032	116,992
221,494	3,667	225,887	116,823
222,509	3,790	225,810	116,866
223,523	3,708	225,525	116,645
224,538	3,929	225,327	116,700
225,553	3,904	225,230	116,621
226,567	4,060	225,126	116,675
227,582	4,179	225,131	116,757
228,596	4,115	225,002	116,631
229,611	3,731	224,844	116,249
230,626	3,827	224,426	116,094
231,640	3,708	224,388	115,975
232,655	3,967	224,311	116,120
233,669	4,293	224,368	116,386
234,684	4,321	224,247	116,333
235,699	4,170	223,948	116,054
236,713	3,998	223,777	115,826
237,728	3,987	223,540	115,685
238,742	3,823	223,179	115,364
239,757	3,989	223,123	115,450
240,772	3,821	223,083	115,293
241,786	3,939	222,891	115,272
242,801	3,941	222,889	115,261
243,815	4,241	222,677	115,367
244,830	4,317	222,563	115,353
245,844	3,909	222,354	114,930
246,859	4,209	222,148	115,038
247,874	4,129	222,133	114,960
248,888	4,283	221,956	114,973
249,903	4,005	221,853	114,701
250,917	3,879	221,732	114,535
251,932	3,855	221,586	114,432
252,947	3,902	221,393	114,357
253,961	3,785	221,170	114,144
254,976	3,854	221,131	114,165
255,990	4,067	220,971	114,231
257,005	4,119	220,818	114,180
258,020	4,304	220,663	114,227
259,034	4,383	220,590	114,237
260,049	4,434	220,319	114,124
261,063	3,977	220,382	113,809
262,078	4,077	220,243	113,801
263,093	4,447	219,975	113,926
264,107	4,205	219,734	113,612
265,122	4,115	219,805	113,572
266,136	4,408	219,662	113,704
267,151	4,220	219,413	113,427
268,166	3,938	219,320	113,161
269,180	3,436	219,077	112,656
270,195	3,854	218,829	112,826
271,209	3,619	218,778	112,617
272,224	3,813	218,672	112,695
273,239	3,910	218,526	112,681
274,253	3,920	218,292	112,557
275,268	3,795	218,135	112,374
276,282	3,542	218,025	112,123
277,297	3,619	217,731	112,018
278,312	3,808	217,712	112,136
279,326	3,592	217,674	111,949
280,341	3,750	217,508	111,969
281,355	3,819	217,436	111,972
282,370	3,661	217,301	111,778
283,384	3,662	217,026	111,627
284,399	3,444	216,884	111,386
285,414	3,581	216,782	111,423
286,428	3,752	216,672	111,481
287,443	4,032	216,654	111,664
288,457	4,048	216,446	111,558
289,472	4,114	216,177	111,458
290,487	3,446	215,973	110,860
291,501	3,352	215,821	110,704
292,516	3,615	215,759	110,852
293,530	3,631	215,727	110,838
294,545	3,464	215,471	110,575
295,560	3,681	215,358	110,664
296,574	3,895	215,229	110,742
297,589	3,760	215,250	110,646
298,603	3,934	215,048	110,657
299,618	3,921	214,875	110,549
300,633	3,968	214,631	110,447
301,647	3,964	214,737	110,489
302,662	3,899	214,680	110,403
303,676	4,204	214,411	110,474
304,691	4,291	214,195	110,416
305,706	4,154	214,138	110,278
306,720	4,208	214,003	110,237
307,735	3,897	213,793	109,897
308,749	3,730	213,602	109,670
309,764	4,143	213,411	109,856
310,779	4,056	213,527	109,844
311,793	3,984	213,202	109,616
312,808	4,241	213,059	109,715
313,822	3,893	213,030	109,443
314,837	3,956	212,865	109,393
315,852	3,619	212,628	109,022
316,866	3,646	212,445	108,938
317,881	4,085	212,491	109,264
318,895	4,090	212,222	109,119
319,910	3,986	212,225	109,037
320,925	3,861	211,963	108,804
321,939	3,371	211,742	108,334
322,954	3,563	211,741	108,460
323,968	4,061	211,751	108,808
324,983	3,917	211,609	108,623
325,997	3,905	211,381	108,488
327,012	4,179	211,175	108,566
328,027	3,995	211,177	108,427
329,041	4,157	211,123	108,504
330,056	4,332	210,984	108,546
331,070	4,090	210,562	108,150
332,085	3,713	210,484	107,835
333,100	3,698	210,339	107,741
334,114	3,963	210,322	107,909
335,129	4,133	210,095	107,902
336,143	3,930	209,888	107,644
337,158	4,034	209,777	107,650
338,173	3,975	209,764	107,592
339,187	3,565	209,471	107,145
340,202	3,371	209,480	107,005
341,216	3,476	209,329	106,992
342,231	3,704	209,056	107,002
343,246	3,592	208,901	106,835
344,260	3,572	208,912	106,817
345,275	3,682	208,816	106,835
346,289	3,864	208,706	106,896
347,304	3,839	208,618	106,824
348,319	3,817	208,383	106,679
349,333	3,891	208,188	106,621
350,348	3,878	208,207	106,612
351,362	4,165	208,159	106,776
352,377	4,034	208,016	106,603
353,392	3,810	207,839	106,348
354,406	4,080	207,599	106,402
355,421	194,139	1347,424	1436,329
356,435	154,877	1486,403	1436,452
