DTS Sentinel unit serial number:	SN410029Multiplexer serial number:	ORYXHardware model number:	OX2-SRSoftware version number:	ORYX F/W v4,00 Oryx Data Collector v3.7.2.0data status	okinstallation	B6 Nyhavnadifferential loss correction	single-endedforward channel	channel 2reverse channel	N/Adate	2023/12/11time	08:40:08forward acquisition time	300,00reverse acquisition time	0,00gamma	499,1914k internal	0,3131k external	0,3131temperature offset calibration	1,0000default loss term (dB/km)	0,3820temperature slope calibration	1,0000multiplexer offset coefficient	1,0000multiplexer slope coefficient	1,0000fibre end	0,00T internal ref (°C)	17,61T ext. ref 1 (°C)	-0,10T ext. ref 2 (°C)	-0,12length (m)	temperature (°C)	Stokes	anti-Stokes-744,400	143,774	0,090	0,090
-743,385	-168,687	-0,307	0,008
-742,371	-200,000	0,028	-0,129
-741,356	-109,232	-0,238	0,037
-740,342	-200,000	0,013	0,043
-739,327	-59,366	-0,276	-0,088
-738,312	-176,609	0,111	-0,002
-737,298	-184,615	-0,309	0,004
-736,283	116,030	0,126	-0,114
-735,269	-95,912	-0,246	0,048
-734,254	-200,000	-0,031	0,116
-733,239	-80,547	-0,538	-0,132
-732,225	371,944	0,099	0,150
-731,210	800,000	0,058	0,129
-730,196	-200,000	-0,033	-0,117
-729,181	-200,000	0,018	0,097
-728,167	-200,000	0,006	0,088
-727,152	-180,112	0,123	0,002
-726,137	61,776	-0,041	0,031
-725,123	704,347	-0,075	-0,148
-724,108	-97,243	-0,115	-0,022
-723,094	-200,000	-0,014	-0,213
-722,079	-200,000	0,002	-0,036
-721,064	800,000	-0,013	0,034
-720,050	-200,000	-0,015	0,075
-719,035	260,314	0,077	-0,099
-718,021	-104,419	-0,147	0,025
-717,006	62,597	0,036	0,027
-715,991	-107,605	-0,070	-0,011
-714,977	-200,000	-0,000	-0,083
-713,962	-200,000	0,012	-0,053
-712,948	69,981	0,022	0,017
-711,933	84,089	-0,010	-0,008
-710,918	-39,041	0,066	-0,026
-709,904	342,323	-0,080	-0,116
-708,889	800,000	0,007	0,014
-707,875	-136,731	-0,076	-0,006
-706,860	-134,252	0,211	0,019
-705,845	35,671	-0,079	-0,052
-704,831	42,176	0,038	0,026
-703,816	-109,455	0,043	-0,007
-702,802	-150,446	-0,130	-0,007
-701,787	-11,938	-0,063	-0,030
-700,772	-200,000	-0,010	0,110
-699,758	684,575	0,066	0,129
-698,743	-200,000	-0,003	0,096
-697,729	-98,977	-0,106	-0,020
-696,714	-50,958	0,102	0,035
-695,699	-103,749	-0,070	-0,012
-694,685	269,867	-0,109	-0,142
-693,670	-200,000	-0,039	-0,172
-692,656	-200,000	0,014	-0,098
-691,641	146,614	0,076	-0,075
-690,627	140,106	0,073	-0,071
-689,612	-200,000	-0,007	-0,071
-688,597	800,000	0,043	0,129
-687,583	-200,000	0,009	-0,106
-686,568	599,145	0,056	-0,104
-685,554	89,563	-0,067	-0,055
-684,539	-81,941	0,090	0,022
-683,524	800,000	0,057	-0,126
-682,510	-200,000	-0,016	0,095
-681,495	168,827	-0,011	-0,012
-680,481	583,851	0,015	-0,028
-679,466	727,437	0,016	-0,032
-678,451	260,511	-0,093	-0,119
-677,437	800,000	0,037	0,088
-676,422	-200,000	-0,049	-0,182
-675,408	140,806	-0,065	-0,064
-674,393	104,183	0,102	-0,089
-673,378	-200,000	-0,018	0,089
-672,364	658,152	-0,125	0,240
-671,349	800,000	-0,058	0,133
-670,335	-200,000	0,012	0,062
-669,320	433,346	0,069	0,111
-668,305	-35,750	0,030	0,012
-667,291	-200,000	-0,011	-0,041
-666,276	0,147	-0,125	-0,066
-665,262	-0,203	0,039	0,021
-664,247	-23,701	-0,048	0,021
-663,232	84,393	0,088	0,071
-662,218	-65,715	0,188	0,055
-661,203	800,000	-0,023	0,054
-660,189	478,898	0,021	0,035
-659,174	-200,000	-0,007	-0,085
-658,159	800,000	-0,045	0,113
-657,145	181,971	-0,052	-0,056
-656,130	-93,845	-0,029	0,006
-655,116	31,150	-0,006	0,004
-654,101	22,509	-0,043	-0,026
-653,086	800,000	-0,036	0,089
-652,072	750,357	-0,064	-0,128
-651,057	-131,400	0,080	0,008
-650,043	16,691	0,016	-0,009
-649,028	-200,000	0,021	0,158
-648,014	-17,723	-0,239	0,111
-646,999	259,191	-0,040	0,051
-645,984	429,603	0,047	-0,076
-644,970	-159,583	-0,149	0,006
-643,955	-27,346	-0,033	0,014
-642,941	-163,541	-0,035	-0,001
-641,926	130,277	0,062	0,059
-640,911	-82,108	-0,104	0,025
-639,897	413,146	0,053	-0,084
-638,882	-21,532	-0,100	-0,045
-637,868	-15,548	-0,046	-0,022
-636,853	-81,416	-0,113	0,027
-635,838	64,863	-0,047	0,035
-634,824	-41,075	0,054	-0,021
-633,809	28,578	0,058	-0,037
-632,795	298,202	0,049	0,067
-631,780	131,059	0,101	-0,096
-630,765	800,000	-0,055	-0,129
-629,751	118,839	0,023	-0,021
-628,736	-42,112	-0,133	-0,050
-627,722	318,969	-0,047	-0,065
-626,707	367,456	-0,094	0,140
-625,692	91,778	0,075	-0,063
-624,678	-200,000	0,003	0,097
-623,663	800,000	-0,026	0,083
-622,649	-162,038	0,051	-0,002
-621,634	-72,076	-0,155	-0,042
-620,619	-200,000	0,013	-0,188
-619,605	-118,938	0,113	-0,015
-618,590	315,765	-0,019	-0,027
-617,576	-200,000	-0,009	0,101
-616,561	-52,507	0,083	0,028
-615,546	184,138	0,085	0,093
-614,532	-200,000	-0,017	-0,166
-613,517	-200,000	0,008	0,045
-612,503	800,000	0,016	0,045
-611,488	-200,000	0,007	0,141
-610,474	-168,481	-0,118	-0,003
-609,459	-200,000	-0,011	0,067
-608,444	800,000	0,045	-0,098
-607,430	100,387	-0,023	-0,020
-606,415	-80,103	0,099	0,024
-605,401	149,452	-0,060	0,060
-604,386	242,542	0,106	0,132
-603,371	623,229	-0,046	0,086
-602,357	-200,000	0,008	0,027
-601,342	460,400	-0,065	-0,108
-600,328	-200,000	0,017	-0,072
-599,313	-96,422	0,043	0,008
-598,298	800,000	0,022	0,048
-597,284	-200,000	0,015	-0,161
-596,269	85,273	0,099	-0,080
-595,255	800,000	-0,028	-0,058
-594,240	78,579	0,084	0,066
-593,225	118,759	-0,159	-0,145
-592,211	-18,468	-0,030	-0,014
-591,196	298,319	0,074	0,100
-590,182	800,000	-0,054	0,159
-589,167	110,438	0,163	0,145
-588,152	-84,263	0,080	0,019
-587,138	-200,000	-0,023	-0,082
-586,123	-200,000	0,001	-0,134
-585,109	133,977	-0,062	-0,060
-584,094	66,824	0,067	0,050
-583,079	307,154	-0,025	0,034
-582,065	-94,252	-0,077	0,015
-581,050	-58,273	-0,095	-0,031
-580,036	24,652	-0,025	0,015
-579,021	800,000	-0,032	-0,066
-578,006	-200,000	-0,025	-0,097
-576,992	-200,000	0,002	0,028
-575,977	-172,459	-0,100	-0,002
-574,963	15,994	0,062	-0,036
-573,948	-72,296	0,035	0,010
-572,934	-54,876	-0,068	0,023
-571,919	-54,627	-0,100	-0,033
-570,904	-98,902	0,024	-0,004
-569,890	800,000	0,022	-0,064
-568,875	-16,429	0,081	-0,038
-567,861	302,373	-0,069	0,094
-566,846	-200,000	-0,014	0,106
-565,831	-200,000	-0,003	0,028
-564,817	-15,857	-0,079	-0,037
-563,802	800,000	-0,040	0,114
-562,788	-200,000	-0,005	-0,119
-561,773	93,385	0,077	0,064
-560,758	208,895	0,098	0,113
-559,744	9,911	-0,028	-0,016
-558,729	-18,759	-0,071	0,033
-557,715	-36,999	-0,082	-0,032
-556,700	107,885	-0,104	-0,092
-555,685	-108,512	0,173	-0,027
-554,671	800,000	0,015	0,047
-553,656	204,198	-0,034	-0,038
-552,642	77,141	-0,070	0,055
-551,627	-200,000	-0,000	0,018
-550,612	-152,766	-0,053	0,003
-549,598	515,288	-0,056	0,097
-548,583	778,500	0,053	-0,107
-547,569	-54,483	0,114	-0,038
-546,554	-145,706	0,072	0,005
-545,539	272,963	0,041	-0,054
-544,525	134,689	0,055	0,052
-543,510	800,000	-0,024	0,068
-542,496	99,447	-0,044	0,038
-541,481	800,000	-0,019	-0,057
-540,466	-200,000	-0,028	-0,123
-539,452	800,000	0,065	0,184
-538,437	192,643	0,043	0,048
-537,423	-200,000	0,036	0,164
-536,408	387,659	0,041	0,063
-535,393	-118,320	0,058	-0,007
-534,379	800,000	-0,024	0,060
-533,364	-200,000	-0,001	-0,009
-532,350	-200,000	0,015	0,086
-531,335	221,238	0,095	-0,112
-530,321	206,087	-0,026	0,029
-529,306	25,661	-0,128	-0,078
-528,291	-200,000	-0,003	-0,167
-527,277	-27,192	-0,175	-0,075
-526,262	48,426	0,039	-0,027
-525,248	-200,000	0,020	0,125
-524,233	-200,000	-0,001	0,126
-523,218	114,816	0,066	-0,059
-522,204	-200,000	-0,021	-0,118
-521,189	-200,000	0,008	-0,227
-520,175	-89,689	0,086	0,018
-519,160	-200,000	-0,038	-0,139
-518,145	64,316	0,061	0,045
-517,131	374,239	0,063	0,094
-516,116	176,130	0,026	-0,027
-515,102	178,275	-0,113	-0,121
-514,087	767,152	-0,024	-0,049
-513,072	388,883	-0,032	-0,049
-512,058	195,312	0,020	0,023
-511,043	-117,141	0,033	-0,004
-510,029	45,378	0,134	0,091
-509,014	-38,322	0,113	0,044
-507,999	-200,000	0,027	0,126
-506,985	236,204	-0,055	0,067
-505,970	662,419	-0,071	0,136
-504,956	754,202	-0,017	-0,034
-503,941	30,761	-0,125	-0,079
-502,926	489,104	0,063	0,106
-501,912	-191,143	-0,021	0,000
-500,897	290,461	-0,029	-0,040
-499,883	-107,408	-0,142	0,023
-498,868	-83,036	-0,084	-0,020
-497,853	-1,298	0,054	-0,028
-496,839	-200,000	0,021	-0,112
-495,824	-200,000	0,031	-0,125
-494,810	-200,000	-0,005	-0,111
-493,795	-83,532	0,165	-0,039
-492,781	630,579	-0,049	0,091
-491,766	310,187	-0,029	-0,040
-490,751	75,330	-0,037	-0,029
-489,737	93,742	0,076	-0,063
-488,722	-21,980	0,059	-0,026
-487,708	-200,000	0,009	0,084
-486,693	78,362	0,064	-0,050
-485,678	-52,926	0,057	0,019
-484,664	87,735	0,035	0,029
-483,649	-185,190	0,083	-0,001
-482,635	-200,000	-0,169	-0,000
-481,620	-200,000	-0,029	0,120
-480,605	-200,000	-0,009	0,094
-479,591	204,244	-0,036	0,041
-478,576	800,000	0,042	-0,129
-477,562	298,741	0,010	-0,014
-476,547	-53,056	-0,054	0,018
-475,532	334,138	-0,064	0,091
-474,518	-178,776	-0,058	0,001
-473,503	-200,000	-0,002	0,090
-472,489	194,108	-0,093	0,104
-471,474	38,930	0,055	0,036
-470,459	226,158	-0,112	0,133
-469,445	-200,000	0,005	-0,047
-468,430	210,413	0,068	-0,079
-467,416	-89,708	-0,036	0,008
-466,401	-165,857	0,025	-0,001
-465,386	59,141	0,093	0,067
-464,372	716,113	-0,063	-0,123
-463,357	450,997	-0,049	0,079
-462,343	124,769	-0,081	0,075
-461,328	117,197	-0,042	0,038
-460,313	-128,476	-0,024	-0,003
-459,299	169,623	0,085	0,090
-458,284	800,000	-0,044	-0,117
-457,270	113,641	0,077	0,069
-456,255	349,861	0,052	-0,075
-455,241	490,942	-0,070	-0,118
-454,226	-129,635	-0,117	-0,012
-453,211	-200,000	0,005	-0,092
-452,197	-62,564	-0,037	0,011
-451,182	-56,443	-0,127	0,041
-450,168	-200,000	0,009	0,100
-449,153	158,365	-0,075	-0,077
-448,138	800,000	-0,048	-0,110
-447,124	-97,377	-0,069	-0,013
-446,109	392,963	-0,028	0,043
-445,095	115,729	0,089	0,080
-444,080	157,899	0,078	0,080
-443,065	800,000	0,030	0,081
-442,051	-200,000	0,022	-0,169
-441,036	-138,788	-0,073	0,006
-440,022	11,248	0,034	-0,019
-439,007	-200,000	0,036	-0,173
-437,992	33,302	-0,099	-0,063
-436,978	-200,000	0,004	-0,026
-435,963	-200,000	0,002	-0,023
-434,949	-182,428	-0,232	0,003
-433,934	-35,602	0,025	-0,010
-432,919	44,930	-0,099	-0,067
-431,905	-105,053	-0,073	-0,012
-430,890	-67,318	0,020	0,006
-429,876	-116,960	-0,090	0,012
-428,861	423,031	-0,029	0,046
-427,846	-14,909	-0,090	0,042
-426,832	-200,000	-0,014	-0,124
-425,817	-200,000	-0,008	-0,051
-424,803	-91,183	0,173	0,036
-423,788	63,996	-0,048	-0,036
-422,773	-88,766	0,162	-0,035
-421,759	-200,000	0,024	-0,141
-420,744	-59,848	0,129	-0,040
-419,730	800,000	0,061	-0,156
-418,715	-200,000	-0,003	0,047
-417,701	13,868	-0,036	-0,021
-416,686	365,745	-0,069	-0,102
-415,671	800,000	0,045	0,100
-414,657	276,052	-0,056	-0,073
-413,642	800,000	0,070	0,178
-412,628	127,194	-0,150	-0,140
-411,613	-200,000	-0,011	-0,121
-410,598	800,000	-0,044	-0,105
-409,584	-128,810	0,091	-0,009
-408,569	1,564	-0,047	-0,025
-407,555	151,050	0,013	0,013
-406,540	254,261	-0,082	0,103
-405,525	-131,060	-0,028	0,003
-404,511	-200,000	0,009	-0,100
-403,496	800,000	0,031	-0,090
-402,482	295,543	-0,037	-0,050
-401,467	207,690	-0,022	-0,025
-400,452	-200,000	-0,014	-0,188
-399,438	-32,072	0,177	-0,072
-398,423	628,361	-0,009	0,016
-397,409	-108,244	0,120	-0,019
-396,394	-91,943	0,023	0,005
-395,379	47,075	0,130	-0,088
-394,365	277,614	0,074	0,097
-393,350	-81,807	-0,088	0,021
-392,336	-200,000	-0,004	0,105
-391,321	-88,390	0,102	0,022
-390,306	800,000	-0,038	-0,078
-389,292	36,484	-0,113	-0,073
-388,277	-200,000	0,025	0,096
-387,263	-179,299	-0,060	0,001
-386,248	269,322	0,054	0,069
-385,233	800,000	-0,033	0,088
-384,219	800,000	0,045	0,123
-383,204	-85,894	-0,118	0,027
-382,190	-85,741	-0,105	0,024
-381,175	-50,791	0,101	-0,034
-380,160	-37,772	-0,110	0,043
-379,146	-60,238	0,170	0,053
-378,131	800,000	0,047	0,119
-377,117	218,408	0,056	0,066
-376,102	-3,615	-0,062	-0,031
-375,088	-130,382	0,078	-0,008
-374,073	-80,962	0,064	-0,015
-373,058	-146,124	0,082	-0,005
-372,044	-25,226	0,071	-0,031
-371,029	800,000	0,038	0,104
-370,015	-55,089	-0,076	-0,025
-369,000	-15,171	0,111	0,052
-367,985	-43,366	-0,024	0,009
-366,971	175,229	-0,066	-0,070
-365,956	-9,698	0,034	-0,016
-364,942	21,205	0,019	-0,011
-363,927	305,771	0,124	0,170
-362,912	-141,377	0,110	0,008
-361,898	800,000	-0,037	0,116
-360,883	361,115	-0,067	-0,099
-359,869	183,029	0,073	0,079
-358,854	365,815	0,057	-0,084
-357,839	-72,874	-0,129	-0,034
-356,825	-75,126	0,025	0,007
-355,810	498,481	0,021	0,036
-354,796	-171,755	-0,102	-0,002
-353,781	55,154	0,065	-0,046
-352,766	-132,369	0,034	-0,003
-351,752	37,785	0,084	-0,054
-350,737	778,746	0,047	0,094
-349,723	43,707	0,102	-0,068
-348,708	-200,000	-0,017	-0,071
-347,693	173,457	0,051	0,053
-346,679	410,342	0,015	0,023
-345,664	-158,683	0,040	0,002
-344,650	32,944	0,090	-0,057
-343,635	349,217	-0,051	-0,073
-342,620	800,000	0,017	0,045
-341,606	59,950	0,082	-0,059
-340,591	160,596	0,048	0,049
-339,577	-49,724	-0,085	0,030
-338,562	-200,000	-0,040	-0,190
-337,548	-167,266	0,036	-0,001
-336,533	-111,631	0,062	-0,009
-335,518	347,639	-0,069	0,099
-334,504	-200,000	-0,005	0,063
-333,489	-10,397	-0,143	0,069
-332,475	43,407	-0,017	0,012
-331,460	-200,000	0,001	0,151
-330,445	-91,821	0,022	0,005
-329,431	63,347	0,040	-0,030
-328,416	-125,079	0,109	0,012
-327,402	-200,000	0,000	0,070
-326,387	131,969	-0,052	0,049
-325,372	-16,725	-0,031	-0,014
-324,358	-103,866	0,112	0,019
-323,343	-5,741	-0,113	0,057
-322,329	125,206	-0,022	-0,020
-321,314	800,000	0,049	0,119
-320,299	137,165	-0,095	0,091
-319,285	171,203	-0,048	-0,051
-318,270	-200,000	0,001	0,071
-317,256	-184,252	0,079	-0,001
-316,241	123,387	-0,061	-0,056
-315,226	-200,000	-0,006	-0,105
-314,212	151,119	0,064	-0,064
-313,197	-200,000	-0,011	0,098
-312,183	594,716	-0,071	0,129
-311,168	224,959	-0,032	-0,038
-310,153	-200,000	0,006	0,042
-309,139	316,372	-0,040	0,055
-308,124	92,167	-0,054	-0,045
-307,110	-200,000	0,005	0,023
-306,095	118,711	0,092	0,083
-305,080	172,675	-0,076	-0,080
-304,066	800,000	-0,027	0,083
-303,051	1,419	0,051	-0,027
-302,037	800,000	-0,043	0,134
-301,022	-31,848	-0,046	-0,019
-300,008	47,616	-0,056	0,038
-298,993	-33,745	-0,100	0,040
-297,978	56,347	0,058	-0,041
-296,964	800,000	0,043	0,132
-295,949	121,892	0,115	-0,105
-294,935	-185,812	0,118	-0,001
-293,920	419,056	-0,054	-0,085
-292,905	-200,000	0,020	-0,086
-291,891	53,237	-0,072	0,050
-290,876	-80,007	0,097	0,023
-289,862	800,000	-0,016	-0,039
-288,847	800,000	-0,056	-0,150
-287,832	169,134	-0,092	0,096
-286,818	-86,077	0,127	0,028
-285,803	162,800	-0,086	0,088
-284,789	-66,205	0,159	0,046
-283,774	-71,813	-0,186	-0,050
-282,759	148,453	0,123	-0,122
-281,745	-27,536	-0,051	0,022
-280,730	-24,147	-0,120	0,052
-279,716	-200,000	0,040	0,181
-278,701	240,070	-0,037	-0,045
-277,686	47,074	-0,077	-0,052
-276,672	772,191	-0,022	0,045
-275,657	-200,000	0,006	0,041
-274,643	144,289	-0,050	-0,049
-273,628	-200,000	0,004	-0,028
-272,613	-200,000	0,001	-0,041
-271,599	-200,000	-0,022	0,090
-270,584	-150,036	-0,024	0,001
-269,570	-200,000	0,017	0,057
-268,555	777,090	0,068	-0,137
-267,540	-28,185	-0,024	0,010
-266,526	800,000	0,038	-0,093
-265,511	-52,256	0,118	-0,040
-264,497	-200,000	0,001	-0,101
-263,482	800,000	0,021	-0,054
-262,467	60,587	0,039	-0,028
-261,453	22,207	0,111	-0,066
-260,438	-200,000	0,023	-0,103
-259,424	-80,248	-0,129	-0,031
-258,409	-75,692	0,095	0,024
-257,395	800,000	-0,043	0,111
-256,380	-145,485	0,093	0,006
-255,365	164,538	-0,010	0,010
-254,351	715,395	0,059	-0,115
-253,336	346,044	0,032	-0,046
-252,322	282,887	-0,066	0,087
-251,307	456,511	0,120	0,195
-250,292	105,613	-0,046	0,040
-249,278	8,671	0,125	0,069
-248,263	-193,967	0,102	-0,001
-247,249	307,404	-0,046	-0,063
-246,234	65,596	0,123	0,091
-245,219	-183,355	0,077	0,001
-244,205	-24,202	-0,039	-0,017
-243,190	194,427	-0,067	-0,074
-242,176	13,663	-0,060	-0,034
-241,161	271,711	0,044	-0,056
-240,146	800,000	0,032	-0,084
-239,132	127,213	0,075	0,070
-238,117	800,000	-0,016	0,033
-237,103	434,578	0,088	-0,139
-236,088	31,283	0,050	-0,031
-235,073	284,591	0,016	0,022
-234,059	125,503	0,054	0,050
-233,044	800,000	0,009	0,020
-232,030	313,381	-0,072	-0,099
-231,015	150,503	-0,088	-0,087
-230,000	-200,000	0,018	-0,101
-228,986	5,678	-0,072	0,039
-227,971	11,236	0,133	0,074
-226,957	-200,000	-0,032	0,106
-225,942	800,000	-0,020	0,059
-224,927	94,366	0,091	-0,075
-223,913	312,693	-0,011	0,016
-222,898	-155,837	-0,075	0,003
-221,884	800,000	-0,085	-0,208
-220,869	377,314	0,043	-0,064
-219,855	657,769	0,016	0,029
-218,840	-200,000	-0,001	0,013
-217,825	-8,901	-0,091	-0,044
-216,811	-44,642	-0,067	-0,024
-215,796	446,248	0,071	-0,115
-214,782	-200,000	-0,013	-0,149
-213,767	101,702	-0,037	0,031
-212,752	81,271	0,061	0,048
-211,738	364,037	-0,048	0,071
-210,723	-52,977	-0,080	0,027
-209,709	800,000	-0,044	-0,120
-208,694	-200,000	0,010	-0,083
-207,679	-86,500	-0,056	0,012
-206,665	565,692	0,051	0,091
-205,650	118,051	0,149	0,133
-204,636	800,000	0,028	0,069
-203,621	-9,168	0,046	-0,022
-202,606	800,000	-0,024	0,056
-201,592	-200,000	-0,004	-0,098
-200,577	-15,956	0,095	-0,044
-199,563	-200,000	0,010	-0,049
-198,548	-77,391	0,127	0,032
-197,533	-200,000	0,000	-0,077
-196,519	156,523	0,063	-0,063
-195,504	800,000	-0,037	0,084
-194,490	-37,021	0,071	0,028
-193,475	-135,338	0,055	0,005
-192,460	161,673	0,057	-0,058
-191,446	151,808	0,062	0,061
-190,431	-106,297	-0,056	-0,009
-189,417	-136,209	0,151	0,013
-188,402	-94,498	0,031	-0,006
-187,387	614,002	-0,018	-0,032
-186,373	-86,267	0,090	-0,020
-185,358	1,628	-0,018	0,010
-184,344	-200,000	-0,018	0,063
-183,329	800,000	0,030	-0,083
-182,315	505,556	-0,006	-0,011
-181,300	72,122	-0,165	-0,125
-180,285	-200,000	0,014	-0,072
-179,271	69,746	-0,035	-0,026
-178,256	176,414	-0,060	-0,064
-177,242	74,049	-0,110	0,084
-176,227	545,173	0,101	0,176
-175,212	-200,000	0,013	0,237
-174,198	-200,000	-0,007	0,130
-173,183	-200,000	0,004	-0,098
-172,169	-83,179	-0,213	0,049
-171,154	93,059	-0,075	-0,061
-170,139	-163,801	0,071	0,002
-169,125	-200,000	-0,008	0,061
-168,110	-167,722	0,068	0,002
-167,096	320,136	0,025	0,035
-166,081	41,648	-0,102	0,067
-165,066	100,432	-0,023	-0,020
-164,052	-200,000	0,002	0,116
-163,037	-17,382	-0,104	-0,047
-162,023	526,225	-0,054	-0,092
-161,008	800,000	0,072	0,161
-159,993	-200,000	0,022	0,098
-158,979	-55,600	-0,084	0,027
-157,964	-200,000	-0,008	-0,070
-156,950	-200,000	0,016	0,056
-155,935	174,544	0,015	-0,016
-154,920	133,340	0,031	-0,029
-153,906	-174,545	-0,044	-0,001
-152,891	-55,903	-0,114	0,037
-151,877	-200,000	0,005	-0,080
-150,862	106,998	-0,106	-0,091
-149,847	-56,242	0,099	0,032
-148,833	-200,000	0,004	0,014
-147,818	-79,031	0,067	-0,016
-146,804	503,436	0,036	0,060
-145,789	-200,000	0,021	0,081
-144,775	544,038	-0,031	-0,054
-143,760	800,000	0,038	-0,096
-142,745	-61,863	-0,110	-0,033
-141,731	230,018	0,070	0,083
-140,716	-200,000	-0,025	0,203
-139,702	192,257	0,058	-0,064
-138,687	-200,000	0,018	0,102
-137,672	-116,437	-0,102	-0,014
-136,658	-200,000	-0,008	-0,052
-135,643	467,501	-0,061	0,100
-134,629	33,938	0,062	0,039
-133,614	800,000	0,034	0,073
-132,599	-200,000	0,028	0,165
-131,585	-200,000	0,007	0,064
-130,570	4,674	-0,185	-0,098
-129,556	368,260	-0,076	-0,112
-128,541	306,095	-0,074	-0,100
-127,526	-177,191	0,068	-0,001
-126,512	-200,000	-0,008	0,029
-125,497	-200,000	-0,034	0,134
-124,483	-200,000	0,007	-0,133
-123,468	153,070	-0,036	0,035
-122,453	228,665	0,016	0,019
-121,439	-200,000	-0,003	0,100
-120,424	232,997	-0,091	0,109
-119,410	800,000	-0,007	0,020
-118,395	-123,454	0,109	-0,012
-117,380	-53,268	0,066	0,022
-116,366	-200,000	0,000	0,013
-115,351	800,000	-0,021	-0,060
-114,337	-78,644	0,084	-0,021
-113,322	-200,000	0,000	0,174
-112,307	800,000	-0,050	-0,117
-111,293	264,958	-0,085	0,108
-110,278	-200,000	0,015	0,104
-109,264	30,978	-0,077	-0,048
-108,249	-200,000	0,026	0,094
-107,234	-200,000	0,001	-0,075
-106,220	-73,761	-0,033	0,009
-105,205	53,691	0,084	0,058
-104,191	1,967	-0,082	-0,043
-103,176	-200,000	0,003	0,068
-102,162	4,953	0,050	-0,027
-101,147	-43,687	-0,101	-0,037
-100,132	202,233	-0,105	-0,117
-99,118	-200,000	-0,012	-0,055
-98,103	287,399	-0,075	0,099
-97,089	540,962	0,050	0,087
-96,074	456,027	-0,032	-0,051
-95,059	-147,368	0,187	0,011
-94,045	160,198	0,054	0,054
-93,030	-200,000	-0,035	0,119
-92,016	37,905	-0,044	-0,028
-91,001	-200,000	0,001	-0,019
-89,986	-200,000	0,007	-0,120
-88,972	170,128	0,047	-0,048
-87,957	800,000	-0,046	0,116
-86,943	-9,511	-0,125	0,060
-85,928	623,083	0,042	-0,077
-84,913	750,902	-0,098	-0,193
-83,899	-128,322	0,132	-0,013
-82,884	63,127	0,058	-0,042
-81,870	-9,768	-0,045	-0,022
-80,855	81,307	0,132	0,104
-79,840	-200,000	-0,010	-0,078
-78,826	161,767	0,052	-0,053
-77,811	53,218	0,026	0,018
-76,797	5,916	-0,088	0,047
-75,782	-200,000	0,006	0,088
-74,767	-200,000	-0,014	0,104
-73,753	-3,337	0,145	-0,073
-72,738	305,064	-0,038	-0,052
-71,724	-24,124	-0,051	-0,022
-70,709	20,598	-0,077	-0,045
-69,694	286,240	-0,057	0,074
-68,680	-129,303	-0,138	0,014
-67,665	50,716	0,050	0,034
-66,651	416,594	-0,047	0,072
-65,636	-200,000	-0,003	-0,107
-64,622	39,189	-0,092	-0,060
-63,607	201,979	-0,072	-0,080
-62,592	-22,355	-0,075	0,033
-61,578	-9,367	-0,069	0,033
-60,563	800,000	0,028	-0,065
-59,549	-112,066	-0,094	-0,014
-58,534	-26,718	-1,788	-0,754
-57,519	800,000	-0,391	-1,096
-56,505	-200,000	-1,056	-4,722
-55,490	-81,612	0,721	0,170
-54,476	800,000	5,249	12,149
-53,461	-200,000	16,575	271,620
-52,446	800,000	709,943	2222,594
-51,432	566,604	1621,242	2858,695
-50,417	117,616	1618,667	1441,549
-49,403	81,121	1280,182	999,478
-48,388	35,414	1027,189	650,860
-47,373	21,069	989,882	579,625
-46,359	19,897	978,347	568,974
-45,344	17,904	973,996	559,854
-44,330	18,094	972,794	559,767
-43,315	17,736	971,153	557,623
-42,300	17,708	970,016	556,857
-41,286	17,593	969,184	555,977
-40,271	17,669	968,236	555,663
-39,257	17,672	967,181	555,043
-38,242	17,643	966,379	554,466
-37,227	17,625	965,837	554,075
-36,213	17,672	964,769	553,594
-35,198	17,610	963,924	552,885
-34,184	17,624	963,152	552,467
-33,169	17,606	962,344	551,922
-32,154	17,679	961,427	551,611
-31,140	17,685	960,449	551,048
-30,125	17,756	959,632	550,789
-29,111	17,676	958,865	550,066
-28,096	17,690	958,259	549,741
-27,082	17,637	957,644	549,197
-26,067	17,627	956,612	548,550
-25,052	17,625	956,312	548,348
-24,038	17,645	955,429	547,885
-23,023	17,569	954,858	547,291
-22,009	17,692	954,104	547,233
-20,994	17,628	953,311	546,552
-19,979	17,657	952,706	546,274
-18,965	17,646	952,036	545,835
-17,950	17,627	951,356	545,363
-16,936	17,596	950,677	544,851
-15,921	17,583	950,037	544,421
-14,906	17,554	949,409	543,946
-13,892	17,480	948,746	543,306
-12,877	17,509	948,123	543,022
-11,863	17,435	947,582	542,453
-10,848	17,519	946,918	542,321
-9,833	17,604	946,376	542,262
-8,819	17,540	945,919	541,775
-7,804	17,534	945,226	541,335
-6,790	17,503	944,657	540,888
-5,775	17,619	943,991	540,857
-4,760	17,572	943,443	540,372
-3,746	17,531	942,803	539,851
-2,731	17,393	942,068	538,970
-1,717	17,340	941,282	538,329
-0,702	17,363	940,704	538,051
0,313	17,207	939,860	537,884
1,327	20,365	938,454	547,058
2,342	29,900	794,875	488,789
3,356	26,340	447,989	270,113
4,371	-4,917	294,842	146,378
5,386	-8,968	276,306	133,305
6,400	-10,320	270,498	129,229
7,415	-10,828	268,264	127,679
8,429	-10,377	266,976	127,471
9,444	-10,151	266,135	127,266
10,459	-10,147	265,684	127,042
11,473	-10,024	264,826	126,732
12,488	-10,307	264,526	126,320
13,502	-10,406	264,052	125,992
14,517	-9,860	263,705	126,312
15,531	-9,581	263,425	126,420
16,546	-9,423	263,088	126,390
17,561	-9,301	262,583	126,247
18,575	-9,293	262,258	126,087
19,590	-9,540	262,078	125,766
20,604	-9,507	261,857	125,678
21,619	-9,392	261,457	125,579
22,634	-9,403	261,043	125,359
23,648	-9,437	260,837	125,218
24,663	-9,333	260,528	125,152
25,677	-9,486	260,439	124,961
26,692	-9,447	260,181	124,861
27,707	-9,452	259,754	124,640
28,721	-9,679	259,608	124,356
29,736	-9,402	259,236	124,414
30,750	-9,452	259,047	124,267
31,765	-9,520	258,992	124,170
32,780	-9,600	258,568	123,884
33,794	-9,301	258,339	124,029
34,809	-9,433	258,196	123,832
35,823	-9,424	257,858	123,667
36,838	-9,342	257,636	123,623
37,853	-9,558	257,554	123,380
38,867	-9,618	257,199	123,146
39,882	-9,443	256,901	123,147
40,896	-9,393	256,635	123,053
41,911	-9,697	256,514	122,716
42,926	-9,429	256,237	122,808
43,940	-9,480	256,037	122,657
44,955	-9,471	255,714	122,499
45,969	-9,344	255,537	122,515
46,984	-9,667	255,461	122,184
47,999	-9,782	255,251	121,971
49,013	-9,654	254,903	121,907
50,028	-9,806	254,698	121,664
51,042	-9,786	254,632	121,640
52,057	-9,881	254,396	121,433
53,071	-9,861	254,126	121,310
54,086	-9,644	253,845	121,355
55,101	-9,828	253,603	121,068
56,115	-9,786	253,506	121,048
57,130	-9,646	253,375	121,096
58,144	-9,432	253,083	121,132
59,159	-9,442	252,716	120,937
60,174	-9,560	252,669	120,801
61,188	-9,590	252,330	120,602
62,203	-9,443	252,162	120,639
63,217	-9,336	251,936	120,613
64,232	-9,392	251,724	120,451
65,247	-9,613	251,658	120,218
66,261	-9,637	251,298	120,015
67,276	-9,723	251,181	119,874
68,290	-9,643	250,946	119,820
69,305	-9,858	250,698	119,506
70,320	-9,719	250,574	119,556
71,334	-9,472	250,287	119,620
72,349	-9,543	250,111	119,465
73,363	-9,585	249,923	119,328
74,378	-9,649	249,572	119,095
75,393	-9,646	249,685	119,141
76,407	-9,356	249,325	119,206
77,422	-9,512	249,086	118,948
78,436	-9,593	248,988	118,821
79,451	-9,532	248,552	118,655
80,466	-9,588	248,486	118,565
81,480	-9,702	248,335	118,386
82,495	-9,746	248,110	118,230
83,509	-9,434	247,848	118,360
84,524	-9,560	247,770	118,206
85,539	-9,490	247,420	118,087
86,553	-9,618	247,408	117,963
87,568	-9,559	247,137	117,873
88,582	-9,461	246,926	117,844
89,597	-9,634	246,649	117,555
90,611	-9,752	246,609	117,426
91,626	-9,787	246,433	117,303
92,641	-9,684	246,340	117,335
93,655	-9,564	246,106	117,314
94,670	-9,639	245,811	117,100
95,684	-9,512	245,602	117,096
96,699	-9,692	245,559	116,914
97,714	-9,751	245,310	116,735
98,728	-9,409	245,112	116,918
99,743	-9,605	244,962	116,671
100,757	-9,771	244,815	116,452
101,772	-9,792	244,442	116,247
102,787	-9,685	244,213	116,217
103,801	-9,390	244,162	116,428
104,816	-9,811	243,873	115,929
105,830	-9,741	243,745	115,917
106,845	-9,686	243,745	115,952
107,860	-9,727	243,459	115,772
108,874	-9,584	243,116	115,717
109,889	-9,738	242,889	115,471
110,903	-9,922	242,712	115,223
111,918	-9,908	242,728	115,232
112,933	-9,617	242,455	115,334
113,947	-9,567	242,251	115,268
114,962	-9,699	242,102	115,077
115,976	-9,697	242,014	115,027
116,991	-9,507	241,772	115,058
118,006	-9,727	241,653	114,810
119,020	-9,581	241,476	114,836
120,035	-9,639	241,275	114,683
121,049	-9,544	241,149	114,691
122,064	-9,686	241,067	114,525
123,079	-9,732	240,736	114,319
124,093	-9,625	240,683	114,372
125,108	-9,787	240,315	114,054
126,122	-9,505	240,182	114,212
127,137	-9,622	240,103	114,068
128,151	-9,727	239,757	113,808
129,166	-9,738	239,578	113,704
130,181	-9,814	239,444	113,568
131,195	-9,852	239,243	113,431
132,210	-9,721	238,920	113,375
133,224	-9,784	238,942	113,323
134,239	-9,609	238,482	113,238
135,254	-9,807	238,603	113,124
136,268	-9,857	238,352	112,954
137,283	-9,859	238,226	112,883
138,297	-9,844	238,045	112,800
139,312	-10,010	237,745	112,513
140,327	-9,940	237,544	112,464
141,341	-9,572	237,538	112,749
142,356	-9,594	237,288	112,602
143,370	-9,539	237,239	112,614
144,385	-9,421	237,059	112,614
145,400	-9,305	236,776	112,563
146,414	-9,278	236,682	112,530
147,429	-9,402	236,392	112,282
148,443	-9,387	236,222	112,204
149,458	-9,607	236,185	111,999
150,473	-9,432	236,088	112,084
151,487	-9,701	235,754	111,699
152,502	-9,521	235,539	111,732
153,516	-9,554	235,578	111,714
154,531	-9,391	235,240	111,674
155,546	-9,458	235,092	111,540
156,560	-9,658	234,973	111,314
157,575	-9,799	234,859	111,138
158,589	-9,673	234,511	111,063
159,604	-9,542	234,546	111,174
160,619	-9,124	234,431	111,444
161,633	-9,110	234,116	111,295
162,648	-9,411	234,034	111,006
163,662	-9,734	233,975	110,711
164,677	-9,447	233,588	110,747
165,692	-9,419	233,511	110,722
166,706	-9,432	233,506	110,699
167,721	-9,168	233,288	110,796
168,735	-9,328	233,142	110,590
169,750	-9,523	232,835	110,280
170,764	-9,578	232,679	110,153
171,779	-9,465	232,563	110,177
172,794	-9,538	232,445	110,054
173,808	-9,678	232,347	109,887
174,823	-9,773	231,905	109,593
175,837	-9,824	231,879	109,531
176,852	-9,686	231,801	109,593
177,867	-9,599	231,596	109,555
178,881	-9,468	231,290	109,504
179,896	-9,474	231,262	109,476
180,910	-9,347	231,002	109,443
181,925	-9,557	230,896	109,218
182,940	-9,472	230,573	109,122
183,954	-9,505	230,623	109,109
184,969	-9,576	230,706	109,084
185,983	-9,360	230,573	109,180
186,998	-9,322	230,360	109,100
188,013	-9,279	230,054	108,978
189,027	-9,419	229,973	108,821
190,042	-9,325	229,770	108,788
191,056	-9,391	229,588	108,642
192,071	-9,549	229,484	108,460
193,086	-9,711	229,081	108,133
194,100	-10,381	228,712	107,429
195,115	-11,512	227,997	106,208
196,129	-11,409	228,201	106,374
197,144	-6,780	229,615	110,629
198,159	-1,658	231,196	115,390
199,173	1,407	231,968	118,166
200,188	2,233	232,194	118,917
201,202	2,752	232,233	119,332
202,217	3,006	232,182	119,494
203,232	3,259	232,093	119,636
204,246	3,497	231,779	119,648
205,261	3,527	231,761	119,652
206,275	3,667	231,528	119,631
207,290	3,501	231,473	119,462
208,304	3,517	231,225	119,335
209,319	3,436	231,128	119,212
210,334	3,516	230,980	119,187
211,348	3,163	230,548	118,680
212,363	2,520	230,284	118,035
213,377	2,315	230,063	117,752
214,392	2,160	229,825	117,500
215,407	1,924	229,910	117,350
216,421	2,026	229,445	117,181
217,436	1,954	229,355	117,069
218,450	2,037	229,187	117,037
219,465	1,962	229,034	116,890
220,480	1,798	229,021	116,747
221,494	1,969	228,827	116,770
222,509	2,163	228,545	116,764
223,523	2,105	228,557	116,716
224,538	2,147	228,356	116,634
225,553	2,158	228,232	116,569
226,567	2,082	228,011	116,388
227,582	2,187	227,893	116,397
228,596	2,161	227,859	116,350
229,611	2,108	227,602	116,168
230,626	1,909	227,501	115,954
231,640	2,013	227,321	115,931
232,655	1,956	227,221	115,827
233,669	2,059	226,888	115,725
234,684	2,062	226,828	115,686
235,699	2,314	226,848	115,878
236,713	2,278	226,599	115,713
237,728	2,406	226,355	115,676
238,742	2,254	226,294	115,518
239,757	2,412	226,159	115,559
240,772	2,465	225,988	115,502
241,786	2,643	225,887	115,575
242,801	2,739	225,637	115,510
243,815	2,604	225,618	115,387
244,830	2,712	225,558	115,428
245,844	2,530	225,338	115,167
246,859	2,412	225,143	114,968
247,874	2,445	224,904	114,861
248,888	2,517	224,877	114,891
249,903	2,760	224,614	114,930
250,917	2,381	224,594	114,624
251,932	2,480	224,469	114,625
252,947	2,312	224,349	114,427
253,961	2,490	224,168	114,457
254,976	2,353	223,979	114,248
255,990	2,626	223,724	114,312
257,005	2,623	223,763	114,320
258,020	2,633	223,641	114,255
259,034	2,652	223,531	114,203
260,049	2,654	223,284	114,069
261,063	2,348	223,202	113,787
262,078	2,512	222,980	113,786
263,093	2,647	222,929	113,851
264,107	2,717	222,674	113,763
265,122	2,361	222,676	113,488
266,136	2,628	222,329	113,500
267,151	2,572	222,236	113,401
268,166	2,614	221,890	113,245
269,180	2,201	221,987	112,977
270,195	2,202	221,712	112,828
271,209	2,397	221,662	112,938
272,224	2,256	221,586	112,784
273,239	2,263	221,542	112,757
274,253	2,287	221,279	112,631
275,268	2,315	220,981	112,490
276,282	2,251	220,915	112,399
277,297	2,027	220,760	112,145
278,312	2,201	220,629	112,197
279,326	2,480	220,424	112,288
280,341	2,435	220,383	112,224
281,355	2,321	220,232	112,053
282,370	2,497	219,999	112,054
283,384	2,031	219,951	111,677
284,399	2,215	219,812	111,731
285,414	2,306	219,637	111,699
286,428	2,398	219,564	111,720
287,443	2,394	219,383	111,614
288,457	2,576	219,286	111,689
289,472	2,596	218,955	111,525
290,487	2,475	218,811	111,353
291,501	2,130	218,784	111,078
292,516	2,409	218,674	111,215
293,530	2,617	218,475	111,256
294,545	2,479	218,512	111,164
295,560	2,531	218,200	111,034
296,574	2,604	218,105	111,029
297,589	2,735	218,037	111,079
298,603	2,533	217,912	110,859
299,618	2,674	217,780	110,885
300,633	2,434	217,704	110,661
301,647	2,612	217,516	110,685
302,662	2,714	217,451	110,716
303,676	2,437	217,372	110,465
304,691	2,707	217,020	110,472
305,706	2,651	217,023	110,423
306,720	2,750	216,760	110,351
307,735	2,302	216,654	109,963
308,749	2,600	216,583	110,133
309,764	2,664	216,411	110,082
310,779	2,440	216,231	109,819
311,793	2,472	215,995	109,712
312,808	2,470	215,903	109,654
313,822	2,579	215,664	109,601
314,837	2,485	215,553	109,468
315,852	2,292	215,415	109,249
316,866	2,238	215,330	109,157
317,881	2,301	215,240	109,147
318,895	2,422	215,086	109,146
319,910	2,489	214,852	109,066
320,925	2,247	214,693	108,802
321,939	2,203	214,633	108,731
322,954	2,365	214,430	108,734
323,968	2,539	214,358	108,813
324,983	2,476	214,255	108,705
325,997	2,380	214,145	108,571
327,012	2,375	213,895	108,431
328,027	2,422	213,776	108,395
329,041	2,450	213,588	108,309
330,056	2,519	213,519	108,314
331,070	2,406	213,428	108,178
332,085	2,349	213,277	108,051
333,100	2,382	213,203	108,027
334,114	2,624	212,954	108,063
335,129	2,497	212,885	107,929
336,143	2,257	212,667	107,638
337,158	2,184	212,646	107,567
338,173	2,333	212,461	107,569
339,187	2,492	212,395	107,638
340,202	2,151	212,089	107,232
341,216	2,247	211,979	107,235
342,231	2,702	211,912	107,513
343,246	2,575	211,835	107,375
344,260	2,344	211,732	107,150
345,275	2,299	211,523	107,003
346,289	2,499	211,626	107,187
347,304	2,448	211,280	106,966
348,319	2,277	211,198	106,794
349,333	2,471	210,997	106,819
350,348	2,459	210,762	106,683
351,362	2,459	210,798	106,692
352,377	2,497	210,488	106,551
353,392	2,466	210,415	106,483
354,406	2,355	210,273	106,325
355,421	193,830	1342,141	1426,466
356,435	154,716	1480,071	1426,486
