DTS Sentinel unit serial number:	SN410029Multiplexer serial number:	ORYXHardware model number:	OX2-SRSoftware version number:	ORYX F/W v4,00 Oryx Data Collector v3.7.2.0data status	okinstallation	B6 Nyhavnadifferential loss correction	single-endedforward channel	channel 2reverse channel	N/Adate	2023/12/11time	08:55:08forward acquisition time	300,00reverse acquisition time	0,00gamma	499,1914k internal	0,3133k external	0,3133temperature offset calibration	1,0000default loss term (dB/km)	0,3820temperature slope calibration	1,0000multiplexer offset coefficient	1,0000multiplexer slope coefficient	1,0000fibre end	0,00T internal ref (°C)	17,29T ext. ref 1 (°C)	-0,38T ext. ref 2 (°C)	-0,38length (m)	temperature (°C)	Stokes	anti-Stokes-744,400	231,641	0,047	-0,057
-743,385	-69,062	-0,249	0,071
-742,371	-200,000	-0,001	-0,054
-741,356	-181,978	-0,293	-0,004
-740,342	128,453	0,089	0,084
-739,327	-175,754	-0,181	0,004
-738,312	-100,040	0,062	-0,011
-737,298	-87,563	-0,332	-0,074
-736,283	9,081	0,116	-0,065
-735,269	-136,369	-0,463	-0,039
-734,254	318,443	0,052	0,074
-733,239	-42,882	-0,314	-0,118
-732,225	-200,000	0,186	0,000
-731,210	-200,000	0,001	-0,060
-730,196	221,650	-0,091	-0,108
-729,181	-200,000	-0,014	-0,045
-728,167	-94,325	0,106	-0,021
-727,152	-200,000	0,013	0,111
-726,137	54,759	-0,036	-0,026
-725,123	42,504	-0,112	-0,076
-724,108	-12,292	-0,007	0,003
-723,094	-41,006	0,019	-0,007
-722,079	257,168	-0,079	-0,101
-721,064	-200,000	-0,002	-0,077
-720,050	-200,000	-0,001	-0,058
-719,035	173,460	0,037	-0,040
-718,021	210,257	-0,112	-0,131
-717,006	599,499	-0,075	0,139
-715,991	-200,000	-0,014	-0,165
-714,977	167,832	-0,028	0,029
-713,962	-200,000	0,015	0,064
-712,948	-12,753	0,141	0,068
-711,933	-40,962	-0,084	0,032
-710,918	-200,000	0,027	-0,153
-709,904	173,811	0,065	0,070
-708,889	164,820	-0,117	-0,123
-707,875	47,598	-0,147	-0,102
-706,860	190,421	0,152	-0,170
-705,845	-173,814	0,044	-0,001
-704,831	221,846	-0,061	-0,073
-703,816	78,150	0,016	0,012
-702,802	800,000	-0,028	0,070
-701,787	-200,000	0,003	-0,157
-700,772	748,208	-0,011	-0,023
-699,758	63,111	-0,043	-0,032
-698,743	-88,001	-0,115	-0,025
-697,729	-200,000	0,002	0,032
-696,714	-82,785	0,083	-0,020
-695,699	-200,000	-0,001	0,017
-694,685	446,969	0,012	0,020
-693,670	72,446	-0,130	-0,100
-692,656	-200,000	0,005	0,098
-691,641	800,000	0,054	-0,156
-690,627	195,554	0,079	-0,089
-689,612	-39,369	-0,174	0,067
-688,597	-91,991	-0,039	-0,008
-687,583	800,000	-0,051	-0,145
-686,568	791,453	0,020	-0,040
-685,554	800,000	-0,085	-0,227
-684,539	231,833	-0,102	0,125
-683,524	239,376	0,052	0,064
-682,510	-56,296	0,079	-0,026
-681,495	47,077	-0,027	0,019
-680,481	164,902	0,034	0,036
-679,466	-56,882	0,074	-0,024
-678,451	-107,667	-0,084	-0,014
-677,437	-41,723	0,057	0,022
-676,422	-134,378	0,168	0,015
-675,408	585,042	-0,114	-0,209
-674,393	-50,442	-0,129	-0,045
-673,378	327,828	-0,081	-0,116
-672,364	54,697	-0,056	0,040
-671,349	-80,518	0,013	0,003
-670,335	510,965	0,055	0,094
-669,320	-137,531	-0,055	0,005
-668,305	113,819	0,114	-0,103
-667,291	-62,727	-0,042	-0,013
-666,276	-200,000	0,021	-0,083
-665,262	519,977	-0,068	-0,119
-664,247	-22,734	-0,137	-0,061
-663,232	-200,000	0,013	0,084
-662,218	-59,278	0,118	-0,037
-661,203	-45,928	0,030	-0,011
-660,189	308,045	0,028	-0,038
-659,174	210,493	0,114	-0,133
-658,159	800,000	-0,031	-0,084
-657,145	612,671	0,030	-0,055
-656,130	20,505	0,073	0,044
-655,116	800,000	0,074	0,163
-654,101	428,866	-0,011	0,017
-653,086	-200,000	-0,054	-0,217
-652,072	122,390	-0,041	0,038
-651,057	116,807	-0,169	-0,154
-650,043	260,699	0,058	-0,075
-649,028	787,916	-0,047	0,096
-648,014	18,887	0,089	0,053
-646,999	-2,533	-0,087	0,045
-645,984	-95,303	0,062	0,012
-644,970	51,518	-0,110	-0,077
-643,955	-200,000	0,024	0,089
-642,941	95,128	-0,107	-0,091
-641,926	-155,849	0,048	0,002
-640,911	-36,040	-0,133	-0,053
-639,897	322,740	-0,032	-0,045
-638,882	-96,771	-0,153	0,030
-637,868	493,141	0,038	-0,064
-636,853	463,966	-0,003	-0,004
-635,838	-200,000	0,031	-0,223
-634,824	432,093	-0,066	-0,107
-633,809	295,189	0,022	0,030
-632,795	800,000	-0,053	0,123
-631,780	-134,575	-0,031	0,003
-630,765	-65,118	-0,145	0,043
-629,751	54,665	0,092	-0,065
-628,736	-68,755	-0,066	0,019
-627,722	800,000	0,020	-0,043
-626,707	-200,000	0,021	0,112
-625,692	252,730	-0,064	0,080
-624,678	35,228	0,032	-0,021
-623,663	165,164	-0,083	-0,087
-622,649	17,859	0,124	-0,073
-621,634	800,000	-0,062	-0,144
-620,619	-90,448	-0,068	-0,014
-619,605	-153,072	-0,032	-0,002
-618,590	207,871	-0,061	0,070
-617,576	198,452	0,073	-0,083
-616,561	121,165	-0,017	0,015
-615,546	-27,740	-0,088	-0,037
-614,532	145,276	0,051	-0,050
-613,517	-200,000	0,015	0,068
-612,503	800,000	0,026	0,068
-611,488	117,959	0,013	0,012
-610,474	-200,000	-0,024	-0,086
-609,459	248,039	-0,031	0,039
-608,444	800,000	-0,021	-0,045
-607,430	415,968	-0,054	-0,086
-606,415	800,000	0,052	0,114
-605,401	-156,779	-0,148	-0,007
-604,386	722,769	-0,020	-0,040
-603,371	800,000	0,023	-0,055
-602,357	533,529	-0,076	0,134
-601,342	-102,846	-0,113	-0,020
-600,328	-200,000	-0,016	0,156
-599,313	-30,727	-0,129	-0,054
-598,298	-200,000	-0,009	-0,072
-597,284	73,319	0,010	0,008
-596,269	187,971	0,044	-0,048
-595,255	-200,000	-0,003	-0,026
-594,240	162,207	-0,041	0,042
-593,225	34,123	-0,060	-0,039
-592,211	32,266	-0,044	0,028
-591,196	-200,000	0,002	0,039
-590,182	-200,000	-0,011	-0,081
-589,167	-34,625	-0,049	0,020
-588,152	-28,262	-0,057	-0,024
-587,138	-126,820	-0,096	0,010
-586,123	800,000	-0,051	-0,144
-585,109	363,538	0,093	-0,138
-584,094	167,914	-0,083	-0,087
-583,079	80,147	0,106	-0,084
-582,065	195,198	-0,111	0,125
-581,050	-200,000	-0,005	-0,023
-580,036	800,000	0,034	0,072
-579,021	237,982	0,049	-0,060
-578,006	111,542	-0,111	0,098
-576,992	-200,000	-0,046	0,157
-575,977	800,000	0,007	0,017
-574,963	-62,643	0,076	-0,023
-573,948	-153,897	-0,055	0,003
-572,934	721,169	-0,038	0,075
-571,919	305,759	-0,087	-0,119
-570,904	-39,352	-0,098	-0,038
-569,890	-107,720	0,037	-0,006
-568,875	84,743	0,114	-0,092
-567,861	672,161	-0,016	-0,030
-566,846	40,853	0,078	0,052
-565,831	272,797	-0,090	0,118
-564,817	714,768	-0,050	-0,099
-563,802	-200,000	0,001	0,027
-562,788	461,848	0,029	0,048
-561,773	631,755	0,036	0,068
-560,758	-115,206	0,096	-0,013
-559,744	-135,667	-0,013	-0,001
-558,729	57,125	-0,121	0,087
-557,715	800,000	0,013	0,040
-556,700	96,409	-0,186	-0,157
-555,685	-41,098	0,037	-0,014
-554,671	-78,765	0,139	-0,035
-553,656	-199,391	0,166	-0,001
-552,642	800,000	-0,068	0,142
-551,627	162,838	-0,050	0,052
-550,612	-5,785	-0,074	-0,037
-549,598	-200,000	-0,053	-0,207
-548,583	358,579	-0,090	-0,133
-547,569	800,000	-0,041	-0,098
-546,554	10,880	0,024	-0,014
-545,539	-27,723	0,068	-0,029
-544,525	366,902	0,162	0,241
-543,510	-200,000	-0,004	0,082
-542,496	800,000	-0,035	0,097
-541,481	-63,216	-0,080	0,024
-540,466	-79,419	-0,051	-0,013
-539,452	-26,279	0,129	-0,055
-538,437	403,808	0,038	0,059
-537,423	-10,546	0,067	0,032
-536,408	45,451	0,042	-0,028
-535,393	183,322	0,108	0,117
-534,379	80,373	0,071	0,057
-533,364	800,000	0,023	-0,052
-532,350	-104,602	0,090	0,015
-531,335	-2,619	0,081	0,042
-530,321	66,316	-0,079	0,059
-529,306	-14,281	-0,038	-0,018
-528,291	-66,923	0,050	0,015
-527,277	-42,143	-0,107	0,040
-526,262	800,000	-0,038	-0,084
-525,248	-200,000	-0,022	0,089
-524,233	-200,000	-0,008	0,184
-523,218	-200,000	0,045	0,188
-522,204	-72,768	-0,079	0,021
-521,189	-21,395	-0,077	0,034
-520,175	80,052	-0,143	0,113
-519,160	125,919	-0,011	0,011
-518,145	-200,000	0,010	-0,092
-517,131	-200,000	0,029	-0,147
-516,116	-200,000	-0,012	0,113
-515,102	-200,000	-0,011	0,068
-514,087	-64,704	-0,077	-0,023
-513,072	-200,000	-0,006	-0,028
-512,058	265,637	0,065	-0,083
-511,043	-134,664	-0,013	-0,001
-510,029	691,113	0,038	0,073
-509,014	332,234	0,028	-0,040
-507,999	99,931	-0,031	-0,027
-506,985	-46,369	0,052	-0,019
-505,970	-200,000	0,010	-0,101
-504,956	548,438	-0,031	0,055
-503,941	-200,000	-0,006	-0,028
-502,926	2,310	0,134	-0,071
-501,912	-13,391	-0,079	0,038
-500,897	-200,000	-0,040	0,129
-499,883	-200,000	-0,042	-0,151
-498,868	158,380	0,117	0,120
-497,853	647,073	-0,047	-0,088
-496,839	111,520	-0,053	0,047
-495,824	321,297	0,108	0,151
-494,810	800,000	0,033	0,096
-493,795	36,561	-0,081	-0,052
-492,781	420,742	0,043	0,068
-491,766	9,079	0,023	-0,013
-490,751	33,104	-0,044	-0,028
-489,737	533,400	0,078	-0,136
-488,722	739,125	-0,029	-0,057
-487,708	299,809	0,095	0,129
-486,693	104,027	0,047	-0,040
-485,678	272,626	-0,207	0,269
-484,664	800,000	-0,024	0,065
-483,649	10,474	0,035	-0,019
-482,635	-157,948	0,007	-0,000
-481,620	-7,778	-0,105	0,052
-480,605	-55,447	0,204	-0,067
-479,591	315,432	0,032	0,045
-478,576	-64,411	-0,159	0,047
-477,562	-33,251	0,070	-0,028
-476,547	-64,259	-0,085	-0,025
-475,532	-200,000	-0,016	-0,108
-474,518	-200,000	-0,010	-0,140
-473,503	-133,825	-0,179	-0,016
-472,489	-82,961	0,079	-0,019
-471,474	19,311	-0,069	0,040
-470,459	-5,441	0,057	0,029
-469,445	-164,579	-0,130	-0,004
-468,430	93,625	-0,049	-0,041
-467,416	728,017	0,011	0,022
-466,401	205,842	0,066	0,075
-465,386	-200,000	0,038	-0,136
-464,372	-200,000	0,026	0,097
-463,357	45,999	0,027	0,019
-462,343	-200,000	-0,019	0,150
-461,328	-200,000	0,006	0,031
-460,313	0,199	0,051	0,026
-459,299	-200,000	-0,006	0,083
-458,284	-200,000	0,006	-0,053
-457,270	250,192	-0,166	0,207
-456,255	477,991	-0,023	-0,039
-455,241	34,057	0,033	-0,021
-454,226	-83,422	-0,198	-0,046
-453,211	-200,000	0,016	0,087
-452,197	-76,300	0,093	-0,024
-451,182	13,283	0,179	0,102
-450,168	-200,000	0,025	0,109
-449,153	297,113	0,037	0,051
-448,138	-200,000	-0,011	-0,039
-447,124	-162,818	-0,225	-0,008
-446,109	-200,000	-0,000	-0,137
-445,095	-28,992	0,051	-0,021
-444,080	50,919	0,075	-0,052
-443,065	-200,000	-0,028	0,178
-442,051	-200,000	-0,001	-0,031
-441,036	34,721	-0,099	-0,063
-440,022	-33,918	-0,034	-0,014
-439,007	-34,754	0,045	0,018
-437,992	71,328	0,065	0,050
-436,978	-89,037	-0,053	0,012
-435,963	347,538	0,020	-0,030
-434,949	88,784	0,059	0,048
-433,934	800,000	-0,086	-0,221
-432,919	493,490	0,062	-0,104
-431,905	-151,296	-0,116	-0,006
-430,890	-91,021	0,007	-0,001
-429,876	-200,000	-0,019	0,068
-428,861	402,335	0,095	0,147
-427,846	800,000	0,037	0,079
-426,832	244,846	-0,013	-0,016
-425,817	-200,000	-0,008	-0,086
-424,803	63,269	-0,105	-0,077
-423,788	110,844	0,117	-0,103
-422,773	-124,089	0,149	0,017
-421,759	-80,645	0,047	0,011
-420,744	-200,000	-0,013	0,042
-419,730	-121,169	-0,138	0,017
-418,715	-152,772	0,066	-0,003
-417,701	74,087	0,096	-0,074
-416,686	138,548	0,083	0,080
-415,671	155,266	-0,018	0,018
-414,657	24,534	0,039	0,024
-413,642	130,528	-0,089	0,084
-412,628	196,518	0,072	-0,081
-411,613	800,000	-0,022	-0,068
-410,598	-200,000	0,010	0,068
-409,584	-146,588	0,052	0,003
-408,569	496,630	0,088	0,149
-407,555	483,430	-0,048	-0,081
-406,540	574,476	0,048	-0,086
-405,525	699,425	0,028	-0,054
-404,511	42,407	-0,044	-0,029
-403,496	-61,113	-0,045	-0,014
-402,482	-200,000	-0,015	-0,055
-401,467	-200,000	0,002	0,025
-400,452	800,000	0,038	0,082
-399,438	-98,409	-0,223	-0,041
-398,423	253,438	0,072	-0,090
-397,409	221,880	-0,059	-0,069
-396,394	-129,257	-0,115	0,012
-395,379	284,551	-0,091	-0,120
-394,365	800,000	0,012	-0,027
-393,350	-160,999	-0,041	0,002
-392,336	102,609	0,051	0,043
-391,321	-200,000	-0,002	-0,124
-390,306	-188,442	-0,077	-0,001
-389,292	67,580	-0,041	-0,031
-388,277	70,604	0,059	-0,045
-387,263	58,089	-0,061	0,044
-386,248	-200,000	-0,015	0,077
-385,233	120,717	-0,049	-0,045
-384,219	-68,734	0,072	-0,020
-383,204	-200,000	-0,001	-0,035
-382,190	-36,576	-0,081	-0,032
-381,175	72,583	0,050	0,038
-380,160	-10,277	0,043	0,021
-379,146	-2,252	0,124	0,063
-378,131	4,411	-0,029	0,016
-377,117	-33,439	-0,126	-0,051
-376,102	288,690	-0,041	0,054
-375,088	-200,000	-0,017	-0,074
-374,073	358,739	-0,039	0,057
-373,058	-77,410	0,096	-0,024
-372,044	-200,000	0,021	0,087
-371,029	-64,601	-0,070	0,021
-370,015	-134,749	-0,083	0,007
-369,000	800,000	-0,025	-0,056
-367,985	298,234	0,035	-0,048
-366,971	-200,000	0,001	0,028
-365,956	422,721	0,052	-0,082
-364,942	202,512	-0,038	0,043
-363,927	-146,405	0,161	0,010
-362,912	800,000	-0,015	-0,046
-361,898	-169,136	0,059	0,002
-360,883	-92,889	0,072	0,014
-359,869	800,000	-0,042	0,120
-358,854	-113,649	0,072	-0,010
-357,839	221,904	-0,011	0,013
-356,825	-200,000	0,003	-0,009
-355,810	256,547	0,039	-0,050
-354,796	-11,479	0,069	0,033
-353,781	800,000	0,014	0,029
-352,766	-35,044	-0,209	0,083
-351,752	33,567	0,086	-0,054
-350,737	218,490	0,041	0,048
-349,723	311,966	0,112	0,154
-348,708	-85,406	0,076	0,017
-347,693	-200,000	-0,003	0,012
-346,679	422,954	-0,025	0,040
-345,664	263,884	0,094	-0,120
-344,650	-26,485	0,139	0,059
-343,635	84,333	-0,094	-0,075
-342,620	494,116	-0,076	-0,128
-341,606	280,618	0,029	0,039
-340,591	-200,000	-0,005	-0,036
-339,577	-53,622	-0,076	-0,025
-338,562	-113,257	-0,049	0,007
-337,548	-200,000	0,004	-0,172
-336,533	113,341	-0,100	-0,088
-335,518	-200,000	0,005	-0,137
-334,504	425,423	-0,066	0,104
-333,489	-105,484	-0,154	0,025
-332,475	-200,000	-0,006	0,091
-331,460	-7,330	-0,083	0,041
-330,445	-200,000	0,002	0,046
-329,431	800,000	-0,039	0,095
-328,416	333,302	0,027	0,038
-327,402	215,155	-0,057	0,066
-326,387	-154,841	0,142	0,007
-325,372	-10,823	0,033	0,016
-324,358	-69,956	-0,068	0,019
-323,343	242,726	0,019	0,023
-322,329	308,069	-0,036	0,049
-321,314	58,342	0,014	-0,010
-320,299	159,100	0,050	0,051
-319,285	371,349	0,087	-0,130
-318,270	652,791	-0,025	-0,047
-317,256	800,000	0,062	0,168
-316,241	-200,000	-0,007	-0,165
-315,226	-54,102	0,141	-0,047
-314,212	470,058	0,074	0,122
-313,197	-200,000	0,000	0,023
-312,183	800,000	-0,010	0,029
-311,168	-54,576	-0,078	-0,026
-310,153	228,025	0,042	-0,050
-309,139	115,603	0,024	0,022
-308,124	800,000	0,037	0,104
-307,110	667,019	0,078	-0,149
-306,095	-117,190	-0,077	0,010
-305,080	-200,000	0,039	0,150
-304,066	-28,471	0,267	-0,112
-303,051	521,039	0,024	-0,042
-302,037	137,473	-0,029	-0,028
-301,022	-105,033	-0,082	-0,014
-300,008	-132,044	0,223	-0,021
-298,993	23,559	0,026	-0,016
-297,978	-112,156	0,023	0,003
-296,964	174,076	-0,022	0,023
-295,949	-200,000	0,022	-0,157
-294,935	800,000	-0,015	-0,044
-293,920	74,260	0,036	-0,028
-292,905	-200,000	-0,025	-0,211
-291,891	552,962	0,031	0,054
-290,876	683,865	-0,016	-0,031
-289,862	113,010	0,032	-0,028
-288,847	-133,209	0,105	-0,010
-287,832	-200,000	-0,001	-0,028
-286,818	-200,000	0,020	0,070
-285,803	-88,911	0,137	-0,029
-284,789	-200,000	-0,028	0,244
-283,774	-0,132	-0,043	0,022
-282,759	211,839	-0,011	-0,012
-281,745	-200,000	-0,020	-0,249
-280,730	135,489	-0,088	-0,083
-279,716	-200,000	-0,002	-0,078
-278,701	-103,338	0,118	-0,020
-277,686	26,230	0,114	0,069
-276,672	-9,098	-0,089	-0,043
-275,657	-200,000	0,001	-0,139
-274,643	-94,121	0,065	0,013
-273,628	290,825	0,013	-0,018
-272,613	-22,352	0,105	-0,046
-271,599	541,098	-0,019	0,033
-270,584	460,061	0,049	0,080
-269,570	-135,736	0,052	0,004
-268,555	-200,000	-0,004	-0,180
-267,540	99,903	0,027	0,023
-266,526	747,022	0,043	-0,084
-265,511	-200,000	-0,005	-0,019
-264,497	-200,000	-0,020	-0,070
-263,482	77,930	-0,147	0,114
-262,467	16,786	0,061	-0,035
-261,453	-100,002	-0,061	0,011
-260,438	-200,000	0,036	-0,161
-259,424	800,000	-0,008	-0,019
-258,409	-16,217	-0,017	0,008
-257,395	800,000	-0,056	0,161
-256,380	81,023	-0,104	0,082
-255,365	395,591	0,044	-0,068
-254,351	347,588	0,051	0,073
-253,336	-200,000	0,018	-0,100
-252,322	243,500	-0,071	-0,087
-251,307	-200,000	0,005	0,064
-250,292	-5,834	0,029	0,014
-249,278	678,243	0,048	0,091
-248,263	-2,192	0,043	-0,022
-247,249	-200,000	-0,003	0,055
-246,234	194,304	0,032	-0,036
-245,219	-200,000	0,000	0,002
-244,205	589,105	-0,010	0,019
-243,190	800,000	0,031	-0,081
-242,176	447,318	0,017	0,027
-241,161	-150,448	0,055	0,003
-240,146	-121,286	-0,095	0,011
-239,132	221,902	0,060	0,070
-238,117	187,320	-0,049	-0,054
-237,103	-89,744	0,091	-0,019
-236,088	144,889	-0,049	0,047
-235,073	-1,150	-0,024	-0,012
-234,059	-158,878	0,102	0,004
-233,044	176,221	0,071	0,075
-232,030	159,226	-0,083	0,084
-231,015	-62,858	0,036	-0,011
-230,000	800,000	0,009	0,021
-228,986	800,000	-0,035	-0,072
-227,971	800,000	0,028	0,063
-226,957	448,195	0,076	0,123
-225,942	-98,175	0,067	0,012
-224,927	191,787	0,066	-0,073
-223,913	-200,000	0,019	-0,110
-222,898	127,118	0,055	-0,051
-221,884	800,000	-0,021	0,043
-220,869	35,371	0,057	0,036
-219,855	236,991	0,016	-0,019
-218,840	661,233	0,070	0,132
-217,825	-111,718	-0,109	0,016
-216,811	-43,936	-0,208	-0,076
-215,796	-200,000	-0,008	-0,144
-214,782	-69,626	0,114	0,032
-213,767	37,315	0,112	-0,072
-212,752	18,646	-0,157	0,091
-211,738	173,136	0,024	0,025
-210,723	267,633	0,062	0,079
-209,709	136,954	-0,021	0,020
-208,694	723,960	0,045	-0,088
-207,679	-200,000	0,003	-0,028
-206,665	448,901	0,090	0,144
-205,650	-200,000	0,004	0,082
-204,636	-200,000	0,017	0,096
-203,621	-22,475	-0,072	0,031
-202,606	543,181	-0,054	-0,094
-201,592	-193,759	-0,097	-0,001
-200,577	-87,885	0,093	-0,020
-199,563	-12,106	0,024	0,012
-198,548	-200,000	-0,018	0,062
-197,533	-129,762	0,109	0,011
-196,519	153,757	-0,092	0,091
-195,504	800,000	0,033	0,072
-194,490	652,472	-0,049	-0,091
-193,475	119,182	-0,051	0,046
-192,460	47,517	0,042	0,028
-191,446	122,400	0,047	-0,042
-190,431	362,665	0,054	0,079
-189,417	-200,000	-0,010	-0,096
-188,402	-200,000	0,004	-0,060
-187,387	41,022	0,027	0,018
-186,373	-69,339	-0,022	0,006
-185,358	192,359	0,055	-0,061
-184,344	179,448	0,075	-0,080
-183,329	-200,000	-0,003	0,047
-182,315	94,642	0,102	0,084
-181,300	513,184	-0,037	0,062
-180,285	-200,000	-0,015	-0,176
-179,271	-21,025	-0,086	-0,038
-178,256	-54,557	0,084	0,027
-177,242	-200,000	0,030	0,123
-176,227	362,120	0,093	0,136
-175,212	120,272	-0,060	-0,055
-174,198	-77,238	-0,066	-0,016
-173,183	-147,443	0,021	0,001
-172,169	265,947	-0,044	-0,056
-171,154	-200,000	-0,001	-0,044
-170,139	-200,000	-0,004	-0,024
-169,125	800,000	-0,023	-0,049
-168,110	37,205	0,092	-0,059
-167,096	800,000	-0,030	0,069
-166,081	-55,351	-0,070	0,023
-165,066	201,771	0,053	-0,060
-164,052	104,371	-0,078	-0,067
-163,037	800,000	0,038	-0,120
-162,023	-80,177	0,141	0,034
-161,008	-200,000	-0,016	0,095
-159,993	-200,000	-0,014	0,083
-158,979	800,000	0,047	-0,139
-157,964	266,102	-0,081	-0,103
-156,950	800,000	-0,016	0,045
-155,935	-136,175	0,089	0,007
-154,920	800,000	-0,033	0,103
-153,906	-47,601	0,098	-0,034
-152,891	800,000	-0,031	0,078
-151,877	-200,000	0,014	-0,115
-150,862	202,532	0,043	-0,048
-149,847	156,826	0,093	-0,094
-148,833	137,794	-0,059	0,056
-147,818	-68,691	0,090	-0,025
-146,804	-200,000	0,010	-0,140
-145,789	736,872	0,056	-0,109
-144,775	180,577	-0,101	0,108
-143,760	145,989	-0,078	-0,076
-142,745	-165,261	-0,149	-0,005
-141,731	-175,999	0,093	0,002
-140,716	183,901	0,106	-0,114
-139,702	-200,000	-0,009	-0,209
-138,687	389,035	0,031	-0,046
-137,672	-127,812	-0,112	0,012
-136,658	50,397	-0,083	-0,057
-135,643	445,006	0,090	-0,145
-134,629	-86,220	0,139	0,031
-133,614	-64,961	0,138	-0,040
-132,599	-48,863	0,069	0,024
-131,585	-117,137	-0,071	-0,009
-130,570	800,000	-0,026	-0,053
-129,556	240,437	0,051	0,062
-128,541	-54,708	-0,068	0,022
-127,526	20,277	0,073	0,043
-126,512	-200,000	0,033	0,191
-125,497	-135,628	0,060	0,005
-124,483	-106,218	-0,111	-0,018
-123,468	800,000	-0,030	-0,083
-122,453	800,000	-0,050	-0,134
-121,439	-200,000	-0,015	-0,098
-120,424	-113,908	0,127	-0,018
-119,410	187,272	0,010	0,011
-118,395	-200,000	0,026	0,115
-117,380	800,000	-0,030	0,073
-116,366	334,275	-0,056	0,079
-115,351	-84,945	-0,048	-0,011
-114,337	27,411	-0,067	-0,041
-113,322	-200,000	-0,024	-0,140
-112,307	-200,000	-0,017	-0,092
-111,293	183,914	0,023	0,025
-110,278	-8,568	0,037	-0,018
-109,264	327,940	-0,056	0,078
-108,249	-117,222	-0,036	0,005
-107,234	-170,140	-0,083	0,002
-106,220	141,122	-0,047	-0,045
-105,205	11,908	-0,028	0,016
-104,191	-43,968	0,083	0,030
-103,176	139,351	0,082	0,079
-102,162	-200,000	-0,016	0,064
-101,147	155,128	-0,052	0,052
-100,132	416,499	-0,021	-0,033
-99,118	668,418	0,042	-0,078
-98,103	338,748	0,106	0,151
-97,089	143,221	0,084	-0,081
-96,074	-200,000	-0,010	-0,037
-95,059	10,933	-0,038	-0,021
-94,045	800,000	-0,035	0,081
-93,030	-123,024	-0,096	-0,011
-92,016	-200,000	-0,002	0,016
-91,001	354,101	0,081	0,117
-89,986	64,248	-0,086	0,062
-88,972	120,024	0,105	0,095
-87,957	-20,171	-0,092	0,041
-86,943	266,414	-0,025	0,032
-85,928	800,000	0,019	-0,044
-84,913	242,145	0,049	0,059
-83,899	346,959	-0,069	-0,099
-82,884	-200,000	-0,011	0,088
-81,870	800,000	0,055	0,120
-80,855	800,000	0,018	0,035
-79,840	140,456	0,055	-0,053
-78,826	180,064	0,066	-0,070
-77,811	-40,399	-0,053	-0,020
-76,797	451,349	-0,034	-0,054
-75,782	800,000	0,067	-0,176
-74,767	37,861	-0,065	0,041
-73,753	-7,944	0,166	0,081
-72,738	800,000	-0,050	0,135
-71,724	-200,000	-0,000	-0,003
-70,709	520,274	0,030	-0,050
-69,694	4,509	0,024	-0,013
-68,680	143,795	0,050	0,048
-67,665	151,594	0,096	0,095
-66,651	-200,000	-0,020	0,115
-65,636	41,652	0,071	-0,047
-64,622	-63,795	0,028	0,008
-63,607	73,335	-0,064	0,049
-62,592	-200,000	0,000	-0,106
-61,578	263,832	-0,079	-0,099
-60,563	800,000	0,053	0,117
-59,549	197,377	0,075	-0,083
-58,534	-11,721	-1,802	-0,853
-57,519	697,428	-0,476	-0,909
-56,505	-200,000	-1,172	-4,789
-55,490	-105,880	0,759	0,123
-54,476	800,000	5,221	12,072
-53,461	-200,000	16,709	270,975
-52,446	800,000	710,967	2211,989
-51,432	562,045	1621,902	2848,632
-50,417	116,238	1619,882	1435,133
-49,403	80,810	1281,390	998,498
-48,388	34,942	1027,969	649,296
-47,373	20,910	990,518	579,068
-46,359	19,703	978,630	568,106
-45,344	17,621	974,553	558,855
-44,330	17,724	973,134	558,358
-43,315	17,396	971,445	556,288
-42,300	17,349	970,453	555,543
-41,286	17,307	969,544	554,861
-40,271	17,297	968,709	554,331
-39,257	17,350	967,783	553,953
-38,242	17,349	966,917	553,431
-37,227	17,331	966,127	552,899
-36,213	17,354	965,255	552,452
-35,198	17,354	964,387	551,935
-34,184	17,363	963,764	551,584
-33,169	17,326	962,707	550,836
-32,154	17,329	961,817	550,314
-31,140	17,340	960,939	549,829
-30,125	17,347	960,056	549,325
-29,111	17,355	959,209	548,843
-28,096	17,389	958,480	548,515
-27,082	17,320	958,035	548,015
-26,067	17,371	957,124	547,638
-25,052	17,286	956,468	546,963
-24,038	17,334	955,547	546,570
-23,023	17,322	954,944	546,165
-22,009	17,349	954,184	545,797
-20,994	17,295	953,872	545,422
-19,979	17,352	953,089	545,135
-18,965	17,315	952,303	544,545
-17,950	17,306	951,821	544,221
-16,936	17,292	951,127	543,755
-15,921	17,257	950,501	543,264
-14,906	17,249	949,764	542,795
-13,892	17,205	949,062	542,232
-12,877	17,196	948,386	541,796
-11,863	17,126	947,735	541,178
-10,848	17,180	947,377	541,124
-9,833	17,248	946,834	541,011
-8,819	17,304	946,065	540,728
-7,804	17,287	945,364	540,252
-6,790	17,181	944,984	539,674
-5,775	17,175	944,514	539,367
-4,760	17,183	943,657	538,882
-3,746	17,240	943,002	538,669
-2,731	17,041	942,232	537,573
-1,717	17,038	941,598	537,180
-0,702	17,101	940,832	536,920
0,313	16,830	940,318	536,577
1,327	20,210	938,340	546,126
2,342	29,650	794,614	487,629
3,356	26,182	447,409	269,342
4,371	-5,216	294,656	145,882
5,386	-9,328	276,167	132,802
6,400	-10,792	270,309	128,610
7,415	-11,107	267,970	127,194
8,429	-10,723	266,760	126,962
9,444	-10,619	265,936	126,653
10,459	-10,547	265,281	126,396
11,473	-10,597	264,677	126,051
12,488	-10,552	264,322	125,912
13,502	-10,566	263,762	125,622
14,517	-10,377	263,493	125,653
15,531	-10,018	263,125	125,793
16,546	-9,780	262,722	125,804
17,561	-9,771	262,514	125,702
18,575	-9,710	262,162	125,577
19,590	-10,046	261,758	125,070
20,604	-9,622	261,596	125,363
21,619	-9,890	261,250	124,945
22,634	-9,737	260,939	124,923
23,648	-9,963	260,627	124,559
24,663	-9,773	260,345	124,583
25,677	-9,981	260,035	124,238
26,692	-9,845	259,804	124,238
27,707	-9,801	259,652	124,193
28,721	-9,864	259,371	123,992
29,736	-9,743	259,120	123,969
30,750	-9,968	258,849	123,627
31,765	-10,057	258,514	123,377
32,780	-9,772	258,257	123,497
33,794	-9,765	258,029	123,383
34,809	-9,861	257,856	123,204
35,823	-9,802	257,671	123,157
36,838	-9,773	257,283	122,986
37,853	-9,697	257,092	122,951
38,867	-9,822	256,733	122,659
39,882	-9,997	256,678	122,467
40,896	-10,021	256,590	122,393
41,911	-9,898	256,340	122,371
42,926	-9,860	256,000	122,231
43,940	-9,855	255,798	122,128
44,955	-9,727	255,439	122,058
45,969	-9,935	255,410	121,850
46,984	-10,038	255,070	121,588
47,999	-10,121	255,000	121,471
49,013	-9,961	254,695	121,454
50,028	-10,115	254,523	121,227
51,042	-10,151	254,267	121,063
52,057	-10,103	254,048	120,989
53,071	-10,125	253,704	120,796
54,086	-10,149	253,677	120,751
55,101	-9,977	253,368	120,743
56,115	-10,008	253,244	120,646
57,130	-10,054	253,113	120,534
58,144	-9,986	252,842	120,452
59,159	-10,035	252,598	120,283
60,174	-9,991	252,398	120,215
61,188	-10,105	252,332	120,074
62,203	-9,919	252,021	120,076
63,217	-10,082	252,001	119,915
64,232	-9,927	251,500	119,799
65,247	-10,023	251,316	119,619
66,261	-10,014	251,087	119,507
67,276	-10,011	251,002	119,459
68,290	-10,065	250,602	119,211
69,305	-10,020	250,408	119,147
70,320	-10,085	250,376	119,065
71,334	-10,109	250,184	118,942
72,349	-10,158	249,902	118,756
73,363	-9,873	249,661	118,875
74,378	-9,926	249,391	118,690
75,393	-9,969	249,264	118,582
76,407	-9,882	249,112	118,574
77,422	-9,898	248,864	118,432
78,436	-10,091	248,729	118,192
79,451	-10,059	248,470	118,085
80,466	-9,962	248,226	118,041
81,480	-9,940	248,035	117,959
82,495	-9,949	247,868	117,861
83,509	-9,971	247,714	117,759
84,524	-9,845	247,511	117,759
85,539	-9,968	247,338	117,562
86,553	-10,003	247,149	117,432
87,568	-10,096	246,871	117,210
88,582	-9,997	246,752	117,227
89,597	-10,182	246,530	116,955
90,611	-10,068	246,324	116,943
91,626	-9,639	246,067	117,172
92,641	-9,874	246,043	116,952
93,655	-9,815	245,761	116,858
94,670	-9,889	245,577	116,698
95,684	-10,057	245,540	116,528
96,699	-10,074	245,241	116,362
97,714	-9,976	244,996	116,318
98,728	-9,980	244,914	116,265
99,743	-10,089	244,674	116,049
100,757	-10,209	244,475	115,844
101,772	-10,070	244,149	115,796
102,787	-9,996	244,044	115,797
103,801	-10,022	243,783	115,641
104,816	-10,033	243,847	115,652
105,830	-10,033	243,558	115,505
106,845	-9,931	243,437	115,522
107,860	-10,237	243,274	115,180
108,874	-10,147	242,875	115,056
109,889	-10,193	242,664	114,907
110,903	-10,197	242,444	114,789
111,918	-10,418	242,355	114,554
112,933	-10,235	242,277	114,658
113,947	-10,331	242,060	114,466
114,962	-10,198	241,922	114,501
115,976	-9,890	241,548	114,567
116,991	-10,066	241,593	114,433
118,006	-10,182	241,416	114,244
119,020	-10,194	241,305	114,171
120,035	-10,252	241,188	114,057
121,049	-9,928	240,781	114,121
122,064	-10,058	240,552	113,896
123,079	-10,016	240,564	113,926
124,093	-9,948	240,239	113,817
125,108	-10,056	240,049	113,628
126,122	-9,818	239,830	113,710
127,137	-9,986	239,867	113,580
128,151	-10,146	239,639	113,331
129,166	-9,918	239,400	113,394
130,181	-10,008	239,263	113,245
131,195	-10,104	238,994	113,030
132,210	-9,998	238,855	113,040
133,224	-10,223	238,683	112,765
134,239	-10,215	238,492	112,672
135,254	-10,270	238,281	112,517
136,268	-10,228	238,184	112,496
137,283	-10,101	237,975	112,490
138,297	-10,286	237,843	112,267
139,312	-10,305	237,643	112,148
140,327	-10,083	237,460	112,232
141,341	-10,025	237,378	112,230
142,356	-10,011	237,117	112,107
143,370	-9,894	236,875	112,077
144,385	-9,830	236,765	112,067
145,400	-9,753	236,514	112,000
146,414	-9,707	236,371	111,960
147,429	-9,779	236,291	111,854
148,443	-9,860	236,117	111,696
149,458	-10,078	235,977	111,445
150,473	-9,970	235,785	111,431
151,487	-10,065	235,543	111,230
152,502	-9,927	235,303	111,218
153,516	-9,942	235,365	111,225
154,531	-9,646	235,006	111,282
155,546	-9,814	234,944	111,109
156,560	-9,728	234,735	111,069
157,575	-10,043	234,452	110,673
158,589	-10,114	234,300	110,535
159,604	-9,757	234,043	110,688
160,619	-9,507	233,990	110,852
161,633	-9,523	233,780	110,730
162,648	-9,749	233,675	110,491
163,662	-10,113	233,638	110,175
164,677	-9,971	233,263	110,100
165,692	-10,054	233,225	110,007
166,706	-9,695	233,097	110,221
167,721	-9,722	233,057	110,171
168,735	-9,694	232,797	110,060
169,750	-9,805	232,628	109,883
170,764	-10,014	232,398	109,599
171,779	-9,875	232,300	109,653
172,794	-9,894	232,151	109,558
173,808	-9,953	231,980	109,421
174,823	-9,997	231,738	109,263
175,837	-10,152	231,648	109,089
176,852	-10,188	231,423	108,945
177,867	-10,036	231,359	109,025
178,881	-10,018	231,162	108,936
179,896	-9,870	231,165	109,044
180,910	-9,875	230,854	108,883
181,925	-10,131	230,769	108,633
182,940	-9,950	230,498	108,637
183,954	-9,908	230,443	108,635
184,969	-9,728	230,337	108,716
185,983	-9,664	230,183	108,684
186,998	-9,593	229,872	108,582
188,013	-9,690	229,762	108,445
189,027	-9,678	229,584	108,360
190,042	-9,821	229,524	108,211
191,056	-9,988	229,210	107,923
192,071	-9,784	229,052	107,998
193,086	-9,939	228,814	107,756
194,100	-10,718	228,558	107,021
195,115	-11,904	227,936	105,803
196,129	-11,716	227,979	105,959
197,144	-7,426	229,315	109,907
198,159	-1,990	230,893	114,900
199,173	1,351	231,437	117,770
200,188	1,987	231,807	118,445
201,202	2,471	231,986	118,904
202,217	2,790	231,917	119,107
203,232	3,232	231,834	119,399
204,246	3,294	231,696	119,365
205,261	3,443	231,522	119,381
206,275	3,261	231,366	119,148
207,290	3,327	231,280	119,145
208,304	3,235	231,106	118,973
209,319	3,362	230,781	118,893
210,334	3,141	230,685	118,662
211,348	2,897	230,185	118,205
212,363	2,281	230,083	117,666
213,377	1,990	229,864	117,318
214,392	1,883	229,609	117,095
215,407	1,666	229,518	116,870
216,421	1,874	229,264	116,891
217,436	1,726	229,077	116,671
218,450	1,753	229,001	116,643
219,465	1,759	228,662	116,465
220,480	1,631	228,677	116,363
221,494	1,796	228,440	116,359
222,509	1,866	228,475	116,421
223,523	2,048	228,339	116,480
224,538	1,961	228,226	116,345
225,553	1,696	228,075	116,055
226,567	1,977	227,725	116,081
227,582	1,967	227,614	116,007
228,596	1,989	227,453	115,932
229,611	1,861	227,374	115,783
230,626	1,791	227,288	115,676
231,640	1,861	226,960	115,552
232,655	1,767	227,032	115,506
233,669	2,037	226,753	115,560
234,684	1,766	226,731	115,332
235,699	2,023	226,554	115,427
236,713	2,070	226,431	115,389
237,728	2,069	226,197	115,259
238,742	2,002	226,205	115,202
239,757	2,079	225,969	115,130
240,772	2,234	225,777	115,140
241,786	2,411	225,777	115,264
242,801	2,418	225,532	115,133
243,815	2,573	225,369	115,157
244,830	2,428	225,381	115,044
245,844	2,516	225,076	114,944
246,859	2,206	224,909	114,614
247,874	2,189	224,751	114,511
248,888	2,214	224,512	114,398
249,903	2,239	224,523	114,412
250,917	2,017	224,360	114,152
251,932	2,249	224,126	114,197
252,947	2,207	224,169	114,177
253,961	2,191	223,936	114,036
254,976	2,127	223,884	113,952
255,990	2,226	223,597	113,869
257,005	2,235	223,504	113,819
258,020	2,328	223,341	113,795
259,034	2,198	223,330	113,682
260,049	2,369	223,163	113,715
261,063	2,400	222,928	113,608
262,078	2,291	222,790	113,446
263,093	2,475	222,657	113,505
264,107	2,361	222,567	113,364
265,122	2,427	222,392	113,315
266,136	2,327	222,090	113,077
267,151	2,290	222,109	113,048
268,166	2,080	221,939	112,796
269,180	2,327	221,590	112,792
270,195	1,976	221,629	112,541
271,209	2,211	221,435	112,607
272,224	2,039	221,283	112,392
273,239	2,100	221,182	112,376
274,253	2,040	220,937	112,197
275,268	2,120	220,770	112,162
276,282	1,976	220,618	111,968
277,297	1,934	220,483	111,858
278,312	1,865	220,443	111,777
279,326	2,140	220,265	111,879
280,341	1,898	220,269	111,693
281,355	2,094	220,037	111,709
282,370	2,381	219,722	111,751
283,384	2,097	219,723	111,532
284,399	1,937	219,547	111,316
285,414	2,130	219,491	111,420
286,428	2,201	219,328	111,379
287,443	2,408	219,137	111,423
288,457	2,309	218,985	111,263
289,472	2,127	219,081	111,169
290,487	2,096	218,679	110,932
291,501	2,085	218,637	110,893
292,516	2,206	218,270	110,785
293,530	2,329	218,373	110,917
294,545	2,115	218,261	110,695
295,560	2,319	218,032	110,717
296,574	2,366	217,924	110,687
297,589	2,407	217,763	110,625
298,603	2,414	217,721	110,599
299,618	2,238	217,667	110,434
300,633	2,237	217,484	110,331
301,647	2,339	217,370	110,337
302,662	2,390	217,159	110,256
303,676	2,342	217,032	110,148
304,691	2,368	217,024	110,152
305,706	2,440	216,663	110,012
306,720	2,421	216,620	109,966
307,735	2,311	216,439	109,785
308,749	2,155	216,255	109,569
309,764	2,287	216,183	109,618
310,779	2,348	215,886	109,502
311,793	2,308	215,871	109,456
312,808	2,314	215,587	109,306
313,822	2,413	215,509	109,328
314,837	2,369	215,320	109,191
315,852	2,358	215,241	109,133
316,866	2,114	215,097	108,875
317,881	2,351	215,159	109,067
318,895	2,109	214,877	108,741
319,910	1,990	214,726	108,570
320,925	2,104	214,520	108,537
321,939	2,175	214,424	108,530
322,954	1,923	214,222	108,238
323,968	2,272	214,088	108,410
324,983	2,020	214,175	108,265
325,997	2,073	213,986	108,197
327,012	2,041	213,715	108,027
328,027	1,934	213,487	107,826
329,041	2,111	213,520	107,959
330,056	2,277	213,332	107,973
331,070	2,232	213,243	107,886
332,085	1,890	213,078	107,550
333,100	2,085	212,900	107,589
334,114	2,153	212,894	107,625
335,129	2,209	212,738	107,576
336,143	2,194	212,482	107,426
337,158	2,181	212,352	107,342
338,173	2,002	212,322	107,190
339,187	2,216	212,104	107,222
340,202	2,422	211,864	107,236
341,216	2,093	211,707	106,916
342,231	2,278	211,577	106,970
343,246	2,236	211,635	106,960
344,260	2,241	211,360	106,815
345,275	2,249	211,217	106,739
346,289	2,084	211,127	106,569
347,304	2,520	210,887	106,744
348,319	2,307	210,767	106,525
349,333	2,151	210,774	106,409
350,348	2,049	210,576	106,228
351,362	2,215	210,434	106,263
352,377	2,345	210,381	106,317
353,392	1,903	210,329	105,973
354,406	2,101	210,092	105,982
355,421	194,419	1341,769	1427,011
356,435	155,208	1479,676	1427,034
