DTS Sentinel unit serial number:	SN410029Multiplexer serial number:	ORYXHardware model number:	OX2-SRSoftware version number:	ORYX F/W v4,00 Oryx Data Collector v3.7.2.0data status	okinstallation	B6 Nyhavnadifferential loss correction	single-endedforward channel	channel 2reverse channel	N/Adate	2023/12/08time	13:25:08forward acquisition time	300,00reverse acquisition time	0,00gamma	499,1914k internal	0,3159k external	0,3159temperature offset calibration	1,0000default loss term (dB/km)	0,3820temperature slope calibration	1,0000multiplexer offset coefficient	1,0000multiplexer slope coefficient	1,0000fibre end	0,00T internal ref (°C)	15,06T ext. ref 1 (°C)	-1,55T ext. ref 2 (°C)	-1,55length (m)	temperature (°C)	Stokes	anti-Stokes-744,400	39,189	0,089	0,059
-743,385	-105,705	-0,374	0,062
-742,371	-188,498	0,100	0,001
-741,356	-20,814	-0,197	-0,089
-740,342	401,755	0,044	0,068
-739,327	-64,261	-0,397	0,118
-738,312	71,841	0,063	0,049
-737,298	-136,100	-0,310	0,026
-736,283	9,743	0,123	-0,069
-735,269	-101,267	-0,349	-0,062
-734,254	-88,925	0,141	-0,031
-733,239	-55,846	-0,656	-0,214
-732,225	673,780	0,080	0,154
-731,210	-200,000	0,018	-0,075
-730,196	-200,000	0,010	0,077
-729,181	33,649	-0,018	-0,011
-728,167	-152,688	0,081	-0,004
-727,152	-84,177	-0,095	-0,022
-726,137	112,587	0,075	0,067
-725,123	-200,000	0,001	0,027
-724,108	-130,009	-0,052	-0,005
-723,094	122,590	0,057	-0,053
-722,079	-44,297	-0,146	0,054
-721,064	-27,324	0,097	0,041
-720,050	-200,000	-0,016	-0,060
-719,035	800,000	-0,054	0,129
-718,021	-80,282	-0,105	-0,026
-717,006	-161,498	-0,129	0,005
-715,991	800,000	0,021	-0,060
-714,977	141,924	-0,037	-0,036
-713,962	-17,148	-0,067	-0,031
-712,948	-13,446	-0,027	0,013
-711,933	-200,000	0,009	-0,119
-710,918	-75,201	-0,131	-0,034
-709,904	-74,749	-0,106	-0,028
-708,889	-200,000	-0,020	0,155
-707,875	124,106	0,114	-0,105
-706,860	-138,073	-0,125	0,010
-705,845	6,677	0,161	0,088
-704,831	454,451	0,052	0,085
-703,816	800,000	-0,033	-0,099
-702,802	-200,000	-0,020	-0,082
-701,787	-94,422	-0,008	-0,002
-700,772	337,227	0,043	-0,062
-699,758	464,167	0,020	0,033
-698,743	458,393	0,022	-0,036
-697,729	-200,000	0,004	0,068
-696,714	800,000	-0,013	-0,027
-695,699	-200,000	-0,004	-0,020
-694,685	-200,000	-0,005	0,042
-693,670	-200,000	0,013	0,113
-692,656	333,478	0,066	-0,094
-691,641	720,573	0,057	0,113
-690,627	800,000	-0,065	0,162
-689,612	-200,000	-0,019	-0,098
-688,597	-200,000	0,004	-0,115
-687,583	-171,240	0,137	-0,003
-686,568	-127,514	-0,114	-0,012
-685,554	132,859	0,094	-0,090
-684,539	360,652	-0,108	-0,160
-683,524	34,142	0,112	0,071
-682,510	800,000	0,027	-0,064
-681,495	-200,000	0,018	-0,075
-680,481	-88,574	-0,078	-0,017
-679,466	-200,000	-0,025	-0,205
-678,451	800,000	-0,072	-0,194
-677,437	-18,661	0,084	0,038
-676,422	-7,123	-0,170	-0,084
-675,408	-47,640	-0,143	-0,051
-674,393	-179,500	-0,169	0,003
-673,378	-160,928	-0,050	-0,002
-672,364	373,370	0,053	-0,079
-671,349	-47,993	-0,104	-0,037
-670,335	800,000	-0,020	0,046
-669,320	-11,321	0,035	-0,017
-668,305	-81,210	0,049	-0,012
-667,291	800,000	0,041	0,090
-666,276	188,160	-0,073	0,080
-665,262	60,920	-0,051	-0,037
-664,247	800,000	-0,002	-0,004
-663,232	-27,475	-0,124	0,053
-662,218	-200,000	-0,009	0,084
-661,203	488,856	0,021	-0,035
-660,189	-200,000	0,128	-0,000
-659,174	-200,000	0,024	-0,085
-658,159	54,438	-0,112	-0,079
-657,145	800,000	-0,054	-0,165
-656,130	-200,000	-0,003	0,134
-655,116	-200,000	-0,004	-0,207
-654,101	800,000	0,031	-0,095
-653,086	-200,000	0,042	-0,261
-652,072	287,603	-0,074	-0,099
-651,057	245,245	0,019	-0,024
-650,043	111,056	-0,019	0,017
-649,028	632,980	-0,051	-0,096
-648,014	800,000	-0,048	-0,140
-646,999	81,182	0,114	0,091
-645,984	695,746	-0,067	0,129
-644,970	220,788	-0,052	0,062
-643,955	1,426	0,139	-0,073
-642,941	-200,000	-0,006	-0,050
-641,926	-200,000	0,010	-0,130
-640,911	93,866	-0,029	0,024
-639,897	275,342	0,033	-0,043
-638,882	-20,198	-0,238	0,107
-637,868	-30,537	-0,043	0,018
-636,853	-114,835	-0,076	-0,011
-635,838	-12,171	-0,036	0,017
-634,824	-102,153	0,061	0,011
-633,809	-13,379	-0,091	-0,043
-632,795	-200,000	-0,024	0,089
-631,780	-142,182	-0,118	0,008
-630,765	800,000	-0,035	0,087
-629,751	63,639	0,099	-0,072
-628,736	-39,149	-0,069	-0,027
-627,722	367,766	0,062	0,093
-626,707	45,383	0,084	-0,057
-625,692	-200,000	0,027	-0,143
-624,678	-200,000	0,053	0,000
-623,663	-93,608	-0,109	0,022
-622,649	77,587	-0,040	-0,031
-621,634	800,000	0,038	-0,085
-620,619	-49,162	0,042	0,015
-619,605	-200,000	-0,009	0,054
-618,590	-77,487	0,086	-0,022
-617,576	-200,000	0,004	0,123
-616,561	-69,098	0,049	-0,014
-615,546	-39,192	-0,172	-0,066
-614,532	-200,000	-0,023	-0,115
-613,517	-200,000	-0,004	-0,040
-612,503	385,561	-0,070	-0,106
-611,488	-200,000	0,027	0,168
-610,474	-200,000	0,011	-0,074
-609,459	284,608	-0,055	-0,073
-608,444	140,290	0,124	-0,120
-607,430	38,353	-0,066	0,043
-606,415	-82,692	-0,092	0,022
-605,401	-0,513	0,187	0,097
-604,386	236,835	-0,031	0,038
-603,371	-200,000	0,003	-0,033
-602,357	122,582	0,069	-0,063
-601,342	-90,708	0,027	0,006
-600,328	74,493	0,032	-0,024
-599,313	800,000	-0,037	-0,091
-598,298	-158,536	-0,017	-0,001
-597,284	800,000	0,071	0,213
-596,269	-155,912	0,149	0,007
-595,255	-200,000	0,013	0,082
-594,240	17,351	0,083	-0,048
-593,225	165,740	0,064	0,066
-592,211	-200,000	-0,052	-0,195
-591,196	-200,000	-0,043	0,147
-590,182	800,000	0,025	0,071
-589,167	-151,971	0,007	0,000
-588,152	-200,000	-0,004	-0,081
-587,138	85,684	-0,115	-0,092
-586,123	105,238	-0,110	-0,095
-585,109	-200,000	0,007	-0,042
-584,094	567,621	-0,037	0,066
-583,079	29,360	0,110	0,068
-582,065	800,000	0,022	0,060
-581,050	-198,910	0,012	0,000
-580,036	-58,014	-0,011	-0,004
-579,021	67,814	-0,153	-0,114
-578,006	-200,000	-0,002	0,064
-576,992	7,828	0,080	-0,044
-575,977	-176,092	0,099	0,002
-574,963	89,028	0,019	-0,016
-573,948	800,000	0,029	0,069
-572,934	-200,000	-0,010	0,107
-571,919	800,000	-0,022	-0,053
-570,904	-55,579	-0,076	0,025
-569,890	-200,000	-0,029	-0,096
-568,875	234,108	0,049	-0,059
-567,861	-162,900	-0,027	-0,001
-566,846	-200,000	0,012	0,083
-565,831	170,491	0,048	-0,051
-564,817	-200,000	-0,002	-0,043
-563,802	-94,189	-0,082	-0,016
-562,788	-200,000	-0,016	-0,055
-561,773	-64,711	-0,045	0,013
-560,758	-133,626	0,084	-0,008
-559,744	132,986	0,018	-0,017
-558,729	91,203	0,008	0,006
-557,715	85,883	0,113	0,091
-556,700	17,546	-0,040	-0,023
-555,685	230,295	-0,127	-0,152
-554,671	800,000	-0,034	-0,097
-553,656	-200,000	0,023	-0,120
-552,642	-200,000	-0,037	0,125
-551,627	-133,763	-0,176	-0,016
-550,612	-34,597	0,045	0,018
-549,598	572,581	0,019	-0,033
-548,583	800,000	-0,050	0,134
-547,569	-180,141	-0,120	-0,002
-546,554	-200,000	0,002	-0,020
-545,539	800,000	-0,073	0,161
-544,525	86,674	-0,034	0,027
-543,510	6,447	0,059	0,032
-542,496	788,827	-0,040	-0,081
-541,481	800,000	-0,078	-0,184
-540,466	197,821	0,024	-0,026
-539,452	-142,098	-0,043	0,003
-538,437	-200,000	-0,013	0,084
-537,423	183,407	-0,104	0,112
-536,408	757,928	0,065	-0,129
-535,393	-41,577	-0,119	-0,045
-534,379	800,000	-0,048	-0,101
-533,364	222,025	-0,067	-0,079
-532,350	-200,000	0,000	-0,055
-531,335	62,410	-0,061	-0,044
-530,321	-200,000	0,007	0,027
-529,306	14,115	-0,079	0,045
-528,291	521,575	0,022	-0,038
-527,277	-130,084	-0,074	0,007
-526,262	78,997	-0,048	-0,038
-525,248	800,000	-0,015	-0,033
-524,233	-200,000	0,008	-0,092
-523,218	-200,000	-0,024	0,186
-522,204	-169,553	-0,159	-0,004
-521,189	-200,000	0,022	-0,077
-520,175	800,000	0,040	0,085
-519,160	-126,851	-0,114	-0,012
-518,145	800,000	0,019	0,041
-517,131	-87,152	0,163	0,036
-516,116	-200,000	-0,071	0,000
-515,102	-39,306	0,011	0,004
-514,087	-200,000	-0,011	0,110
-513,072	-200,000	-0,007	0,102
-512,058	220,682	0,055	-0,065
-511,043	-21,650	-0,039	-0,017
-510,029	10,376	0,127	-0,071
-509,014	107,393	-0,035	0,030
-507,999	-200,000	-0,029	0,121
-506,985	-143,339	0,119	-0,008
-505,970	-200,000	0,004	0,024
-504,956	236,231	-0,070	0,085
-503,941	-200,000	0,003	0,093
-502,926	800,000	-0,042	-0,108
-501,912	33,613	0,084	0,054
-500,897	-165,758	0,174	-0,005
-499,883	387,730	-0,062	-0,094
-498,868	21,524	0,045	-0,027
-497,853	210,152	-0,083	-0,095
-496,839	41,264	-0,076	-0,050
-495,824	77,440	0,102	-0,079
-494,810	1,009	0,104	0,054
-493,795	682,467	-0,041	-0,078
-492,781	116,871	-0,056	-0,051
-491,766	-130,895	-0,033	-0,003
-490,751	492,474	-0,033	-0,055
-489,737	-200,000	0,008	-0,094
-488,722	204,450	-0,037	-0,042
-487,708	-200,000	-0,002	-0,038
-486,693	317,525	0,070	-0,096
-485,678	-97,251	0,084	-0,016
-484,664	222,278	-0,060	0,071
-483,649	36,141	0,064	0,041
-482,635	800,000	0,050	-0,162
-481,620	-200,000	-0,010	-0,063
-480,605	-157,479	-0,091	0,004
-479,591	441,204	0,025	0,041
-478,576	20,873	0,065	-0,038
-477,562	-76,941	-0,081	0,021
-476,547	-23,923	0,079	-0,034
-475,532	242,501	0,078	0,096
-474,518	-200,000	0,001	-0,145
-473,503	218,192	0,058	-0,068
-472,489	208,417	-0,050	-0,057
-471,474	-76,125	-0,109	-0,028
-470,459	-200,000	-0,008	-0,074
-469,445	-200,000	-0,042	-0,190
-468,430	68,224	-0,073	-0,055
-467,416	-200,000	-0,002	0,077
-466,401	456,521	0,042	0,068
-465,386	253,013	0,034	0,042
-464,372	17,084	-0,144	-0,083
-463,357	-54,661	-0,057	-0,019
-462,343	-179,679	-0,180	-0,003
-461,328	-0,758	-0,132	-0,068
-460,313	136,182	-0,007	-0,007
-459,299	-66,937	0,130	0,037
-458,284	-200,000	0,037	0,166
-457,270	327,515	0,054	0,076
-456,255	177,200	-0,061	0,065
-455,241	800,000	0,025	-0,072
-454,226	17,836	0,119	0,069
-453,211	-200,000	-0,025	-0,171
-452,197	161,419	0,075	-0,076
-451,182	800,000	-0,029	0,067
-450,168	-200,000	-0,003	0,028
-449,153	800,000	-0,042	-0,087
-448,138	-50,786	0,074	-0,025
-447,124	-58,820	-0,145	0,045
-446,109	49,808	0,110	0,075
-445,095	-47,804	0,206	0,072
-444,080	-110,600	0,078	0,012
-443,065	196,441	-0,052	-0,057
-442,051	-36,391	0,099	0,039
-441,036	98,588	0,019	0,016
-440,022	125,561	-0,106	-0,098
-439,007	800,000	-0,017	-0,053
-437,992	-45,698	-0,081	0,029
-436,978	14,707	0,122	-0,069
-435,963	-200,000	-0,014	-0,086
-434,949	-87,548	0,059	-0,013
-433,934	-19,360	-0,035	0,016
-432,919	205,163	-0,034	-0,038
-431,905	339,013	-0,023	-0,032
-430,890	66,402	0,027	-0,020
-429,876	53,399	-0,049	-0,034
-428,861	-200,000	0,004	0,047
-427,846	286,175	-0,067	0,089
-426,832	-94,994	0,160	0,031
-425,817	-93,116	0,037	0,007
-424,803	-48,771	-0,023	-0,008
-423,788	-200,000	0,028	-0,136
-422,773	-132,333	0,034	0,003
-421,759	525,133	-0,053	0,091
-420,744	52,652	-0,031	0,022
-419,730	800,000	0,054	-0,127
-418,715	24,255	-0,145	-0,087
-417,701	-44,900	-0,030	0,011
-416,686	96,067	0,069	0,057
-415,671	84,642	0,110	0,087
-414,657	177,442	-0,092	0,098
-413,642	-200,000	-0,006	0,035
-412,628	26,047	-0,056	0,034
-411,613	-28,713	-0,091	-0,038
-410,598	-160,973	-0,131	0,005
-409,584	-200,000	-0,016	-0,151
-408,569	800,000	-0,038	0,079
-407,555	602,611	-0,062	0,112
-406,540	-100,572	0,085	0,015
-405,525	-43,173	-0,109	-0,040
-404,511	-200,000	0,003	-0,068
-403,496	-200,000	-0,003	0,033
-402,482	35,787	-0,081	0,052
-401,467	48,759	0,064	-0,043
-400,452	-26,584	0,142	-0,060
-399,438	-200,000	-0,038	0,175
-398,423	-200,000	0,006	0,145
-397,409	603,168	-0,032	0,058
-396,394	800,000	-0,003	0,008
-395,379	-200,000	-0,014	0,112
-394,365	800,000	0,074	0,172
-393,350	225,790	-0,080	-0,095
-392,336	-200,000	-0,008	0,042
-391,321	107,476	-0,048	0,042
-390,306	800,000	0,038	-0,081
-389,292	-117,901	0,141	-0,018
-388,277	171,676	0,096	-0,101
-387,263	571,588	-0,054	-0,097
-386,248	800,000	0,086	-0,249
-385,233	-200,000	-0,009	0,076
-384,219	80,069	-0,112	-0,087
-383,204	800,000	0,018	-0,040
-382,190	-200,000	-0,003	-0,100
-381,175	-84,618	0,116	-0,026
-380,160	9,415	0,065	-0,036
-379,146	-200,000	-0,022	-0,086
-378,131	83,507	-0,099	0,079
-377,117	-51,677	0,009	0,003
-376,102	118,824	-0,096	0,086
-375,088	260,793	0,030	0,038
-374,073	-200,000	-0,028	-0,169
-373,058	52,297	-0,152	0,105
-372,044	62,138	0,140	-0,101
-371,029	133,717	0,037	0,035
-370,015	-200,000	-0,028	0,186
-369,000	-200,000	0,012	0,049
-367,985	278,989	-0,015	-0,019
-366,971	139,761	0,063	-0,061
-365,956	800,000	0,066	0,174
-364,942	-200,000	-0,002	0,141
-363,927	-200,000	-0,010	0,166
-362,912	718,162	0,065	0,126
-361,898	-47,571	0,112	-0,039
-360,883	600,811	-0,026	0,047
-359,869	12,798	-0,071	-0,040
-358,854	-200,000	0,021	-0,131
-357,839	248,394	-0,006	0,007
-356,825	649,632	-0,032	0,060
-355,810	157,170	0,070	0,070
-354,796	-117,406	-0,062	-0,008
-353,781	-62,537	-0,108	0,032
-352,766	-9,528	-0,005	-0,002
-351,752	800,000	-0,063	-0,134
-350,737	-200,000	0,017	0,073
-349,723	85,019	0,103	0,082
-348,708	80,143	0,122	0,095
-347,693	800,000	-0,033	-0,068
-346,679	144,054	0,110	-0,106
-345,664	230,510	-0,086	-0,102
-344,650	152,017	-0,036	-0,036
-343,635	79,871	-0,030	0,023
-342,620	-73,420	0,202	0,053
-341,606	-180,787	-0,108	-0,002
-340,591	800,000	-0,034	0,074
-339,577	294,256	0,031	-0,041
-338,562	613,725	0,047	-0,086
-337,548	-200,000	-0,000	0,046
-336,533	800,000	-0,022	0,046
-335,518	800,000	-0,009	0,019
-334,504	-148,578	-0,081	-0,005
-333,489	160,477	0,026	0,026
-332,475	-200,000	-0,021	0,108
-331,460	-68,792	0,071	-0,020
-330,445	-200,000	-0,023	0,097
-329,431	59,045	0,055	-0,039
-328,416	800,000	-0,017	0,044
-327,402	406,794	0,054	0,083
-326,387	-89,082	0,061	-0,013
-325,372	-200,000	-0,018	-0,125
-324,358	800,000	0,031	0,094
-323,343	21,713	0,089	0,052
-322,329	87,758	0,111	-0,089
-321,314	-200,000	-0,039	0,203
-320,299	-200,000	-0,023	0,077
-319,285	457,824	-0,057	-0,092
-318,270	228,853	0,036	-0,043
-317,256	-200,000	0,014	0,150
-316,241	-100,540	0,079	-0,014
-315,226	9,178	0,062	0,034
-314,212	211,511	-0,008	-0,009
-313,197	258,055	0,073	0,092
-312,183	-1,088	-0,093	0,047
-311,168	22,008	-0,084	0,050
-310,153	-200,000	0,023	0,146
-309,139	800,000	0,013	-0,034
-308,124	99,399	-0,064	0,053
-307,110	-200,000	0,017	0,112
-306,095	225,286	-0,068	0,080
-305,080	-200,000	-0,004	0,058
-304,066	800,000	-0,012	-0,031
-303,051	66,923	-0,096	-0,071
-302,037	-73,262	0,114	-0,030
-301,022	-132,286	0,151	0,014
-300,008	800,000	0,021	-0,054
-298,993	-200,000	0,010	0,101
-297,978	215,796	-0,045	0,052
-296,964	-74,938	0,038	0,010
-295,949	-200,000	0,008	0,028
-294,935	261,965	0,086	-0,108
-293,920	-136,375	0,135	-0,011
-292,905	-28,794	-0,045	-0,019
-291,891	204,153	-0,054	-0,061
-290,876	-146,826	-0,075	0,005
-289,862	96,297	0,011	-0,009
-288,847	70,064	0,045	-0,033
-287,832	-200,000	-0,010	-0,060
-286,818	-200,000	-0,022	-0,081
-285,803	-22,097	-0,066	0,029
-284,789	-119,384	-0,082	-0,010
-283,774	60,675	0,067	0,048
-282,759	-27,604	0,134	-0,056
-281,745	-200,000	0,020	-0,073
-280,730	-200,000	-0,004	-0,042
-279,716	150,722	0,022	-0,022
-278,701	-175,164	0,047	0,001
-277,686	379,618	0,081	0,121
-276,672	-200,000	0,009	0,115
-275,657	26,340	0,158	0,095
-274,643	-200,000	0,010	0,033
-273,628	800,000	-0,047	-0,132
-272,613	101,386	-0,066	-0,055
-271,599	-156,017	0,277	-0,012
-270,584	-8,302	-0,153	0,074
-269,570	197,115	0,037	-0,041
-268,555	-200,000	0,005	0,154
-267,540	63,583	-0,109	0,079
-266,526	69,828	-0,085	-0,063
-265,511	149,304	0,022	-0,022
-264,497	-200,000	0,002	0,027
-263,482	553,594	0,064	-0,111
-262,467	-200,000	0,001	0,078
-261,453	735,490	-0,035	-0,068
-260,438	800,000	-0,052	-0,162
-259,424	-169,398	-0,053	-0,001
-258,409	-35,412	-0,066	0,026
-257,395	192,196	0,038	-0,042
-256,380	800,000	0,038	0,112
-255,365	-200,000	-0,009	-0,058
-254,351	-200,000	-0,003	0,019
-253,336	-118,932	-0,061	-0,008
-252,322	-200,000	-0,003	0,098
-251,307	576,490	0,020	0,035
-250,292	-200,000	-0,016	-0,084
-249,278	528,665	0,028	-0,048
-248,263	459,231	-0,082	0,133
-247,249	-200,000	-0,024	0,100
-246,234	-85,266	-0,136	-0,030
-245,219	647,280	0,020	0,037
-244,205	73,795	0,037	0,028
-243,190	294,590	0,028	0,038
-242,176	-200,000	0,003	0,097
-241,161	97,958	0,149	0,124
-240,146	-117,215	-0,009	-0,001
-239,132	87,317	-0,065	0,052
-238,117	56,835	-0,025	0,017
-237,103	-200,000	0,026	-0,092
-236,088	263,656	0,059	-0,075
-235,073	476,250	0,101	0,166
-234,059	389,609	0,007	-0,011
-233,044	551,952	0,041	-0,072
-232,030	-200,000	0,005	0,067
-231,015	-114,235	0,059	0,008
-230,000	123,408	-0,082	-0,075
-228,986	-200,000	-0,014	0,090
-227,971	-81,577	0,069	0,016
-226,957	-96,956	-0,046	-0,009
-225,942	0,795	-0,082	0,042
-224,927	336,031	-0,072	0,101
-223,913	12,128	-0,061	-0,034
-222,898	-200,000	-0,003	-0,027
-221,884	132,512	-0,130	0,121
-220,869	-14,174	0,099	0,046
-219,855	-102,645	0,119	-0,020
-218,840	338,169	-0,057	-0,081
-217,825	-155,507	0,143	-0,007
-216,811	-124,136	-0,191	-0,021
-215,796	211,854	0,115	0,131
-214,782	-70,866	-0,055	-0,015
-213,767	235,838	0,046	-0,055
-212,752	40,503	0,114	0,074
-211,738	800,000	-0,031	-0,090
-210,723	800,000	0,055	-0,127
-209,709	-110,883	-0,088	-0,013
-208,694	800,000	0,051	-0,107
-207,679	736,410	0,045	-0,088
-206,665	-200,000	-0,026	-0,123
-205,650	-83,216	0,126	-0,029
-204,636	-200,000	-0,013	0,086
-203,621	309,384	-0,019	0,025
-202,606	72,936	-0,135	0,102
-201,592	-4,061	-0,050	-0,025
-200,577	-145,843	-0,110	0,007
-199,563	-118,976	0,027	-0,003
-198,548	287,049	0,020	0,026
-197,533	236,266	-0,033	0,040
-196,519	800,000	-0,016	0,037
-195,504	-200,000	0,009	-0,107
-194,490	-170,615	-0,063	0,002
-193,475	-200,000	0,016	-0,202
-192,460	12,156	0,091	-0,051
-191,446	5,884	0,051	0,027
-190,431	34,152	-0,068	0,043
-189,417	-200,000	0,018	0,118
-188,402	800,000	0,065	0,160
-187,387	-83,342	0,010	0,002
-186,373	231,464	0,089	0,105
-185,358	-150,975	-0,104	-0,006
-184,344	46,132	0,102	0,068
-183,329	0,724	0,114	-0,059
-182,315	800,000	0,025	-0,053
-181,300	-31,557	0,028	-0,011
-180,285	-200,000	-0,026	0,085
-179,271	61,469	-0,026	-0,019
-178,256	634,870	0,048	-0,088
-177,242	-20,041	0,054	-0,024
-176,227	20,638	0,126	0,073
-175,212	-154,140	-0,087	0,004
-174,198	288,636	-0,041	-0,053
-173,183	14,687	-0,007	-0,004
-172,169	-200,000	0,012	-0,082
-171,154	-200,000	-0,000	0,082
-170,139	134,230	-0,033	0,030
-169,125	-94,767	0,027	0,005
-168,110	-200,000	-0,013	0,060
-167,096	235,675	0,055	0,065
-166,081	347,464	-0,081	-0,116
-165,066	292,638	0,069	0,091
-164,052	-200,000	-0,002	-0,061
-163,037	-16,019	-0,029	-0,013
-162,023	800,000	0,016	0,049
-161,008	-200,000	0,005	0,042
-159,993	55,666	0,038	0,026
-158,979	174,544	-0,106	-0,110
-157,964	87,520	-0,105	-0,084
-156,950	-200,000	-0,003	-0,019
-155,935	-48,655	0,054	-0,019
-154,920	0,052	0,133	-0,068
-153,906	-21,767	0,049	0,021
-152,891	221,993	-0,059	-0,069
-151,877	126,926	0,080	-0,073
-150,862	-92,162	-0,153	0,031
-149,847	-27,825	-0,048	0,020
-148,833	-48,569	0,091	-0,031
-147,818	800,000	-0,021	0,055
-146,804	180,157	0,026	-0,028
-145,789	60,248	0,083	-0,059
-144,775	-155,341	-0,100	-0,005
-143,760	-63,150	0,097	-0,028
-142,745	111,741	-0,097	-0,084
-141,731	800,000	-0,041	-0,105
-140,716	800,000	0,027	-0,063
-139,702	358,745	0,027	0,040
-138,687	-170,663	-0,091	0,002
-137,672	-121,682	-0,034	-0,004
-136,658	106,569	-0,023	-0,019
-135,643	-200,000	-0,018	-0,072
-134,629	-84,694	0,071	-0,016
-133,614	287,359	-0,051	-0,067
-132,599	-106,678	0,056	-0,009
-131,585	-200,000	0,015	-0,060
-130,570	-200,000	-0,025	-0,080
-129,556	800,000	-0,008	-0,023
-128,541	-108,628	-0,104	0,016
-127,526	655,365	0,020	-0,038
-126,512	3,536	0,034	0,018
-125,497	165,675	0,085	0,086
-124,483	-200,000	-0,020	0,116
-123,468	-200,000	-0,039	-0,132
-122,453	501,282	-0,017	-0,029
-121,439	800,000	-0,045	-0,116
-120,424	-200,000	-0,014	-0,069
-119,410	696,313	0,035	0,067
-118,395	-77,525	0,090	0,022
-117,380	-39,373	0,085	-0,032
-116,366	78,778	-0,161	-0,124
-115,351	-37,444	-0,067	0,025
-114,337	206,716	-0,066	-0,074
-113,322	-200,000	-0,009	-0,128
-112,307	3,574	0,048	-0,025
-111,293	6,821	0,180	0,096
-110,278	-200,000	-0,005	-0,050
-109,264	91,954	0,134	0,109
-108,249	311,929	0,031	0,042
-107,234	-59,791	0,068	0,021
-106,220	-200,000	-0,015	-0,053
-105,205	144,848	-0,062	-0,060
-104,191	-200,000	-0,007	-0,069
-103,176	343,667	-0,031	0,043
-102,162	697,133	0,014	0,027
-101,147	88,713	-0,079	0,063
-100,132	800,000	0,008	0,023
-99,118	120,361	0,038	0,034
-98,103	1,072	0,041	0,021
-97,089	-49,435	0,132	0,045
-96,074	-144,253	-0,092	-0,006
-95,059	-200,000	-0,037	-0,143
-94,045	13,978	0,090	-0,050
-93,030	311,391	0,066	-0,089
-92,016	800,000	-0,011	-0,031
-91,001	-200,000	-0,018	-0,067
-89,986	-36,271	0,093	0,036
-88,972	800,000	-0,042	0,115
-87,957	-92,970	-0,137	0,027
-86,943	57,500	-0,061	0,043
-85,928	-109,297	0,080	-0,012
-84,913	-96,221	-0,115	0,022
-83,899	424,904	0,063	0,098
-82,884	-200,000	0,021	-0,099
-81,870	757,859	0,043	0,085
-80,855	530,632	-0,042	0,072
-79,840	-7,307	-0,148	-0,072
-78,826	96,497	-0,070	-0,057
-77,811	758,800	-0,037	-0,071
-76,797	202,329	0,021	-0,024
-75,782	-35,860	0,084	0,032
-74,767	-55,000	0,164	-0,053
-73,753	106,505	-0,051	0,043
-72,738	-200,000	-0,002	-0,071
-71,724	-200,000	0,032	-0,105
-70,709	-56,047	-0,051	-0,016
-69,694	-200,000	0,003	-0,054
-68,680	-200,000	0,014	0,068
-67,665	788,184	0,078	0,155
-66,651	-200,000	0,008	-0,035
-65,636	553,724	0,020	0,034
-64,622	45,564	-0,117	0,078
-63,607	2,067	0,100	0,051
-62,592	-200,000	0,009	-0,042
-61,578	-134,268	0,152	-0,013
-60,563	245,903	0,074	0,090
-59,549	-25,424	0,036	0,015
-58,534	-0,899	-2,095	-1,061
-57,519	-200,000	-0,048	-0,721
-56,505	-200,000	-1,217	-4,919
-55,490	111,773	1,060	0,918
-54,476	800,000	5,038	11,580
-53,461	-200,000	17,875	290,128
-52,446	800,000	728,026	2224,283
-51,432	532,137	1640,783	2795,593
-50,417	108,704	1629,795	1396,397
-49,403	72,506	1283,063	958,628
-48,388	31,155	1025,850	629,854
-47,373	19,872	988,108	569,524
-46,359	18,160	975,977	556,905
-45,344	15,389	971,952	545,535
-44,330	15,619	970,645	545,529
-43,315	15,079	968,896	542,765
-42,300	15,074	967,730	542,074
-41,286	15,124	966,725	541,652
-40,271	15,116	965,583	540,964
-39,257	15,128	964,735	540,507
-38,242	15,055	963,981	539,825
-37,227	15,159	962,933	539,554
-36,213	15,060	962,390	538,908
-35,198	15,107	961,246	538,397
-34,184	15,104	960,788	538,113
-33,169	15,036	959,659	537,239
-32,154	15,171	958,700	537,114
-31,140	15,112	957,859	536,433
-30,125	15,102	957,159	535,986
-29,111	15,049	956,424	535,384
-28,096	15,126	955,702	535,204
-27,082	15,139	954,950	534,805
-26,067	15,163	954,140	534,408
-25,052	15,077	953,443	533,719
-24,038	15,073	952,799	533,324
-23,023	15,031	952,313	532,899
-22,009	15,098	951,482	532,628
-20,994	15,093	950,887	532,256
-19,979	15,168	950,164	532,069
-18,965	15,095	949,737	531,575
-17,950	15,074	949,070	531,116
-16,936	15,032	948,452	530,614
-15,921	15,033	947,707	530,180
-14,906	15,029	946,858	529,672
-13,892	14,988	946,293	529,204
-12,877	14,998	945,833	528,958
-11,863	14,932	945,189	528,364
-10,848	14,957	944,504	528,040
-9,833	15,035	944,245	528,122
-8,819	15,077	943,470	527,803
-7,804	14,945	942,921	527,055
-6,790	14,982	942,399	526,861
-5,775	15,040	941,732	526,649
-4,760	15,025	940,979	526,160
-3,746	14,994	940,451	525,746
-2,731	14,865	939,776	524,941
-1,717	14,855	939,072	524,497
-0,702	14,817	938,607	524,094
0,313	14,644	937,923	523,957
1,327	18,165	935,707	533,746
2,342	27,512	789,207	474,769
3,356	24,150	444,012	262,117
4,371	-5,769	295,244	144,426
5,386	-9,774	277,024	131,708
6,400	-10,901	271,376	127,965
7,415	-11,165	268,963	126,573
8,429	-11,129	267,465	125,889
9,444	-11,175	266,798	125,522
10,459	-11,283	266,166	125,115
11,473	-11,329	265,368	124,688
12,488	-11,219	264,941	124,576
13,502	-11,397	264,340	124,121
14,517	-11,443	263,959	123,890
15,531	-11,310	263,564	123,813
16,546	-11,152	263,132	123,741
17,561	-11,157	262,846	123,591
18,575	-11,222	262,562	123,388
19,590	-11,323	262,175	123,105
20,604	-10,977	261,820	123,236
21,619	-11,377	261,529	122,731
22,634	-11,420	261,259	122,555
23,648	-11,408	260,755	122,319
24,663	-11,345	260,558	122,272
25,677	-11,535	260,518	122,072
26,692	-11,273	260,116	122,106
27,707	-11,306	259,718	121,879
28,721	-11,368	259,562	121,740
29,736	-11,525	259,248	121,443
30,750	-11,448	259,125	121,443
31,765	-11,416	258,819	121,317
32,780	-11,374	258,392	121,143
33,794	-11,327	258,326	121,142
34,809	-11,449	257,950	120,848
35,823	-11,488	257,785	120,726
36,838	-11,289	257,561	120,785
37,853	-11,403	257,263	120,534
38,867	-11,560	257,092	120,305
39,882	-11,288	256,810	120,401
40,896	-11,288	256,614	120,299
41,911	-11,601	256,496	119,958
42,926	-11,324	256,105	120,007
43,940	-11,630	256,009	119,684
44,955	-11,714	255,586	119,402
45,969	-11,565	255,341	119,408
46,984	-11,752	255,182	119,159
47,999	-11,952	254,765	118,780
49,013	-12,102	254,750	118,632
50,028	-12,245	254,362	118,317
51,042	-12,183	254,112	118,244
52,057	-12,350	253,856	117,969
53,071	-12,319	253,685	117,907
54,086	-12,275	253,575	117,883
55,101	-12,030	253,383	117,994
56,115	-11,849	253,173	118,042
57,130	-11,372	253,108	118,413
58,144	-11,295	253,140	118,484
59,159	-11,305	252,809	118,310
60,174	-11,222	252,477	118,215
61,188	-11,217	252,427	118,186
62,203	-11,199	251,907	117,947
63,217	-11,319	252,003	117,878
64,232	-11,255	251,665	117,765
65,247	-11,219	251,541	117,727
66,261	-11,249	251,224	117,543
67,276	-11,475	250,884	117,180
68,290	-11,697	250,523	116,812
69,305	-11,762	250,344	116,662
70,320	-11,646	250,209	116,688
71,334	-11,535	250,200	116,768
72,349	-11,253	249,986	116,898
73,363	-11,110	249,887	116,962
74,378	-11,169	249,576	116,756
75,393	-11,343	249,473	116,549
76,407	-11,443	249,312	116,380
77,422	-11,307	249,050	116,362
78,436	-11,159	248,810	116,365
79,451	-11,462	248,735	116,063
80,466	-11,419	248,268	115,871
81,480	-11,634	248,063	115,584
82,495	-11,634	247,717	115,412
83,509	-11,497	247,774	115,543
84,524	-11,601	247,509	115,323
85,539	-11,662	247,232	115,132
86,553	-11,776	247,021	114,928
87,568	-11,805	246,956	114,863
88,582	-11,627	246,718	114,891
89,597	-11,581	246,461	114,800
90,611	-11,272	246,290	114,969
91,626	-11,428	246,250	114,809
92,641	-11,599	246,120	114,595
93,655	-11,519	245,851	114,526
94,670	-11,651	245,698	114,335
95,684	-11,283	245,266	114,431
96,699	-11,458	245,276	114,279
97,714	-11,595	245,067	114,057
98,728	-11,777	244,856	113,798
99,743	-11,851	244,730	113,668
100,757	-11,815	244,471	113,567
101,772	-11,736	244,227	113,509
102,787	-11,672	244,110	113,498
103,801	-11,576	243,877	113,458
104,816	-11,484	243,776	113,477
105,830	-11,549	243,627	113,345
106,845	-11,386	243,371	113,350
107,860	-11,464	243,377	113,278
108,874	-11,598	242,920	112,945
109,889	-11,527	242,702	112,891
110,903	-11,697	242,681	112,732
111,918	-11,635	242,276	112,585
112,933	-11,621	242,290	112,592
113,947	-11,568	242,090	112,533
114,962	-11,530	241,913	112,472
115,976	-11,524	241,806	112,417
116,991	-11,275	241,512	112,474
118,006	-11,702	241,440	112,081
119,020	-11,556	241,464	112,201
120,035	-11,232	241,090	112,283
121,049	-11,392	241,080	112,137
122,064	-11,405	240,896	112,031
123,079	-11,571	240,527	111,714
124,093	-11,737	240,400	111,510
125,108	-11,795	240,119	111,323
126,122	-11,957	239,845	111,054
127,137	-11,726	239,583	111,111
128,151	-11,781	239,586	111,058
129,166	-11,883	239,352	110,856
130,181	-11,835	239,151	110,792
131,195	-11,653	238,846	110,788
132,210	-11,642	238,796	110,764
133,224	-11,571	238,663	110,750
134,239	-11,567	238,496	110,666
135,254	-11,335	238,267	110,737
136,268	-11,539	238,130	110,499
137,283	-11,906	237,710	109,998
138,297	-12,047	237,686	109,864
139,312	-11,866	237,414	109,874
140,327	-11,695	237,426	110,007
141,341	-11,124	237,427	110,456
142,356	-11,231	237,248	110,278
143,370	-11,031	237,068	110,344
144,385	-11,084	236,885	110,206
145,400	-10,951	236,676	110,206
146,414	-11,050	236,511	110,040
147,429	-11,204	236,296	109,808
148,443	-11,302	236,254	109,700
149,458	-11,077	235,930	109,719
150,473	-11,309	235,997	109,555
151,487	-11,277	235,748	109,455
152,502	-11,352	235,513	109,277
153,516	-11,035	235,199	109,374
154,531	-11,286	235,236	109,181
155,546	-11,214	234,952	109,097
156,560	-11,443	234,930	108,896
157,575	-11,475	234,655	108,733
158,589	-11,336	234,316	108,676
159,604	-11,094	234,271	108,837
160,619	-11,141	234,195	108,755
161,633	-10,872	233,943	108,840
162,648	-11,031	233,843	108,659
163,662	-11,096	233,609	108,489
164,677	-11,369	233,520	108,223
165,692	-11,177	233,310	108,267
166,706	-11,081	233,221	108,291
167,721	-10,933	233,084	108,335
168,735	-10,991	232,979	108,231
169,750	-11,076	232,681	108,016
170,764	-11,213	232,617	107,869
171,779	-11,281	232,595	107,796
172,794	-10,991	232,371	107,910
173,808	-11,330	232,143	107,529
174,823	-11,711	231,789	107,058
175,837	-11,756	231,498	106,878
176,852	-11,507	231,540	107,083
177,867	-11,555	231,734	107,126
178,881	-11,144	231,337	107,253
179,896	-10,936	231,126	107,307
180,910	-11,095	231,126	107,174
181,925	-10,862	230,855	107,221
182,940	-11,133	230,811	106,980
183,954	-11,034	230,634	106,965
184,969	-10,990	230,543	106,947
185,983	-10,988	230,289	106,821
186,998	-10,795	230,146	106,895
188,013	-10,724	229,969	106,858
189,027	-10,975	229,993	106,666
190,042	-10,846	229,553	106,552
191,056	-10,992	229,577	106,440
192,071	-10,793	229,301	106,456
193,086	-10,933	229,278	106,328
194,100	-11,119	229,059	106,074
195,115	-11,482	228,693	105,615
196,129	-11,509	228,681	105,579
197,144	-6,478	230,260	110,195
198,159	-0,393	231,965	115,734
199,173	2,684	232,885	118,580
200,188	3,146	232,837	118,904
201,202	3,218	232,741	118,901
202,217	3,125	232,794	118,845
203,232	3,399	232,486	118,890
204,246	3,514	232,394	118,921
205,261	3,756	232,225	119,011
206,275	3,964	232,098	119,097
207,290	3,774	232,095	118,938
208,304	3,697	231,926	118,781
209,319	4,023	231,547	118,827
210,334	3,748	231,474	118,567
211,348	3,363	231,325	118,184
212,363	3,154	230,991	117,841
213,377	2,887	230,708	117,481
214,392	2,892	230,694	117,467
215,407	3,177	230,588	117,623
216,421	3,290	230,357	117,581
217,436	3,054	230,096	117,256
218,450	2,806	229,979	116,996
219,465	2,898	229,888	117,009
220,480	2,800	229,757	116,857
221,494	3,025	229,606	116,942
222,509	3,014	229,452	116,845
223,523	3,020	229,520	116,874
224,538	2,893	229,130	116,568
225,553	2,909	228,961	116,484
226,567	3,079	228,870	116,557
227,582	3,314	228,755	116,667
228,596	3,339	228,608	116,600
229,611	3,006	228,562	116,313
230,626	2,662	228,330	115,923
231,640	2,831	228,057	115,902
232,655	3,163	227,981	116,105
233,669	3,447	227,999	116,320
234,684	3,508	227,852	116,281
235,699	3,406	227,617	116,073
236,713	3,052	227,436	115,703
237,728	2,815	227,331	115,460
238,742	2,950	227,035	115,401
239,757	3,030	226,854	115,359
240,772	3,094	226,686	115,311
241,786	2,889	226,666	115,136
242,801	3,297	226,617	115,409
243,815	3,407	226,506	115,424
244,830	3,393	226,278	115,288
245,844	3,170	226,063	115,000
246,859	3,142	225,940	114,906
247,874	3,228	225,878	114,929
248,888	3,090	225,726	114,738
249,903	3,294	225,431	114,731
250,917	3,199	225,135	114,499
251,932	3,107	225,078	114,391
252,947	2,939	224,898	114,163
253,961	2,846	224,848	114,058
254,976	2,824	224,679	113,946
255,990	3,140	224,625	114,144
257,005	3,380	224,426	114,212
258,020	3,225	224,404	114,076
259,034	3,242	224,266	114,008
260,049	3,224	224,165	113,933
261,063	3,319	223,798	113,807
262,078	3,442	223,835	113,906
263,093	3,547	223,747	113,930
264,107	3,316	223,502	113,624
265,122	3,123	223,471	113,455
266,136	3,520	223,328	113,666
267,151	3,315	223,038	113,356
268,166	3,215	222,770	113,136
269,180	2,737	222,655	112,715
270,195	2,901	222,564	112,780
271,209	3,009	222,318	112,725
272,224	2,852	222,275	112,577
273,239	2,922	222,176	112,568
274,253	2,863	222,047	112,449
275,268	2,802	221,728	112,233
276,282	2,637	221,633	112,053
277,297	2,673	221,447	111,976
278,312	2,804	221,341	112,008
279,326	2,743	221,316	111,940
280,341	2,990	221,171	112,039
281,355	3,206	221,009	112,105
282,370	3,163	220,830	111,973
283,384	2,841	220,506	111,563
284,399	2,816	220,463	111,513
285,414	2,815	220,294	111,417
286,428	2,685	220,383	111,357
287,443	2,968	220,366	111,545
288,457	3,131	220,078	111,508
289,472	2,836	219,904	111,196
290,487	2,470	219,577	110,754
291,501	2,590	219,439	110,761
292,516	2,587	219,333	110,696
293,530	2,609	219,244	110,657
294,545	2,755	219,066	110,663
295,560	2,890	218,930	110,683
296,574	2,890	218,962	110,690
297,589	2,908	218,756	110,588
298,603	3,015	218,658	110,606
299,618	2,858	218,454	110,379
300,633	2,911	218,488	110,426
301,647	3,316	218,239	110,582
302,662	3,319	218,041	110,474
303,676	2,988	218,048	110,229
304,691	3,084	217,830	110,178
305,706	3,377	217,647	110,287
306,720	3,303	217,632	110,216
307,735	2,956	217,328	109,803
308,749	2,932	217,185	109,703
309,764	3,224	216,963	109,791
310,779	3,259	216,965	109,808
311,793	3,289	216,693	109,682
312,808	3,270	216,635	109,628
313,822	3,354	216,472	109,597
314,837	3,047	216,323	109,292
315,852	2,852	216,276	109,119
316,866	3,164	216,184	109,286
317,881	3,123	215,991	109,149
318,895	3,328	215,880	109,229
319,910	3,241	215,652	109,042
320,925	2,771	215,405	108,573
321,939	2,575	215,213	108,328
322,954	2,829	215,260	108,522
323,968	3,200	215,227	108,760
324,983	3,256	215,042	108,696
325,997	3,375	214,987	108,743
327,012	3,200	214,764	108,497
328,027	3,179	214,657	108,418
329,041	3,362	214,461	108,439
330,056	3,738	214,224	108,576
331,070	2,813	214,174	107,886
332,085	2,706	213,898	107,662
333,100	2,694	213,804	107,596
334,114	3,226	213,824	107,972
335,129	3,129	213,650	107,807
336,143	3,014	213,537	107,659
337,158	2,906	213,348	107,478
338,173	3,005	213,360	107,544
339,187	2,914	213,159	107,369
340,202	2,769	212,782	107,068
341,216	2,774	212,763	107,052
342,231	3,084	212,611	107,184
343,246	2,797	212,449	106,892
344,260	2,908	212,337	106,903
345,275	3,026	212,300	106,958
346,289	3,128	212,246	106,992
347,304	3,346	211,879	106,950
348,319	2,883	211,954	106,655
349,333	3,205	211,712	106,748
350,348	3,329	211,665	106,802
351,362	3,242	211,524	106,661
352,377	3,472	211,444	106,771
353,392	3,270	211,256	106,525
354,406	3,195	211,108	106,390
355,421	194,717	1340,745	1415,280
356,435	155,494	1478,341	1415,246
