DTS Sentinel unit serial number:	SN410029Multiplexer serial number:	ORYXHardware model number:	OX2-SRSoftware version number:	ORYX F/W v4,00 Oryx Data Collector v3.7.2.0data status	okinstallation	B6 Nyhavnadifferential loss correction	single-endedforward channel	channel 2reverse channel	N/Adate	2023/12/11time	03:25:08forward acquisition time	300,00reverse acquisition time	0,00gamma	499,1914k internal	0,3124k external	0,3124temperature offset calibration	1,0000default loss term (dB/km)	0,3820temperature slope calibration	1,0000multiplexer offset coefficient	1,0000multiplexer slope coefficient	1,0000fibre end	0,00T internal ref (°C)	21,20T ext. ref 1 (°C)	3,97T ext. ref 2 (°C)	3,98length (m)	temperature (°C)	Stokes	anti-Stokes-744,400	566,825	-0,046	-0,084
-743,385	23,190	-0,216	0,132
-742,371	-89,234	0,089	-0,019
-741,356	-4,031	-0,237	0,122
-740,342	800,000	-0,009	0,026
-739,327	-59,607	-0,331	0,105
-738,312	128,141	-0,012	-0,011
-737,298	-62,689	-0,219	0,067
-736,283	-200,000	0,016	-0,100
-735,269	15,410	-0,212	0,124
-734,254	70,353	-0,060	-0,046
-733,239	-83,451	-0,391	-0,093
-732,225	334,330	0,118	0,171
-731,210	800,000	0,053	0,128
-730,196	800,000	0,031	0,067
-729,181	194,223	0,105	-0,119
-728,167	200,468	0,079	-0,091
-727,152	280,560	-0,071	-0,095
-726,137	207,161	-0,110	0,128
-725,123	-200,000	-0,007	0,067
-724,108	800,000	-0,011	-0,032
-723,094	-200,000	0,011	-0,074
-722,079	-200,000	0,004	0,017
-721,064	-200,000	-0,021	0,084
-720,050	-84,153	-0,093	0,022
-719,035	-26,860	0,010	0,004
-718,021	-200,000	-0,019	-0,152
-717,006	723,273	-0,024	-0,048
-715,991	85,409	0,017	-0,014
-714,977	-142,013	-0,194	0,014
-713,962	-200,000	0,000	-0,028
-712,948	-32,330	-0,122	0,050
-711,933	-200,000	-0,029	-0,135
-710,918	117,646	0,099	-0,091
-709,904	476,639	-0,006	-0,010
-708,889	318,632	0,021	0,029
-707,875	177,465	0,083	-0,090
-706,860	-200,000	0,010	-0,055
-705,845	-94,202	0,090	-0,018
-704,831	-167,695	0,071	-0,002
-703,816	-83,659	-0,061	0,014
-702,802	126,462	-0,026	0,024
-701,787	519,076	0,031	-0,054
-700,772	-200,000	-0,030	-0,139
-699,758	-87,884	0,096	0,021
-698,743	-115,393	0,135	0,019
-697,729	-113,691	0,084	-0,012
-696,714	-68,405	0,095	0,027
-695,699	506,108	-0,009	-0,016
-694,685	-91,872	-0,139	0,029
-693,670	-132,096	0,121	-0,012
-692,656	-72,707	0,087	-0,024
-691,641	113,428	0,034	-0,031
-690,627	44,360	0,110	0,075
-689,612	800,000	-0,015	-0,047
-688,597	568,654	-0,044	-0,079
-687,583	-200,000	-0,002	-0,044
-686,568	-200,000	-0,001	0,089
-685,554	10,828	0,109	-0,062
-684,539	-200,000	-0,025	-0,180
-683,524	-200,000	-0,027	-0,105
-682,510	337,821	0,074	0,107
-681,495	82,156	-0,075	0,061
-680,481	127,690	-0,053	0,050
-679,466	-200,000	0,002	-0,070
-678,451	114,110	-0,055	-0,050
-677,437	800,000	-0,037	-0,113
-676,422	-81,057	-0,101	-0,025
-675,408	707,767	-0,040	0,079
-674,393	-200,000	0,012	-0,084
-673,378	-22,575	-0,116	0,052
-672,364	279,793	-0,033	-0,044
-671,349	-200,000	-0,018	-0,061
-670,335	-200,000	-0,023	-0,099
-669,320	800,000	-0,065	-0,137
-668,305	-64,095	-0,025	-0,007
-667,291	-200,000	-0,001	-0,075
-666,276	566,923	0,034	-0,062
-665,262	151,758	0,062	0,063
-664,247	-135,838	-0,030	0,003
-663,232	319,015	-0,030	0,042
-662,218	-200,000	-0,009	0,043
-661,203	800,000	0,052	-0,115
-660,189	137,932	0,021	-0,021
-659,174	-200,000	-0,025	-0,228
-658,159	28,163	-0,039	0,025
-657,145	-59,967	-0,014	-0,004
-656,130	225,252	0,061	-0,074
-655,116	233,586	0,027	-0,033
-654,101	-68,586	0,167	-0,048
-653,086	-16,391	-0,100	-0,047
-652,072	-25,914	-0,143	-0,062
-651,057	-142,477	-0,137	0,010
-650,043	-161,610	0,041	0,002
-649,028	120,481	0,088	-0,082
-648,014	324,105	0,033	-0,047
-646,999	800,000	-0,006	-0,015
-645,984	-44,434	-0,048	-0,018
-644,970	-27,775	-0,070	-0,030
-643,955	199,728	0,087	-0,099
-642,941	-122,288	-0,122	-0,015
-641,926	-200,000	0,018	-0,067
-640,911	95,828	-0,116	0,098
-639,897	689,243	0,087	0,169
-638,882	-200,000	-0,011	0,189
-637,868	-32,337	0,117	-0,048
-636,853	133,964	0,055	-0,053
-635,838	154,254	0,022	0,022
-634,824	31,866	0,011	-0,007
-633,809	309,476	0,079	0,110
-632,795	800,000	0,029	0,063
-631,780	-200,000	-0,015	-0,087
-630,765	-78,434	-0,068	-0,017
-629,751	-84,716	-0,091	-0,021
-628,736	138,217	-0,146	-0,142
-627,722	800,000	0,015	-0,041
-626,707	-200,000	-0,001	-0,038
-625,692	-86,996	-0,065	-0,015
-624,678	-200,000	-0,025	-0,128
-623,663	-200,000	0,002	0,032
-622,649	-200,000	-0,004	-0,036
-621,634	442,852	-0,017	-0,027
-620,619	-0,862	-0,058	-0,030
-619,605	800,000	0,014	-0,045
-618,590	5,168	0,091	0,050
-617,576	-200,000	-0,005	0,027
-616,561	277,693	-0,045	-0,059
-615,546	-120,041	-0,051	0,006
-614,532	372,433	-0,068	-0,103
-613,517	-200,000	-0,006	-0,084
-612,503	-40,877	-0,115	-0,044
-611,488	800,000	0,054	0,121
-610,474	-39,793	0,128	0,049
-609,459	-200,000	-0,007	-0,085
-608,444	438,499	-0,027	0,044
-607,430	-101,237	0,139	-0,025
-606,415	-83,209	-0,111	0,026
-605,401	-200,000	0,024	0,135
-604,386	324,705	0,035	0,050
-603,371	145,747	-0,033	0,033
-602,357	-132,043	0,014	0,001
-601,342	168,753	0,045	-0,047
-600,328	-91,319	-0,044	-0,009
-599,313	63,787	0,031	0,023
-598,298	167,754	0,143	-0,151
-597,284	-200,000	0,015	0,120
-596,269	-200,000	-0,026	0,147
-595,255	-200,000	0,020	-0,128
-594,240	-19,032	0,116	0,053
-593,225	114,810	-0,106	-0,096
-592,211	-65,652	-0,148	0,044
-591,196	-39,251	0,116	0,045
-590,182	690,290	-0,065	-0,128
-589,167	-48,575	-0,053	-0,019
-588,152	-200,000	-0,002	0,089
-587,138	240,839	0,076	0,094
-586,123	-59,492	-0,101	-0,032
-585,109	-200,000	-0,013	-0,104
-584,094	800,000	-0,062	-0,133
-583,079	14,974	0,040	0,023
-582,065	163,400	-0,037	-0,038
-581,050	-200,000	0,016	-0,068
-580,036	231,111	-0,140	-0,170
-579,021	12,183	-0,145	-0,082
-578,006	-129,496	-0,268	0,027
-576,992	-200,000	0,023	-0,089
-575,977	-200,000	0,003	0,068
-574,963	56,664	0,088	0,063
-573,948	-200,000	0,018	-0,179
-572,934	-29,473	0,102	0,043
-571,919	112,371	0,012	-0,011
-570,904	642,578	-0,015	-0,029
-569,890	193,211	-0,054	0,061
-568,875	-200,000	0,007	-0,034
-567,861	800,000	-0,034	-0,085
-566,846	86,601	-0,131	0,107
-565,831	481,253	-0,068	-0,114
-564,817	111,702	0,085	-0,076
-563,802	50,935	-0,117	-0,082
-562,788	-17,783	-0,104	-0,048
-561,773	800,000	0,021	-0,053
-560,758	-200,000	0,009	0,093
-559,744	292,744	0,035	0,048
-558,729	99,927	-0,046	0,039
-557,715	92,255	-0,107	-0,089
-556,700	800,000	0,041	0,102
-555,685	123,867	-0,063	0,059
-554,671	139,689	-0,038	0,037
-553,656	-200,000	-0,009	0,061
-552,642	800,000	-0,021	0,047
-551,627	284,355	0,084	0,112
-550,612	155,550	-0,051	0,052
-549,598	256,031	-0,040	0,050
-548,583	-71,329	0,073	-0,020
-547,569	0,283	0,062	0,032
-546,554	-200,000	0,006	0,108
-545,539	-200,000	0,032	0,177
-544,525	-41,566	-0,086	0,033
-543,510	-103,687	-0,184	-0,032
-542,496	218,016	0,085	-0,100
-541,481	-97,348	-0,137	-0,026
-540,466	223,379	-0,050	-0,060
-539,452	19,457	0,033	-0,019
-538,437	66,358	0,059	0,044
-537,423	-200,000	-0,003	0,093
-536,408	-200,000	0,009	0,041
-535,393	269,054	-0,085	0,111
-534,379	-200,000	-0,020	0,148
-533,364	-57,904	-0,120	0,039
-532,350	-110,765	0,204	0,031
-531,335	51,914	0,113	0,080
-530,321	152,031	0,159	0,160
-529,306	-37,029	-0,070	0,028
-528,291	-200,000	0,008	-0,041
-527,277	-200,000	0,024	-0,091
-526,262	-119,440	-0,078	0,010
-525,248	239,284	0,075	0,092
-524,233	-200,000	0,000	0,037
-523,218	640,351	-0,018	0,033
-522,204	121,347	0,107	0,099
-521,189	800,000	0,032	0,073
-520,175	-200,000	0,006	-0,121
-519,160	-114,028	-0,167	0,024
-518,145	-79,478	0,085	0,021
-517,131	-14,386	0,054	0,026
-516,116	-46,266	-0,098	-0,035
-515,102	-117,600	0,144	0,019
-514,087	-161,112	0,023	-0,001
-513,072	-161,921	-0,109	-0,004
-512,058	199,023	0,126	-0,142
-511,043	-200,000	-0,001	0,070
-510,029	-124,402	-0,182	-0,021
-509,014	-166,208	0,105	-0,003
-507,999	53,215	0,067	0,047
-506,985	122,203	-0,135	-0,124
-505,970	-15,873	-0,080	-0,038
-504,956	800,000	0,057	-0,127
-503,941	-101,939	0,163	0,029
-502,926	-107,902	0,045	-0,007
-501,912	552,099	0,030	0,053
-500,897	70,718	0,017	-0,013
-499,883	123,096	0,092	0,085
-498,868	31,348	-0,028	0,018
-497,853	19,900	-0,120	-0,071
-496,839	415,647	0,058	-0,092
-495,824	800,000	-0,028	-0,077
-494,810	800,000	-0,004	0,011
-493,795	-200,000	-0,010	0,115
-492,781	353,303	0,046	-0,067
-491,766	-200,000	-0,011	-0,076
-490,751	36,671	-0,070	-0,046
-489,737	206,447	0,006	0,007
-488,722	-93,689	0,086	0,017
-487,708	116,184	0,070	0,063
-486,693	-93,205	0,034	0,007
-485,678	-49,091	0,038	-0,013
-484,664	137,729	-0,027	0,026
-483,649	152,734	-0,110	-0,111
-482,635	-145,203	-0,118	0,008
-481,620	-200,000	-0,005	-0,033
-480,605	252,512	0,052	0,065
-479,591	163,482	-0,048	0,050
-478,576	800,000	0,034	-0,072
-477,562	729,332	0,028	-0,055
-476,547	-58,484	0,034	0,011
-475,532	653,242	-0,013	0,024
-474,518	-200,000	0,023	0,131
-473,503	800,000	0,030	-0,087
-472,489	800,000	0,056	0,117
-471,474	-197,897	-0,075	-0,000
-470,459	-200,000	-0,014	-0,093
-469,445	120,139	-0,203	-0,186
-468,430	41,385	-0,112	-0,075
-467,416	-200,000	0,017	-0,320
-466,401	-160,066	0,124	0,005
-465,386	-70,685	-0,174	-0,048
-464,372	-200,000	0,005	0,036
-463,357	-200,000	0,002	0,006
-462,343	42,734	-0,147	-0,098
-461,328	-0,418	0,088	-0,046
-460,313	-200,000	0,013	-0,123
-459,299	800,000	0,039	0,122
-458,284	-14,491	-0,078	-0,037
-457,270	52,893	0,129	-0,091
-456,255	-13,739	0,008	-0,004
-455,241	7,536	-0,082	-0,045
-454,226	-200,000	0,047	0,000
-453,211	800,000	0,044	0,090
-452,197	800,000	0,026	-0,066
-451,182	323,761	0,080	0,113
-450,168	-200,000	0,023	-0,099
-449,153	-31,513	-0,090	-0,037
-448,138	364,123	0,016	0,023
-447,124	72,296	-0,069	-0,053
-446,109	-64,693	-0,076	0,022
-445,095	-200,000	-0,008	-0,098
-444,080	-113,109	0,147	0,021
-443,065	-45,011	-0,102	0,037
-442,051	110,174	0,019	0,017
-441,036	800,000	0,067	-0,160
-440,022	60,761	-0,123	-0,089
-439,007	54,420	0,117	0,083
-437,992	280,403	0,022	0,029
-436,978	558,429	0,012	0,022
-435,963	-4,929	0,104	0,053
-434,949	46,243	0,066	0,045
-433,934	128,871	-0,090	0,084
-432,919	27,099	-0,046	0,029
-431,905	156,282	0,134	0,137
-430,890	246,918	0,045	0,056
-429,876	-34,835	0,059	-0,024
-428,861	137,611	0,018	0,018
-427,846	-200,000	0,012	-0,141
-426,832	305,521	-0,071	-0,097
-425,817	3,863	0,081	-0,044
-424,803	-200,000	0,003	0,064
-423,788	217,742	0,017	-0,020
-422,773	-98,589	-0,027	-0,005
-421,759	-200,000	-0,005	0,030
-420,744	29,488	-0,038	-0,024
-419,730	-200,000	0,022	0,091
-418,715	-200,000	-0,007	-0,108
-417,701	800,000	-0,039	-0,113
-416,686	-60,077	-0,078	0,024
-415,671	-80,457	0,016	0,004
-414,657	208,590	0,093	-0,107
-413,642	6,841	0,074	-0,040
-412,628	-43,928	0,085	-0,031
-411,613	227,133	-0,147	-0,176
-410,598	108,790	0,042	-0,037
-409,584	-200,000	0,019	-0,069
-408,569	-131,609	0,123	-0,012
-407,555	-200,000	-0,022	0,104
-406,540	-107,859	0,095	-0,015
-405,525	-200,000	0,013	0,127
-404,511	-200,000	0,007	-0,117
-403,496	16,520	-0,056	-0,033
-402,482	-48,556	0,064	0,023
-401,467	-61,879	-0,051	-0,016
-400,452	-64,652	0,116	0,034
-399,438	-141,573	0,097	-0,007
-398,423	66,623	-0,063	-0,047
-397,409	-200,000	-0,011	-0,101
-396,394	-112,025	-0,151	-0,022
-395,379	516,851	0,058	-0,101
-394,365	-28,724	0,056	0,024
-393,350	-95,101	0,130	-0,026
-392,336	800,000	0,042	0,097
-391,321	-16,019	-0,041	-0,019
-390,306	336,184	0,087	-0,125
-389,292	-200,000	0,015	-0,095
-388,277	-200,000	0,013	0,067
-387,263	-52,963	-0,047	0,016
-386,248	-58,078	0,037	0,012
-385,233	-143,191	0,020	0,001
-384,219	-192,179	-0,094	-0,001
-383,204	114,777	-0,054	0,049
-382,190	130,406	-0,119	-0,112
-381,175	-200,000	0,004	-0,152
-380,160	-200,000	0,007	-0,045
-379,146	-5,367	-0,104	0,052
-378,131	-200,000	0,000	-0,026
-377,117	-200,000	-0,004	0,037
-376,102	31,540	-0,082	0,052
-375,088	229,190	-0,077	-0,092
-374,073	-200,000	-0,034	-0,135
-373,058	19,947	0,083	-0,049
-372,044	-102,271	0,224	0,039
-371,029	1,503	-0,104	0,055
-370,015	141,477	0,024	0,024
-369,000	178,367	0,030	-0,032
-367,985	-200,000	0,006	-0,104
-366,971	-200,000	0,025	-0,163
-365,956	800,000	-0,014	0,042
-364,942	64,619	0,044	0,032
-363,927	-54,801	-0,067	-0,022
-362,912	315,575	-0,047	-0,065
-361,898	347,817	-0,029	-0,043
-360,883	-200,000	0,035	-0,181
-359,869	-50,085	-0,107	0,037
-358,854	-101,685	-0,091	0,016
-357,839	223,887	-0,038	0,045
-356,825	437,175	0,026	0,042
-355,810	-30,036	0,059	-0,025
-354,796	159,641	0,045	-0,046
-353,781	-200,000	0,019	-0,090
-352,766	294,795	-0,088	-0,119
-351,752	-146,645	-0,172	0,011
-350,737	199,983	0,022	0,024
-349,723	-139,491	0,099	0,008
-348,708	14,052	-0,072	0,041
-347,693	735,356	-0,038	0,075
-346,679	184,699	0,099	0,108
-345,664	-85,124	-0,081	0,018
-344,650	128,532	0,044	0,041
-343,635	-200,000	-0,000	-0,098
-342,620	-81,978	0,078	0,019
-341,606	-80,974	-0,158	0,038
-340,591	-17,629	0,115	-0,053
-339,577	20,285	-0,028	-0,017
-338,562	-54,920	-0,032	-0,010
-337,548	-7,761	0,052	0,026
-336,533	27,957	-0,051	0,032
-335,518	327,647	0,095	0,134
-334,504	-7,671	-0,138	0,068
-333,489	358,365	-0,040	-0,058
-332,475	302,467	0,027	0,037
-331,460	7,104	0,114	0,062
-330,445	63,532	-0,006	0,004
-329,431	529,142	-0,020	0,035
-328,416	68,440	0,067	0,051
-327,402	-78,801	0,058	0,014
-326,387	-200,000	-0,019	-0,099
-325,372	-200,000	0,015	-0,140
-324,358	800,000	0,015	-0,043
-323,343	-200,000	-0,018	-0,100
-322,329	-200,000	-0,019	0,150
-321,314	-125,076	0,087	-0,010
-320,299	152,874	-0,049	-0,049
-319,285	132,550	0,066	-0,062
-318,270	-145,149	-0,086	0,006
-317,256	533,950	-0,042	0,073
-316,241	-200,000	-0,006	0,132
-315,226	105,960	-0,080	-0,069
-314,212	800,000	0,027	0,087
-313,197	-200,000	0,015	0,158
-312,183	45,305	0,092	-0,062
-311,168	88,720	0,073	0,059
-310,153	126,148	0,019	-0,017
-309,139	-56,102	0,142	-0,046
-308,124	-178,727	0,225	0,004
-307,110	-200,000	-0,003	0,108
-306,095	154,403	-0,059	0,059
-305,080	156,000	-0,071	0,072
-304,066	71,834	0,054	0,041
-303,051	-200,000	-0,030	0,143
-302,037	-70,135	-0,022	-0,006
-301,022	694,759	-0,031	0,060
-300,008	37,924	0,147	0,095
-298,993	86,367	-0,097	-0,078
-297,978	716,469	0,052	0,102
-296,964	-3,801	-0,056	-0,028
-295,949	60,266	0,026	0,019
-294,935	-200,000	0,008	0,041
-293,920	9,985	-0,038	-0,021
-292,905	-90,354	0,043	0,009
-291,891	278,906	0,087	-0,114
-290,876	-200,000	-0,013	0,062
-289,862	220,708	0,060	0,070
-288,847	-3,947	0,042	-0,021
-287,832	308,535	0,070	-0,096
-286,818	37,328	0,029	0,018
-285,803	85,166	-0,053	0,042
-284,789	-7,145	0,074	0,037
-283,774	-200,000	-0,006	0,099
-282,759	269,713	0,049	0,063
-281,745	15,204	0,075	0,043
-280,730	510,089	-0,051	-0,087
-279,716	-112,200	-0,034	-0,005
-278,701	16,819	0,158	0,091
-277,686	-200,000	0,005	0,146
-276,672	257,463	-0,049	-0,062
-275,657	-107,655	-0,091	-0,014
-274,643	5,203	-0,166	-0,090
-273,628	262,671	0,039	-0,049
-272,613	-200,000	-0,004	-0,039
-271,599	-101,901	0,075	0,013
-270,584	96,013	-0,054	0,045
-269,570	800,000	-0,016	-0,034
-268,555	-200,000	0,011	0,140
-267,540	-22,724	-0,058	0,025
-266,526	360,069	-0,027	-0,039
-265,511	-200,000	-0,016	-0,180
-264,497	12,630	0,139	0,078
-263,482	800,000	-0,033	0,070
-262,467	337,017	0,068	-0,097
-261,453	-200,000	-0,020	0,092
-260,438	-130,744	-0,051	-0,005
-259,424	-60,932	-0,109	0,034
-258,409	-200,000	0,004	-0,054
-257,395	-138,419	-0,062	-0,005
-256,380	-134,221	0,027	0,002
-255,365	-25,699	0,105	-0,045
-254,351	-87,267	-0,070	-0,015
-253,336	-147,462	-0,083	-0,005
-252,322	-176,826	-0,090	0,002
-251,307	-24,599	0,096	-0,042
-250,292	-34,050	-0,074	0,030
-249,278	166,009	0,113	-0,117
-248,263	800,000	-0,011	0,027
-247,249	-156,399	0,106	0,005
-246,234	800,000	0,057	0,149
-245,219	-36,463	-0,154	0,060
-244,205	34,017	0,023	-0,015
-243,190	195,178	0,035	0,038
-242,176	-23,740	-0,063	0,028
-241,161	800,000	0,021	0,053
-240,146	-59,484	0,113	0,035
-239,132	250,748	0,041	0,050
-238,117	322,480	-0,069	-0,096
-237,103	-200,000	-0,004	-0,100
-236,088	-200,000	-0,010	-0,059
-235,073	-11,458	0,239	-0,115
-234,059	-75,663	-0,176	0,045
-233,044	766,516	0,069	0,137
-232,030	800,000	-0,043	-0,094
-231,015	208,986	0,102	0,117
-230,000	-93,784	-0,069	0,014
-228,986	-200,000	-0,015	-0,066
-227,971	800,000	0,037	0,092
-226,957	-200,000	-0,011	0,050
-225,942	800,000	0,007	0,023
-224,927	800,000	-0,057	0,145
-223,913	33,322	-0,091	0,058
-222,898	-200,000	0,002	-0,060
-221,884	-103,005	-0,143	0,025
-220,869	-36,003	-0,080	0,032
-219,855	-32,642	0,040	-0,016
-218,840	-200,000	-0,026	0,105
-217,825	-52,621	-0,140	0,047
-216,811	-200,000	-0,006	-0,105
-215,796	-200,000	-0,040	-0,000
-214,782	97,845	0,011	0,009
-213,767	-200,000	-0,009	-0,101
-212,752	86,766	0,097	-0,078
-211,738	88,753	0,121	0,098
-210,723	-200,000	0,003	0,055
-209,709	800,000	-0,035	0,103
-208,694	-111,530	0,034	-0,005
-207,679	-63,379	-0,137	-0,041
-206,665	-2,701	0,079	0,040
-205,650	150,404	0,052	0,052
-204,636	-200,000	0,038	0,131
-203,621	224,501	-0,053	0,063
-202,606	150,399	0,032	-0,032
-201,592	49,369	-0,028	0,019
-200,577	-200,000	-0,004	0,114
-199,563	35,385	0,038	-0,024
-198,548	482,910	-0,039	-0,066
-197,533	800,000	0,053	-0,156
-196,519	-121,896	0,176	-0,021
-195,504	-2,042	0,089	0,045
-194,490	51,528	0,011	0,007
-193,475	156,250	-0,108	-0,108
-192,460	-77,026	0,112	0,028
-191,446	107,456	-0,094	-0,081
-190,431	-29,449	-0,073	-0,030
-189,417	-41,994	0,153	0,057
-188,402	-200,000	-0,013	0,100
-187,387	-69,259	-0,080	0,022
-186,373	-60,316	-0,064	-0,020
-185,358	-200,000	-0,005	-0,024
-184,344	-200,000	-0,039	0,129
-183,329	228,722	-0,126	0,150
-182,315	152,266	0,058	0,058
-181,300	602,730	-0,044	-0,080
-180,285	135,126	0,036	0,034
-179,271	33,899	-0,077	0,049
-178,256	-200,000	0,015	0,078
-177,242	-58,335	0,038	-0,012
-176,227	-38,527	0,057	0,022
-175,212	-12,000	0,072	0,034
-174,198	-200,000	0,006	0,154
-173,183	212,532	0,026	0,029
-172,169	800,000	-0,051	-0,106
-171,154	-173,285	-0,085	0,002
-170,139	-86,003	0,113	0,025
-169,125	-61,880	0,081	-0,025
-168,110	-200,000	0,000	-0,044
-167,096	73,218	-0,017	-0,013
-166,081	372,498	-0,100	-0,149
-165,066	-110,417	0,098	-0,015
-164,052	800,000	0,025	-0,077
-163,037	334,624	-0,090	0,127
-162,023	800,000	0,048	0,140
-161,008	-6,509	0,102	0,051
-159,993	-73,934	0,022	-0,006
-158,979	-125,531	-0,098	0,011
-157,964	800,000	-0,004	-0,011
-156,950	-18,138	0,126	-0,057
-155,935	59,012	0,034	0,025
-154,920	360,726	-0,083	0,121
-153,906	800,000	0,029	0,077
-152,891	49,101	-0,088	0,060
-151,877	-200,000	0,027	-0,097
-150,862	-200,000	-0,018	-0,121
-149,847	63,897	-0,076	-0,056
-148,833	-88,795	0,068	-0,015
-147,818	-171,874	0,126	0,003
-146,804	-166,197	-0,043	-0,001
-145,789	-200,000	0,017	0,084
-144,775	-200,000	0,003	0,039
-143,760	32,771	0,102	-0,064
-142,745	-10,373	-0,082	-0,039
-141,731	276,686	-0,032	0,042
-140,716	-68,784	0,219	-0,061
-139,702	-113,870	0,167	0,023
-138,687	-200,000	-0,006	0,076
-137,672	-37,335	-0,023	-0,009
-136,658	800,000	-0,022	-0,049
-135,643	-23,201	-0,084	0,037
-134,629	-109,803	-0,026	0,004
-133,614	696,346	0,036	-0,070
-132,599	800,000	-0,046	0,116
-131,585	-2,921	0,064	0,033
-130,570	15,060	0,020	-0,011
-129,556	260,552	0,028	0,036
-128,541	-78,166	0,132	-0,033
-127,526	-200,000	0,013	-0,178
-126,512	-14,037	-0,079	-0,037
-125,497	-200,000	0,016	-0,114
-124,483	116,845	-0,041	0,037
-123,468	466,216	-0,110	-0,180
-122,453	-50,903	-0,051	0,017
-121,439	471,238	0,026	-0,043
-120,424	26,718	-0,067	-0,041
-119,410	-200,000	-0,011	-0,048
-118,395	-163,280	0,022	0,001
-117,380	-200,000	0,021	0,089
-116,366	263,942	0,037	0,048
-115,351	219,230	0,023	0,027
-114,337	800,000	0,007	-0,021
-113,322	0,569	0,069	-0,036
-112,307	182,706	0,077	0,083
-111,293	-103,199	0,119	0,020
-110,278	-200,000	0,004	-0,141
-109,264	800,000	-0,012	-0,029
-108,249	-77,589	-0,091	-0,023
-107,234	-18,545	-0,205	-0,093
-106,220	78,437	-0,078	0,061
-105,205	-200,000	0,023	-0,128
-104,191	-34,380	0,099	0,039
-103,176	212,229	0,035	-0,041
-102,162	-200,000	0,033	0,194
-101,147	-200,000	-0,004	0,033
-100,132	54,481	-0,085	-0,059
-99,118	-200,000	-0,000	-0,048
-98,103	800,000	-0,029	-0,067
-97,089	-162,310	0,076	-0,003
-96,074	-77,540	0,026	0,007
-95,059	-41,551	0,046	-0,017
-94,045	510,573	-0,039	0,066
-93,030	-200,000	-0,003	0,052
-92,016	-200,000	0,011	-0,048
-91,001	-55,421	0,092	0,030
-89,986	-200,000	-0,012	0,143
-88,972	457,214	0,099	0,161
-87,957	-200,000	0,011	0,065
-86,943	35,611	-0,057	-0,036
-85,928	-70,810	-0,076	-0,021
-84,913	-113,785	-0,127	-0,018
-83,899	-117,293	-0,036	0,005
-82,884	-106,614	0,158	-0,025
-81,870	103,026	0,033	-0,028
-80,855	156,436	-0,044	-0,044
-79,840	-132,447	0,066	0,006
-78,826	-122,732	-0,161	0,019
-77,811	-46,058	0,126	-0,045
-76,797	-150,587	-0,055	-0,003
-75,782	351,355	0,062	0,090
-74,767	-122,210	0,042	0,005
-73,753	-31,639	0,097	0,040
-72,738	166,497	0,064	0,066
-71,724	-84,033	-0,086	0,020
-70,709	-113,968	-0,115	-0,016
-69,694	-73,450	0,037	0,010
-68,680	800,000	-0,009	0,025
-67,665	46,751	-0,063	0,042
-66,651	-97,346	-0,116	0,022
-65,636	33,476	-0,056	-0,036
-64,622	798,370	-0,029	0,058
-63,607	19,552	0,083	-0,048
-62,592	-148,751	-0,056	-0,003
-61,578	-61,649	-0,008	0,002
-60,563	-200,000	-0,037	0,146
-59,549	-200,000	-0,014	0,176
-58,534	-85,623	-1,493	-0,334
-57,519	632,503	-0,788	-1,455
-56,505	-200,000	-0,953	-4,533
-55,490	-0,149	0,749	-0,385
-54,476	800,000	5,006	11,787
-53,461	-200,000	14,510	262,158
-52,446	-200,000	695,403	2269,392
-51,432	587,944	1622,905	2911,180
-50,417	119,573	1632,203	1466,454
-49,403	76,501	1286,143	988,015
-48,388	37,841	1023,844	658,587
-47,373	23,421	982,750	584,668
-46,359	22,578	972,134	575,563
-45,344	21,429	967,662	569,132
-44,330	21,419	966,243	568,241
-43,315	21,234	964,896	566,824
-42,300	21,284	963,716	566,269
-41,286	21,277	962,627	565,585
-40,271	21,239	961,771	564,936
-39,257	21,211	960,821	564,265
-38,242	21,268	959,893	563,883
-37,227	21,181	959,235	563,191
-36,213	21,185	958,170	562,556
-35,198	21,120	957,316	561,821
-34,184	21,218	956,592	561,692
-33,169	21,143	955,910	561,028
-32,154	21,261	954,674	560,661
-31,140	21,217	954,084	560,149
-30,125	21,253	953,272	559,766
-29,111	21,265	952,479	559,316
-28,096	21,241	951,711	558,765
-27,082	21,252	951,015	558,370
-26,067	21,267	950,064	557,840
-25,052	21,242	949,464	557,383
-24,038	21,219	948,830	556,915
-23,023	21,229	948,321	556,626
-22,009	21,240	947,577	556,204
-20,994	21,244	946,869	555,777
-19,979	21,314	946,368	555,686
-18,965	21,343	945,621	555,317
-17,950	21,250	944,991	554,630
-16,936	21,164	944,455	554,018
-15,921	21,183	943,666	553,593
-14,906	21,200	942,833	553,136
-13,892	21,103	942,318	552,504
-12,877	21,127	941,780	552,242
-11,863	21,087	941,183	551,745
-10,848	21,076	940,744	551,429
-9,833	21,240	940,109	551,557
-8,819	21,194	939,540	551,056
-7,804	21,122	938,832	550,390
-6,790	21,085	938,399	549,998
-5,775	21,108	937,917	549,766
-4,760	21,150	937,090	549,391
-3,746	21,098	936,583	548,909
-2,731	20,966	935,902	548,069
-1,717	20,883	935,136	547,336
-0,702	20,942	934,518	547,140
0,313	20,711	933,872	546,859
1,327	23,800	931,717	555,275
2,342	33,217	795,076	498,923
3,356	30,588	451,552	279,364
4,371	-0,044	295,077	151,811
5,386	-4,571	276,100	137,726
6,400	-6,172	270,268	133,310
7,415	-6,662	268,088	131,770
8,429	-6,134	266,742	131,582
9,444	-6,319	265,999	131,035
10,459	-6,108	265,382	130,912
11,473	-6,120	264,683	130,545
12,488	-6,089	264,163	130,304
13,502	-6,212	263,708	129,956
14,517	-6,276	263,346	129,709
15,531	-5,720	262,841	129,953
16,546	-5,891	262,692	129,713
17,561	-5,785	262,317	129,611
18,575	-5,669	261,864	129,481
19,590	-5,906	261,549	129,100
20,604	-5,739	261,376	129,154
21,619	-5,858	260,970	128,834
22,634	-5,779	260,553	128,688
23,648	-5,885	260,318	128,465
24,663	-5,915	260,037	128,288
25,677	-5,815	259,786	128,243
26,692	-5,890	259,592	128,068
27,707	-5,791	259,286	127,994
28,721	-5,955	259,087	127,738
29,736	-5,854	258,885	127,717
30,750	-5,949	258,526	127,444
31,765	-5,753	258,285	127,488
32,780	-6,014	258,083	127,145
33,794	-5,849	257,822	127,152
34,809	-5,849	257,603	127,033
35,823	-5,761	257,243	126,922
36,838	-5,838	257,129	126,786
37,853	-5,956	256,869	126,543
38,867	-5,936	256,705	126,467
39,882	-5,805	256,395	126,420
40,896	-5,986	256,300	126,201
41,911	-5,886	255,946	126,104
42,926	-6,055	255,718	125,831
43,940	-5,959	255,544	125,820
44,955	-6,020	255,276	125,622
45,969	-6,212	255,083	125,348
46,984	-6,200	254,812	125,214
47,999	-6,378	254,644	124,964
49,013	-6,455	254,322	124,728
50,028	-6,408	254,024	124,611
51,042	-6,738	253,976	124,288
52,057	-6,603	253,650	124,236
53,071	-6,474	253,348	124,189
54,086	-6,526	253,368	124,142
55,101	-6,435	253,045	124,052
56,115	-6,339	252,901	124,054
57,130	-6,061	252,864	124,266
58,144	-5,571	252,521	124,512
59,159	-5,830	252,481	124,257
60,174	-5,894	252,224	124,064
61,188	-5,993	252,080	123,897
62,203	-5,822	251,835	123,912
63,217	-5,912	251,754	123,784
64,232	-5,638	251,284	123,778
65,247	-5,787	251,087	123,541
66,261	-5,960	250,867	123,273
67,276	-6,025	250,671	123,110
68,290	-6,110	250,309	122,848
69,305	-6,347	250,022	122,493
70,320	-6,251	250,045	122,576
71,334	-5,943	249,901	122,758
72,349	-5,777	249,723	122,802
73,363	-5,741	249,540	122,732
74,378	-5,700	249,358	122,667
75,393	-6,042	249,182	122,277
76,407	-5,809	248,899	122,326
77,422	-5,966	248,722	122,094
78,436	-5,804	248,505	122,115
79,451	-5,868	248,142	121,872
80,466	-6,026	248,133	121,722
81,480	-5,930	247,863	121,660
82,495	-6,109	247,695	121,414
83,509	-6,051	247,598	121,406
84,524	-6,229	247,301	121,098
85,539	-6,151	247,085	121,047
86,553	-6,072	246,893	121,009
87,568	-6,224	246,761	120,806
88,582	-6,061	246,504	120,807
89,597	-6,184	246,468	120,674
90,611	-6,102	246,313	120,657
91,626	-6,019	246,027	120,576
92,641	-6,061	245,913	120,474
93,655	-5,976	245,539	120,352
94,670	-6,017	245,365	120,221
95,684	-6,055	245,305	120,149
96,699	-6,009	245,055	120,055
97,714	-6,027	244,908	119,956
98,728	-6,073	244,604	119,758
99,743	-6,383	244,508	119,441
100,757	-6,228	244,395	119,505
101,772	-6,371	244,069	119,216
102,787	-6,111	243,908	119,344
103,801	-6,279	243,689	119,085
104,816	-6,070	243,557	119,184
105,830	-5,983	243,408	119,173
106,845	-6,007	243,362	119,120
107,860	-5,935	243,138	119,060
108,874	-6,173	242,813	118,692
109,889	-6,089	242,540	118,618
110,903	-6,064	242,529	118,623
111,918	-6,296	242,326	118,320
112,933	-6,154	242,135	118,334
113,947	-6,147	241,978	118,253
114,962	-5,968	241,805	118,306
115,976	-5,861	241,578	118,273
116,991	-5,958	241,430	118,110
118,006	-5,913	241,246	118,046
119,020	-5,812	241,161	118,077
120,035	-6,043	241,034	117,814
121,049	-5,913	240,871	117,831
122,064	-5,939	240,644	117,688
123,079	-5,994	240,499	117,562
124,093	-5,964	240,244	117,451
125,108	-6,224	239,983	117,100
126,122	-6,223	239,818	117,010
127,137	-6,335	239,768	116,883
128,151	-6,361	239,498	116,719
129,166	-6,330	239,394	116,684
130,181	-6,284	239,034	116,535
131,195	-6,384	238,903	116,380
132,210	-6,070	238,800	116,575
133,224	-6,272	238,657	116,330
134,239	-6,325	238,696	116,296
135,254	-6,055	238,332	116,328
136,268	-6,312	238,108	116,000
137,283	-6,256	237,943	115,954
138,297	-6,405	237,770	115,738
139,312	-6,368	237,451	115,602
140,327	-6,310	237,370	115,600
141,341	-5,674	237,460	116,149
142,356	-5,932	237,333	115,868
143,370	-5,781	237,079	115,855
144,385	-5,619	236,837	115,858
145,400	-5,621	236,662	115,760
146,414	-5,584	236,493	115,697
147,429	-5,791	236,256	115,404
148,443	-5,947	236,162	115,222
149,458	-5,810	236,054	115,270
150,473	-5,700	235,808	115,227
151,487	-5,770	235,569	115,045
152,502	-5,892	235,592	114,947
153,516	-5,870	235,388	114,855
154,531	-5,799	235,239	114,829
155,546	-5,566	234,829	114,805
156,560	-5,820	234,613	114,486
157,575	-6,192	234,637	114,190
158,589	-6,028	234,458	114,224
159,604	-5,645	234,358	114,471
160,619	-5,553	234,041	114,380
161,633	-5,600	234,151	114,386
162,648	-5,536	233,902	114,305
163,662	-5,731	233,663	114,022
164,677	-5,943	233,505	113,767
165,692	-5,792	233,429	113,839
166,706	-5,620	233,306	113,905
167,721	-5,687	233,163	113,773
168,735	-5,638	232,996	113,720
169,750	-5,702	232,643	113,487
170,764	-5,788	232,726	113,449
171,779	-5,842	232,585	113,328
172,794	-5,597	232,251	113,348
173,808	-5,896	232,028	112,993
174,823	-6,203	231,675	112,570
175,837	-6,267	231,615	112,480
176,852	-6,130	231,482	112,513
177,867	-5,588	231,363	112,872
178,881	-5,620	231,324	112,817
179,896	-5,609	231,238	112,774
180,910	-5,683	231,249	112,711
181,925	-5,560	230,886	112,621
182,940	-5,579	230,610	112,461
183,954	-5,564	230,468	112,393
184,969	-5,595	230,465	112,358
185,983	-5,216	230,284	112,556
186,998	-5,428	230,225	112,351
188,013	-5,658	230,059	112,081
189,027	-5,644	229,761	111,937
190,042	-5,567	229,696	111,955
191,056	-5,624	229,431	111,771
192,071	-5,821	229,337	111,562
193,086	-5,790	229,106	111,464
194,100	-5,827	228,964	111,356
195,115	-6,538	228,425	110,532
196,129	-7,419	228,097	109,681
197,144	-3,886	229,284	112,992
198,159	1,107	230,604	117,534
199,173	4,081	231,478	120,294
200,188	4,585	231,361	120,616
201,202	4,590	231,296	120,576
202,217	4,803	231,072	120,614
203,232	4,941	230,989	120,667
204,246	4,929	230,966	120,636
205,261	5,076	230,799	120,652
206,275	5,181	230,751	120,698
207,290	5,208	230,583	120,620
208,304	5,122	230,452	120,474
209,319	4,952	230,216	120,208
210,334	5,132	229,948	120,197
211,348	4,850	229,738	119,858
212,363	4,422	229,488	119,386
213,377	4,307	229,231	119,153
214,392	4,069	229,193	118,939
215,407	4,244	229,129	119,030
216,421	4,327	228,932	118,981
217,436	4,149	228,675	118,700
218,450	4,123	228,464	118,560
219,465	3,748	228,370	118,212
220,480	4,117	228,111	118,351
221,494	3,686	228,109	118,008
222,509	4,106	227,947	118,236
223,523	4,242	227,713	118,209
224,538	4,065	227,648	118,028
225,553	4,137	227,629	118,063
226,567	4,425	227,389	118,149
227,582	4,589	227,376	118,257
228,596	4,488	227,300	118,130
229,611	4,358	226,880	117,801
230,626	4,189	226,797	117,619
231,640	4,229	226,633	117,554
232,655	4,426	226,642	117,698
233,669	4,763	226,508	117,874
234,684	4,796	226,541	117,907
235,699	4,645	226,249	117,630
236,713	4,205	226,034	117,172
237,728	4,275	225,842	117,116
238,742	4,063	225,627	116,833
239,757	4,061	225,428	116,718
240,772	4,226	225,395	116,816
241,786	4,082	225,289	116,641
242,801	4,167	225,138	116,617
243,815	4,572	225,074	116,880
244,830	4,697	224,922	116,885
245,844	4,158	224,558	116,279
246,859	4,358	224,454	116,365
247,874	4,466	224,470	116,444
248,888	4,630	224,291	116,465
249,903	4,616	224,008	116,297
250,917	4,436	224,052	116,174
251,932	4,295	223,720	115,885
252,947	4,107	223,557	115,649
253,961	4,110	223,366	115,543
254,976	4,208	223,273	115,558
255,990	4,321	223,209	115,599
257,005	4,440	223,140	115,643
258,020	4,475	222,969	115,569
259,034	4,445	222,995	115,550
260,049	4,559	222,689	115,467
261,063	4,246	222,523	115,137
262,078	4,579	222,410	115,316
263,093	4,697	222,160	115,264
264,107	4,662	222,114	115,204
265,122	4,673	221,999	115,143
266,136	4,828	221,906	115,199
267,151	4,988	221,644	115,172
268,166	4,322	221,409	114,545
269,180	3,914	221,214	114,131
270,195	4,046	221,086	114,153
271,209	4,213	220,880	114,160
272,224	4,193	220,793	114,090
273,239	4,064	220,764	113,970
274,253	4,212	220,558	113,963
275,268	4,040	220,344	113,714
276,282	4,017	220,053	113,537
277,297	3,928	220,082	113,476
278,312	4,054	219,876	113,453
279,326	4,193	219,862	113,538
280,341	4,119	219,762	113,422
281,355	4,184	219,638	113,395
282,370	4,322	219,355	113,341
283,384	4,175	219,340	113,214
284,399	4,153	219,090	113,059
285,414	3,728	218,993	112,687
286,428	4,223	218,901	112,993
287,443	4,224	218,798	112,931
288,457	4,433	218,647	112,996
289,472	4,134	218,425	112,652
290,487	3,661	218,208	112,184
291,501	3,722	217,976	112,099
292,516	3,894	217,901	112,176
293,530	3,997	217,833	112,207
294,545	3,939	217,660	112,065
295,560	4,105	217,509	112,098
296,574	3,903	217,520	111,947
297,589	3,858	217,360	111,822
298,603	4,038	217,298	111,911
299,618	4,267	217,083	111,957
300,633	4,109	216,955	111,766
301,647	4,551	216,818	112,005
302,662	4,669	216,724	112,033
303,676	4,526	216,558	111,833
304,691	4,334	216,414	111,610
305,706	4,577	216,249	111,690
306,720	4,495	216,180	111,586
307,735	4,398	215,947	111,386
308,749	4,068	215,806	111,065
309,764	4,282	215,776	111,194
310,779	4,640	215,611	111,357
311,793	4,510	215,392	111,140
312,808	4,356	215,359	111,003
313,822	4,278	215,134	110,821
314,837	4,201	214,970	110,671
315,852	4,141	214,799	110,530
316,866	4,445	214,644	110,659
317,881	4,478	214,609	110,654
318,895	4,396	214,515	110,537
319,910	4,348	214,170	110,315
320,925	4,076	214,078	110,064
321,939	3,852	213,902	109,803
322,954	3,721	213,844	109,670
323,968	4,061	213,880	109,921
324,983	4,304	213,748	110,017
325,997	4,580	213,572	110,114
327,012	4,357	213,286	109,798
328,027	4,394	213,158	109,748
329,041	4,451	213,298	109,851
330,056	4,468	213,250	109,829
331,070	4,228	212,752	109,392
332,085	3,884	212,681	109,102
333,100	4,014	212,532	109,108
334,114	4,389	212,357	109,274
335,129	4,464	212,163	109,218
336,143	4,205	211,967	108,924
337,158	3,838	212,105	108,725
338,173	3,983	211,843	108,683
339,187	4,066	211,576	108,596
340,202	3,774	211,503	108,342
341,216	3,720	211,376	108,230
342,231	3,807	211,281	108,233
343,246	4,060	211,106	108,311
344,260	4,094	211,008	108,275
345,275	4,303	210,876	108,345
346,289	4,419	210,778	108,366
347,304	4,253	210,642	108,170
348,319	4,245	210,484	108,074
349,333	4,186	210,439	108,000
350,348	4,263	210,338	107,992
351,362	4,589	210,247	108,165
352,377	4,330	210,067	107,881
353,392	4,238	209,939	107,741
354,406	4,215	209,804	107,646
355,421	193,049	1346,227	1431,734
356,435	154,034	1484,771	1431,837
