DTS Sentinel unit serial number:	SN410029Multiplexer serial number:	ORYXHardware model number:	OX2-SRSoftware version number:	ORYX F/W v4,00 Oryx Data Collector v3.7.2.0data status	okinstallation	B6 Nyhavnadifferential loss correction	single-endedforward channel	channel 2reverse channel	N/Adate	2023/12/07time	21:25:08forward acquisition time	300,00reverse acquisition time	0,00gamma	499,1914k internal	0,3164k external	0,3164temperature offset calibration	1,0000default loss term (dB/km)	0,3820temperature slope calibration	1,0000multiplexer offset coefficient	1,0000multiplexer slope coefficient	1,0000fibre end	0,00T internal ref (°C)	13,69T ext. ref 1 (°C)	-3,19T ext. ref 2 (°C)	-3,19length (m)	temperature (°C)	Stokes	anti-Stokes-744,400	113,210	0,042	-0,037
-743,385	42,433	-0,203	0,136
-742,371	298,422	0,095	0,129
-741,356	-175,110	-0,163	0,003
-740,342	-133,506	0,132	-0,012
-739,327	-86,513	-0,469	-0,105
-738,312	115,983	0,155	-0,139
-737,298	25,329	-0,192	-0,117
-736,283	-120,743	0,201	0,025
-735,269	-133,034	-0,225	-0,021
-734,254	-200,000	0,032	0,121
-733,239	-10,714	-0,422	-0,205
-732,225	10,566	0,141	0,079
-731,210	-2,720	0,109	-0,056
-730,196	-2,301	-0,069	-0,036
-729,181	-138,674	-0,089	0,007
-728,167	-69,983	-0,146	-0,041
-727,152	-200,000	0,000	-0,041
-726,137	-59,559	-0,111	0,035
-725,123	-100,527	-0,038	0,007
-724,108	-200,000	-0,024	0,078
-723,094	-200,000	0,013	-0,061
-722,079	-14,459	-0,073	-0,034
-721,064	-200,000	0,001	0,014
-720,050	709,016	0,040	0,078
-719,035	-200,000	0,034	-0,115
-718,021	-200,000	-0,005	-0,065
-717,006	174,689	-0,035	-0,038
-715,991	-200,000	0,012	-0,204
-714,977	-46,328	-0,039	0,014
-713,962	200,651	-0,050	0,056
-712,948	-101,795	0,081	-0,014
-711,933	541,495	0,062	0,109
-710,918	-89,231	-0,117	-0,025
-709,904	-50,150	-0,032	0,011
-708,889	-200,000	-0,019	-0,108
-707,875	-157,485	-0,083	-0,004
-706,860	-14,541	0,067	-0,032
-705,845	26,428	0,119	-0,073
-704,831	-200,000	-0,017	-0,061
-703,816	800,000	-0,048	0,101
-702,802	249,327	-0,122	0,153
-701,787	373,140	-0,015	-0,023
-700,772	-85,630	0,098	-0,022
-699,758	-174,637	0,052	0,001
-698,743	-18,367	0,065	-0,030
-697,729	-136,234	-0,070	-0,006
-696,714	800,000	0,021	0,049
-695,699	-200,000	-0,044	-0,232
-694,685	50,925	-0,105	-0,073
-693,670	800,000	-0,014	0,029
-692,656	-127,867	-0,132	-0,014
-691,641	800,000	0,044	0,104
-690,627	-83,984	-0,127	-0,029
-689,612	800,000	0,016	0,037
-688,597	-200,000	0,003	-0,111
-687,583	439,736	-0,031	0,051
-686,568	-200,000	0,019	-0,175
-685,554	800,000	0,018	-0,042
-684,539	-123,469	0,098	-0,011
-683,524	800,000	0,008	0,024
-682,510	-200,000	-0,022	-0,096
-681,495	-145,310	-0,215	0,014
-680,481	69,989	-0,133	-0,101
-679,466	-175,763	-0,128	0,002
-678,451	800,000	0,004	-0,011
-677,437	-200,000	0,001	-0,080
-676,422	-200,000	0,005	-0,037
-675,408	-76,917	-0,051	-0,013
-674,393	800,000	-0,037	-0,087
-673,378	-200,000	0,026	-0,163
-672,364	84,174	-0,090	-0,072
-671,349	-200,000	-0,033	-0,148
-670,335	125,671	0,126	0,117
-669,320	194,181	-0,062	0,069
-668,305	-123,841	0,089	-0,010
-667,291	193,205	-0,046	-0,051
-666,276	-200,000	0,011	-0,073
-665,262	800,000	0,018	-0,053
-664,247	-200,000	-0,035	0,140
-663,232	104,922	0,068	0,059
-662,218	-200,000	-0,006	-0,030
-661,203	-104,362	-0,115	-0,019
-660,189	-10,735	0,024	-0,012
-659,174	-200,000	-0,008	-0,052
-658,159	-200,000	0,024	0,144
-657,145	-82,790	-0,081	-0,019
-656,130	424,025	-0,047	0,075
-655,116	228,979	0,095	0,114
-654,101	-119,492	0,167	-0,021
-653,086	60,404	-0,100	0,073
-652,072	-200,000	0,015	-0,103
-651,057	40,683	0,010	0,007
-650,043	800,000	0,041	-0,109
-649,028	183,089	-0,061	-0,066
-648,014	727,553	0,041	0,081
-646,999	352,977	-0,040	0,059
-645,984	-200,000	0,014	-0,105
-644,970	153,592	-0,021	-0,021
-643,955	-200,000	-0,040	-0,180
-642,941	-42,742	-0,084	0,031
-641,926	33,072	0,058	0,037
-640,911	233,640	0,042	0,050
-639,897	302,550	0,050	0,069
-638,882	191,475	-0,052	-0,058
-637,868	800,000	-0,036	-0,092
-636,853	67,648	-0,096	-0,072
-635,838	-200,000	0,041	-0,193
-634,824	-200,000	-0,026	-0,120
-633,809	185,084	0,022	0,024
-632,795	203,197	0,062	-0,071
-631,780	-200,000	0,004	-0,014
-630,765	-130,295	0,089	0,009
-629,751	800,000	0,012	-0,036
-628,736	-71,012	-0,124	0,034
-627,722	272,594	0,045	0,059
-626,707	800,000	0,028	-0,083
-625,692	800,000	0,008	0,018
-624,678	-2,026	-0,026	0,013
-623,663	121,492	-0,068	-0,062
-622,649	800,000	0,059	-0,157
-621,634	-200,000	-0,014	0,050
-620,619	47,230	-0,079	0,054
-619,605	378,282	-0,099	-0,149
-618,590	160,578	-0,061	-0,063
-617,576	-200,000	-0,002	0,039
-616,561	-111,312	0,033	0,005
-615,546	800,000	-0,017	-0,043
-614,532	227,906	-0,076	-0,091
-613,517	-62,764	-0,012	0,003
-612,503	-200,000	-0,030	0,175
-611,488	-13,060	-0,068	0,032
-610,474	-200,000	0,022	0,095
-609,459	-43,780	-0,036	-0,013
-608,444	-200,000	0,005	-0,075
-607,430	-128,863	-0,058	-0,006
-606,415	-75,787	-0,103	0,027
-605,401	239,463	-0,028	0,034
-604,386	-88,260	0,207	-0,045
-603,371	-3,190	0,054	-0,027
-602,357	131,971	0,108	0,102
-601,342	532,820	-0,076	-0,131
-600,328	173,622	-0,064	-0,068
-599,313	32,734	0,021	0,013
-598,298	332,398	-0,031	0,044
-597,284	-108,327	0,026	0,004
-596,269	-102,917	0,079	-0,014
-595,255	100,254	0,029	0,024
-594,240	-200,000	-0,014	-0,104
-593,225	800,000	0,047	0,098
-592,211	44,090	0,029	-0,019
-591,196	57,934	0,081	-0,058
-590,182	52,650	0,050	-0,035
-589,167	-65,631	0,085	0,025
-588,152	251,840	-0,027	0,034
-587,138	407,828	-0,066	0,103
-586,123	-104,988	0,149	-0,025
-585,109	-1,066	0,089	-0,046
-584,094	-55,633	-0,053	-0,017
-583,079	43,753	0,075	-0,050
-582,065	-84,435	0,045	0,010
-581,050	-200,000	-0,024	0,151
-580,036	800,000	-0,050	0,119
-579,021	296,331	0,034	-0,046
-578,006	-200,000	0,001	-0,088
-576,992	-68,949	0,053	-0,015
-575,977	141,308	0,125	-0,121
-574,963	-200,000	-0,005	0,057
-573,948	-200,000	-0,007	0,102
-572,934	24,105	0,061	0,037
-571,919	337,499	-0,092	-0,131
-570,904	-200,000	-0,015	-0,052
-569,890	800,000	-0,044	-0,103
-568,875	211,635	0,096	0,111
-567,861	-200,000	0,012	0,140
-566,846	-200,000	0,010	0,045
-565,831	-129,687	-0,100	-0,010
-564,817	308,250	-0,067	-0,091
-563,802	583,292	0,019	0,035
-562,788	-200,000	0,007	-0,051
-561,773	-152,825	0,031	0,002
-560,758	-160,440	0,068	0,003
-559,744	427,693	0,110	0,174
-558,729	12,968	-0,021	0,012
-557,715	-38,018	-0,075	0,029
-556,700	-41,486	-0,046	0,017
-555,685	-44,506	0,018	-0,007
-554,671	-37,954	-0,089	-0,034
-553,656	19,783	0,121	-0,071
-552,642	-200,000	0,001	0,049
-551,627	800,000	-0,007	-0,017
-550,612	-14,786	0,065	-0,030
-549,598	179,369	-0,069	0,074
-548,583	-60,551	0,111	-0,034
-547,569	58,246	-0,058	-0,042
-546,554	-39,699	0,150	0,057
-545,539	-200,000	0,003	0,080
-544,525	132,641	-0,036	0,034
-543,510	52,875	-0,061	0,043
-542,496	-154,160	-0,140	0,007
-541,481	133,826	0,027	0,026
-540,466	57,925	-0,074	0,053
-539,452	-111,237	0,196	0,029
-538,437	-200,000	0,008	0,101
-537,423	537,772	-0,037	0,064
-536,408	106,265	-0,142	0,122
-535,393	800,000	-0,005	0,013
-534,379	190,322	0,050	0,055
-533,364	125,945	-0,104	-0,096
-532,350	-34,967	0,088	0,035
-531,335	800,000	-0,008	0,027
-530,321	309,698	0,078	0,107
-529,306	4,377	-0,119	-0,063
-528,291	-105,112	-0,139	-0,023
-527,277	-200,000	0,003	-0,056
-526,262	515,372	-0,054	-0,093
-525,248	18,386	0,112	0,065
-524,233	-200,000	-0,018	0,101
-523,218	-78,389	-0,092	0,023
-522,204	216,570	0,065	0,076
-521,189	-134,027	-0,043	-0,004
-520,175	-200,000	-0,044	-0,160
-519,160	135,785	-0,091	-0,086
-518,145	-200,000	0,010	0,211
-517,131	-93,804	-0,125	0,025
-516,116	83,213	-0,082	0,065
-515,102	90,922	-0,110	0,090
-514,087	-200,000	-0,028	-0,182
-513,072	-200,000	-0,017	-0,057
-512,058	-200,000	0,009	0,068
-511,043	-200,000	0,048	0,170
-510,029	19,008	0,126	0,073
-509,014	49,829	-0,082	0,057
-507,999	-200,000	-0,011	0,107
-506,985	-123,816	0,032	-0,004
-505,970	112,746	-0,117	-0,103
-504,956	-19,579	-0,177	-0,080
-503,941	-83,437	0,144	0,033
-502,926	393,676	-0,130	-0,198
-501,912	-200,000	-0,009	0,113
-500,897	-133,512	-0,124	0,011
-499,883	-200,000	0,005	-0,138
-498,868	96,399	-0,101	-0,084
-497,853	-200,000	0,009	0,105
-496,839	0,131	0,105	-0,054
-495,824	-91,046	0,080	0,017
-494,810	186,576	0,044	0,048
-493,795	-200,000	0,013	0,052
-492,781	800,000	0,027	0,059
-491,766	-92,423	0,061	-0,012
-490,751	5,913	-0,114	0,061
-489,737	800,000	-0,011	-0,023
-488,722	416,358	0,080	-0,125
-487,708	800,000	0,062	0,159
-486,693	-200,000	0,018	0,098
-485,678	59,218	0,073	0,052
-484,664	339,066	-0,061	0,087
-483,649	800,000	0,035	-0,094
-482,635	-68,205	-0,153	0,043
-481,620	159,385	0,069	0,070
-480,605	-92,446	-0,070	-0,014
-479,591	-25,060	0,065	0,028
-478,576	-126,722	-0,073	0,008
-477,562	114,964	-0,056	0,049
-476,547	-200,000	0,025	-0,107
-475,532	10,943	-0,083	-0,046
-474,518	-200,000	-0,010	0,093
-473,503	-54,997	-0,016	-0,005
-472,489	-200,000	0,003	0,022
-471,474	-200,000	-0,001	-0,045
-470,459	248,165	0,083	-0,103
-469,445	343,231	-0,018	0,026
-468,430	171,290	0,008	-0,009
-467,416	55,657	0,112	0,079
-466,401	-200,000	-0,026	0,092
-465,386	-19,711	-0,027	0,012
-464,372	527,931	-0,045	0,078
-463,357	-200,000	0,019	-0,146
-462,343	37,622	-0,067	0,043
-461,328	351,504	-0,048	-0,069
-460,313	136,981	-0,054	0,052
-459,299	10,006	0,104	0,057
-458,284	-0,939	0,100	-0,051
-457,270	407,256	-0,006	-0,009
-456,255	-77,295	0,147	-0,037
-455,241	-109,275	-0,068	0,010
-454,226	-120,536	-0,066	0,008
-453,211	800,000	0,015	0,034
-452,197	800,000	0,046	-0,128
-451,182	-110,383	-0,059	0,009
-450,168	-200,000	-0,002	-0,034
-449,153	268,624	-0,076	-0,097
-448,138	93,281	-0,051	-0,042
-447,124	-110,169	-0,003	0,000
-446,109	-200,000	0,002	-0,021
-445,095	405,856	0,032	0,050
-444,080	-200,000	-0,004	-0,102
-443,065	307,270	0,049	0,067
-442,051	-2,349	0,158	0,081
-441,036	-190,816	-0,147	0,001
-440,022	72,520	0,044	0,033
-439,007	291,168	-0,088	-0,117
-437,992	387,532	-0,038	-0,057
-436,978	-200,000	-0,001	0,183
-435,963	-200,000	0,016	-0,052
-434,949	800,000	-0,012	0,036
-433,934	-36,187	-0,033	-0,013
-432,919	-156,589	-0,070	-0,003
-431,905	-66,183	-0,006	-0,002
-430,890	800,000	0,026	0,070
-429,876	-185,282	-0,038	0,000
-428,861	6,818	0,142	0,077
-427,846	4,096	0,039	-0,021
-426,832	-200,000	0,074	-0,249
-425,817	-200,000	-0,013	0,051
-424,803	-12,675	0,045	-0,021
-423,788	-200,000	0,012	-0,044
-422,773	233,101	-0,075	-0,090
-421,759	-62,792	0,052	-0,016
-420,744	800,000	-0,026	0,080
-419,730	-104,965	-0,186	0,031
-418,715	-99,381	0,057	0,010
-417,701	-99,578	0,039	-0,007
-416,686	800,000	-0,042	0,121
-415,671	692,337	0,017	-0,033
-414,657	285,669	0,032	0,042
-413,642	47,902	0,058	-0,039
-412,628	-74,874	-0,049	-0,013
-411,613	800,000	-0,074	-0,168
-410,598	798,847	-0,028	-0,056
-409,584	800,000	0,010	-0,027
-408,569	12,075	0,082	-0,046
-407,555	231,472	0,047	-0,057
-406,540	538,727	-0,031	0,053
-405,525	-119,489	-0,095	-0,012
-404,511	800,000	0,052	-0,140
-403,496	800,000	-0,029	-0,072
-402,482	-87,180	-0,085	-0,019
-401,467	38,053	0,105	-0,068
-400,452	267,993	0,057	0,073
-399,438	-200,000	-0,011	0,097
-398,423	600,450	-0,049	-0,088
-397,409	207,909	0,093	-0,106
-396,394	800,000	-0,018	0,047
-395,379	-119,647	0,042	-0,005
-394,365	-200,000	-0,001	-0,004
-393,350	-27,320	0,063	0,026
-392,336	-200,000	0,028	0,113
-391,321	800,000	0,018	-0,042
-390,306	-11,867	-0,080	-0,038
-389,292	285,837	-0,053	-0,069
-388,277	800,000	-0,030	-0,086
-387,263	-200,000	-0,020	-0,087
-386,248	-141,909	0,184	-0,013
-385,233	-0,303	-0,273	0,141
-384,219	-20,268	0,116	0,051
-383,204	-200,000	0,016	-0,096
-382,190	-93,555	-0,082	-0,016
-381,175	-19,687	0,158	-0,071
-380,160	213,469	-0,026	-0,029
-379,146	97,743	0,086	0,072
-378,131	-98,269	-0,074	-0,014
-377,117	-200,000	-0,030	-0,139
-376,102	56,632	0,086	0,061
-375,088	175,215	-0,121	-0,127
-374,073	-200,000	-0,010	-0,093
-373,058	46,017	0,179	0,120
-372,044	83,682	0,080	-0,063
-371,029	24,273	-0,082	-0,049
-370,015	44,186	0,121	0,080
-369,000	561,445	-0,074	0,131
-367,985	-200,000	-0,020	-0,230
-366,971	-64,628	0,084	-0,025
-365,956	-15,859	-0,100	-0,046
-364,942	435,800	0,112	0,177
-363,927	-200,000	-0,032	0,106
-362,912	-135,732	0,081	-0,007
-361,898	-44,028	-0,008	0,003
-360,883	800,000	0,007	-0,021
-359,869	-200,000	0,025	0,085
-358,854	-200,000	0,005	0,031
-357,839	487,608	0,054	-0,090
-356,825	-200,000	-0,012	0,130
-355,810	20,409	0,123	0,072
-354,796	86,840	-0,111	-0,088
-353,781	-200,000	-0,008	0,028
-352,766	197,018	-0,104	-0,115
-351,752	68,411	-0,056	-0,042
-350,737	-200,000	-0,005	-0,073
-349,723	73,526	-0,076	0,058
-348,708	171,701	0,082	-0,086
-347,693	21,422	0,035	-0,021
-346,679	800,000	0,077	-0,155
-345,664	-200,000	-0,004	0,013
-344,650	-155,875	0,150	0,007
-343,635	94,430	0,018	-0,015
-342,620	424,749	0,023	-0,036
-341,606	-87,045	0,069	-0,015
-340,591	-200,000	0,003	0,161
-339,577	-76,523	-0,082	-0,021
-338,562	-200,000	0,004	-0,108
-337,548	800,000	-0,061	0,141
-336,533	21,892	0,120	0,070
-335,518	289,083	-0,101	0,133
-334,504	-91,658	0,027	0,005
-333,489	-13,967	-0,115	0,053
-332,475	475,839	-0,031	-0,052
-331,460	56,490	-0,019	0,013
-330,445	35,567	0,016	0,010
-329,431	-146,251	0,141	-0,009
-328,416	-109,935	0,057	0,009
-327,402	-179,762	-0,055	-0,001
-326,387	161,170	0,022	-0,022
-325,372	322,343	-0,098	0,135
-324,358	-88,472	-0,079	0,017
-323,343	-200,000	-0,005	0,085
-322,329	-53,481	0,028	-0,009
-321,314	-94,771	0,122	0,024
-320,299	-200,000	-0,030	0,146
-319,285	74,868	-0,029	-0,022
-318,270	114,820	0,049	0,043
-317,256	666,469	-0,067	-0,126
-316,241	-51,503	0,067	-0,022
-315,226	2,673	-0,033	-0,017
-314,212	462,852	0,069	0,112
-313,197	-200,000	0,012	-0,040
-312,183	319,084	-0,018	0,025
-311,168	-29,593	-0,115	0,047
-310,153	74,243	-0,119	-0,091
-309,139	173,445	0,074	-0,078
-308,124	196,154	0,088	-0,097
-307,110	-142,608	0,068	0,005
-306,095	86,530	-0,098	0,078
-305,080	137,574	0,045	0,043
-304,066	273,590	-0,030	-0,039
-303,051	-23,986	0,093	0,040
-302,037	-4,670	-0,101	-0,050
-301,022	-96,826	-0,119	0,022
-300,008	-200,000	-0,015	0,087
-298,993	-200,000	0,020	-0,079
-297,978	-49,704	-0,081	-0,028
-296,964	-89,485	0,113	-0,024
-295,949	-94,146	-0,090	-0,018
-294,935	671,378	0,092	-0,173
-293,920	-200,000	-0,013	0,060
-292,905	-200,000	-0,002	0,014
-291,891	247,815	0,073	-0,089
-290,876	-200,000	-0,016	-0,086
-289,862	-94,425	0,093	0,018
-288,847	-54,313	0,058	0,019
-287,832	800,000	-0,021	0,066
-286,818	67,584	-0,049	-0,036
-285,803	465,820	0,050	0,082
-284,789	12,388	-0,029	0,016
-283,774	270,540	0,045	0,057
-282,759	-168,520	-0,063	-0,002
-281,745	-54,548	0,102	-0,033
-280,730	-176,260	-0,098	-0,002
-279,716	-86,949	-0,100	-0,022
-278,701	-96,255	0,184	0,035
-277,686	-200,000	-0,015	0,086
-276,672	800,000	-0,023	-0,064
-275,657	-200,000	-0,001	0,117
-274,643	-59,580	-0,066	-0,020
-273,628	-200,000	0,015	-0,064
-272,613	586,904	0,025	0,044
-271,599	91,980	0,052	-0,042
-270,584	-19,212	0,148	-0,066
-269,570	-200,000	0,025	0,124
-268,555	-200,000	0,027	0,140
-267,540	29,163	-0,075	-0,046
-266,526	800,000	-0,020	-0,057
-265,511	-200,000	0,009	0,051
-264,497	-200,000	-0,002	-0,066
-263,482	85,303	0,145	0,115
-262,467	0,217	-0,040	-0,020
-261,453	26,412	0,057	-0,034
-260,438	271,889	0,056	0,072
-259,424	800,000	-0,032	0,098
-258,409	800,000	0,086	-0,200
-257,395	304,917	-0,017	0,023
-256,380	-200,000	0,020	0,073
-255,365	33,481	0,116	0,073
-254,351	28,622	0,021	0,013
-253,336	2,958	-0,058	0,030
-252,322	800,000	0,048	-0,109
-251,307	766,964	0,005	-0,009
-250,292	-200,000	-0,015	-0,076
-249,278	-200,000	-0,012	0,054
-248,263	-200,000	0,025	0,099
-247,249	164,427	-0,023	-0,024
-246,234	-109,140	-0,077	-0,012
-245,219	-100,244	0,088	-0,016
-244,205	-200,000	0,033	-0,177
-243,190	-200,000	-0,014	-0,045
-242,176	-200,000	0,028	0,096
-241,161	-52,461	0,051	0,017
-240,146	800,000	-0,039	0,111
-239,132	-73,962	-0,057	0,015
-238,117	-72,348	0,039	-0,010
-237,103	43,521	-0,083	-0,054
-236,088	114,885	0,094	-0,082
-235,073	405,122	0,092	-0,140
-234,059	25,038	-0,039	0,023
-233,044	800,000	-0,053	0,155
-232,030	-136,515	0,086	-0,007
-231,015	288,115	-0,054	0,071
-230,000	-42,241	-0,052	-0,019
-228,986	800,000	-0,037	-0,096
-227,971	145,838	0,059	0,057
-226,957	-169,925	0,082	-0,002
-225,942	539,489	-0,039	0,067
-224,927	-150,271	0,094	0,005
-223,913	-158,720	0,067	0,003
-222,898	334,479	-0,016	-0,023
-221,884	-103,349	-0,069	-0,012
-220,869	-200,000	-0,026	0,091
-219,855	800,000	0,031	0,087
-218,840	47,335	0,176	0,118
-217,825	208,057	-0,111	-0,125
-216,811	-200,000	0,017	-0,092
-215,796	-200,000	0,022	0,074
-214,782	-9,135	0,061	0,029
-213,767	800,000	-0,070	-0,166
-212,752	343,741	0,079	0,111
-211,738	65,824	-0,092	0,067
-210,723	-200,000	-0,002	-0,029
-209,709	-200,000	-0,011	0,096
-208,694	96,980	-0,068	-0,056
-207,679	-200,000	0,019	-0,120
-206,665	-200,000	0,000	-0,014
-205,650	20,855	0,006	0,003
-204,636	-200,000	-0,029	0,124
-203,621	-200,000	0,041	-0,132
-202,606	193,297	-0,048	0,053
-201,592	25,595	-0,105	-0,063
-200,577	800,000	-0,043	-0,110
-199,563	-143,925	0,068	-0,005
-198,548	95,681	-0,108	0,089
-197,533	800,000	-0,064	0,152
-196,519	-184,920	0,148	-0,002
-195,504	85,998	-0,086	-0,068
-194,490	258,357	-0,021	0,026
-193,475	165,177	-0,051	0,051
-192,460	-162,663	0,083	0,003
-191,446	506,697	-0,014	0,024
-190,431	38,927	0,070	0,045
-189,417	341,177	-0,046	0,065
-188,402	-200,000	0,025	-0,208
-187,387	-106,374	-0,051	0,008
-186,373	-64,435	-0,045	-0,013
-185,358	-200,000	-0,013	-0,148
-184,344	731,743	0,086	0,166
-183,329	417,821	-0,030	0,046
-182,315	-200,000	-0,000	-0,025
-181,300	-42,532	-0,127	-0,046
-180,285	-98,069	0,052	0,010
-179,271	160,160	-0,064	0,064
-178,256	39,641	-0,063	0,040
-177,242	104,241	0,071	0,060
-176,227	17,021	-0,079	-0,045
-175,212	143,180	-0,004	0,004
-174,198	-109,003	-0,093	-0,014
-173,183	-114,581	-0,073	0,010
-172,169	-50,290	-0,111	0,038
-171,154	-8,592	0,150	-0,072
-170,139	-10,278	0,042	0,020
-169,125	-200,000	0,010	0,042
-168,110	197,152	0,089	0,097
-167,096	-200,000	0,001	-0,012
-166,081	-118,907	-0,072	0,009
-165,066	-200,000	-0,011	-0,109
-164,052	-13,259	0,123	-0,057
-163,037	79,791	-0,069	-0,053
-162,023	-200,000	0,017	0,089
-161,008	62,584	-0,062	0,044
-159,993	58,042	-0,064	-0,045
-158,979	800,000	-0,031	-0,076
-157,964	-200,000	0,003	-0,014
-156,950	684,212	-0,057	-0,107
-155,935	6,794	0,119	0,063
-154,920	-82,663	-0,116	0,027
-153,906	87,244	0,090	0,071
-152,891	-47,333	-0,078	-0,027
-151,877	800,000	0,024	-0,065
-150,862	351,060	0,043	-0,062
-149,847	-96,035	-0,216	-0,041
-148,833	3,514	-0,021	0,011
-147,818	-200,000	0,020	0,124
-146,804	-200,000	0,008	-0,069
-145,789	24,651	0,126	0,075
-144,775	11,868	-0,194	0,107
-143,760	230,769	0,088	0,104
-142,745	-58,155	0,078	0,024
-141,731	-200,000	-0,005	0,066
-140,716	-200,000	-0,030	0,107
-139,702	461,558	0,049	0,078
-138,687	-74,982	0,064	-0,016
-137,672	-200,000	-0,010	0,060
-136,658	311,980	-0,023	0,030
-135,643	122,298	-0,069	0,062
-134,629	-35,698	0,115	-0,045
-133,614	491,700	0,031	0,051
-132,599	246,046	0,108	0,131
-131,585	272,840	0,041	-0,052
-130,570	81,399	-0,100	-0,078
-129,556	-200,000	0,015	0,153
-128,541	-200,000	-0,002	-0,099
-127,526	285,171	-0,004	0,005
-126,512	-200,000	-0,003	-0,025
-125,497	-98,493	0,120	0,022
-124,483	410,979	-0,042	0,064
-123,468	-142,823	-0,069	-0,005
-122,453	498,077	-0,043	-0,071
-121,439	-145,700	-0,110	-0,007
-120,424	800,000	-0,021	0,059
-119,410	-17,385	-0,072	0,033
-118,395	-200,000	-0,000	-0,078
-117,380	-98,176	0,096	-0,018
-116,366	90,568	-0,088	-0,071
-115,351	800,000	-0,039	-0,115
-114,337	-66,050	-0,112	0,032
-113,322	-200,000	0,001	0,114
-112,307	800,000	0,047	-0,104
-111,293	32,437	0,050	0,031
-110,278	-111,750	-0,074	0,011
-109,264	285,786	-0,064	0,083
-108,249	77,791	0,040	-0,030
-107,234	261,870	-0,043	-0,054
-106,220	332,044	-0,046	-0,064
-105,205	404,130	-0,019	0,029
-104,191	102,313	0,075	-0,063
-103,176	-150,375	0,151	-0,008
-102,162	295,887	-0,111	0,147
-101,147	498,658	0,033	0,055
-100,132	-181,877	-0,066	0,001
-99,118	-69,301	-0,072	0,020
-98,103	800,000	-0,024	0,060
-97,089	146,610	-0,104	0,101
-96,074	-7,555	0,048	-0,023
-95,059	-200,000	-0,020	0,097
-94,045	800,000	0,074	-0,178
-93,030	606,830	-0,082	0,147
-92,016	-200,000	-0,006	-0,162
-91,001	770,325	0,019	0,037
-89,986	800,000	0,028	0,069
-88,972	-200,000	-0,006	-0,033
-87,957	-132,675	0,048	0,004
-86,943	-38,049	-0,124	-0,047
-85,928	-200,000	-0,002	0,063
-84,913	278,600	0,148	-0,190
-83,899	75,435	-0,029	0,022
-82,884	374,380	0,057	0,083
-81,870	-200,000	0,002	-0,172
-80,855	800,000	0,027	0,062
-79,840	800,000	0,002	-0,006
-78,826	36,770	-0,045	-0,028
-77,811	199,316	-0,036	-0,039
-76,797	65,562	0,174	0,126
-75,782	-121,759	-0,097	-0,011
-74,767	800,000	0,036	0,097
-73,753	186,099	-0,090	-0,096
-72,738	-186,789	0,164	0,002
-71,724	422,926	0,082	0,126
-70,709	-200,000	-0,007	-0,022
-69,694	-200,000	0,033	0,195
-68,680	800,000	-0,077	0,171
-67,665	-85,370	0,127	-0,028
-66,651	-200,000	0,017	0,061
-65,636	46,685	0,015	-0,010
-64,622	304,474	0,034	0,046
-63,607	-200,000	0,000	-0,085
-62,592	182,225	0,029	0,030
-61,578	108,357	-0,094	-0,081
-60,563	236,591	-0,087	0,103
-59,549	-86,136	-0,016	0,003
-58,534	14,548	-2,302	-1,284
-57,519	-200,000	-0,075	-0,670
-56,505	-200,000	-1,375	-5,320
-55,490	90,215	0,829	0,664
-54,476	800,000	5,200	12,103
-53,461	-200,000	18,627	307,598
-52,446	800,000	738,228	2279,968
-51,432	537,863	1651,425	2821,404
-50,417	108,490	1635,925	1398,309
-49,403	72,035	1286,604	957,797
-48,388	29,787	1027,954	625,455
-47,373	19,730	990,437	569,452
-46,359	17,409	977,947	554,646
-45,344	14,067	974,114	541,517
-44,330	14,378	972,755	541,756
-43,315	13,715	970,724	538,439
-42,300	13,656	969,621	537,612
-41,286	13,687	968,734	537,202
-40,271	13,689	967,816	536,679
-39,257	13,730	966,983	536,327
-38,242	13,722	966,065	535,772
-37,227	13,703	965,243	535,232
-36,213	13,704	964,324	534,704
-35,198	13,709	963,346	534,159
-34,184	13,762	962,801	534,007
-33,169	13,692	961,822	533,217
-32,154	13,683	960,962	532,690
-31,140	13,761	959,962	532,364
-30,125	13,676	959,309	531,706
-29,111	13,719	958,414	531,328
-28,096	13,686	957,898	530,914
-27,082	13,713	956,954	530,457
-26,067	13,765	956,200	530,186
-25,052	13,695	955,595	529,603
-24,038	13,700	954,995	529,266
-23,023	13,713	954,172	528,832
-22,009	13,720	953,624	528,528
-20,994	13,743	953,105	528,294
-19,979	13,777	952,230	527,896
-18,965	13,780	951,518	527,493
-17,950	13,775	951,106	527,227
-16,936	13,663	950,611	526,573
-15,921	13,658	949,786	526,079
-14,906	13,627	949,214	525,642
-13,892	13,563	948,579	525,064
-12,877	13,611	947,631	524,674
-11,863	13,584	947,227	524,341
-10,848	13,640	946,632	524,172
-9,833	13,721	946,111	524,119
-8,819	13,631	945,526	523,487
-7,804	13,640	944,691	523,033
-6,790	13,633	944,216	522,727
-5,775	13,620	943,698	522,379
-4,760	13,602	943,321	522,091
-3,746	13,634	942,489	521,712
-2,731	13,459	941,867	520,793
-1,717	13,423	941,284	520,336
-0,702	13,451	940,461	519,951
0,313	13,230	939,888	519,720
1,327	16,684	937,652	529,318
2,342	25,764	788,913	469,232
3,356	21,887	443,729	258,171
4,371	-7,506	296,457	143,023
5,386	-11,385	278,436	130,629
6,400	-12,751	272,586	126,600
7,415	-12,778	270,545	125,616
8,429	-12,607	268,870	124,985
9,444	-12,933	268,051	124,293
10,459	-13,053	267,299	123,824
11,473	-12,806	266,494	123,665
12,488	-13,091	266,081	123,203
13,502	-13,246	265,560	122,810
14,517	-13,124	265,042	122,670
15,531	-13,188	264,773	122,477
16,546	-12,906	264,308	122,506
17,561	-13,360	264,227	122,047
18,575	-12,986	263,733	122,145
19,590	-13,029	263,337	121,912
20,604	-13,006	263,079	121,803
21,619	-13,131	262,645	121,479
22,634	-13,068	262,253	121,343
23,648	-13,035	261,990	121,240
24,663	-13,082	261,799	121,099
25,677	-12,943	261,360	121,009
26,692	-13,041	261,074	120,779
27,707	-13,166	260,958	120,602
28,721	-13,209	260,632	120,403
29,736	-13,149	260,448	120,361
30,750	-13,264	260,160	120,115
31,765	-13,142	259,828	120,059
32,780	-13,083	259,586	119,988
33,794	-13,163	259,308	119,779
34,809	-13,096	259,159	119,759
35,823	-13,038	258,811	119,638
36,838	-13,112	258,651	119,488
37,853	-13,153	258,368	119,310
38,867	-13,175	258,157	119,183
39,882	-13,163	257,755	118,997
40,896	-13,108	257,698	119,009
41,911	-13,270	257,417	118,727
42,926	-13,264	257,296	118,665
43,940	-13,136	256,873	118,571
44,955	-13,140	256,807	118,527
45,969	-13,334	256,459	118,187
46,984	-13,516	256,319	117,952
47,999	-13,659	255,972	117,657
49,013	-13,619	255,706	117,560
50,028	-14,087	255,563	117,076
51,042	-14,167	255,296	116,874
52,057	-14,064	254,844	116,745
53,071	-13,865	254,682	116,833
54,086	-13,855	254,619	116,803
55,101	-13,905	254,434	116,664
56,115	-13,523	254,361	116,952
57,130	-13,019	254,074	117,245
58,144	-12,809	253,888	117,330
59,159	-12,864	253,840	117,250
60,174	-12,869	253,637	117,141
61,188	-13,086	253,384	116,827
62,203	-12,935	253,112	116,822
63,217	-13,099	253,093	116,661
64,232	-13,142	252,683	116,425
65,247	-12,858	252,408	116,531
66,261	-12,966	252,255	116,358
67,276	-13,192	251,811	115,949
68,290	-13,409	251,815	115,754
69,305	-13,355	251,457	115,626
70,320	-13,561	251,398	115,412
71,334	-13,157	251,224	115,667
72,349	-12,871	250,890	115,747
73,363	-12,892	250,912	115,729
74,378	-13,048	250,668	115,473
75,393	-13,119	250,451	115,302
76,407	-13,043	250,135	115,211
77,422	-12,993	250,008	115,185
78,436	-13,057	249,663	114,962
79,451	-13,132	249,603	114,860
80,466	-13,179	249,214	114,631
81,480	-13,115	249,067	114,607
82,495	-13,447	248,805	114,196
83,509	-13,286	248,743	114,293
84,524	-13,347	248,540	114,138
85,539	-13,392	248,292	113,976
86,553	-13,530	248,172	113,794
87,568	-13,369	247,941	113,814
88,582	-13,454	247,629	113,589
89,597	-13,319	247,422	113,598
90,611	-13,220	247,259	113,596
91,626	-13,017	247,207	113,732
92,641	-13,155	247,143	113,577
93,655	-13,015	246,742	113,499
94,670	-13,192	246,567	113,261
95,684	-13,320	246,428	113,080
96,699	-13,275	246,279	113,039
97,714	-13,202	245,851	112,893
98,728	-13,309	245,791	112,766
99,743	-13,302	245,477	112,618
100,757	-13,584	245,341	112,311
101,772	-13,374	245,179	112,402
102,787	-13,424	245,078	112,303
103,801	-13,369	244,843	112,232
104,816	-13,243	244,679	112,251
105,830	-13,143	244,475	112,230
106,845	-13,066	244,229	112,171
107,860	-13,138	244,207	112,092
108,874	-13,054	243,835	111,981
109,889	-13,328	243,618	111,644
110,903	-13,255	243,470	111,627
111,918	-13,442	243,470	111,463
112,933	-13,232	243,174	111,490
113,947	-13,127	243,050	111,510
114,962	-13,076	242,910	111,478
115,976	-12,820	242,536	111,506
116,991	-12,979	242,380	111,295
118,006	-13,101	242,273	111,135
119,020	-13,284	242,251	110,965
120,035	-13,275	242,004	110,849
121,049	-13,263	241,920	110,811
122,064	-13,191	241,653	110,738
123,079	-13,233	241,416	110,584
124,093	-13,177	241,177	110,511
125,108	-13,502	241,183	110,239
126,122	-13,492	240,641	109,989
127,137	-13,706	240,566	109,771
128,151	-13,553	240,368	109,795
129,166	-13,306	240,242	109,928
130,181	-13,481	240,105	109,714
131,195	-13,518	239,823	109,545
132,210	-13,325	239,792	109,678
133,224	-13,100	239,471	109,704
134,239	-13,331	239,412	109,480
135,254	-13,197	239,094	109,433
136,268	-13,021	238,889	109,471
137,283	-13,543	238,757	108,980
138,297	-13,540	238,397	108,808
139,312	-13,781	238,286	108,554
140,327	-13,554	238,268	108,719
141,341	-12,946	238,185	109,160
142,356	-13,026	238,164	109,077
143,370	-12,818	237,858	109,094
144,385	-12,709	237,630	109,067
145,400	-12,888	237,415	108,815
146,414	-12,795	237,264	108,811
147,429	-13,067	237,242	108,573
148,443	-13,122	236,991	108,405
149,458	-12,996	236,764	108,392
150,473	-12,881	236,572	108,386
151,487	-13,070	236,494	108,190
152,502	-12,935	236,232	108,168
153,516	-12,797	236,108	108,211
154,531	-12,889	235,988	108,073
155,546	-12,914	235,756	107,938
156,560	-12,988	235,465	107,736
157,575	-13,169	235,353	107,531
158,589	-13,063	235,213	107,542
159,604	-12,793	235,087	107,689
160,619	-12,534	234,802	107,754
161,633	-12,772	234,773	107,542
162,648	-12,578	234,626	107,619
163,662	-12,902	234,372	107,237
164,677	-13,045	234,272	107,068
165,692	-12,938	234,238	107,129
166,706	-12,796	234,115	107,174
167,721	-12,657	233,825	107,141
168,735	-12,682	233,730	107,069
169,750	-12,912	233,567	106,804
170,764	-12,786	233,335	106,787
171,779	-12,901	233,199	106,624
172,794	-12,828	233,090	106,623
173,808	-12,908	232,903	106,465
174,823	-13,338	232,486	105,928
175,837	-13,493	232,459	105,785
176,852	-13,120	232,390	106,036
177,867	-12,952	232,282	106,109
178,881	-12,852	232,130	106,108
179,896	-12,625	231,943	106,190
180,910	-12,615	231,741	106,096
181,925	-12,676	231,588	105,969
182,940	-12,831	231,451	105,776
183,954	-12,713	231,249	105,767
184,969	-12,498	231,146	105,877
185,983	-12,624	231,226	105,806
186,998	-12,571	230,853	105,667
188,013	-12,775	230,761	105,458
189,027	-12,649	230,500	105,427
190,042	-12,769	230,329	105,246
191,056	-12,517	230,081	105,319
192,071	-12,579	229,942	105,197
193,086	-12,771	229,851	104,997
194,100	-12,711	229,759	104,993
195,115	-12,959	229,220	104,546
196,129	-13,343	229,309	104,281
197,144	-7,654	231,097	109,501
198,159	-2,087	232,903	114,692
199,173	1,777	233,671	118,077
200,188	2,179	233,770	118,430
201,202	1,903	233,755	118,197
202,217	2,332	233,434	118,358
203,232	2,354	233,465	118,380
204,246	2,396	233,301	118,319
205,261	2,701	233,009	118,397
206,275	2,720	233,121	118,458
207,290	2,788	233,021	118,450
208,304	2,943	232,637	118,364
209,319	2,681	232,537	118,100
210,334	2,367	232,452	117,803
211,348	2,396	232,117	117,645
212,363	2,304	231,994	117,501
213,377	1,832	231,682	116,968
214,392	1,958	231,531	116,979
215,407	2,210	231,361	117,077
216,421	1,964	231,266	116,829
217,436	2,060	231,138	116,827
218,450	1,834	230,954	116,550
219,465	1,880	230,731	116,463
220,480	1,624	230,679	116,229
221,494	1,976	230,400	116,348
222,509	2,113	230,336	116,411
223,523	2,081	230,344	116,380
224,538	2,048	230,151	116,247
225,553	2,249	229,933	116,280
226,567	1,946	229,823	115,982
227,582	2,230	229,694	116,123
228,596	2,692	229,634	116,436
229,611	2,163	229,463	115,935
230,626	1,722	229,108	115,409
231,640	1,810	228,968	115,396
232,655	2,199	228,992	115,694
233,669	2,429	228,830	115,777
234,684	2,670	228,779	115,924
235,699	2,420	228,481	115,573
236,713	2,098	228,349	115,252
237,728	2,105	228,070	115,105
238,742	1,775	227,875	114,747
239,757	2,057	227,797	114,911
240,772	1,865	227,612	114,662
241,786	2,010	227,545	114,727
242,801	2,004	227,537	114,709
243,815	2,398	227,453	114,954
244,830	2,321	227,233	114,774
245,844	2,427	226,941	114,696
246,859	1,920	226,864	114,265
247,874	2,175	226,634	114,331
248,888	2,297	226,561	114,376
249,903	2,091	226,415	114,137
250,917	1,970	226,225	113,940
251,932	2,050	225,974	113,864
252,947	1,781	225,849	113,589
253,961	2,187	225,506	113,710
254,976	1,966	225,637	113,601
255,990	2,194	225,453	113,668
257,005	2,311	225,442	113,740
258,020	2,257	225,382	113,659
259,034	2,281	225,142	113,546
260,049	2,236	225,095	113,479
261,063	1,965	224,859	113,148
262,078	2,096	224,726	113,168
263,093	2,669	224,565	113,504
264,107	2,339	224,512	113,221
265,122	2,350	224,253	113,089
266,136	2,737	224,176	113,327
267,151	2,465	224,075	113,065
268,166	2,155	223,713	112,641
269,180	1,728	223,562	112,239
270,195	2,152	223,289	112,406
271,209	1,904	223,283	112,209
272,224	1,974	223,400	112,310
273,239	2,060	223,085	112,205
274,253	2,121	222,791	112,092
275,268	1,993	222,729	111,957
276,282	1,839	222,536	111,735
277,297	1,772	222,423	111,620
278,312	1,919	222,248	111,630
279,326	2,036	222,109	111,637
280,341	2,029	222,047	111,591
281,355	1,980	221,974	111,508
282,370	2,249	221,713	111,564
283,384	1,831	221,462	111,121
284,399	1,663	221,515	111,014
285,414	1,840	221,215	110,984
286,428	2,296	221,183	111,292
287,443	2,229	221,141	111,212
288,457	2,518	220,848	111,266
289,472	2,030	220,745	110,848
290,487	1,641	220,471	110,416
291,501	1,656	220,177	110,270
292,516	1,655	220,205	110,274
293,530	1,699	220,101	110,244
294,545	1,399	219,886	109,908
295,560	2,029	219,894	110,361
296,574	1,877	219,804	110,195
297,589	1,933	219,562	110,104
298,603	2,068	219,531	110,177
299,618	2,168	219,269	110,108
300,633	2,191	219,199	110,080
301,647	2,566	219,097	110,291
302,662	2,216	219,088	110,023
303,676	2,216	218,962	109,950
304,691	2,275	218,713	109,857
305,706	2,298	218,624	109,820
306,720	2,353	218,397	109,736
307,735	2,089	218,224	109,448
308,749	1,969	218,036	109,258
309,764	2,234	217,862	109,352
310,779	2,436	217,724	109,418
311,793	2,310	217,687	109,299
312,808	2,339	217,458	109,195
313,822	2,219	217,420	109,080
314,837	2,170	217,207	108,929
315,852	1,774	217,073	108,568
316,866	2,180	216,915	108,769
317,881	2,208	216,999	108,822
318,895	2,235	216,773	108,719
319,910	1,957	216,443	108,345
320,925	1,707	216,169	108,019
321,939	1,494	216,127	107,837
322,954	1,503	216,049	107,795
323,968	1,982	215,964	108,084
324,983	2,340	215,839	108,267
325,997	2,549	215,791	108,382
327,012	2,379	215,721	108,216
328,027	2,207	215,610	108,028
329,041	2,542	215,487	108,195
330,056	2,564	215,207	108,060
331,070	2,112	214,985	107,619
332,085	1,882	214,776	107,342
333,100	2,086	214,782	107,480
334,114	2,261	214,594	107,500
335,129	2,054	214,540	107,317
336,143	1,892	214,315	107,081
337,158	1,875	214,301	107,052
338,173	1,977	214,197	107,062
339,187	1,954	213,737	106,807
340,202	1,730	213,610	106,576
341,216	2,001	213,582	106,744
342,231	2,214	213,569	106,877
343,246	2,174	213,387	106,748
344,260	2,174	213,225	106,658
345,275	2,184	213,316	106,701
346,289	2,565	213,078	106,839
347,304	2,261	212,881	106,518
348,319	2,142	212,719	106,344
349,333	1,865	212,582	106,073
350,348	2,190	212,345	106,173
351,362	2,437	212,402	106,363
352,377	2,454	212,115	106,222
353,392	2,433	212,102	106,191
354,406	2,237	212,068	106,028
355,421	196,211	1315,518	1391,074
356,435	156,898	1449,913	1391,018
