DTS Sentinel unit serial number:	SN410029Multiplexer serial number:	ORYXHardware model number:	OX2-SRSoftware version number:	ORYX F/W v4,00 Oryx Data Collector v3.7.2.0data status	okinstallation	B6 Nyhavnadifferential loss correction	single-endedforward channel	channel 2reverse channel	N/Adate	2023/12/09time	03:00:08forward acquisition time	300,00reverse acquisition time	0,00gamma	499,1914k internal	0,3154k external	0,3154temperature offset calibration	1,0000default loss term (dB/km)	0,3820temperature slope calibration	1,0000multiplexer offset coefficient	1,0000multiplexer slope coefficient	1,0000fibre end	0,00T internal ref (°C)	16,15T ext. ref 1 (°C)	0,00T ext. ref 2 (°C)	-0,02length (m)	temperature (°C)	Stokes	anti-Stokes-744,400	-124,542	0,044	0,005
-743,385	-105,994	-0,236	0,039
-742,371	97,887	0,076	-0,064
-741,356	-63,900	-0,208	-0,062
-740,342	-30,782	0,067	-0,028
-739,327	-157,447	-0,448	0,020
-738,312	89,397	0,173	-0,142
-737,298	-189,577	-0,339	-0,003
-736,283	-116,732	0,090	0,012
-735,269	-132,447	-0,181	-0,017
-734,254	85,219	-0,121	0,098
-733,239	-63,595	-0,356	-0,107
-732,225	227,627	0,067	0,081
-731,210	281,303	0,067	0,089
-730,196	-127,873	0,107	0,011
-729,181	98,308	-0,032	0,027
-728,167	-200,000	0,037	0,151
-727,152	800,000	-0,034	0,093
-726,137	543,891	-0,064	-0,112
-725,123	-200,000	0,009	-0,145
-724,108	800,000	-0,068	-0,166
-723,094	41,127	-0,110	-0,073
-722,079	-200,000	-0,016	-0,110
-721,064	-200,000	0,020	-0,126
-720,050	-80,491	0,091	-0,022
-719,035	800,000	-0,034	0,080
-718,021	-200,000	0,022	-0,113
-717,006	-55,969	-0,130	-0,043
-715,991	-200,000	-0,032	-0,156
-714,977	307,942	-0,015	0,021
-713,962	518,856	0,078	-0,136
-712,948	362,672	0,031	0,046
-711,933	-8,939	-0,091	-0,045
-710,918	-200,000	0,014	0,085
-709,904	20,869	-0,096	0,057
-708,889	89,095	-0,133	-0,109
-707,875	-200,000	-0,027	-0,112
-706,860	-66,315	-0,079	-0,023
-705,845	-74,736	0,148	-0,039
-704,831	-200,000	0,001	0,137
-703,816	641,534	-0,062	0,116
-702,802	-157,382	-0,079	-0,003
-701,787	332,186	-0,028	-0,040
-700,772	-75,670	0,048	0,012
-699,758	-144,754	0,079	-0,005
-698,743	147,148	-0,087	0,086
-697,729	800,000	0,043	-0,114
-696,714	-81,234	0,151	-0,036
-695,699	800,000	-0,070	0,146
-694,685	43,350	-0,112	0,075
-693,670	-200,000	0,011	0,084
-692,656	-200,000	0,010	-0,088
-691,641	46,004	0,082	0,056
-690,627	98,896	-0,028	0,024
-689,612	-116,015	0,108	-0,015
-688,597	-200,000	0,022	0,119
-687,583	43,693	-0,142	-0,096
-686,568	-53,658	-0,022	-0,007
-685,554	-195,910	0,104	-0,001
-684,539	207,848	0,126	-0,145
-683,524	-7,292	0,051	0,026
-682,510	77,580	-0,069	0,054
-681,495	439,675	-0,041	-0,067
-680,481	-8,273	0,091	-0,045
-679,466	-17,856	-0,123	0,057
-678,451	-158,309	-0,167	0,007
-677,437	-168,917	-0,216	0,006
-676,422	19,759	0,161	0,095
-675,408	-87,681	-0,035	0,008
-674,393	249,189	-0,024	0,031
-673,378	-92,446	-0,114	-0,023
-672,364	-89,590	-0,060	0,013
-671,349	221,454	-0,099	-0,117
-670,335	-145,667	0,117	-0,008
-669,320	-115,514	0,100	-0,014
-668,305	-62,992	-0,053	0,016
-667,291	800,000	0,028	-0,075
-666,276	-102,925	0,052	-0,009
-665,262	-200,000	0,007	-0,049
-664,247	38,341	-0,055	0,036
-663,232	-26,113	0,010	0,004
-662,218	766,951	-0,034	-0,068
-661,203	222,113	0,083	-0,098
-660,189	603,265	-0,034	0,062
-659,174	800,000	0,047	-0,105
-658,159	800,000	0,026	-0,075
-657,145	537,293	-0,056	-0,098
-656,130	403,857	0,073	-0,113
-655,116	-183,555	0,130	-0,002
-654,101	405,651	0,070	0,109
-653,086	632,025	-0,022	0,041
-652,072	-200,000	0,017	0,063
-651,057	-200,000	-0,015	-0,130
-650,043	15,369	-0,021	-0,012
-649,028	225,070	0,033	-0,040
-648,014	800,000	-0,040	0,114
-646,999	-73,845	0,079	-0,021
-645,984	113,408	0,060	0,053
-644,970	-2,925	0,064	-0,033
-643,955	158,009	0,062	-0,063
-642,941	-100,166	-0,037	-0,007
-641,926	89,468	0,009	0,008
-640,911	-59,737	0,011	-0,003
-639,897	301,641	0,082	0,112
-638,882	485,418	0,073	0,122
-637,868	800,000	-0,049	0,136
-636,853	-67,324	0,067	-0,019
-635,838	693,529	-0,045	-0,088
-634,824	-45,307	-0,099	0,036
-633,809	63,536	0,038	-0,028
-632,795	-200,000	0,003	0,090
-631,780	-156,999	0,142	0,006
-630,765	88,266	-0,079	-0,064
-629,751	-179,038	-0,101	-0,002
-628,736	800,000	-0,042	-0,090
-627,722	3,729	0,050	0,027
-626,707	55,456	-0,099	0,070
-625,692	65,824	0,097	0,072
-624,678	-12,440	-0,067	0,032
-623,663	83,968	-0,048	-0,038
-622,649	-158,452	-0,124	0,005
-621,634	222,261	-0,102	-0,121
-620,619	-67,698	0,026	-0,007
-619,605	488,502	-0,035	0,059
-618,590	800,000	0,041	-0,087
-617,576	-200,000	0,020	0,104
-616,561	100,682	0,035	-0,030
-615,546	82,269	-0,024	-0,019
-614,532	135,359	-0,052	-0,049
-613,517	-23,916	0,026	0,011
-612,503	800,000	-0,039	-0,095
-611,488	53,131	0,083	-0,058
-610,474	97,831	-0,045	-0,038
-609,459	-72,140	-0,053	-0,014
-608,444	800,000	0,032	0,079
-607,430	-129,376	-0,053	0,005
-606,415	234,551	-0,010	-0,013
-605,401	535,931	0,036	0,063
-604,386	280,192	0,068	0,090
-603,371	-200,000	0,030	0,127
-602,357	-71,623	-0,071	-0,019
-601,342	349,237	-0,022	-0,032
-600,328	800,000	0,040	-0,103
-599,313	167,891	0,064	-0,066
-598,298	-7,509	0,063	-0,031
-597,284	-9,633	-0,070	-0,034
-596,269	114,807	0,025	0,023
-595,255	-95,340	0,051	-0,010
-594,240	479,880	-0,053	-0,089
-593,225	281,714	-0,065	-0,086
-592,211	129,098	-0,038	0,035
-591,196	-200,000	-0,009	0,036
-590,182	-133,149	-0,151	-0,014
-589,167	-200,000	0,001	0,031
-588,152	-200,000	-0,003	-0,102
-587,138	-200,000	0,047	-0,193
-586,123	-200,000	0,034	-0,154
-585,109	-55,234	-0,016	0,005
-584,094	800,000	-0,029	0,075
-583,079	-200,000	-0,002	0,014
-582,065	-107,736	-0,023	0,004
-581,050	-200,000	-0,006	-0,046
-580,036	782,880	0,032	-0,064
-579,021	-190,498	-0,015	-0,000
-578,006	-12,422	-0,074	0,035
-576,992	-122,438	-0,070	0,008
-575,977	180,155	0,031	-0,034
-574,963	-102,673	-0,029	0,005
-573,948	80,845	0,006	-0,004
-572,934	-152,556	0,096	-0,005
-571,919	117,681	0,026	-0,024
-570,904	-32,078	-0,040	0,016
-569,890	315,077	-0,021	0,029
-568,875	-98,418	0,084	0,016
-567,861	-200,000	0,009	-0,110
-566,846	-96,140	0,057	0,011
-565,831	800,000	0,061	0,135
-564,817	-11,143	-0,130	0,063
-563,802	800,000	-0,075	-0,157
-562,788	43,385	0,096	-0,064
-561,773	-146,964	0,087	0,005
-560,758	-200,000	-0,004	0,030
-559,744	-3,115	0,065	0,033
-558,729	325,905	-0,043	-0,061
-557,715	800,000	-0,017	-0,043
-556,700	33,217	-0,091	-0,058
-555,685	58,445	0,028	-0,020
-554,671	152,894	0,066	-0,066
-553,656	-200,000	-0,010	-0,067
-552,642	800,000	0,008	-0,017
-551,627	-200,000	0,032	-0,117
-550,612	-200,000	0,000	0,022
-549,598	-200,000	0,003	-0,058
-548,583	240,468	-0,081	-0,099
-547,569	260,534	0,113	0,144
-546,554	168,905	-0,056	0,059
-545,539	-153,226	0,086	-0,004
-544,525	145,651	-0,115	-0,113
-543,510	-160,953	-0,028	-0,001
-542,496	-200,000	0,003	-0,040
-541,481	800,000	-0,054	-0,162
-540,466	623,731	-0,050	-0,092
-539,452	800,000	-0,011	-0,031
-538,437	261,539	0,079	-0,100
-537,423	328,568	-0,095	-0,134
-536,408	-89,116	0,048	-0,010
-535,393	-73,151	-0,104	0,028
-534,379	800,000	-0,038	-0,083
-533,364	-9,413	0,103	-0,050
-532,350	-14,771	-0,060	-0,028
-531,335	-122,669	0,132	-0,015
-530,321	800,000	-0,009	0,020
-529,306	-200,000	0,023	0,108
-528,291	133,163	-0,077	-0,072
-527,277	62,500	0,100	-0,073
-526,262	-200,000	0,008	0,038
-525,248	178,048	-0,050	0,053
-524,233	216,918	-0,098	-0,115
-523,218	17,161	0,009	-0,005
-522,204	34,542	0,048	0,031
-521,189	-151,359	-0,064	-0,003
-520,175	93,430	0,065	0,054
-519,160	-200,000	0,001	0,079
-518,145	-200,000	-0,007	0,118
-517,131	28,247	0,095	-0,058
-516,116	-69,554	-0,087	0,024
-515,102	-87,924	-0,061	0,013
-514,087	321,403	-0,070	-0,098
-513,072	800,000	0,031	0,086
-512,058	800,000	0,042	0,097
-511,043	668,079	0,028	-0,053
-510,029	-200,000	-0,000	0,124
-509,014	-51,874	0,086	-0,029
-507,999	165,438	-0,092	-0,096
-506,985	7,090	-0,098	0,054
-505,970	236,992	-0,058	-0,071
-504,956	-20,953	0,102	0,045
-503,941	788,631	0,023	0,047
-502,926	-99,905	-0,052	0,009
-501,912	-33,374	0,158	0,063
-500,897	800,000	0,011	-0,024
-499,883	-200,000	0,011	-0,060
-498,868	-19,376	-0,132	-0,059
-497,853	47,021	0,047	-0,032
-496,839	154,243	0,004	-0,004
-495,824	372,341	0,055	0,083
-494,810	137,212	-0,048	-0,046
-493,795	800,000	-0,065	-0,135
-492,781	800,000	-0,048	-0,119
-491,766	-200,000	-0,014	-0,049
-490,751	-200,000	0,015	-0,099
-489,737	-200,000	0,015	0,053
-488,722	-200,000	-0,019	0,118
-487,708	623,611	-0,049	0,091
-486,693	-131,211	-0,255	0,024
-485,678	187,099	0,057	-0,062
-484,664	-169,180	-0,074	0,002
-483,649	-81,222	-0,214	-0,051
-482,635	767,295	0,077	0,153
-481,620	800,000	-0,027	0,086
-480,605	-58,403	-0,065	0,020
-479,591	12,489	0,072	0,040
-478,576	-200,000	0,008	-0,098
-477,562	27,138	-0,126	-0,077
-476,547	201,841	-0,035	0,040
-475,532	800,000	-0,013	0,039
-474,518	800,000	0,030	0,077
-473,503	139,691	-0,090	-0,087
-472,489	800,000	-0,020	-0,060
-471,474	-62,130	-0,072	0,022
-470,459	788,383	-0,003	-0,007
-469,445	-147,656	-0,095	-0,006
-468,430	-200,000	-0,006	-0,145
-467,416	-28,553	0,134	-0,056
-466,401	-43,501	0,016	0,006
-465,386	136,009	0,055	-0,052
-464,372	800,000	0,029	-0,069
-463,357	800,000	0,055	-0,120
-462,343	-47,158	-0,073	0,026
-461,328	32,206	0,093	-0,059
-460,313	-52,886	0,040	-0,013
-459,299	-10,843	0,052	0,025
-458,284	68,646	0,056	0,042
-457,270	-200,000	-0,023	0,086
-456,255	697,045	0,030	0,058
-455,241	165,218	0,042	0,043
-454,226	-11,437	-0,050	0,024
-453,211	800,000	0,043	-0,091
-452,197	101,628	0,042	0,035
-451,182	800,000	-0,059	0,135
-450,168	-200,000	0,005	-0,025
-449,153	573,990	-0,035	0,062
-448,138	-155,578	-0,091	-0,004
-447,124	-121,785	-0,088	0,010
-446,109	-200,000	0,009	0,035
-445,095	97,284	0,061	0,051
-444,080	-200,000	0,003	0,092
-443,065	-200,000	-0,003	-0,043
-442,051	88,189	0,134	0,109
-441,036	-45,590	0,037	-0,013
-440,022	-200,000	-0,025	-0,131
-439,007	-160,035	0,091	-0,004
-437,992	-200,000	-0,013	0,140
-436,978	-61,868	-0,062	0,019
-435,963	-51,094	0,064	-0,022
-434,949	315,166	-0,053	-0,073
-433,934	-200,000	0,029	0,152
-432,919	567,381	-0,064	-0,115
-431,905	748,039	0,071	-0,140
-430,890	41,010	0,095	-0,063
-429,876	398,579	0,065	-0,100
-428,861	-4,055	-0,055	-0,028
-427,846	-200,000	0,026	0,092
-426,832	800,000	0,052	0,121
-425,817	-53,961	0,011	-0,004
-424,803	800,000	-0,051	-0,124
-423,788	-200,000	0,008	-0,039
-422,773	125,274	-0,093	-0,085
-421,759	318,488	-0,036	0,049
-420,744	528,204	-0,041	0,070
-419,730	800,000	0,022	0,051
-418,715	278,642	-0,062	0,081
-417,701	-57,922	-0,130	0,041
-416,686	800,000	-0,011	0,023
-415,671	800,000	0,025	0,061
-414,657	800,000	0,025	0,074
-413,642	-0,526	0,085	0,044
-412,628	-26,448	-0,138	0,059
-411,613	473,080	0,024	0,040
-410,598	-39,181	0,077	0,029
-409,584	187,546	0,033	0,036
-408,569	238,548	0,139	0,169
-407,555	-90,034	0,054	0,011
-406,540	192,987	-0,044	-0,048
-405,525	800,000	0,021	-0,064
-404,511	26,542	0,103	-0,063
-403,496	-135,331	-0,054	-0,005
-402,482	800,000	0,026	0,053
-401,467	131,171	-0,066	-0,062
-400,452	-200,000	0,013	0,099
-399,438	599,904	0,043	0,079
-398,423	48,662	-0,054	-0,037
-397,409	-200,000	-0,007	-0,165
-396,394	-94,219	-0,149	-0,029
-395,379	-74,253	-0,037	-0,010
-394,365	800,000	-0,014	0,032
-393,350	800,000	0,044	0,090
-392,336	-54,540	0,011	0,004
-391,321	13,532	0,081	-0,046
-390,306	-109,343	0,120	-0,018
-389,292	-132,549	-0,098	-0,009
-388,277	-31,962	0,158	0,064
-387,263	-79,181	-0,115	0,028
-386,248	-154,271	0,181	0,009
-385,233	-58,601	0,076	0,024
-384,219	800,000	-0,028	-0,071
-383,204	-200,000	0,010	-0,093
-382,190	735,268	0,079	-0,154
-381,175	491,542	-0,030	0,051
-380,160	59,846	0,182	0,131
-379,146	339,883	0,068	0,097
-378,131	5,731	-0,123	-0,066
-377,117	86,337	-0,061	-0,049
-376,102	287,890	0,037	-0,049
-375,088	105,322	-0,107	-0,092
-374,073	800,000	-0,066	0,142
-373,058	542,687	0,033	-0,057
-372,044	151,205	-0,061	-0,061
-371,029	-115,837	0,112	0,015
-370,015	-22,114	0,047	0,021
-369,000	15,364	-0,044	0,025
-367,985	-11,484	-0,139	-0,066
-366,971	341,066	0,081	-0,115
-365,956	-104,252	-0,053	0,009
-364,942	-88,191	0,154	0,033
-363,927	800,000	-0,036	0,080
-362,912	205,350	-0,048	-0,055
-361,898	82,743	-0,075	0,059
-360,883	204,400	0,048	-0,054
-359,869	-8,401	0,129	-0,063
-358,854	-200,000	0,016	-0,075
-357,839	-19,264	0,185	0,083
-356,825	-133,080	0,083	-0,008
-355,810	800,000	-0,042	0,097
-354,796	24,330	0,026	-0,016
-353,781	-14,743	-0,169	-0,078
-352,766	664,690	0,048	0,091
-351,752	124,300	0,106	-0,097
-350,737	-9,484	0,142	-0,068
-349,723	10,775	0,102	-0,056
-348,708	800,000	0,015	0,036
-347,693	-88,767	-0,062	0,013
-346,679	800,000	-0,082	-0,178
-345,664	-200,000	-0,023	-0,118
-344,650	-200,000	0,011	-0,120
-343,635	800,000	-0,026	0,061
-342,620	-97,087	0,084	-0,016
-341,606	477,163	-0,031	0,052
-340,591	-125,251	0,040	-0,004
-339,577	800,000	-0,035	-0,104
-338,562	158,574	-0,091	0,092
-337,548	800,000	0,081	-0,227
-336,533	-172,778	-0,024	-0,001
-335,518	-200,000	0,002	-0,050
-334,504	-200,000	-0,003	-0,049
-333,489	-3,372	0,123	0,062
-332,475	-92,858	-0,042	-0,008
-331,460	663,780	-0,040	0,076
-330,445	-20,889	-0,088	-0,039
-329,431	-60,174	-0,071	0,022
-328,416	-200,000	-0,060	0,200
-327,402	145,402	-0,038	0,036
-326,387	270,896	0,021	-0,027
-325,372	137,128	0,027	-0,026
-324,358	-30,999	-0,046	0,019
-323,343	800,000	0,022	0,044
-322,329	800,000	0,017	0,053
-321,314	-130,528	0,071	-0,007
-320,299	-200,000	0,043	0,203
-319,285	102,396	-0,105	0,089
-318,270	280,377	-0,042	0,054
-317,256	46,661	-0,162	0,109
-316,241	183,522	0,095	-0,102
-315,226	-142,688	0,063	0,004
-314,212	436,137	-0,037	-0,059
-313,197	7,064	-0,170	-0,092
-312,183	-43,247	0,016	0,006
-311,168	-38,235	-0,032	0,012
-310,153	398,656	0,060	0,092
-309,139	-15,887	0,104	0,048
-308,124	184,267	-0,081	0,087
-307,110	-200,000	-0,010	0,056
-306,095	800,000	0,042	-0,095
-305,080	70,242	0,060	0,045
-304,066	-200,000	0,007	-0,162
-303,051	191,652	0,046	0,051
-302,037	-200,000	-0,009	-0,032
-301,022	2,617	0,131	-0,069
-300,008	-10,504	0,139	0,066
-298,993	-184,886	0,049	-0,001
-297,978	-200,000	0,008	-0,044
-296,964	-200,000	-0,009	-0,103
-295,949	800,000	0,043	0,106
-294,935	-200,000	0,005	-0,080
-293,920	-119,518	-0,117	0,015
-292,905	-86,331	-0,053	0,012
-291,891	-26,380	0,103	0,044
-290,876	231,638	-0,102	0,122
-289,862	-200,000	-0,005	0,082
-288,847	89,502	-0,079	0,064
-287,832	-138,098	-0,033	0,003
-286,818	260,922	-0,052	0,066
-285,803	122,628	0,033	-0,030
-284,789	581,998	-0,018	0,031
-283,774	153,889	-0,042	0,042
-282,759	-47,179	-0,110	0,039
-281,745	-77,869	-0,091	-0,023
-280,730	84,886	-0,071	-0,056
-279,716	-200,000	-0,004	-0,074
-278,701	-200,000	-0,020	0,098
-277,686	129,399	0,134	0,124
-276,672	-200,000	-0,005	-0,075
-275,657	-132,574	-0,019	0,002
-274,643	-63,742	-0,069	-0,020
-273,628	-133,207	-0,161	-0,015
-272,613	31,360	-0,069	0,043
-271,599	800,000	0,004	-0,013
-270,584	-200,000	0,003	-0,037
-269,570	-104,593	0,113	0,019
-268,555	94,415	0,056	0,046
-267,540	566,325	0,033	-0,058
-266,526	-200,000	0,017	-0,137
-265,511	148,266	-0,117	-0,114
-264,497	164,604	0,074	-0,075
-263,482	97,368	-0,043	0,036
-262,467	-114,531	-0,082	0,011
-261,453	-23,716	-0,104	0,045
-260,438	-151,703	0,041	0,002
-259,424	35,182	0,018	-0,012
-258,409	-200,000	-0,006	0,041
-257,395	-200,000	0,009	0,101
-256,380	93,896	0,024	-0,020
-255,365	-17,797	0,109	0,049
-254,351	767,074	-0,054	-0,107
-253,336	800,000	-0,027	0,057
-252,322	800,000	-0,037	0,115
-251,307	-115,756	0,060	-0,008
-250,292	-200,000	-0,006	0,096
-249,278	-45,377	0,114	0,041
-248,263	-56,610	-0,050	-0,016
-247,249	-180,783	-0,097	-0,001
-246,234	7,657	-0,083	-0,045
-245,219	-143,337	-0,040	0,003
-244,205	-29,285	-0,082	0,034
-243,190	711,678	0,015	-0,029
-242,176	800,000	0,011	0,025
-241,161	-200,000	0,046	0,163
-240,146	355,201	-0,064	0,092
-239,132	-33,772	-0,029	0,012
-238,117	-200,000	-0,006	-0,079
-237,103	215,476	-0,085	-0,097
-236,088	2,928	0,037	-0,020
-235,073	-200,000	0,004	-0,035
-234,059	-129,441	0,147	0,015
-233,044	800,000	-0,037	-0,118
-232,030	800,000	-0,021	-0,061
-231,015	800,000	0,030	-0,081
-230,000	282,550	0,061	0,080
-228,986	-200,000	-0,014	-0,051
-227,971	-0,784	0,190	0,097
-226,957	630,700	-0,102	0,188
-225,942	-107,131	0,111	0,017
-224,927	800,000	0,010	0,031
-223,913	-200,000	0,003	0,066
-222,898	-30,179	-0,106	-0,043
-221,884	57,983	0,031	0,022
-220,869	-200,000	0,014	0,061
-219,855	365,162	0,009	-0,013
-218,840	-39,787	-0,125	0,047
-217,825	121,157	0,069	0,062
-216,811	7,927	0,031	0,017
-215,796	375,058	0,066	0,097
-214,782	-189,379	-0,091	-0,001
-213,767	623,576	0,053	-0,096
-212,752	-200,000	0,003	-0,033
-211,738	-4,112	-0,020	-0,010
-210,723	137,995	0,043	-0,041
-209,709	641,407	0,042	0,078
-208,694	-72,321	0,154	-0,041
-207,679	-200,000	0,002	0,031
-206,665	292,379	0,081	0,107
-205,650	223,831	0,031	0,036
-204,636	425,318	0,071	0,111
-203,621	-196,948	-0,025	-0,000
-202,606	-200,000	0,021	-0,068
-201,592	289,923	0,038	0,050
-200,577	-160,031	-0,104	0,004
-199,563	-200,000	0,036	0,117
-198,548	800,000	-0,020	0,064
-197,533	355,424	0,037	0,053
-196,519	-104,620	-0,040	-0,007
-195,504	599,934	0,077	-0,139
-194,490	249,436	-0,094	-0,115
-193,475	-200,000	0,004	0,033
-192,460	66,357	0,091	0,067
-191,446	-71,836	0,170	0,045
-190,431	-200,000	0,005	0,151
-189,417	314,818	0,042	-0,058
-188,402	177,822	0,052	0,055
-187,387	-45,547	0,057	-0,020
-186,373	800,000	0,024	0,063
-185,358	-200,000	0,012	0,103
-184,344	800,000	0,053	0,139
-183,329	-65,636	0,012	0,004
-182,315	19,611	-0,069	0,040
-181,300	-200,000	0,026	-0,097
-180,285	-159,890	-0,144	-0,006
-179,271	79,549	0,079	-0,061
-178,256	-88,296	-0,098	-0,021
-177,242	-66,537	0,046	0,013
-176,227	-88,677	0,170	0,036
-175,212	239,982	0,047	-0,057
-174,198	-179,321	-0,048	-0,001
-173,183	278,583	-0,029	0,037
-172,169	-200,000	0,010	-0,034
-171,154	-200,000	-0,015	-0,061
-170,139	800,000	0,054	-0,117
-169,125	-200,000	-0,015	0,079
-168,110	-200,000	-0,017	0,092
-167,096	800,000	-0,030	-0,088
-166,081	79,156	-0,022	0,017
-165,066	-62,934	-0,206	-0,061
-164,052	228,722	0,042	-0,049
-163,037	-200,000	0,011	0,084
-162,023	-128,236	0,054	-0,005
-161,008	-12,984	-0,089	0,042
-159,993	293,684	-0,099	0,131
-158,979	-200,000	-0,000	0,037
-157,964	-16,800	-0,071	-0,032
-156,950	257,341	-0,079	-0,099
-155,935	-200,000	0,024	0,098
-154,920	-91,831	0,026	-0,005
-153,906	29,703	0,019	-0,012
-152,891	800,000	0,027	-0,078
-151,877	-149,177	0,129	-0,007
-150,862	-5,958	-0,029	0,014
-149,847	284,103	0,095	-0,124
-148,833	-200,000	0,000	0,003
-147,818	68,736	-0,049	0,036
-146,804	-200,000	-0,025	0,143
-145,789	-69,483	-0,059	0,016
-144,775	48,980	0,050	-0,034
-143,760	-123,903	-0,092	-0,010
-142,745	110,454	0,088	-0,076
-141,731	-38,122	-0,023	-0,009
-140,716	-56,185	-0,150	-0,048
-139,702	216,776	-0,064	-0,074
-138,687	170,915	0,124	0,129
-137,672	423,488	0,043	0,068
-136,658	188,517	-0,152	-0,164
-135,643	0,781	0,073	0,037
-134,629	400,933	-0,042	0,064
-133,614	12,051	0,077	-0,042
-132,599	56,652	0,111	-0,078
-131,585	-200,000	-0,031	0,189
-130,570	566,344	0,090	0,158
-129,556	800,000	-0,011	-0,032
-128,541	-200,000	0,012	0,049
-127,526	-81,481	0,075	-0,018
-126,512	-87,240	0,118	0,026
-125,497	361,744	-0,094	0,136
-124,483	441,439	-0,043	0,069
-123,468	395,788	0,010	-0,015
-122,453	-200,000	-0,173	0,000
-121,439	-200,000	0,002	0,013
-120,424	228,750	0,042	0,049
-119,410	-162,484	0,092	-0,003
-118,395	-168,292	-0,063	0,002
-117,380	408,867	-0,062	-0,095
-116,366	800,000	-0,029	0,068
-115,351	-200,000	0,055	0,184
-114,337	9,127	-0,137	0,074
-113,322	332,227	0,064	0,090
-112,307	-200,000	-0,011	-0,065
-111,293	-21,653	0,111	0,048
-110,278	147,531	-0,078	0,076
-109,264	800,000	-0,058	0,118
-108,249	-39,784	-0,094	0,035
-107,234	-200,000	0,007	0,143
-106,220	10,489	-0,027	-0,015
-105,205	-108,556	-0,054	-0,008
-104,191	190,478	0,030	0,033
-103,176	361,624	0,070	0,102
-102,162	488,731	-0,031	0,052
-101,147	-113,022	-0,077	-0,011
-100,132	108,328	-0,063	0,054
-99,118	125,010	-0,064	-0,058
-98,103	-13,120	0,030	0,014
-97,089	394,715	0,088	0,133
-96,074	-200,000	-0,008	0,145
-95,059	20,114	0,046	-0,027
-94,045	-17,864	0,049	-0,022
-93,030	-122,729	-0,113	-0,013
-92,016	65,547	-0,011	0,008
-91,001	800,000	0,016	0,034
-89,986	-200,000	0,008	-0,029
-88,972	-200,000	0,005	0,025
-87,957	800,000	-0,070	0,149
-86,943	-200,000	-0,025	0,148
-85,928	-30,136	-0,024	0,010
-84,913	-134,540	-0,054	0,005
-83,899	-99,762	-0,033	0,006
-82,884	-200,000	0,003	0,092
-81,870	83,660	-0,104	-0,081
-80,855	-200,000	-0,051	-0,191
-79,840	-2,564	0,042	-0,021
-78,826	185,801	0,090	-0,096
-77,811	-160,854	-0,194	0,007
-76,797	-200,000	-0,002	0,077
-75,782	-108,270	0,071	0,011
-74,767	-76,651	-0,110	0,027
-73,753	-200,000	-0,007	0,077
-72,738	7,755	0,116	-0,062
-71,724	97,362	-0,074	-0,061
-70,709	763,151	-0,040	0,078
-69,694	-150,550	0,104	-0,006
-68,680	673,980	-0,030	0,057
-67,665	-133,025	-0,020	0,002
-66,651	326,456	-0,068	0,093
-65,636	800,000	-0,014	-0,040
-64,622	-200,000	-0,011	-0,050
-63,607	108,237	-0,090	0,077
-62,592	800,000	0,012	-0,026
-61,578	-28,086	0,187	-0,077
-60,563	58,458	0,109	0,077
-59,549	-200,000	-0,028	0,186
-58,534	-6,546	-1,966	-0,959
-57,519	800,000	-0,354	-0,805
-56,505	-200,000	-1,347	-4,992
-55,490	-21,800	0,701	0,305
-54,476	800,000	5,360	12,299
-53,461	-200,000	17,392	277,974
-52,446	800,000	720,156	2194,599
-51,432	529,663	1633,070	2781,497
-50,417	111,868	1626,633	1410,948
-49,403	75,377	1286,064	973,897
-48,388	32,896	1031,201	640,081
-47,373	20,153	993,201	574,294
-46,359	18,776	981,465	562,946
-45,344	16,452	977,562	553,044
-44,330	16,581	976,082	552,610
-43,315	16,196	974,295	550,313
-42,300	16,179	973,144	549,587
-41,286	16,118	972,455	548,973
-40,271	16,178	971,102	548,387
-39,257	16,158	970,470	547,941
-38,242	16,216	969,696	547,671
-37,227	16,241	968,705	547,174
-36,213	16,150	967,980	546,443
-35,198	16,156	966,915	545,842
-34,184	16,213	966,308	545,662
-33,169	16,165	965,206	544,861
-32,154	16,173	964,426	544,427
-31,140	16,231	963,267	543,939
-30,125	16,230	962,675	543,579
-29,111	16,160	961,935	542,914
-28,096	16,196	961,188	542,587
-27,082	16,183	960,606	542,194
-26,067	16,170	959,900	541,731
-25,052	16,115	959,174	541,125
-24,038	16,218	958,269	540,923
-23,023	16,141	957,834	540,408
-22,009	16,163	957,185	540,093
-20,994	16,226	956,479	539,875
-19,979	16,221	955,919	539,521
-18,965	16,187	955,215	538,993
-17,950	16,207	954,625	538,705
-16,936	16,101	954,034	538,007
-15,921	16,144	953,179	537,641
-14,906	16,060	952,550	536,996
-13,892	16,082	952,000	536,735
-12,877	16,045	951,211	536,150
-11,863	16,021	950,503	535,654
-10,848	16,073	950,175	535,615
-9,833	16,207	949,531	535,659
-8,819	16,169	948,991	535,211
-7,804	16,067	948,211	534,423
-6,790	16,044	947,797	534,096
-5,775	16,121	947,049	533,899
-4,760	16,092	946,480	533,463
-3,746	16,074	945,901	533,062
-2,731	15,937	945,296	532,261
-1,717	15,910	944,523	531,719
-0,702	15,909	943,866	531,325
0,313	15,702	943,218	531,106
1,327	19,210	941,392	541,137
2,342	28,471	795,389	481,777
3,356	25,346	448,016	266,684
4,371	-4,406	296,520	146,660
5,386	-8,328	278,081	133,795
6,400	-9,615	272,322	129,812
7,415	-9,867	270,072	128,496
8,429	-9,895	268,704	127,807
9,444	-9,996	267,897	127,319
10,459	-9,962	267,224	127,019
11,473	-10,060	266,484	126,567
12,488	-10,196	265,924	126,166
13,502	-10,579	265,477	125,594
14,517	-10,471	264,966	125,440
15,531	-10,360	264,540	125,327
16,546	-10,257	264,007	125,156
17,561	-10,258	263,899	125,093
18,575	-10,186	263,475	124,946
19,590	-10,256	263,038	124,665
20,604	-10,128	262,785	124,648
21,619	-10,315	262,571	124,368
22,634	-10,252	262,070	124,176
23,648	-10,298	261,796	123,994
24,663	-10,235	261,591	123,942
25,677	-10,314	261,301	123,723
26,692	-10,465	261,025	123,447
27,707	-10,410	260,880	123,416
28,721	-10,393	260,445	123,215
29,736	-10,575	260,314	122,979
30,750	-10,376	259,955	122,976
31,765	-10,547	259,878	122,776
32,780	-10,517	259,667	122,692
33,794	-10,471	259,446	122,618
34,809	-10,507	258,998	122,363
35,823	-10,637	258,831	122,158
36,838	-10,635	258,395	121,944
37,853	-10,570	258,082	121,842
38,867	-10,449	257,995	121,897
39,882	-10,684	257,732	121,555
40,896	-10,761	257,692	121,458
41,911	-10,567	257,289	121,427
42,926	-10,780	257,114	121,147
43,940	-10,712	256,905	121,097
44,955	-10,697	256,607	120,959
45,969	-10,871	256,431	120,713
46,984	-10,861	255,928	120,474
47,999	-11,045	255,824	120,254
49,013	-11,198	255,557	119,984
50,028	-11,310	255,150	119,684
51,042	-11,407	255,059	119,546
52,057	-11,479	254,925	119,410
53,071	-11,479	254,703	119,296
54,086	-11,553	254,570	119,159
55,101	-11,353	254,390	119,238
56,115	-10,991	254,255	119,478
57,130	-10,620	254,155	119,741
58,144	-10,310	254,017	119,935
59,159	-10,116	253,684	119,935
60,174	-10,233	253,538	119,754
61,188	-10,342	253,334	119,552
62,203	-10,304	252,932	119,385
63,217	-10,470	252,876	119,205
64,232	-10,309	252,686	119,244
65,247	-10,362	252,530	119,113
66,261	-10,284	252,298	119,060
67,276	-10,628	251,933	118,582
68,290	-11,016	251,675	118,117
69,305	-11,024	251,246	117,899
70,320	-10,950	251,288	117,971
71,334	-10,608	251,176	118,201
72,349	-10,263	250,896	118,354
73,363	-10,445	250,878	118,179
74,378	-10,352	250,701	118,165
75,393	-10,316	250,460	118,071
76,407	-10,582	250,234	117,727
77,422	-10,560	250,059	117,653
78,436	-10,484	249,840	117,604
79,451	-10,297	249,452	117,570
80,466	-10,495	249,241	117,292
81,480	-10,636	248,947	117,023
82,495	-10,897	248,910	116,775
83,509	-10,584	248,596	116,882
84,524	-10,766	248,508	116,676
85,539	-10,928	248,242	116,404
86,553	-11,014	248,122	116,264
87,568	-10,801	247,889	116,325
88,582	-10,815	247,624	116,178
89,597	-10,832	247,464	116,078
90,611	-10,608	247,353	116,204
91,626	-10,488	247,265	116,254
92,641	-10,580	246,982	116,033
93,655	-10,545	246,877	116,002
94,670	-10,863	246,476	115,537
95,684	-10,694	246,507	115,683
96,699	-10,708	246,162	115,499
97,714	-10,833	246,185	115,395
98,728	-10,995	245,766	115,053
99,743	-11,133	245,440	114,775
100,757	-11,072	245,404	114,799
101,772	-10,956	245,220	114,799
102,787	-10,870	245,104	114,806
103,801	-10,747	244,715	114,717
104,816	-10,674	244,751	114,784
105,830	-10,596	244,531	114,735
106,845	-10,336	244,456	114,906
107,860	-10,604	244,279	114,590
108,874	-10,362	244,005	114,652
109,889	-10,598	243,670	114,289
110,903	-10,734	243,626	114,146
111,918	-10,875	243,521	113,969
112,933	-10,684	243,363	114,043
113,947	-10,779	243,125	113,842
114,962	-10,688	243,145	113,917
115,976	-10,465	242,812	113,935
116,991	-10,636	242,513	113,644
118,006	-10,644	242,384	113,567
119,020	-10,539	242,295	113,601
120,035	-10,563	242,166	113,510
121,049	-10,448	241,944	113,491
122,064	-10,518	241,705	113,311
123,079	-10,604	241,429	113,101
124,093	-10,789	241,456	112,952
125,108	-10,917	241,045	112,645
126,122	-10,990	240,790	112,457
127,137	-11,204	240,609	112,187
128,151	-10,994	240,516	112,305
129,166	-10,838	240,210	112,280
130,181	-10,848	240,006	112,166
131,195	-11,023	239,942	111,984
132,210	-10,819	239,916	112,128
133,224	-10,677	239,624	112,097
134,239	-10,489	239,448	112,157
135,254	-10,461	239,237	112,071
136,268	-10,869	239,017	111,627
137,283	-10,832	238,799	111,545
138,297	-11,162	238,632	111,190
139,312	-11,012	238,300	111,147
140,327	-10,646	238,441	111,499
141,341	-10,264	238,389	111,773
142,356	-10,211	238,151	111,694
143,370	-10,100	237,935	111,671
144,385	-10,084	237,952	111,683
145,400	-10,013	237,728	111,625
146,414	-10,240	237,418	111,287
147,429	-10,176	237,360	111,301
148,443	-10,185	237,005	111,118
149,458	-10,499	236,879	110,796
150,473	-10,342	236,749	110,852
151,487	-10,350	236,676	110,801
152,502	-10,358	236,515	110,710
153,516	-10,117	236,374	110,827
154,531	-10,113	236,034	110,661
155,546	-10,236	235,995	110,534
156,560	-10,443	235,786	110,261
157,575	-10,470	235,715	110,197
158,589	-10,387	235,390	110,101
159,604	-10,133	235,344	110,272
160,619	-10,176	235,158	110,141
161,633	-10,138	235,084	110,126
162,648	-10,154	234,875	110,006
163,662	-10,174	234,676	109,887
164,677	-10,593	234,571	109,496
165,692	-10,508	234,434	109,490
166,706	-10,148	234,245	109,677
167,721	-10,132	234,102	109,612
168,735	-10,063	234,079	109,647
169,750	-10,100	233,872	109,511
170,764	-10,216	233,538	109,253
171,779	-10,078	233,444	109,308
172,794	-10,059	233,369	109,278
173,808	-10,244	233,118	109,005
174,823	-10,792	232,831	108,430
175,837	-10,958	232,535	108,152
176,852	-10,487	232,451	108,474
177,867	-10,131	232,580	108,803
178,881	-10,219	232,420	108,650
179,896	-9,990	232,175	108,705
180,910	-9,878	231,957	108,681
181,925	-10,073	231,902	108,493
182,940	-10,046	231,769	108,442
183,954	-10,078	231,642	108,348
184,969	-9,886	231,449	108,397
185,983	-10,030	231,382	108,245
186,998	-9,779	231,249	108,368
188,013	-9,866	231,120	108,231
189,027	-10,130	230,990	107,955
190,042	-9,921	230,712	107,977
191,056	-9,774	230,508	107,987
192,071	-10,050	230,665	107,836
193,086	-9,774	230,220	107,832
194,100	-9,577	229,927	107,838
195,115	-9,926	229,832	107,514
196,129	-9,808	229,857	107,607
197,144	-5,313	231,416	111,829
198,159	-0,132	232,882	116,579
199,173	3,109	233,669	119,498
200,188	3,566	233,775	119,899
201,202	3,318	233,685	119,648
202,217	3,656	233,414	119,763
203,232	4,016	233,319	119,984
204,246	3,966	233,211	119,878
205,261	3,795	233,132	119,695
206,275	4,194	233,003	119,928
207,290	4,080	232,876	119,763
208,304	4,357	232,653	119,853
209,319	4,103	232,477	119,554
210,334	3,944	232,341	119,350
211,348	3,958	232,004	119,177
212,363	3,424	231,802	118,650
213,377	3,224	231,470	118,315
214,392	3,119	231,485	118,231
215,407	3,532	231,155	118,370
216,421	3,394	231,163	118,258
217,436	3,202	231,126	118,080
218,450	3,031	230,756	117,748
219,465	2,905	230,637	117,580
220,480	3,083	230,504	117,639
221,494	3,158	230,389	117,627
222,509	3,147	230,383	117,605
223,523	3,227	230,164	117,545
224,538	3,105	229,891	117,301
225,553	3,402	229,762	117,453
226,567	3,269	229,619	117,267
227,582	3,757	229,494	117,566
228,596	3,812	229,430	117,565
229,611	3,280	229,262	117,061
230,626	3,199	228,947	116,828
231,640	3,241	228,802	116,776
232,655	3,403	228,868	116,923
233,669	3,813	228,812	117,197
234,684	4,017	228,651	117,260
235,699	3,696	228,347	116,848
236,713	3,358	228,151	116,481
237,728	3,474	227,921	116,441
238,742	3,253	227,783	116,192
239,757	3,154	227,606	116,017
240,772	3,256	227,474	116,017
241,786	3,395	227,360	116,053
242,801	3,375	227,348	116,022
243,815	3,733	227,319	116,268
244,830	3,829	227,066	116,200
245,844	3,430	226,949	115,829
246,859	3,490	226,745	115,760
247,874	3,644	226,631	115,807
248,888	3,524	226,540	115,660
249,903	3,533	226,263	115,515
250,917	3,338	226,175	115,313
251,932	3,302	225,871	115,121
252,947	3,376	225,732	115,095
253,961	3,095	225,713	114,864
254,976	3,268	225,356	114,802
255,990	3,603	225,408	115,069
257,005	3,444	225,374	114,922
258,020	3,569	225,128	114,880
259,034	3,721	225,172	115,007
260,049	3,623	224,870	114,769
261,063	3,670	224,669	114,691
262,078	3,623	224,611	114,616
263,093	3,830	224,436	114,671
264,107	3,689	224,343	114,508
265,122	3,709	224,157	114,418
266,136	3,683	224,282	114,452
267,151	4,110	223,802	114,515
268,166	3,495	223,491	113,888
269,180	3,231	223,327	113,599
270,195	3,333	223,270	113,636
271,209	3,125	223,137	113,403
272,224	3,354	223,009	113,498
273,239	3,454	222,894	113,503
274,253	3,277	222,817	113,323
275,268	3,046	222,523	112,992
276,282	3,096	222,432	112,973
277,297	2,890	222,338	112,763
278,312	3,124	222,244	112,878
279,326	3,227	222,093	112,867
280,341	3,298	221,853	112,787
281,355	3,491	221,757	112,871
282,370	3,296	221,608	112,642
283,384	3,212	221,348	112,437
284,399	2,945	221,284	112,199
285,414	3,040	221,087	112,159
286,428	3,248	221,029	112,272
287,443	3,630	221,021	112,538
288,457	3,381	220,778	112,221
289,472	3,146	220,684	111,992
290,487	2,654	220,358	111,456
291,501	2,997	220,076	111,555
292,516	2,910	220,158	111,523
293,530	2,953	219,931	111,429
294,545	2,978	219,970	111,457
295,560	3,232	219,844	111,569
296,574	3,494	219,619	111,635
297,589	3,192	219,514	111,352
298,603	3,481	219,351	111,469
299,618	3,218	219,239	111,212
300,633	3,362	219,192	111,283
301,647	3,672	219,065	111,433
302,662	3,540	218,891	111,239
303,676	3,548	218,723	111,150
304,691	3,669	218,767	111,250
305,706	3,627	218,474	111,060
306,720	3,366	218,439	110,843
307,735	3,437	218,069	110,698
308,749	3,280	217,983	110,531
309,764	3,348	217,853	110,504
310,779	3,293	217,842	110,449
311,793	3,576	217,526	110,483
312,808	3,156	217,601	110,208
313,822	3,470	217,210	110,226
314,837	3,273	217,148	110,043
315,852	3,235	216,882	109,872
316,866	3,422	216,994	110,052
317,881	3,520	216,654	109,941
318,895	3,510	216,613	109,903
319,910	3,268	216,225	109,523
320,925	2,872	216,230	109,233
321,939	2,877	216,094	109,157
322,954	3,309	216,001	109,409
323,968	3,656	215,904	109,598
324,983	3,397	215,754	109,328
325,997	3,530	215,725	109,398
327,012	3,352	215,469	109,132
328,027	3,456	215,414	109,168
329,041	3,770	215,389	109,369
330,056	3,720	215,304	109,281
331,070	3,320	214,941	108,803
332,085	2,872	214,778	108,392
333,100	3,316	214,660	108,638
334,114	3,313	214,490	108,540
335,129	3,491	214,408	108,615
336,143	3,346	214,233	108,414
337,158	3,345	214,162	108,368
338,173	3,426	213,940	108,304
339,187	3,350	213,769	108,154
340,202	2,876	213,678	107,763
341,216	2,960	213,454	107,700
342,231	3,203	213,295	107,781
343,246	3,235	213,158	107,725
344,260	3,024	213,210	107,593
345,275	3,145	213,139	107,633
346,289	3,361	213,033	107,721
347,304	3,458	212,811	107,668
348,319	3,513	212,610	107,595
349,333	3,390	212,514	107,450
350,348	3,148	212,432	107,230
351,362	3,746	212,180	107,512
352,377	3,610	212,163	107,398
353,392	3,355	211,826	107,040
354,406	3,654	211,860	107,257
355,421	195,620	1339,877	1419,498
356,435	156,281	1477,303	1419,495
