DTS Sentinel unit serial number:	SN410029Multiplexer serial number:	ORYXHardware model number:	OX2-SRSoftware version number:	ORYX F/W v4,00 Oryx Data Collector v3.7.2.0data status	okinstallation	B6 Nyhavnadifferential loss correction	single-endedforward channel	channel 2reverse channel	N/Adate	2023/12/11time	01:10:08forward acquisition time	300,00reverse acquisition time	0,00gamma	499,1914k internal	0,3122k external	0,3122temperature offset calibration	1,0000default loss term (dB/km)	0,3820temperature slope calibration	1,0000multiplexer offset coefficient	1,0000multiplexer slope coefficient	1,0000fibre end	0,00T internal ref (°C)	22,18T ext. ref 1 (°C)	5,50T ext. ref 2 (°C)	5,53length (m)	temperature (°C)	Stokes	anti-Stokes-744,400	-200,000	-0,011	-0,141
-743,385	109,249	-0,200	0,178
-742,371	145,305	0,045	-0,045
-741,356	11,236	-0,220	0,125
-740,342	234,155	0,070	0,086
-739,327	-2,036	-0,227	0,118
-738,312	-72,849	-0,019	-0,005
-737,298	75,769	-0,190	0,150
-736,283	159,214	0,096	-0,100
-735,269	-200,000	-0,164	0,000
-734,254	14,250	-0,122	-0,071
-733,239	-49,483	-0,394	-0,139
-732,225	-12,672	0,158	0,077
-731,210	-200,000	-0,004	-0,029
-730,196	-200,000	-0,015	0,093
-729,181	-200,000	-0,013	0,145
-728,167	-200,000	-0,018	-0,121
-727,152	-200,000	0,036	-0,133
-726,137	-200,000	0,009	-0,091
-725,123	-21,800	-0,021	-0,010
-724,108	-200,000	0,005	-0,042
-723,094	209,113	-0,102	-0,119
-722,079	253,225	-0,075	-0,095
-721,064	142,538	0,066	0,065
-720,050	239,139	0,082	-0,101
-719,035	-121,474	-0,078	-0,010
-718,021	34,566	0,052	0,033
-717,006	82,841	-0,108	-0,087
-715,991	32,428	-0,078	-0,050
-714,977	800,000	-0,025	-0,059
-713,962	-102,862	-0,172	0,030
-712,948	-12,911	0,019	0,009
-711,933	-200,000	-0,013	0,091
-710,918	13,618	-0,082	-0,048
-709,904	447,531	-0,013	-0,022
-708,889	-200,000	0,026	-0,120
-707,875	136,549	-0,127	-0,124
-706,860	53,418	0,067	-0,048
-705,845	-47,783	-0,102	-0,036
-704,831	258,516	0,068	-0,088
-703,816	-200,000	-0,022	0,135
-702,802	-200,000	0,002	-0,046
-701,787	-28,534	0,054	-0,023
-700,772	182,874	-0,097	0,107
-699,758	95,844	-0,048	-0,041
-698,743	800,000	-0,035	-0,085
-697,729	-27,218	-0,042	-0,018
-696,714	800,000	0,013	0,037
-695,699	372,749	-0,047	-0,071
-694,685	49,824	-0,090	0,063
-693,670	440,681	-0,054	-0,088
-692,656	-73,468	0,080	0,022
-691,641	-71,482	-0,168	-0,047
-690,627	-200,000	0,030	0,153
-689,612	-82,856	-0,063	-0,015
-688,597	427,355	-0,020	0,032
-687,583	-33,377	-0,041	-0,017
-686,568	146,381	0,033	0,033
-685,554	-200,000	0,004	-0,109
-684,539	-84,574	0,194	-0,045
-683,524	303,587	0,088	0,121
-682,510	800,000	-0,041	-0,086
-681,495	110,443	-0,070	-0,063
-680,481	428,012	-0,091	-0,146
-679,466	-200,000	0,000	-0,110
-678,451	-139,947	-0,050	-0,004
-677,437	4,238	-0,068	-0,037
-676,422	800,000	0,067	0,145
-675,408	189,933	0,068	-0,075
-674,393	451,950	0,033	0,055
-673,378	800,000	-0,019	0,049
-672,364	23,567	-0,073	0,044
-671,349	-83,627	-0,117	-0,028
-670,335	83,875	-0,137	-0,111
-669,320	158,286	-0,039	0,040
-668,305	-25,575	0,066	0,029
-667,291	222,914	-0,026	-0,031
-666,276	-9,455	-0,009	-0,004
-665,262	79,187	-0,096	-0,076
-664,247	-87,377	0,056	0,013
-663,232	105,448	0,044	-0,039
-662,218	333,579	0,067	-0,097
-661,203	54,036	-0,089	0,063
-660,189	44,849	-0,027	0,019
-659,174	182,158	-0,072	0,079
-658,159	105,689	-0,043	-0,038
-657,145	243,426	0,048	-0,059
-656,130	-109,695	0,085	-0,013
-655,116	249,561	-0,091	0,114
-654,101	305,987	0,055	-0,076
-653,086	-49,675	0,113	0,040
-652,072	-57,713	-0,079	0,025
-651,057	652,225	-0,041	-0,079
-650,043	-119,436	-0,194	0,025
-649,028	80,401	0,042	-0,034
-648,014	-151,868	-0,119	0,006
-646,999	-32,870	-0,069	0,028
-645,984	446,863	0,016	-0,026
-644,970	552,063	0,046	-0,082
-643,955	-74,861	0,098	-0,026
-642,941	800,000	-0,045	-0,125
-641,926	312,505	-0,028	0,039
-640,911	39,993	-0,078	-0,052
-639,897	722,951	0,059	-0,118
-638,882	800,000	-0,036	-0,104
-637,868	336,122	-0,062	0,089
-636,853	-142,972	-0,096	0,007
-635,838	115,537	-0,127	-0,116
-634,824	252,374	-0,058	-0,073
-633,809	-200,000	-0,037	-0,154
-632,795	-63,179	0,058	0,018
-631,780	-117,285	0,016	0,002
-630,765	160,295	-0,061	0,063
-629,751	-42,820	-0,016	-0,006
-628,736	-184,764	-0,020	0,000
-627,722	-200,000	0,032	-0,150
-626,707	-55,847	-0,074	-0,024
-625,692	800,000	-0,026	0,086
-624,678	800,000	0,061	0,130
-623,663	-43,993	-0,081	-0,030
-622,649	308,402	0,115	-0,160
-621,634	257,360	-0,119	0,152
-620,619	-188,737	-0,087	0,001
-619,605	79,445	0,045	-0,036
-618,590	800,000	-0,041	0,095
-617,576	312,196	-0,043	0,060
-616,561	229,429	0,019	0,023
-615,546	-200,000	-0,001	-0,080
-614,532	-200,000	0,001	-0,129
-613,517	38,960	0,076	0,050
-612,503	122,122	0,095	0,088
-611,488	72,769	0,033	-0,025
-610,474	318,343	0,133	0,187
-609,459	33,209	0,150	-0,096
-608,444	-200,000	0,020	-0,126
-607,430	800,000	-0,011	-0,033
-606,415	-200,000	-0,027	-0,182
-605,401	41,016	-0,043	-0,029
-604,386	-200,000	-0,044	-0,146
-603,371	227,393	-0,037	-0,045
-602,357	636,794	0,046	0,086
-601,342	-132,033	-0,066	-0,006
-600,328	800,000	0,089	-0,269
-599,313	800,000	-0,054	-0,143
-598,298	-87,130	0,148	0,033
-597,284	1,714	0,078	0,041
-596,269	-51,421	0,094	-0,032
-595,255	-200,000	0,026	0,124
-594,240	21,318	-0,119	-0,072
-593,225	-170,125	-0,075	-0,002
-592,211	467,362	0,039	-0,066
-591,196	-128,666	-0,023	0,002
-590,182	130,526	-0,064	0,061
-589,167	-200,000	-0,010	0,044
-588,152	800,000	0,028	-0,080
-587,138	800,000	-0,049	0,110
-586,123	-48,130	-0,100	-0,036
-585,109	-36,458	-0,148	-0,059
-584,094	-49,265	0,052	0,018
-583,079	-132,510	-0,054	0,005
-582,065	693,683	0,027	0,052
-581,050	199,317	0,077	0,087
-580,036	-82,066	0,161	-0,039
-579,021	-200,000	0,025	-0,118
-578,006	170,011	-0,087	0,092
-576,992	-21,360	0,007	-0,003
-575,977	-182,667	0,090	-0,001
-574,963	-200,000	0,002	0,016
-573,948	175,274	-0,060	0,065
-572,934	800,000	-0,026	-0,062
-571,919	-200,000	-0,009	-0,049
-570,904	-95,598	0,090	-0,018
-569,890	8,570	0,078	0,043
-568,875	93,158	-0,135	0,113
-567,861	-200,000	0,006	0,083
-566,846	5,274	0,098	-0,054
-565,831	-200,000	0,013	-0,152
-564,817	86,468	-0,064	0,053
-563,802	-41,757	-0,081	-0,031
-562,788	-200,000	0,015	-0,139
-561,773	-120,383	0,036	-0,005
-560,758	213,281	0,141	0,165
-559,744	-59,254	-0,077	0,024
-558,729	42,746	-0,057	-0,038
-557,715	800,000	-0,027	-0,059
-556,700	37,684	0,159	0,105
-555,685	-114,423	-0,113	-0,016
-554,671	-183,592	0,192	0,002
-553,656	1,431	0,132	0,070
-552,642	159,199	0,046	0,048
-551,627	245,720	0,101	0,126
-550,612	-200,000	-0,030	-0,103
-549,598	-200,000	0,041	-0,194
-548,583	123,532	-0,151	-0,140
-547,569	-200,000	0,008	0,111
-546,554	-134,574	-0,198	-0,018
-545,539	-6,543	0,109	0,055
-544,525	-81,257	-0,115	0,028
-543,510	291,620	-0,108	-0,146
-542,496	-131,320	0,096	0,009
-541,481	-20,966	-0,101	0,046
-540,466	-200,000	-0,041	-0,171
-539,452	-200,000	-0,018	-0,093
-538,437	396,755	0,037	-0,057
-537,423	-200,000	0,013	-0,095
-536,408	-200,000	0,001	-0,040
-535,393	800,000	0,059	-0,170
-534,379	-50,643	-0,107	-0,037
-533,364	123,664	0,061	-0,057
-532,350	44,300	0,097	0,066
-531,335	217,187	-0,012	-0,014
-530,321	329,670	0,064	-0,092
-529,306	-200,000	-0,007	0,043
-528,291	-200,000	0,003	-0,024
-527,277	416,081	-0,079	-0,124
-526,262	-200,000	0,005	-0,030
-525,248	-130,222	0,086	0,009
-524,233	225,280	0,045	-0,055
-523,218	-200,000	-0,005	0,205
-522,204	800,000	0,047	0,106
-521,189	-141,896	-0,148	-0,011
-520,175	800,000	0,070	-0,201
-519,160	112,283	-0,028	-0,025
-518,145	-44,712	0,045	-0,016
-517,131	-200,000	-0,029	0,118
-516,116	-124,413	-0,144	0,016
-515,102	800,000	-0,018	0,042
-514,087	64,472	0,055	0,041
-513,072	-200,000	-0,003	0,015
-512,058	139,792	0,088	0,086
-511,043	317,525	0,038	-0,053
-510,029	800,000	0,027	0,070
-509,014	800,000	0,022	0,069
-507,999	-111,949	0,164	0,024
-506,985	-82,033	-0,156	-0,037
-505,970	151,340	-0,069	0,070
-504,956	-124,395	-0,047	-0,005
-503,941	653,941	-0,032	-0,061
-502,926	326,854	0,069	0,098
-501,912	-16,231	-0,031	-0,015
-500,897	208,130	0,075	0,087
-499,883	-200,000	-0,009	0,096
-498,868	112,935	-0,086	0,077
-497,853	-115,067	0,026	-0,004
-496,839	112,884	0,065	0,058
-495,824	-200,000	-0,023	0,178
-494,810	-61,300	0,098	0,030
-493,795	800,000	0,036	0,089
-492,781	-200,000	0,011	-0,112
-491,766	34,125	-0,132	-0,085
-490,751	544,596	-0,071	0,126
-489,737	-145,565	0,134	0,009
-488,722	427,202	-0,064	-0,103
-487,708	17,401	0,066	0,039
-486,693	-133,234	-0,087	0,008
-485,678	800,000	-0,101	0,278
-484,664	32,842	-0,101	0,064
-483,649	483,827	0,020	-0,033
-482,635	26,918	-0,080	-0,049
-481,620	800,000	0,055	0,145
-480,605	42,343	0,110	0,074
-479,591	-200,000	0,002	0,109
-478,576	304,934	0,046	0,063
-477,562	21,273	0,090	-0,054
-476,547	800,000	0,029	0,061
-475,532	137,177	0,022	0,021
-474,518	-69,205	0,065	-0,018
-473,503	319,570	0,063	0,089
-472,489	566,221	-0,022	0,039
-471,474	-185,083	-0,067	0,001
-470,459	-101,232	0,103	0,018
-469,445	109,209	0,014	0,012
-468,430	-137,972	0,119	0,010
-467,416	-26,200	-0,108	-0,047
-466,401	2,095	0,059	0,031
-465,386	12,546	0,037	0,021
-464,372	81,521	0,093	-0,074
-463,357	-22,902	-0,005	-0,002
-462,343	162,843	-0,105	0,109
-461,328	800,000	-0,048	0,112
-460,313	-76,277	0,075	0,019
-459,299	338,614	0,058	-0,083
-458,284	90,761	0,077	0,064
-457,270	-200,000	0,020	0,108
-456,255	68,607	0,059	-0,045
-455,241	71,261	-0,050	-0,038
-454,226	-50,997	-0,074	-0,025
-453,211	-156,732	0,092	0,004
-452,197	-184,964	-0,106	0,001
-451,182	-171,900	-0,110	0,003
-450,168	15,437	0,087	-0,050
-449,153	-79,832	-0,089	0,022
-448,138	257,918	-0,045	0,057
-447,124	-14,973	-0,037	-0,017
-446,109	-135,506	-0,106	-0,009
-445,095	-200,000	0,021	0,078
-444,080	107,488	0,073	0,064
-443,065	-200,000	-0,018	-0,112
-442,051	109,204	0,045	-0,040
-441,036	-70,669	0,056	-0,015
-440,022	407,190	-0,035	-0,054
-439,007	-23,244	-0,117	0,052
-437,992	-130,645	-0,098	0,010
-436,978	800,000	-0,006	0,020
-435,963	-11,835	-0,102	-0,049
-434,949	-92,322	-0,053	0,011
-433,934	173,456	0,069	0,073
-432,919	276,963	0,090	-0,118
-431,905	-200,000	0,009	-0,040
-430,890	800,000	-0,047	-0,113
-429,876	142,304	0,081	0,079
-428,861	-200,000	-0,033	0,180
-427,846	106,562	-0,024	-0,021
-426,832	89,620	-0,080	0,066
-425,817	-17,472	-0,202	-0,093
-424,803	351,458	-0,040	0,058
-423,788	46,570	-0,023	0,016
-422,773	800,000	-0,046	0,143
-421,759	-31,373	0,136	-0,056
-420,744	351,760	0,063	-0,092
-419,730	800,000	-0,033	-0,081
-418,715	-173,391	-0,104	0,002
-417,701	-200,000	-0,015	-0,061
-416,686	95,448	-0,089	0,075
-415,671	800,000	-0,006	0,015
-414,657	133,791	-0,046	0,044
-413,642	693,955	0,023	0,044
-412,628	-31,948	-0,026	0,011
-411,613	-64,123	-0,064	-0,019
-410,598	-91,887	-0,078	0,016
-409,584	800,000	-0,021	-0,047
-408,569	-122,157	0,028	-0,003
-407,555	-200,000	0,021	-0,094
-406,540	50,886	-0,093	-0,065
-405,525	-154,964	-0,068	0,003
-404,511	-200,000	0,005	-0,101
-403,496	-46,329	-0,101	-0,036
-402,482	41,121	0,062	-0,041
-401,467	-29,048	0,037	0,015
-400,452	800,000	-0,047	-0,121
-399,438	-43,593	-0,165	-0,061
-398,423	-51,574	0,093	0,032
-397,409	82,005	-0,036	-0,029
-396,394	216,190	0,084	-0,099
-395,379	96,171	-0,063	0,053
-394,365	250,454	-0,052	-0,065
-393,350	208,853	0,106	0,122
-392,336	-82,557	0,152	-0,036
-391,321	-200,000	-0,004	-0,013
-390,306	-200,000	0,000	-0,146
-389,292	161,087	0,070	-0,072
-388,277	-5,580	0,099	0,050
-387,263	-200,000	-0,012	-0,045
-386,248	195,261	0,077	0,086
-385,233	-200,000	0,024	0,097
-384,219	158,504	-0,076	-0,078
-383,204	-89,642	0,031	0,007
-382,190	566,291	0,087	-0,155
-381,175	800,000	-0,038	0,079
-380,160	213,546	0,039	0,045
-379,146	169,822	0,020	0,021
-378,131	-200,000	-0,014	0,085
-377,117	-118,213	-0,101	0,013
-376,102	800,000	0,033	0,091
-375,088	-74,527	0,029	0,008
-374,073	161,867	-0,051	0,052
-373,058	62,867	0,066	-0,049
-372,044	800,000	-0,057	0,153
-371,029	652,612	0,058	0,110
-370,015	67,340	0,145	0,109
-369,000	-200,000	-0,007	0,041
-367,985	-102,233	-0,143	-0,025
-366,971	42,211	-0,091	0,061
-365,956	39,434	0,053	-0,035
-364,942	149,834	-0,022	-0,022
-363,927	397,370	-0,034	0,052
-362,912	-200,000	0,033	0,131
-361,898	-200,000	-0,009	-0,068
-360,883	-16,125	-0,104	0,048
-359,869	-112,970	0,084	-0,012
-358,854	80,584	0,148	-0,117
-357,839	789,792	0,042	-0,084
-356,825	627,779	0,039	0,072
-355,810	800,000	-0,021	0,050
-354,796	335,288	-0,073	-0,104
-353,781	-200,000	-0,001	-0,067
-352,766	-109,797	0,159	0,024
-351,752	-200,000	0,024	0,106
-350,737	-108,676	0,143	-0,022
-349,723	46,083	-0,048	0,033
-348,708	15,494	-0,076	-0,044
-347,693	-0,217	-0,116	0,060
-346,679	451,823	-0,103	-0,167
-345,664	800,000	-0,014	-0,037
-344,650	509,682	0,086	0,147
-343,635	197,319	-0,081	0,091
-342,620	54,119	0,044	-0,031
-341,606	-28,158	-0,065	0,027
-340,591	-143,773	-0,058	-0,004
-339,577	-37,161	-0,155	-0,061
-338,562	-84,511	0,111	-0,025
-337,548	4,551	0,057	-0,030
-336,533	397,447	0,088	0,135
-335,518	209,270	-0,040	0,046
-334,504	-200,000	-0,028	0,131
-333,489	237,412	0,116	0,141
-332,475	-60,632	0,106	-0,033
-331,460	-200,000	0,013	-0,074
-330,445	175,805	-0,116	-0,123
-329,431	-200,000	0,012	0,105
-328,416	-200,000	0,094	0,000
-327,402	156,210	-0,043	-0,044
-326,387	239,250	0,042	0,052
-325,372	800,000	0,059	0,168
-324,358	112,470	-0,072	0,063
-323,343	146,108	0,064	0,063
-322,329	209,556	0,057	0,066
-321,314	7,206	-0,070	0,038
-320,299	-200,000	-0,015	0,079
-319,285	237,529	0,053	-0,064
-318,270	-156,371	-0,060	-0,003
-317,256	800,000	-0,016	0,045
-316,241	694,603	0,046	0,090
-315,226	52,775	0,106	-0,074
-314,212	800,000	-0,023	-0,063
-313,197	419,775	-0,062	0,098
-312,183	44,764	-0,056	-0,038
-311,168	201,374	-0,051	-0,057
-310,153	130,204	0,068	-0,064
-309,139	-200,000	-0,024	0,081
-308,124	-200,000	0,003	-0,062
-307,110	0,790	-0,084	-0,044
-306,095	20,967	0,079	0,047
-305,080	125,117	0,073	0,067
-304,066	92,494	-0,037	-0,031
-303,051	-92,673	-0,097	0,020
-302,037	229,633	-0,045	0,054
-301,022	780,405	0,027	0,055
-300,008	139,618	-0,027	-0,026
-298,993	-32,885	0,182	0,074
-297,978	373,712	-0,068	0,102
-296,964	-26,318	-0,150	-0,064
-295,949	-70,499	-0,110	-0,030
-294,935	-200,000	0,045	-0,186
-293,920	-21,880	-0,006	0,003
-292,905	-200,000	-0,011	0,040
-291,891	436,187	0,049	0,078
-290,876	715,948	0,014	-0,028
-289,862	32,782	-0,117	0,074
-288,847	800,000	-0,036	-0,078
-287,832	135,447	0,082	-0,078
-286,818	-200,000	-0,013	-0,049
-285,803	800,000	-0,020	0,056
-284,789	-95,647	-0,169	-0,033
-283,774	-74,069	0,152	0,040
-282,759	71,213	0,044	-0,034
-281,745	-79,523	-0,067	0,016
-280,730	800,000	-0,076	-0,187
-279,716	-51,469	0,068	0,023
-278,701	-200,000	0,023	0,078
-277,686	-200,000	-0,000	-0,142
-276,672	800,000	0,033	0,095
-275,657	-73,308	-0,162	0,043
-274,643	117,456	-0,055	0,050
-273,628	345,867	0,025	-0,036
-272,613	-200,000	0,032	-0,109
-271,599	-200,000	-0,003	0,059
-270,584	-200,000	-0,002	0,022
-269,570	-200,000	0,019	0,089
-268,555	89,726	-0,101	0,082
-267,540	106,503	-0,166	-0,144
-266,526	-120,363	0,045	0,006
-265,511	800,000	-0,031	0,097
-264,497	441,352	-0,032	-0,051
-263,482	-200,000	-0,016	0,058
-262,467	26,335	0,088	0,054
-261,453	130,933	0,061	0,057
-260,438	35,512	-0,131	-0,084
-259,424	800,000	-0,032	-0,082
-258,409	-200,000	-0,038	-0,131
-257,395	-200,000	0,000	0,055
-256,380	16,897	0,095	0,055
-255,365	201,170	0,075	0,085
-254,351	25,090	-0,035	0,021
-253,336	301,866	0,051	0,069
-252,322	-200,000	-0,006	0,024
-251,307	-58,259	-0,066	-0,021
-250,292	-200,000	0,003	-0,089
-249,278	-39,080	0,187	-0,072
-248,263	217,289	0,049	-0,057
-247,249	800,000	-0,015	-0,048
-246,234	163,364	-0,064	0,066
-245,219	-0,940	-0,082	-0,042
-244,205	-200,000	0,010	-0,113
-243,190	-53,879	-0,060	0,020
-242,176	-93,258	0,163	0,033
-241,161	2,963	-0,069	0,037
-240,146	81,614	0,096	0,076
-239,132	14,604	-0,058	-0,033
-238,117	-200,000	-0,018	-0,072
-237,103	112,743	0,125	-0,111
-236,088	151,963	0,051	-0,051
-235,073	-5,608	0,076	-0,038
-234,059	-200,000	0,012	-0,075
-233,044	800,000	0,043	-0,109
-232,030	800,000	-0,034	0,107
-231,015	-69,620	0,097	0,027
-230,000	-200,000	-0,001	0,036
-228,986	800,000	0,013	-0,039
-227,971	-106,064	0,144	0,023
-226,957	-150,666	0,140	0,008
-225,942	800,000	-0,028	-0,073
-224,927	-200,000	0,004	0,052
-223,913	174,446	0,114	0,120
-222,898	-200,000	-0,015	-0,062
-221,884	-41,267	-0,036	-0,013
-220,869	-11,581	0,049	-0,024
-219,855	8,003	0,013	0,007
-218,840	68,936	0,080	0,060
-217,825	-50,494	-0,066	0,023
-216,811	-200,000	-0,016	-0,071
-215,796	-15,949	-0,101	0,047
-214,782	-200,000	-0,019	0,145
-213,767	86,229	0,013	0,011
-212,752	-200,000	-0,003	0,036
-211,738	-101,887	0,123	-0,021
-210,723	88,415	-0,123	-0,100
-209,709	157,253	-0,060	-0,061
-208,694	287,606	0,152	-0,201
-207,679	180,420	0,076	0,081
-206,665	-200,000	0,011	-0,046
-205,650	-28,001	0,062	0,026
-204,636	137,301	0,044	0,042
-203,621	576,096	-0,009	-0,016
-202,606	-118,511	-0,023	-0,003
-201,592	-200,000	-0,007	-0,089
-200,577	185,641	-0,041	-0,044
-199,563	32,754	0,091	0,058
-198,548	-60,214	0,118	0,036
-197,533	-56,964	-0,077	-0,025
-196,519	211,921	0,046	0,053
-195,504	152,093	0,063	0,063
-194,490	-111,014	-0,100	0,015
-193,475	-134,273	-0,028	0,002
-192,460	-200,000	-0,031	0,113
-191,446	-200,000	0,017	0,061
-190,431	255,345	-0,106	0,133
-189,417	-200,000	-0,005	0,067
-188,402	-200,000	-0,041	0,145
-187,387	108,225	-0,060	-0,052
-186,373	8,612	-0,048	-0,026
-185,358	-200,000	0,001	-0,061
-184,344	800,000	0,064	-0,143
-183,329	54,913	0,096	-0,067
-182,315	-19,528	-0,043	-0,019
-181,300	101,669	0,106	-0,090
-180,285	111,048	-0,043	0,038
-179,271	800,000	-0,079	-0,177
-178,256	-200,000	0,026	-0,096
-177,242	-200,000	0,011	-0,114
-176,227	30,332	0,070	0,044
-175,212	387,778	0,110	0,166
-174,198	-200,000	-0,014	0,108
-173,183	-200,000	-0,028	-0,096
-172,169	-200,000	-0,035	-0,128
-171,154	171,191	-0,164	-0,171
-170,139	65,771	0,022	-0,016
-169,125	-159,744	-0,077	0,003
-168,110	-132,306	0,073	0,007
-167,096	-14,848	0,048	-0,022
-166,081	-200,000	-0,002	-0,065
-165,066	336,187	-0,031	0,044
-164,052	-38,583	-0,105	0,040
-163,037	-178,546	0,046	0,001
-162,023	-200,000	-0,023	0,119
-161,008	152,617	0,126	0,125
-159,993	-115,496	-0,146	0,020
-158,979	419,100	0,047	-0,074
-157,964	-131,129	-0,143	0,014
-156,950	-107,021	0,102	0,016
-155,935	800,000	-0,026	-0,067
-154,920	31,047	0,099	-0,062
-153,906	-200,000	0,024	0,145
-152,891	-69,479	-0,092	0,025
-151,877	130,024	0,057	-0,053
-150,862	134,739	0,107	-0,101
-149,847	-200,000	0,022	-0,086
-148,833	-69,741	0,039	0,011
-147,818	365,440	0,033	0,049
-146,804	-163,836	-0,087	0,003
-145,789	140,578	-0,047	0,046
-144,775	575,189	-0,100	-0,178
-143,760	800,000	0,028	-0,072
-142,745	-10,380	0,038	-0,018
-141,731	77,179	0,093	-0,072
-140,716	138,270	-0,070	-0,067
-139,702	-200,000	0,005	0,077
-138,687	-9,656	0,129	0,062
-137,672	369,867	-0,049	0,072
-136,658	-200,000	-0,014	-0,101
-135,643	-84,708	0,168	-0,038
-134,629	-35,306	0,027	-0,011
-133,614	800,000	0,065	0,164
-132,599	106,215	0,030	-0,026
-131,585	-94,174	0,118	0,023
-130,570	-86,414	-0,030	-0,007
-129,556	-0,814	0,041	0,021
-128,541	800,000	-0,024	-0,067
-127,526	65,087	0,051	-0,037
-126,512	-118,866	-0,114	0,014
-125,497	800,000	0,065	0,138
-124,483	800,000	-0,013	0,037
-123,468	75,231	-0,096	0,073
-122,453	-128,661	0,056	0,006
-121,439	466,334	0,031	-0,051
-120,424	-200,000	-0,015	-0,095
-119,410	60,851	0,048	0,035
-118,395	-200,000	0,009	0,113
-117,380	770,582	0,025	-0,050
-116,366	423,192	0,048	0,076
-115,351	123,344	-0,058	0,053
-114,337	-200,000	0,033	0,139
-113,322	-115,909	-0,151	0,020
-112,307	-85,527	0,030	0,007
-111,293	96,456	0,026	0,022
-110,278	794,617	-0,088	0,178
-109,264	-93,627	-0,101	-0,020
-108,249	-27,137	-0,149	-0,063
-107,234	32,850	-0,057	-0,036
-106,220	-200,000	-0,022	0,098
-105,205	800,000	0,008	-0,019
-104,191	-40,184	0,103	-0,039
-103,176	-15,692	0,053	0,024
-102,162	-200,000	-0,002	-0,077
-101,147	-83,166	0,087	0,020
-100,132	-200,000	0,009	-0,145
-99,118	170,437	0,096	-0,100
-98,103	-200,000	0,006	-0,056
-97,089	0,186	0,148	-0,077
-96,074	-200,000	0,011	-0,144
-95,059	-200,000	-0,015	-0,093
-94,045	-200,000	0,002	0,103
-93,030	-95,886	0,139	0,027
-92,016	-93,271	-0,021	-0,004
-91,001	205,031	-0,059	0,066
-89,986	34,830	0,083	0,053
-88,972	-200,000	-0,002	-0,095
-87,957	19,055	-0,098	-0,057
-86,943	-106,050	0,081	0,013
-85,928	175,693	-0,133	-0,140
-84,913	-80,394	0,131	-0,032
-83,899	800,000	-0,090	0,192
-82,884	100,592	-0,046	0,039
-81,870	-200,000	-0,006	0,111
-80,855	800,000	-0,025	0,056
-79,840	800,000	-0,061	-0,152
-78,826	208,550	-0,068	0,077
-77,811	-200,000	0,019	0,100
-76,797	-200,000	0,004	0,051
-75,782	-30,187	-0,055	-0,023
-74,767	63,534	0,068	0,050
-73,753	-200,000	0,001	-0,052
-72,738	154,927	-0,105	-0,105
-71,724	290,624	0,058	-0,077
-70,709	409,762	-0,024	0,037
-69,694	77,762	-0,026	0,020
-68,680	723,424	-0,038	-0,075
-67,665	22,405	-0,041	-0,024
-66,651	-200,000	0,024	0,089
-65,636	-136,984	0,111	-0,009
-64,622	-132,231	-0,085	-0,008
-63,607	-112,835	-0,108	0,015
-62,592	-55,907	0,142	0,046
-61,578	-47,103	0,095	-0,033
-60,563	93,884	0,047	-0,039
-59,549	-117,788	-0,099	-0,013
-58,534	-97,450	-1,476	-0,276
-57,519	585,300	-0,806	-1,445
-56,505	-200,000	-1,018	-4,624
-55,490	134,440	0,555	-0,523
-54,476	800,000	4,855	11,804
-53,461	-200,000	13,781	253,886
-52,446	-200,000	691,569	2254,539
-51,432	586,301	1623,219	2910,119
-50,417	118,391	1634,511	1463,710
-49,403	72,988	1288,351	976,011
-48,388	37,792	1024,102	658,948
-47,373	24,135	982,082	586,960
-46,359	23,437	971,546	578,348
-45,344	22,454	967,129	572,483
-44,330	22,379	965,668	571,354
-43,315	22,237	964,355	570,088
-42,300	22,218	963,282	569,372
-41,286	22,199	962,421	568,777
-40,271	22,270	961,252	568,294
-39,257	22,179	960,368	567,455
-38,242	22,246	959,222	566,971
-37,227	22,245	958,365	566,441
-36,213	22,180	957,657	565,787
-35,198	22,157	956,924	565,258
-34,184	22,192	956,395	565,035
-33,169	22,162	955,301	564,271
-32,154	22,245	954,324	563,940
-31,140	22,234	953,509	563,401
-30,125	22,241	952,831	562,998
-29,111	22,282	951,848	562,527
-28,096	22,215	951,385	562,016
-27,082	22,237	950,577	561,588
-26,067	22,223	949,611	560,951
-25,052	22,190	949,169	560,560
-24,038	22,255	948,532	560,371
-23,023	22,215	947,851	559,817
-22,009	22,275	947,074	559,530
-20,994	22,206	946,703	559,066
-19,979	22,218	945,897	558,607
-18,965	22,283	945,161	558,357
-17,950	22,268	944,639	557,979
-16,936	22,205	943,958	557,352
-15,921	22,175	943,232	556,809
-14,906	22,121	942,690	556,295
-13,892	22,084	941,938	555,711
-12,877	22,139	941,183	555,419
-11,863	22,064	940,614	554,821
-10,848	22,061	940,122	554,499
-9,833	22,192	939,681	554,632
-8,819	22,171	939,089	554,194
-7,804	22,063	938,437	553,445
-6,790	22,046	937,881	553,041
-5,775	22,154	937,204	552,962
-4,760	22,135	936,610	552,532
-3,746	22,053	936,012	551,896
-2,731	21,962	935,321	551,180
-1,717	21,952	934,535	550,662
-0,702	21,914	933,891	550,142
0,313	21,733	933,238	550,018
1,327	24,904	931,206	558,744
2,342	34,532	795,510	502,961
3,356	32,476	451,297	282,209
4,371	1,163	293,829	152,473
5,386	-3,272	274,719	138,344
6,400	-4,918	268,964	133,906
7,415	-5,333	266,709	132,388
8,429	-4,809	265,184	132,100
9,444	-5,126	264,529	131,472
10,459	-5,113	263,939	131,179
11,473	-4,978	263,366	131,006
12,488	-5,089	262,828	130,625
13,502	-5,010	262,236	130,391
14,517	-5,167	261,838	130,039
15,531	-5,065	261,596	129,999
16,546	-4,912	261,111	129,885
17,561	-4,850	260,779	129,765
18,575	-4,994	260,483	129,476
19,590	-4,768	260,191	129,522
20,604	-4,837	259,812	129,260
21,619	-4,866	259,536	129,085
22,634	-4,922	259,181	128,847
23,648	-4,922	258,846	128,670
24,663	-5,112	258,576	128,353
25,677	-5,080	258,484	128,325
26,692	-5,063	258,014	128,096
27,707	-4,995	257,961	128,118
28,721	-4,979	257,622	127,953
29,736	-4,974	257,205	127,738
30,750	-4,939	256,998	127,655
31,765	-5,035	256,866	127,493
32,780	-5,008	256,623	127,386
33,794	-5,061	256,453	127,242
34,809	-5,002	256,187	127,152
35,823	-4,779	255,779	127,134
36,838	-5,076	255,719	126,832
37,853	-5,111	255,484	126,673
38,867	-4,893	255,265	126,745
39,882	-5,145	255,101	126,431
40,896	-5,037	254,728	126,329
41,911	-5,236	254,581	126,071
42,926	-5,054	254,382	126,120
43,940	-5,134	254,271	125,984
44,955	-5,245	253,975	125,729
45,969	-5,249	253,739	125,597
46,984	-5,364	253,456	125,346
47,999	-5,648	253,224	124,972
49,013	-5,666	252,909	124,790
50,028	-5,879	252,742	124,511
51,042	-5,959	252,413	124,268
52,057	-6,028	252,330	124,157
53,071	-5,851	251,988	124,131
54,086	-5,667	251,859	124,216
55,101	-5,534	251,582	124,183
56,115	-5,591	251,631	124,147
57,130	-5,298	251,563	124,355
58,144	-4,856	251,288	124,591
59,159	-4,851	251,049	124,465
60,174	-4,842	250,912	124,394
61,188	-4,960	250,570	124,111
62,203	-5,062	250,536	123,996
63,217	-4,856	250,186	123,988
64,232	-4,949	249,973	123,793
65,247	-4,899	249,940	123,808
66,261	-4,962	249,569	123,560
67,276	-5,202	249,372	123,245
68,290	-5,483	249,046	122,833
69,305	-5,534	248,988	122,749
70,320	-5,571	248,859	122,643
71,334	-5,179	248,509	122,794
72,349	-4,941	248,443	122,954
73,363	-4,844	248,177	122,893
74,378	-4,996	248,032	122,682
75,393	-4,829	247,689	122,643
76,407	-5,048	247,585	122,394
77,422	-5,037	247,393	122,298
78,436	-5,086	247,149	122,125
79,451	-5,151	247,033	122,001
80,466	-5,010	246,721	121,956
81,480	-5,468	246,533	121,465
82,495	-5,309	246,442	121,543
83,509	-5,190	246,288	121,557
84,524	-5,345	246,044	121,295
85,539	-5,398	245,833	121,136
86,553	-5,349	245,671	121,086
87,568	-5,327	245,517	121,018
88,582	-5,080	245,202	121,060
89,597	-5,316	244,942	120,722
90,611	-5,195	244,887	120,786
91,626	-4,892	244,834	121,003
92,641	-4,995	244,683	120,832
93,655	-4,989	244,377	120,675
94,670	-5,090	244,226	120,506
95,684	-5,158	244,034	120,342
96,699	-5,032	243,821	120,332
97,714	-5,112	243,565	120,128
98,728	-5,162	243,359	119,975
99,743	-5,380	243,126	119,667
100,757	-5,571	242,989	119,430
101,772	-5,463	242,768	119,401
102,787	-5,275	242,670	119,498
103,801	-5,404	242,535	119,313
104,816	-5,224	242,397	119,384
105,830	-5,092	242,197	119,385
106,845	-4,926	242,035	119,432
107,860	-5,151	241,954	119,195
108,874	-5,295	241,649	118,915
109,889	-4,992	241,364	119,014
110,903	-5,181	241,095	118,715
111,918	-5,133	240,969	118,682
112,933	-5,275	241,006	118,573
113,947	-5,044	240,791	118,647
114,962	-5,062	240,500	118,478
115,976	-5,013	240,475	118,495
116,991	-5,157	240,151	118,207
118,006	-5,288	240,174	118,100
119,020	-5,183	239,928	118,054
120,035	-5,140	239,843	118,038
121,049	-5,074	239,659	117,991
122,064	-5,021	239,369	117,881
123,079	-5,102	239,180	117,711
124,093	-5,272	239,038	117,491
125,108	-5,294	238,857	117,374
126,122	-5,420	238,626	117,147
127,137	-5,590	238,440	116,907
128,151	-5,348	238,257	117,004
129,166	-5,226	238,017	116,975
130,181	-5,333	237,910	116,825
131,195	-5,472	237,688	116,592
132,210	-5,465	237,656	116,572
133,224	-5,357	237,574	116,609
134,239	-5,179	237,400	116,658
135,254	-5,128	237,158	116,570
136,268	-5,315	236,867	116,266
137,283	-5,458	236,695	116,055
138,297	-5,537	236,370	115,822
139,312	-5,417	236,061	115,756
140,327	-5,396	236,204	115,833
141,341	-4,665	236,189	116,405
142,356	-4,742	236,087	116,281
143,370	-4,826	235,863	116,093
144,385	-4,837	235,736	116,012
145,400	-4,559	235,527	116,122
146,414	-4,919	235,365	115,743
147,429	-4,938	235,216	115,644
148,443	-4,730	235,045	115,716
149,458	-4,861	234,910	115,535
150,473	-4,876	234,710	115,414
151,487	-5,036	234,424	115,135
152,502	-4,764	234,272	115,267
153,516	-4,862	234,284	115,185
154,531	-4,842	233,941	115,021
155,546	-4,851	233,865	114,968
156,560	-4,934	233,674	114,797
157,575	-5,077	233,430	114,553
158,589	-5,080	233,310	114,481
159,604	-4,805	233,200	114,636
160,619	-4,674	233,077	114,669
161,633	-4,755	232,948	114,531
162,648	-4,823	232,784	114,386
163,662	-4,704	232,693	114,426
164,677	-5,118	232,295	113,893
165,692	-4,910	232,350	114,074
166,706	-4,466	232,172	114,327
167,721	-4,735	232,005	114,022
168,735	-4,780	231,839	113,895
169,750	-4,923	231,777	113,742
170,764	-4,806	231,529	113,702
171,779	-4,865	231,509	113,635
172,794	-4,599	231,148	113,658
173,808	-4,919	230,987	113,317
174,823	-5,274	230,637	112,856
175,837	-5,468	230,500	112,627
176,852	-5,200	230,462	112,808
177,867	-4,978	230,380	112,932
178,881	-4,977	230,267	112,867
179,896	-4,610	229,978	113,003
180,910	-4,661	229,891	112,910
181,925	-4,722	229,783	112,800
182,940	-4,640	229,624	112,776
183,954	-4,610	229,538	112,747
184,969	-4,455	229,296	112,738
185,983	-4,588	229,238	112,596
186,998	-4,583	229,147	112,545
188,013	-4,583	228,994	112,460
189,027	-4,691	228,834	112,288
190,042	-4,728	228,622	112,144
191,056	-4,613	228,414	112,122
192,071	-4,746	228,244	111,926
193,086	-4,563	227,951	111,914
194,100	-4,479	227,786	111,887
195,115	-5,065	227,505	111,287
196,129	-5,870	227,178	110,495
197,144	-2,013	228,491	114,115
198,159	2,358	229,755	118,138
199,173	4,297	230,080	119,802
200,188	4,318	229,934	119,731
201,202	4,304	229,982	119,735
202,217	4,670	229,733	119,878
203,232	4,896	229,697	120,024
204,246	4,902	229,466	119,897
205,261	5,068	229,279	119,917
206,275	5,135	229,224	119,929
207,290	5,123	229,205	119,899
208,304	5,109	228,792	119,662
209,319	5,150	228,607	119,586
210,334	5,005	228,544	119,431
211,348	4,677	228,417	119,101
212,363	4,314	227,977	118,582
213,377	4,048	227,901	118,327
214,392	3,993	227,760	118,201
215,407	4,056	227,742	118,230
216,421	4,348	227,497	118,316
217,436	4,244	227,248	118,096
218,450	3,872	227,103	117,726
219,465	3,722	226,971	117,532
220,480	3,953	226,864	117,643
221,494	3,950	226,691	117,540
222,509	3,998	226,679	117,560
223,523	4,221	226,392	117,572
224,538	4,077	226,227	117,365
225,553	4,095	226,055	117,279
226,567	4,213	225,985	117,322
227,582	4,490	225,860	117,458
228,596	4,653	225,780	117,530
229,611	4,293	225,530	117,115
230,626	4,004	225,260	116,746
231,640	4,126	225,108	116,749
232,655	4,396	225,260	117,022
233,669	4,682	225,121	117,157
234,684	4,710	225,069	117,140
235,699	4,563	224,797	116,876
236,713	4,318	224,586	116,571
237,728	3,992	224,392	116,214
238,742	4,049	224,139	116,116
239,757	4,085	224,083	116,104
240,772	4,022	223,910	115,956
241,786	4,126	223,738	115,935
242,801	4,173	223,772	115,978
243,815	4,308	223,725	116,045
244,830	4,780	223,317	116,177
245,844	4,251	223,098	115,656
246,859	4,315	223,065	115,676
247,874	4,441	222,874	115,661
248,888	4,522	222,857	115,704
249,903	4,337	222,647	115,445
250,917	4,005	222,571	115,147
251,932	4,173	222,279	115,111
252,947	3,975	222,189	114,906
253,961	3,942	222,004	114,776
254,976	3,918	221,935	114,712
255,990	4,274	221,692	114,841
257,005	4,091	221,669	114,683
258,020	4,189	221,623	114,722
259,034	4,468	221,448	114,829
260,049	4,207	221,426	114,613
261,063	4,132	221,094	114,375
262,078	4,338	221,081	114,511
263,093	4,409	220,864	114,441
264,107	4,369	220,765	114,350
265,122	4,440	220,691	114,354
266,136	4,442	220,516	114,254
267,151	4,454	220,280	114,131
268,166	4,410	219,976	113,931
269,180	3,889	219,873	113,483
270,195	3,969	219,664	113,424
271,209	3,908	219,649	113,361
272,224	4,100	219,467	113,398
273,239	4,095	219,367	113,333
274,253	3,869	219,196	113,068
275,268	3,810	218,963	112,895
276,282	3,846	218,884	112,871
277,297	3,688	218,698	112,648
278,312	3,867	218,488	112,661
279,326	4,040	218,448	112,758
280,341	3,994	218,414	112,696
281,355	4,091	218,187	112,641
282,370	4,096	218,088	112,583
283,384	3,995	217,800	112,350
284,399	3,809	217,675	112,140
285,414	4,030	217,533	112,218
286,428	4,147	217,491	112,271
287,443	4,307	217,448	112,356
288,457	4,310	217,286	112,264
289,472	4,194	217,082	112,064
290,487	3,773	216,828	111,618
291,501	3,626	216,696	111,433
292,516	3,827	216,585	111,512
293,530	3,930	216,418	111,490
294,545	3,803	216,258	111,306
295,560	3,948	216,194	111,369
296,574	4,054	216,077	111,375
297,589	4,044	215,885	111,259
298,603	4,397	215,887	111,505
299,618	4,221	215,676	111,259
300,633	4,210	215,724	111,266
301,647	4,293	215,479	111,190
302,662	4,266	215,431	111,135
303,676	4,310	215,171	111,023
304,691	4,454	215,025	111,041
305,706	4,201	215,040	110,857
306,720	4,226	214,866	110,775
307,735	4,097	214,562	110,516
308,749	3,979	214,525	110,403
309,764	4,164	214,353	110,437
310,779	4,438	214,336	110,615
311,793	4,177	214,133	110,313
312,808	4,112	214,029	110,203
313,822	4,171	213,845	110,141
314,837	3,970	213,550	109,836
315,852	3,805	213,530	109,698
316,866	3,874	213,438	109,690
317,881	4,380	213,313	109,977
318,895	4,286	213,196	109,840
319,910	4,143	212,895	109,573
320,925	3,991	212,749	109,380
321,939	3,482	212,578	108,921
322,954	3,629	212,540	108,996
323,968	4,072	212,518	109,289
324,983	4,300	212,360	109,360
325,997	4,469	212,312	109,446
327,012	4,208	212,114	109,149
328,027	4,339	211,837	109,089
329,041	4,285	211,924	109,086
330,056	4,638	211,808	109,266
331,070	4,184	211,425	108,739
332,085	3,854	211,257	108,410
333,100	4,071	211,096	108,470
334,114	4,170	211,067	108,516
335,129	3,982	210,737	108,204
336,143	3,989	210,522	108,089
337,158	3,747	210,551	107,924
338,173	4,151	210,443	108,143
339,187	3,869	210,289	107,856
340,202	3,861	210,138	107,764
341,216	3,656	210,018	107,549
342,231	3,744	210,040	107,612
343,246	3,779	209,822	107,515
344,260	3,862	209,702	107,502
345,275	4,083	209,564	107,576
346,289	4,090	209,451	107,514
347,304	3,796	209,571	107,360
348,319	3,878	209,299	107,269
349,333	3,891	209,075	107,153
350,348	4,242	209,038	107,369
351,362	4,230	208,837	107,248
352,377	4,397	208,681	107,274
353,392	4,310	208,524	107,124
354,406	4,245	208,470	107,041
355,421	193,999	1345,338	1434,695
356,435	154,794	1483,959	1434,814
