DTS Sentinel unit serial number:	SN410029Multiplexer serial number:	ORYXHardware model number:	OX2-SRSoftware version number:	ORYX F/W v4,00 Oryx Data Collector v3.7.2.0data status	okinstallation	B6 Nyhavnadifferential loss correction	single-endedforward channel	channel 2reverse channel	N/Adate	2023/12/08time	09:00:08forward acquisition time	300,00reverse acquisition time	0,00gamma	499,1914k internal	0,3168k external	0,3168temperature offset calibration	1,0000default loss term (dB/km)	0,3820temperature slope calibration	1,0000multiplexer offset coefficient	1,0000multiplexer slope coefficient	1,0000fibre end	0,00T internal ref (°C)	12,80T ext. ref 1 (°C)	-2,26T ext. ref 2 (°C)	-2,23length (m)	temperature (°C)	Stokes	anti-Stokes-744,400	12,403	-0,037	-0,021
-743,385	-59,509	-0,333	-0,104
-742,371	-160,336	0,230	0,009
-741,356	-102,112	-0,322	0,056
-740,342	33,947	0,095	0,061
-739,327	-43,265	-0,290	0,107
-738,312	173,824	0,097	0,103
-737,298	-150,164	-0,291	0,016
-736,283	260,469	0,089	0,114
-735,269	-34,228	-0,306	-0,123
-734,254	93,925	0,128	0,107
-733,239	-54,930	-0,406	-0,134
-732,225	137,933	0,077	0,074
-731,210	-30,152	0,037	0,016
-730,196	-125,242	-0,085	-0,009
-729,181	157,712	-0,106	0,108
-728,167	-72,492	-0,030	0,008
-727,152	105,784	-0,099	0,086
-726,137	-200,000	-0,002	-0,029
-725,123	14,320	-0,120	-0,068
-724,108	515,685	-0,069	-0,118
-723,094	246,981	-0,056	0,069
-722,079	380,072	-0,049	-0,074
-721,064	242,274	0,005	-0,006
-720,050	-200,000	0,027	0,135
-719,035	800,000	-0,033	0,070
-718,021	800,000	-0,021	-0,047
-717,006	144,110	-0,072	-0,071
-715,991	800,000	-0,030	0,067
-714,977	538,348	-0,100	0,175
-713,962	163,052	-0,066	0,068
-712,948	800,000	0,057	0,182
-711,933	800,000	-0,011	0,034
-710,918	-200,000	-0,001	0,013
-709,904	44,862	-0,078	-0,053
-708,889	-126,546	0,087	-0,009
-707,875	24,943	-0,051	0,031
-706,860	77,235	-0,099	-0,077
-705,845	163,724	0,061	-0,063
-704,831	338,670	-0,066	0,095
-703,816	-200,000	0,028	-0,147
-702,802	800,000	-0,044	0,130
-701,787	-79,546	-0,109	-0,027
-700,772	-10,764	-0,127	0,061
-699,758	88,710	-0,042	-0,034
-698,743	63,452	0,047	0,035
-697,729	12,566	-0,050	0,028
-696,714	641,761	0,042	0,079
-695,699	-37,861	-0,158	-0,061
-694,685	800,000	0,023	0,052
-693,670	-200,000	0,017	0,055
-692,656	-110,420	-0,072	0,011
-691,641	-142,735	0,200	-0,014
-690,627	146,724	0,088	0,087
-689,612	72,788	0,086	-0,066
-688,597	73,855	-0,039	-0,030
-687,583	137,748	-0,053	-0,051
-686,568	800,000	0,042	-0,099
-685,554	50,625	0,013	0,009
-684,539	-200,000	0,031	0,105
-683,524	-58,991	0,096	0,030
-682,510	-200,000	-0,036	0,124
-681,495	220,285	-0,061	0,072
-680,481	86,738	-0,156	-0,126
-679,466	800,000	-0,038	-0,106
-678,451	800,000	-0,017	0,044
-677,437	34,352	-0,059	-0,038
-676,422	320,974	-0,067	0,093
-675,408	-89,953	-0,144	0,031
-674,393	568,810	0,060	-0,108
-673,378	2,731	-0,123	-0,065
-672,364	800,000	-0,017	-0,041
-671,349	647,150	-0,011	-0,020
-670,335	-80,865	-0,115	-0,028
-669,320	219,438	-0,046	-0,054
-668,305	-97,570	0,126	0,024
-667,291	-71,759	-0,097	-0,026
-666,276	800,000	0,032	0,072
-665,262	-96,649	-0,066	-0,013
-664,247	-153,250	-0,069	0,003
-663,232	6,500	0,023	0,013
-662,218	-85,756	0,147	0,033
-661,203	207,727	0,139	0,159
-660,189	127,857	-0,078	-0,072
-659,174	740,078	0,044	-0,086
-658,159	-200,000	0,028	-0,096
-657,145	267,190	-0,134	-0,172
-656,130	-200,000	-0,014	0,105
-655,116	-200,000	0,025	0,124
-654,101	800,000	-0,018	-0,045
-653,086	78,249	-0,124	-0,097
-652,072	619,783	-0,029	-0,054
-651,057	-41,352	-0,047	-0,018
-650,043	512,407	-0,031	-0,053
-649,028	-200,000	-0,016	-0,067
-648,014	-53,449	0,120	0,040
-646,999	-113,070	-0,069	0,010
-645,984	60,832	0,085	0,061
-644,970	14,556	-0,088	-0,050
-643,955	-43,287	0,072	-0,027
-642,941	-88,908	0,025	-0,005
-641,926	276,330	-0,025	-0,032
-640,911	-200,000	-0,026	0,108
-639,897	572,175	-0,043	0,076
-638,882	113,534	0,080	0,071
-637,868	138,963	-0,050	0,048
-636,853	-95,481	-0,164	0,032
-635,838	98,385	0,035	-0,029
-634,824	-200,000	-0,023	-0,083
-633,809	-107,061	0,030	0,005
-632,795	-15,519	-0,068	0,032
-631,780	62,522	0,098	-0,072
-630,765	800,000	0,006	0,018
-629,751	-80,163	-0,108	0,026
-628,736	-23,772	0,074	0,032
-627,722	800,000	0,060	-0,141
-626,707	-160,812	-0,020	-0,001
-625,692	523,557	-0,071	0,122
-624,678	-153,393	-0,115	-0,006
-623,663	800,000	0,048	-0,102
-622,649	-200,000	-0,029	-0,100
-621,634	-200,000	-0,015	-0,096
-620,619	-200,000	-0,019	-0,176
-619,605	-200,000	0,001	-0,012
-618,590	-152,621	-0,067	0,003
-617,576	-200,000	0,007	-0,027
-616,561	-200,000	-0,005	0,018
-615,546	-110,816	-0,142	-0,021
-614,532	190,137	-0,072	-0,079
-613,517	-200,000	0,044	-0,175
-612,503	-200,000	0,011	0,044
-611,488	311,393	-0,051	-0,070
-610,474	277,271	0,087	0,114
-609,459	299,245	-0,113	0,153
-608,444	35,909	-0,064	-0,041
-607,430	-200,000	0,011	-0,144
-606,415	569,774	-0,023	-0,040
-605,401	-200,000	-0,002	0,014
-604,386	103,715	0,072	0,062
-603,371	-46,771	-0,144	0,051
-602,357	-169,279	0,057	0,001
-601,342	-200,000	0,019	0,204
-600,328	198,213	-0,016	-0,018
-599,313	616,792	0,060	-0,110
-598,298	261,584	-0,048	0,061
-597,284	84,751	0,106	0,085
-596,269	517,021	0,026	0,045
-595,255	127,454	-0,073	-0,067
-594,240	-25,189	-0,073	-0,032
-593,225	-32,850	0,055	0,022
-592,211	-200,000	-0,029	-0,177
-591,196	-200,000	0,005	-0,057
-590,182	361,889	0,013	-0,018
-589,167	800,000	0,002	0,006
-588,152	49,926	-0,127	0,087
-587,138	800,000	0,020	0,041
-586,123	419,127	0,026	-0,041
-585,109	-104,691	-0,081	-0,013
-584,094	9,571	0,134	0,074
-583,079	-137,865	0,063	-0,005
-582,065	-200,000	0,011	0,064
-581,050	800,000	0,048	0,112
-580,036	191,455	0,055	0,061
-579,021	329,730	-0,104	-0,147
-578,006	91,478	-0,118	-0,097
-576,992	-200,000	0,004	-0,081
-575,977	-200,000	-0,006	0,041
-574,963	54,253	-0,059	0,041
-573,948	11,246	0,093	-0,052
-572,934	-200,000	-0,001	0,044
-571,919	-159,090	0,074	0,003
-570,904	9,658	-0,082	0,045
-569,890	800,000	0,009	-0,026
-568,875	-52,698	0,115	0,039
-567,861	-115,460	0,077	0,010
-566,846	68,078	-0,024	0,018
-565,831	267,396	-0,068	-0,087
-564,817	520,702	-0,025	-0,043
-563,802	372,465	-0,038	-0,056
-562,788	-200,000	0,020	-0,157
-561,773	-200,000	0,029	-0,104
-560,758	800,000	0,069	0,153
-559,744	-200,000	0,018	0,061
-558,729	-200,000	0,000	0,098
-557,715	-188,045	-0,085	-0,001
-556,700	-33,650	0,136	-0,055
-555,685	9,907	-0,114	0,063
-554,671	800,000	-0,009	-0,023
-553,656	800,000	0,052	0,113
-552,642	276,363	0,076	-0,098
-551,627	-200,000	-0,021	0,067
-550,612	-200,000	-0,038	0,129
-549,598	-84,114	0,074	0,017
-548,583	733,750	0,039	-0,076
-547,569	177,795	-0,090	-0,096
-546,554	364,532	0,028	-0,041
-545,539	380,680	0,046	0,069
-544,525	-200,000	0,023	0,146
-543,510	-102,726	-0,079	0,014
-542,496	134,633	-0,053	-0,051
-541,481	-200,000	-0,033	-0,193
-540,466	-135,770	0,062	0,005
-539,452	3,983	0,076	0,040
-538,437	59,426	-0,087	0,063
-537,423	-92,970	0,066	0,013
-536,408	-145,268	-0,111	0,007
-535,393	68,252	-0,095	0,071
-534,379	-200,000	0,005	-0,039
-533,364	-45,982	0,194	0,069
-532,350	345,645	0,075	0,107
-531,335	-200,000	-0,003	-0,022
-530,321	-26,614	0,135	-0,057
-529,306	-105,115	-0,160	0,026
-528,291	563,983	-0,018	-0,031
-527,277	-149,271	0,149	0,009
-526,262	-45,246	0,070	0,025
-525,248	-90,366	0,047	0,010
-524,233	-200,000	0,020	0,097
-523,218	-200,000	0,006	0,036
-522,204	466,808	-0,032	0,053
-521,189	277,959	0,049	0,064
-520,175	800,000	0,015	-0,039
-519,160	3,363	-0,069	-0,037
-518,145	800,000	-0,047	0,126
-517,131	66,089	-0,027	-0,020
-516,116	-200,000	0,002	0,052
-515,102	-95,802	-0,088	-0,017
-514,087	800,000	0,016	-0,037
-513,072	-79,053	-0,155	0,038
-512,058	37,903	-0,058	-0,037
-511,043	800,000	-0,041	-0,106
-510,029	71,249	0,051	-0,038
-509,014	-175,367	0,167	-0,003
-507,999	191,907	0,077	0,085
-506,985	800,000	-0,061	-0,125
-505,970	-200,000	0,012	-0,245
-504,956	-200,000	0,016	-0,068
-503,941	800,000	-0,042	0,098
-502,926	474,460	-0,035	0,058
-501,912	800,000	-0,031	0,068
-500,897	-11,299	-0,120	0,057
-499,883	-200,000	0,013	-0,083
-498,868	-200,000	0,032	-0,117
-497,853	280,503	0,009	-0,011
-496,839	252,340	-0,026	-0,032
-495,824	154,872	0,058	-0,058
-494,810	-200,000	0,017	0,104
-493,795	75,158	-0,141	-0,108
-492,781	-200,000	0,005	0,047
-491,766	-55,716	0,209	-0,068
-490,751	27,382	0,060	-0,037
-489,737	323,725	-0,039	-0,054
-488,722	-78,192	0,150	0,037
-487,708	728,404	0,038	-0,073
-486,693	25,468	0,122	-0,074
-485,678	-40,079	0,095	-0,036
-484,664	-62,751	-0,038	-0,011
-483,649	-123,568	-0,105	-0,012
-482,635	-149,773	0,027	0,001
-481,620	-119,688	-0,043	-0,005
-480,605	-69,993	0,116	-0,032
-479,591	-122,059	-0,113	-0,013
-478,576	-61,267	-0,103	0,031
-477,562	-200,000	0,014	-0,131
-476,547	-69,468	-0,048	-0,013
-475,532	800,000	-0,031	-0,084
-474,518	43,018	0,080	0,053
-473,503	800,000	0,016	-0,037
-472,489	15,685	0,088	-0,050
-471,474	800,000	-0,062	0,133
-470,459	-61,835	-0,183	-0,055
-469,445	-133,098	0,100	0,009
-468,430	800,000	0,048	0,100
-467,416	-200,000	-0,005	-0,048
-466,401	214,823	0,041	0,047
-465,386	7,912	0,190	0,103
-464,372	-200,000	0,011	0,079
-463,357	-200,000	-0,001	0,013
-462,343	-200,000	-0,000	-0,106
-461,328	800,000	0,041	0,113
-460,313	100,650	0,096	0,081
-459,299	-81,184	-0,052	-0,012
-458,284	601,419	-0,043	0,078
-457,270	800,000	-0,025	-0,061
-456,255	425,879	-0,054	-0,085
-455,241	-134,726	-0,205	0,018
-454,226	-130,441	0,033	0,003
-453,211	12,154	-0,067	-0,037
-452,197	386,068	0,029	0,044
-451,182	-200,000	-0,010	0,141
-450,168	-47,992	-0,063	-0,022
-449,153	238,691	0,042	-0,050
-448,138	-123,062	-0,046	-0,005
-447,124	151,351	-0,026	-0,025
-446,109	800,000	0,025	0,061
-445,095	-126,309	-0,103	-0,011
-444,080	541,488	0,062	0,108
-443,065	-149,411	0,076	-0,004
-442,051	6,596	-0,028	-0,015
-441,036	-200,000	0,018	-0,099
-440,022	-132,764	-0,058	0,005
-439,007	-200,000	-0,004	-0,017
-437,992	-200,000	0,020	-0,077
-436,978	-200,000	0,001	-0,038
-435,963	274,080	0,052	-0,067
-434,949	800,000	0,069	0,208
-433,934	-141,947	0,038	-0,003
-432,919	-200,000	-0,008	0,030
-431,905	-101,575	-0,118	0,021
-430,890	153,750	0,035	-0,035
-429,876	63,399	0,143	-0,104
-428,861	89,619	-0,073	-0,059
-427,846	-167,115	0,053	-0,002
-426,832	800,000	-0,037	-0,085
-425,817	112,697	-0,031	-0,028
-424,803	63,902	0,051	-0,037
-423,788	-58,679	-0,036	0,011
-422,773	-10,595	-0,120	0,057
-421,759	119,185	-0,085	0,076
-420,744	42,160	-0,198	0,130
-419,730	-69,681	-0,107	-0,029
-418,715	-116,629	-0,094	0,012
-417,701	-111,480	-0,126	0,018
-416,686	800,000	0,008	0,021
-415,671	-139,656	0,088	-0,007
-414,657	10,183	-0,056	-0,031
-413,642	7,973	0,123	-0,067
-412,628	-200,000	0,020	-0,125
-411,613	-100,615	0,061	0,011
-410,598	167,094	-0,030	-0,031
-409,584	-109,471	0,096	-0,014
-408,569	-152,648	0,102	-0,005
-407,555	265,078	-0,049	0,062
-406,540	800,000	-0,009	-0,025
-405,525	470,608	-0,080	0,130
-404,511	228,681	-0,092	-0,109
-403,496	22,544	0,018	-0,010
-402,482	4,790	0,008	-0,004
-401,467	187,609	-0,094	0,101
-400,452	-114,653	-0,158	-0,022
-399,438	-141,409	0,151	-0,011
-398,423	10,138	0,010	0,006
-397,409	-200,000	0,028	-0,169
-396,394	-200,000	0,023	-0,105
-395,379	40,578	0,120	-0,079
-394,365	364,823	-0,041	-0,059
-393,350	-124,142	0,095	0,011
-392,336	-200,000	0,039	0,125
-391,321	-132,328	-0,197	0,018
-390,306	-200,000	-0,022	0,129
-389,292	-17,810	0,129	0,059
-388,277	19,457	0,112	0,065
-387,263	-19,410	0,088	-0,040
-386,248	-82,830	0,200	-0,046
-385,233	-200,000	-0,013	-0,100
-384,219	81,486	-0,116	-0,091
-383,204	-78,729	-0,048	0,012
-382,190	-11,844	0,081	-0,038
-381,175	800,000	0,004	-0,010
-380,160	800,000	-0,028	0,086
-379,146	25,245	-0,116	0,070
-378,131	123,406	-0,045	0,041
-377,117	800,000	0,055	0,128
-376,102	-200,000	0,005	-0,097
-375,088	-200,000	-0,005	-0,057
-374,073	800,000	-0,021	0,058
-373,058	-200,000	0,022	0,079
-372,044	119,068	0,153	0,137
-371,029	-200,000	-0,016	-0,060
-370,015	123,939	0,094	-0,085
-369,000	-200,000	-0,026	-0,100
-367,985	29,649	-0,103	0,063
-366,971	-200,000	0,030	0,150
-365,956	800,000	0,005	-0,011
-364,942	34,828	0,027	0,017
-363,927	-200,000	-0,029	0,118
-362,912	-0,444	-0,025	-0,013
-361,898	-121,959	-0,119	-0,014
-360,883	65,815	0,073	0,053
-359,869	-101,393	-0,083	-0,015
-358,854	-82,040	0,092	-0,022
-357,839	-200,000	0,010	-0,071
-356,825	-124,335	0,074	0,008
-355,810	241,591	-0,064	0,077
-354,796	800,000	0,022	-0,050
-353,781	693,326	0,024	0,046
-352,766	259,278	0,073	0,092
-351,752	-200,000	-0,013	0,086
-350,737	698,384	0,049	0,093
-349,723	446,704	0,087	0,139
-348,708	250,282	0,014	0,017
-347,693	768,677	0,020	0,039
-346,679	800,000	-0,012	0,033
-345,664	-169,768	-0,038	-0,001
-344,650	-63,544	-0,098	0,029
-343,635	173,112	-0,086	0,089
-342,620	93,266	0,122	0,100
-341,606	134,857	0,085	0,080
-340,591	7,524	-0,100	-0,054
-339,577	-200,000	0,027	-0,114
-338,562	-200,000	-0,015	0,076
-337,548	90,473	0,072	0,058
-336,533	144,884	-0,101	0,098
-335,518	-200,000	0,003	-0,041
-334,504	232,474	-0,058	0,069
-333,489	97,282	-0,159	-0,132
-332,475	28,720	0,064	-0,039
-331,460	-200,000	0,001	0,056
-330,445	-200,000	0,004	0,043
-329,431	-74,563	0,193	-0,050
-328,416	238,903	0,091	0,109
-327,402	-102,632	0,028	0,005
-326,387	66,727	-0,028	-0,021
-325,372	8,977	-0,150	0,082
-324,358	-200,000	0,017	0,077
-323,343	-200,000	0,011	-0,053
-322,329	23,145	0,113	0,067
-321,314	-200,000	0,028	0,127
-320,299	800,000	-0,037	-0,085
-319,285	158,562	-0,041	0,041
-318,270	-117,997	-0,181	-0,023
-317,256	800,000	0,007	-0,017
-316,241	800,000	-0,033	-0,091
-315,226	-200,000	-0,040	-0,152
-314,212	-58,570	0,083	-0,026
-313,197	-200,000	-0,024	-0,092
-312,183	800,000	-0,044	0,111
-311,168	-45,999	-0,045	-0,016
-310,153	-26,642	-0,109	0,046
-309,139	800,000	0,038	0,076
-308,124	800,000	0,006	-0,013
-307,110	-200,000	-0,007	-0,074
-306,095	628,797	0,043	0,079
-305,080	800,000	0,061	0,138
-304,066	800,000	0,017	-0,048
-303,051	84,818	0,081	0,064
-302,037	-200,000	0,010	-0,157
-301,022	24,502	-0,035	0,021
-300,008	-63,491	0,122	-0,036
-298,993	-31,412	0,050	0,020
-297,978	-200,000	0,008	-0,040
-296,964	163,382	-0,024	0,024
-295,949	800,000	0,017	-0,051
-294,935	563,894	-0,048	-0,084
-293,920	747,786	-0,019	-0,037
-292,905	800,000	-0,012	0,034
-291,891	183,733	0,101	0,108
-290,876	-200,000	-0,021	0,135
-289,862	-200,000	0,003	-0,055
-288,847	-34,059	-0,030	0,012
-287,832	800,000	-0,042	-0,124
-286,818	-1,151	-0,041	0,021
-285,803	328,890	0,047	0,065
-284,789	-37,544	0,101	0,039
-283,774	-43,815	-0,095	0,034
-282,759	-49,432	0,084	0,029
-281,745	490,792	-0,052	-0,086
-280,730	142,129	0,062	-0,060
-279,716	800,000	-0,010	0,022
-278,701	-78,877	-0,055	0,014
-277,686	417,282	-0,091	0,140
-276,672	-200,000	0,016	0,126
-275,657	530,732	-0,020	-0,034
-274,643	-13,498	0,031	-0,014
-273,628	-106,137	0,024	-0,004
-272,613	73,495	-0,115	-0,086
-271,599	-68,958	0,127	-0,035
-270,584	-33,520	0,051	-0,020
-269,570	210,829	-0,029	0,033
-268,555	73,959	0,044	0,033
-267,540	56,056	0,043	0,030
-266,526	92,572	-0,052	0,043
-265,511	-49,161	0,099	0,034
-264,497	-99,674	-0,058	0,010
-263,482	555,998	0,100	0,174
-262,467	-163,064	-0,107	-0,004
-261,453	-59,540	-0,004	-0,001
-260,438	800,000	0,031	-0,086
-259,424	188,838	-0,179	-0,194
-258,409	-156,416	0,144	0,006
-257,395	19,715	-0,062	-0,036
-256,380	512,612	0,065	0,110
-255,365	-15,063	-0,039	-0,018
-254,351	-200,000	-0,008	0,109
-253,336	19,987	0,065	0,038
-252,322	16,617	0,070	-0,040
-251,307	85,149	0,061	-0,049
-250,292	800,000	-0,011	-0,023
-249,278	-200,000	0,012	-0,049
-248,263	483,611	0,048	-0,079
-247,249	-58,440	0,089	0,028
-246,234	-200,000	-0,001	-0,031
-245,219	18,713	0,077	0,044
-244,205	-175,887	-0,195	-0,004
-243,190	-81,587	0,037	-0,009
-242,176	60,689	0,073	0,052
-241,161	330,381	-0,046	-0,064
-240,146	-89,569	0,137	0,029
-239,132	57,712	-0,067	-0,047
-238,117	-57,408	-0,118	-0,037
-237,103	300,741	-0,094	-0,125
-236,088	557,478	-0,059	-0,103
-235,073	-78,798	0,073	-0,018
-234,059	-200,000	0,003	0,090
-233,044	-1,670	0,075	-0,038
-232,030	193,766	-0,045	-0,049
-231,015	800,000	-0,066	-0,148
-230,000	-200,000	0,010	-0,057
-228,986	480,920	0,062	0,102
-227,971	76,124	-0,053	-0,040
-226,957	421,868	-0,083	0,128
-225,942	-200,000	-0,032	0,107
-224,927	-35,018	-0,127	-0,049
-223,913	-2,820	-0,053	0,027
-222,898	11,077	0,052	0,029
-221,884	-50,399	0,057	-0,019
-220,869	-137,368	-0,198	0,016
-219,855	-200,000	-0,037	0,123
-218,840	800,000	-0,035	-0,086
-217,825	-16,778	-0,044	-0,020
-216,811	-88,371	-0,050	0,011
-215,796	-200,000	-0,017	0,056
-214,782	-33,684	-0,091	-0,036
-213,767	800,000	-0,020	0,044
-212,752	800,000	-0,015	-0,031
-211,738	-168,004	-0,098	-0,003
-210,723	-121,360	0,107	-0,013
-209,709	800,000	-0,033	-0,094
-208,694	-200,000	-0,036	-0,126
-207,679	-40,030	0,130	-0,049
-206,665	-200,000	0,006	0,030
-205,650	248,850	-0,015	-0,019
-204,636	-16,810	0,049	0,022
-203,621	-200,000	0,024	0,128
-202,606	60,240	0,057	0,040
-201,592	108,392	0,076	0,065
-200,577	-143,222	-0,144	0,010
-199,563	-65,040	-0,099	-0,029
-198,548	16,190	0,053	-0,030
-197,533	24,827	0,167	0,100
-196,519	-200,000	0,034	-0,162
-195,504	-146,165	-0,029	-0,002
-194,490	-200,000	-0,025	-0,080
-193,475	120,627	-0,030	0,027
-192,460	65,463	0,064	-0,047
-191,446	800,000	0,052	0,111
-190,431	314,252	-0,014	0,019
-189,417	-200,000	-0,014	0,082
-188,402	-120,250	-0,090	0,011
-187,387	-200,000	0,015	-0,095
-186,373	800,000	0,040	0,110
-185,358	84,366	0,084	-0,066
-184,344	-200,000	-0,004	-0,035
-183,329	-48,052	0,078	-0,027
-182,315	-56,323	0,048	0,015
-181,300	195,223	-0,020	-0,022
-180,285	-145,472	-0,066	-0,004
-179,271	-72,631	0,069	0,018
-178,256	66,612	-0,019	-0,014
-177,242	800,000	0,081	-0,180
-176,227	-200,000	0,007	0,032
-175,212	800,000	0,036	-0,104
-174,198	-95,267	-0,040	0,008
-173,183	-200,000	0,000	-0,041
-172,169	-173,773	0,046	0,001
-171,154	-34,461	-0,008	0,003
-170,139	800,000	0,044	0,125
-169,125	305,325	0,044	0,058
-168,110	-128,348	0,067	0,007
-167,096	-200,000	0,003	0,036
-166,081	128,562	0,011	-0,010
-165,066	81,123	-0,065	-0,050
-164,052	-119,402	0,076	-0,009
-163,037	-142,034	0,014	-0,001
-162,023	68,754	0,042	-0,031
-161,008	-26,953	0,020	0,008
-159,993	800,000	-0,020	0,056
-158,979	80,960	-0,041	-0,032
-157,964	73,678	-0,032	-0,024
-156,950	382,521	-0,052	-0,077
-155,935	-200,000	0,005	-0,096
-154,920	800,000	0,038	-0,087
-153,906	224,902	-0,073	0,086
-152,891	800,000	-0,040	-0,086
-151,877	65,322	-0,070	0,051
-150,862	126,843	-0,099	0,090
-149,847	704,748	0,019	-0,035
-148,833	-200,000	-0,004	0,044
-147,818	31,915	0,129	0,079
-146,804	-59,137	0,133	0,041
-145,789	-144,973	-0,050	-0,003
-144,775	142,431	0,045	-0,043
-143,760	376,212	-0,070	-0,103
-142,745	172,975	0,082	-0,085
-141,731	342,086	0,005	0,007
-140,716	-185,943	0,157	0,002
-139,702	72,917	-0,051	0,038
-138,687	800,000	-0,051	0,138
-137,672	273,539	-0,076	0,096
-136,658	-19,830	-0,134	-0,059
-135,643	-7,253	-0,042	0,020
-134,629	32,244	0,157	0,097
-133,614	588,859	0,075	0,133
-132,599	272,413	0,101	0,128
-131,585	-200,000	-0,013	-0,044
-130,570	-34,383	0,056	-0,022
-129,556	800,000	0,029	0,089
-128,541	-200,000	0,015	-0,094
-127,526	100,492	0,102	0,085
-126,512	-44,136	-0,130	0,047
-125,497	-115,624	0,173	0,023
-124,483	289,442	0,083	0,108
-123,468	800,000	0,057	0,135
-122,453	-194,861	-0,140	-0,001
-121,439	800,000	-0,042	0,091
-120,424	-117,622	-0,073	-0,009
-119,410	89,573	-0,035	0,028
-118,395	49,636	0,085	0,058
-117,380	800,000	0,030	0,089
-116,366	-4,387	0,069	-0,034
-115,351	8,918	0,113	0,061
-114,337	-45,316	-0,103	0,036
-113,322	761,526	0,014	0,028
-112,307	382,026	-0,082	-0,122
-111,293	-25,873	0,050	-0,021
-110,278	122,235	-0,129	0,115
-109,264	377,642	0,051	0,075
-108,249	647,332	0,076	-0,139
-107,234	-200,000	0,018	0,076
-106,220	800,000	-0,019	-0,044
-105,205	55,587	0,168	0,117
-104,191	551,975	0,086	0,148
-103,176	-200,000	0,018	0,102
-102,162	-50,384	0,073	-0,025
-101,147	125,820	0,055	-0,050
-100,132	-200,000	0,006	-0,147
-99,118	-4,596	-0,087	-0,043
-98,103	-140,133	0,239	-0,018
-97,089	-77,608	-0,153	0,038
-96,074	-181,043	0,038	-0,001
-95,059	800,000	-0,022	0,059
-94,045	800,000	0,034	0,081
-93,030	684,910	-0,049	0,092
-92,016	227,828	-0,030	0,035
-91,001	-200,000	-0,024	-0,118
-89,986	-54,303	-0,086	0,028
-88,972	30,252	0,057	0,035
-87,957	-200,000	0,009	-0,071
-86,943	-200,000	0,031	0,217
-85,928	304,543	0,079	0,105
-84,913	-153,506	-0,118	-0,006
-83,899	-99,727	-0,080	-0,014
-82,884	118,727	0,111	0,098
-81,870	88,418	-0,030	-0,024
-80,855	-200,000	0,032	0,110
-79,840	-200,000	-0,010	0,072
-78,826	272,362	0,042	0,054
-77,811	-200,000	-0,047	-0,185
-76,797	2,249	-0,118	-0,061
-75,782	-200,000	0,000	0,013
-74,767	-95,879	0,066	0,013
-73,753	-200,000	0,024	0,099
-72,738	611,316	0,001	0,002
-71,724	-123,830	-0,099	-0,011
-70,709	404,723	0,026	0,039
-69,694	188,614	-0,079	-0,084
-68,680	-198,619	0,162	0,001
-67,665	-18,265	-0,092	-0,041
-66,651	-200,000	0,012	-0,100
-65,636	800,000	0,033	-0,083
-64,622	-22,242	-0,037	0,016
-63,607	-0,392	-0,045	0,023
-62,592	528,528	-0,066	-0,113
-61,578	99,801	-0,068	-0,056
-60,563	800,000	0,032	0,087
-59,549	800,000	0,025	0,074
-58,534	42,785	-2,200	-1,431
-57,519	-200,000	0,116	-0,593
-56,505	-200,000	-1,424	-5,054
-55,490	268,330	0,793	0,996
-54,476	800,000	5,287	12,287
-53,461	-200,000	19,003	321,419
-52,446	800,000	742,139	2323,350
-51,432	550,142	1653,943	2848,008
-50,417	109,511	1636,462	1401,807
-49,403	73,004	1286,960	960,682
-48,388	29,103	1028,763	622,794
-47,373	19,326	991,692	568,085
-46,359	16,528	979,520	551,915
-45,344	13,239	975,817	539,031
-44,330	13,472	974,267	538,918
-43,315	12,883	972,252	535,858
-42,300	12,825	971,085	535,004
-41,286	12,809	970,188	534,437
-40,271	12,838	969,497	534,128
-39,257	12,853	968,461	533,586
-38,242	12,854	967,419	532,993
-37,227	12,782	966,757	532,375
-36,213	12,858	965,773	532,056
-35,198	12,835	964,949	531,509
-34,184	12,902	964,110	531,243
-33,169	12,770	963,256	530,323
-32,154	12,851	962,316	530,046
-31,140	12,881	961,374	529,603
-30,125	12,824	960,819	529,091
-29,111	12,837	959,922	528,620
-28,096	12,832	959,372	528,278
-27,082	12,824	958,499	527,750
-26,067	12,861	957,915	527,528
-25,052	12,855	957,092	527,033
-24,038	12,852	956,461	526,658
-23,023	12,788	955,887	526,113
-22,009	12,879	955,063	525,931
-20,994	12,845	954,689	525,595
-19,979	12,822	954,063	525,158
-18,965	12,853	953,211	524,765
-17,950	12,841	952,910	524,542
-16,936	12,819	952,046	523,976
-15,921	12,792	951,368	523,496
-14,906	12,675	950,738	522,753
-13,892	12,754	949,927	522,538
-12,877	12,681	949,519	522,060
-11,863	12,732	948,755	521,782
-10,848	12,723	948,231	521,445
-9,833	12,804	947,825	521,460
-8,819	12,742	947,072	520,826
-7,804	12,792	946,400	520,596
-6,790	12,699	945,780	519,937
-5,775	12,742	945,426	519,858
-4,760	12,775	944,605	519,493
-3,746	12,719	943,951	518,934
-2,731	12,603	943,206	518,137
-1,717	12,538	942,702	517,632
-0,702	12,566	941,995	517,312
0,313	12,338	941,318	517,002
1,327	16,130	939,166	527,731
2,342	25,855	790,152	469,588
3,356	22,579	444,687	259,412
4,371	-6,583	298,084	144,556
5,386	-10,511	280,012	132,030
6,400	-11,352	274,039	128,416
7,415	-11,463	271,843	127,273
8,429	-11,418	270,059	126,467
9,444	-11,789	269,386	125,799
10,459	-11,854	268,847	125,477
11,473	-11,927	268,180	125,088
12,488	-11,744	267,420	124,890
13,502	-12,330	267,055	124,174
14,517	-12,148	266,530	124,084
15,531	-12,152	265,994	123,820
16,546	-12,267	265,609	123,526
17,561	-12,196	265,355	123,460
18,575	-11,995	265,019	123,475
19,590	-12,218	264,638	123,085
20,604	-12,317	264,472	122,907
21,619	-12,394	263,974	122,596
22,634	-12,176	263,596	122,606
23,648	-12,389	263,258	122,246
24,663	-12,514	263,180	122,087
25,677	-12,337	262,797	122,057
26,692	-12,479	262,665	121,857
27,707	-12,495	262,128	121,583
28,721	-12,399	261,980	121,589
29,736	-12,385	261,555	121,394
30,750	-12,459	261,237	121,170
31,765	-12,445	261,111	121,112
32,780	-12,595	260,762	120,807
33,794	-12,434	260,644	120,885
34,809	-12,549	260,393	120,655
35,823	-12,313	259,927	120,637
36,838	-12,613	259,787	120,297
37,853	-12,689	259,580	120,123
38,867	-12,582	259,389	120,118
39,882	-12,735	259,291	119,927
40,896	-12,505	258,920	119,947
41,911	-12,530	258,644	119,787
42,926	-12,585	258,430	119,628
43,940	-12,462	258,168	119,605
44,955	-12,647	257,864	119,291
45,969	-12,660	257,692	119,189
46,984	-12,704	257,406	119,008
47,999	-13,041	257,226	118,619
49,013	-13,184	256,848	118,309
50,028	-13,263	256,552	118,093
51,042	-13,278	256,341	117,972
52,057	-13,568	256,426	117,748
53,071	-13,345	255,958	117,717
54,086	-13,234	255,893	117,773
55,101	-13,080	255,608	117,765
56,115	-12,887	255,507	117,876
57,130	-12,496	255,355	118,135
58,144	-12,143	255,196	118,356
59,159	-11,995	255,083	118,422
60,174	-12,044	254,828	118,251
61,188	-12,115	254,524	118,037
62,203	-12,500	254,560	117,711
63,217	-12,446	254,344	117,647
64,232	-12,273	253,985	117,620
65,247	-12,401	253,884	117,453
66,261	-12,286	253,526	117,375
67,276	-12,501	253,183	117,021
68,290	-12,829	252,883	116,590
69,305	-12,841	252,651	116,463
70,320	-12,782	252,435	116,403
71,334	-12,545	252,383	116,572
72,349	-12,062	252,056	116,824
73,363	-12,325	252,167	116,640
74,378	-11,964	251,758	116,749
75,393	-12,188	251,538	116,445
76,407	-12,408	251,417	116,191
77,422	-12,251	251,282	116,252
78,436	-12,305	251,061	116,094
79,451	-12,038	250,802	116,190
80,466	-12,385	250,368	115,684
81,480	-12,483	250,295	115,557
82,495	-12,696	250,071	115,263
83,509	-12,815	249,931	115,087
84,524	-12,631	249,594	115,078
85,539	-12,827	249,337	114,783
86,553	-12,848	249,237	114,709
87,568	-12,661	249,074	114,781
88,582	-12,800	248,931	114,588
89,597	-12,643	248,708	114,607
90,611	-12,503	248,633	114,681
91,626	-12,463	248,509	114,647
92,641	-12,460	248,296	114,541
93,655	-12,640	248,110	114,294
94,670	-12,459	247,652	114,225
95,684	-12,548	247,611	114,121
96,699	-12,611	247,370	113,947
97,714	-12,453	247,256	114,016
98,728	-12,691	246,803	113,599
99,743	-12,963	246,712	113,319
100,757	-12,730	246,513	113,412
101,772	-12,702	246,311	113,333
102,787	-12,624	246,142	113,310
103,801	-12,618	246,214	113,338
104,816	-12,439	245,730	113,254
105,830	-12,305	245,803	113,389
106,845	-12,278	245,478	113,251
107,860	-12,251	245,426	113,239
108,874	-12,404	245,203	112,999
109,889	-12,358	244,920	112,897
110,903	-12,490	244,679	112,666
111,918	-12,634	244,484	112,448
112,933	-12,444	244,345	112,531
113,947	-12,379	244,209	112,512
114,962	-12,396	244,046	112,413
115,976	-12,287	243,819	112,388
116,991	-12,346	243,571	112,215
118,006	-12,399	243,636	112,191
119,020	-12,382	243,406	112,089
120,035	-12,364	243,259	112,026
121,049	-12,410	243,153	111,930
122,064	-12,145	242,850	111,998
123,079	-12,306	242,643	111,760
124,093	-12,371	242,350	111,562
125,108	-12,667	242,236	111,257
126,122	-12,879	241,864	110,903
127,137	-12,842	241,737	110,865
128,151	-12,611	241,526	110,947
129,166	-12,779	241,454	110,767
130,181	-12,637	241,209	110,761
131,195	-12,755	241,048	110,581
132,210	-12,799	240,965	110,498
133,224	-12,382	240,756	110,731
134,239	-12,341	240,602	110,683
135,254	-12,202	240,434	110,709
136,268	-12,347	240,130	110,441
137,283	-12,693	239,813	110,006
138,297	-13,013	239,664	109,669
139,312	-12,868	239,520	109,710
140,327	-12,475	239,344	109,937
141,341	-12,024	239,492	110,359
142,356	-11,894	239,262	110,349
143,370	-12,145	239,177	110,097
144,385	-11,897	238,933	110,175
145,400	-11,794	238,661	110,123
146,414	-11,927	238,754	110,049
147,429	-12,106	238,174	109,628
148,443	-12,223	238,185	109,529
149,458	-11,936	237,953	109,643
150,473	-12,012	237,927	109,560
151,487	-12,211	237,753	109,311
152,502	-12,003	237,503	109,353
153,516	-11,974	237,493	109,361
154,531	-12,086	237,303	109,175
155,546	-12,029	237,068	109,102
156,560	-12,260	236,724	108,750
157,575	-12,371	236,539	108,567
158,589	-12,240	236,365	108,581
159,604	-11,970	236,320	108,767
160,619	-11,740	236,234	108,900
161,633	-11,974	236,078	108,632
162,648	-11,906	235,949	108,617
163,662	-12,055	235,669	108,361
164,677	-12,248	235,602	108,167
165,692	-11,851	235,338	108,350
166,706	-12,096	235,321	108,139
167,721	-11,893	235,087	108,182
168,735	-11,956	234,956	108,063
169,750	-11,972	234,778	107,958
170,764	-11,937	234,629	107,908
171,779	-11,699	234,442	108,000
172,794	-11,729	234,214	107,862
173,808	-12,018	234,108	107,576
174,823	-12,750	233,811	106,854
175,837	-12,770	233,566	106,717
176,852	-12,353	233,626	107,062
177,867	-11,961	233,471	107,289
178,881	-11,949	233,391	107,253
179,896	-11,771	233,053	107,227
180,910	-11,997	233,081	107,053
181,925	-11,917	233,013	107,076
182,940	-11,864	232,765	106,993
183,954	-11,869	232,602	106,905
184,969	-11,565	232,339	107,012
185,983	-11,885	232,280	106,725
186,998	-11,677	232,112	106,801
188,013	-11,774	231,976	106,653
189,027	-11,537	231,706	106,704
190,042	-11,769	231,679	106,502
191,056	-11,722	231,509	106,450
192,071	-11,619	231,326	106,437
193,086	-12,009	231,195	106,064
194,100	-11,549	231,001	106,322
195,115	-11,565	230,823	106,219
196,129	-11,065	231,136	106,741
197,144	-5,800	232,887	111,650
198,159	-0,507	234,452	116,540
199,173	2,386	235,053	119,095
200,188	2,801	234,925	119,345
201,202	2,695	235,005	119,292
202,217	2,923	234,950	119,432
203,232	3,460	234,731	119,729
204,246	3,488	234,545	119,645
205,261	3,536	234,422	119,610
206,275	3,706	234,501	119,772
207,290	3,513	234,362	119,540
208,304	3,517	234,090	119,394
209,319	3,603	233,912	119,359
210,334	3,563	233,624	119,170
211,348	3,345	233,423	118,888
212,363	2,847	233,170	118,362
213,377	2,915	233,001	118,319
214,392	2,861	232,870	118,200
215,407	2,966	232,698	118,184
216,421	3,021	232,584	118,157
217,436	2,764	232,365	117,837
218,450	2,361	232,245	117,454
219,465	2,538	232,014	117,464
220,480	2,735	231,728	117,460
221,494	2,591	231,732	117,340
222,509	2,978	231,741	117,633
223,523	2,942	231,526	117,486
224,538	2,812	231,259	117,239
225,553	2,805	231,270	117,229
226,567	2,884	231,091	117,189
227,582	2,900	231,165	117,229
228,596	3,237	230,849	117,316
229,611	2,934	230,695	116,995
230,626	2,503	230,351	116,480
231,640	2,637	230,241	116,517
232,655	2,814	230,284	116,664
233,669	3,414	230,116	117,026
234,684	3,116	229,967	116,713
235,699	3,359	229,715	116,759
236,713	2,799	229,635	116,282
237,728	2,813	229,299	116,112
238,742	2,610	229,134	115,863
239,757	2,760	229,107	115,954
240,772	2,727	228,840	115,783
241,786	2,875	228,684	115,806
242,801	2,986	228,700	115,889
243,815	3,181	228,701	116,026
244,830	3,276	228,501	115,987
245,844	2,964	228,204	115,590
246,859	2,694	228,228	115,387
247,874	3,138	228,017	115,606
248,888	3,099	227,838	115,475
249,903	2,856	227,652	115,187
250,917	2,966	227,606	115,237
251,932	2,846	227,288	114,975
252,947	2,696	227,090	114,751
253,961	2,755	226,971	114,726
254,976	2,621	226,830	114,543
255,990	2,914	226,821	114,749
257,005	3,091	226,605	114,762
258,020	2,935	226,544	114,604
259,034	3,028	226,403	114,592
260,049	2,936	226,371	114,497
261,063	2,876	226,092	114,300
262,078	3,084	226,096	114,448
263,093	3,274	225,755	114,407
264,107	3,297	225,640	114,356
265,122	3,131	225,454	114,128
266,136	3,294	225,475	114,249
267,151	3,312	225,223	114,125
268,166	2,921	225,128	113,775
269,180	2,486	224,849	113,301
270,195	2,563	224,640	113,243
271,209	2,726	224,595	113,331
272,224	2,866	224,486	113,370
273,239	2,883	224,234	113,245
274,253	2,763	224,139	113,098
275,268	2,563	224,022	112,881
276,282	2,404	223,772	112,627
277,297	2,407	223,643	112,554
278,312	2,575	223,494	112,593
279,326	2,761	223,433	112,690
280,341	2,936	223,250	112,717
281,355	2,847	223,231	112,631
282,370	2,807	223,068	112,509
283,384	2,671	222,681	112,204
284,399	2,599	222,526	112,064
285,414	2,646	222,439	112,044
286,428	2,831	222,483	112,192
287,443	2,824	222,408	112,139
288,457	2,863	222,174	112,040
289,472	2,732	221,794	111,742
290,487	2,352	221,750	111,431
291,501	2,274	221,633	111,306
292,516	2,239	221,434	111,170
293,530	2,407	221,270	111,201
294,545	2,545	221,186	111,249
295,560	2,657	221,207	111,332
296,574	2,734	221,021	111,284
297,589	2,650	220,738	111,071
298,603	3,133	220,615	111,351
299,618	3,087	220,359	111,178
300,633	2,800	220,499	111,030
301,647	3,050	220,423	111,164
302,662	2,980	220,297	111,040
303,676	2,920	220,064	110,869
304,691	3,093	219,965	110,934
305,706	3,197	219,691	110,861
306,720	3,180	219,584	110,786
307,735	3,022	219,278	110,508
308,749	2,427	219,377	110,117
309,764	2,850	219,287	110,368
310,779	3,089	219,092	110,432
311,793	3,084	218,899	110,322
312,808	3,053	218,694	110,186
313,822	2,848	218,635	109,999
314,837	3,028	218,454	110,027
315,852	2,667	218,306	109,683
316,866	2,765	218,174	109,678
317,881	3,265	218,077	109,979
318,895	2,888	217,897	109,607
319,910	2,802	217,724	109,449
320,925	2,415	217,537	109,067
321,939	2,068	217,323	108,702
322,954	2,387	217,402	108,960
323,968	2,825	217,263	109,194
324,983	3,138	217,031	109,292
325,997	3,177	216,943	109,266
327,012	3,087	216,707	109,073
328,027	2,860	216,709	108,902
329,041	3,026	216,671	108,992
330,056	3,304	216,413	109,050
331,070	2,812	216,276	108,621
332,085	2,528	215,915	108,228
333,100	2,449	215,815	108,113
334,114	2,576	215,836	108,204
335,129	3,096	215,622	108,456
336,143	2,945	215,514	108,285
337,158	3,114	215,584	108,430
338,173	2,895	215,304	108,124
339,187	2,988	215,022	108,039
340,202	2,726	214,965	107,815
341,216	2,685	214,615	107,602
342,231	2,625	214,791	107,637
343,246	2,759	214,705	107,680
344,260	2,751	214,499	107,561
345,275	2,839	214,325	107,526
346,289	2,956	214,293	107,583
347,304	2,847	214,127	107,413
348,319	2,789	213,829	107,213
349,333	2,602	213,902	107,109
350,348	2,992	213,644	107,244
351,362	3,037	213,609	107,248
352,377	3,152	213,377	107,203
353,392	2,825	213,243	106,897
354,406	2,991	213,120	106,942
355,421	198,431	1335,018	1416,911
356,435	158,703	1471,626	1416,845
