DTS Sentinel unit serial number:	SN410029Multiplexer serial number:	ORYXHardware model number:	OX2-SRSoftware version number:	ORYX F/W v4,00 Oryx Data Collector v3.7.2.0data status	okinstallation	B6 Nyhavnadifferential loss correction	single-endedforward channel	channel 2reverse channel	N/Adate	2023/12/09time	06:10:08forward acquisition time	300,00reverse acquisition time	0,00gamma	499,1914k internal	0,3141k external	0,3141temperature offset calibration	1,0000default loss term (dB/km)	0,3820temperature slope calibration	1,0000multiplexer offset coefficient	1,0000multiplexer slope coefficient	1,0000fibre end	0,00T internal ref (°C)	18,31T ext. ref 1 (°C)	2,29T ext. ref 2 (°C)	2,32length (m)	temperature (°C)	Stokes	anti-Stokes-744,400	705,664	0,133	-0,262
-743,385	-162,416	-0,228	0,008
-742,371	800,000	0,036	-0,082
-741,356	-90,994	-0,265	0,056
-740,342	-133,678	0,214	-0,020
-739,327	-176,074	-0,309	-0,006
-738,312	-200,000	0,043	-0,182
-737,298	-43,909	-0,203	-0,075
-736,283	330,656	0,048	0,068
-735,269	-162,238	-0,202	-0,007
-734,254	-58,457	0,093	-0,030
-733,239	-88,403	-0,427	-0,094
-732,225	83,780	0,082	-0,066
-731,210	202,769	0,102	0,117
-730,196	-200,000	-0,029	0,111
-729,181	-200,000	-0,011	-0,144
-728,167	-200,000	0,011	-0,038
-727,152	800,000	-0,036	-0,114
-726,137	-200,000	-0,018	-0,131
-725,123	484,225	-0,034	0,057
-724,108	800,000	0,042	-0,134
-723,094	-200,000	-0,039	-0,231
-722,079	376,236	-0,085	-0,129
-721,064	-13,230	-0,025	-0,012
-720,050	21,897	-0,090	0,054
-719,035	800,000	-0,005	-0,012
-718,021	-90,971	-0,095	0,020
-717,006	800,000	-0,072	-0,157
-715,991	408,317	-0,088	-0,138
-714,977	414,406	0,028	-0,044
-713,962	800,000	-0,070	-0,162
-712,948	76,341	0,087	0,068
-711,933	63,655	-0,053	0,040
-710,918	-200,000	0,021	-0,113
-709,904	-38,543	-0,162	-0,063
-708,889	397,621	-0,117	-0,182
-707,875	-115,198	-0,105	-0,015
-706,860	308,484	0,090	-0,125
-705,845	87,014	0,027	0,022
-704,831	-200,000	0,011	0,091
-703,816	434,778	-0,042	0,068
-702,802	800,000	0,047	0,110
-701,787	155,909	-0,082	-0,084
-700,772	-200,000	0,024	-0,117
-699,758	45,926	0,112	-0,077
-698,743	800,000	-0,038	0,117
-697,729	-53,851	0,023	-0,008
-696,714	-200,000	0,013	0,117
-695,699	388,396	-0,044	0,067
-694,685	-74,712	-0,033	-0,009
-693,670	42,632	-0,062	-0,042
-692,656	800,000	0,023	-0,069
-691,641	420,962	-0,071	0,112
-690,627	676,798	0,040	0,077
-689,612	332,393	0,065	-0,093
-688,597	-88,024	-0,222	-0,049
-687,583	800,000	0,020	0,049
-686,568	64,769	0,114	-0,085
-685,554	-65,257	-0,027	-0,008
-684,539	23,341	-0,090	0,055
-683,524	-133,946	0,055	-0,005
-682,510	-45,441	-0,087	0,032
-681,495	784,939	-0,016	0,033
-680,481	191,888	0,083	-0,092
-679,466	21,362	0,083	-0,050
-678,451	50,179	-0,069	0,048
-677,437	31,167	0,059	0,037
-676,422	-53,551	-0,040	-0,013
-675,408	-200,000	0,016	-0,096
-674,393	800,000	0,027	0,069
-673,378	66,408	-0,177	-0,133
-672,364	800,000	0,012	-0,028
-671,349	-130,040	-0,195	-0,019
-670,335	57,645	-0,037	-0,026
-669,320	190,957	-0,049	-0,054
-668,305	-200,000	0,005	0,041
-667,291	522,643	-0,028	0,049
-666,276	-99,378	-0,120	0,022
-665,262	-200,000	0,047	-0,237
-664,247	-88,213	-0,032	-0,007
-663,232	-200,000	-0,032	0,152
-662,218	-121,892	-0,169	-0,020
-661,203	800,000	0,070	0,190
-660,189	279,616	0,065	-0,086
-659,174	-78,137	-0,060	-0,015
-658,159	-17,897	-0,009	-0,004
-657,145	-25,350	-0,121	0,053
-656,130	-73,955	0,074	-0,020
-655,116	800,000	0,038	-0,086
-654,101	800,000	0,026	0,074
-653,086	-72,155	-0,050	0,013
-652,072	-200,000	-0,003	-0,115
-651,057	36,328	0,055	0,036
-650,043	800,000	-0,026	-0,065
-649,028	556,586	0,036	0,065
-648,014	143,979	-0,062	-0,061
-646,999	-200,000	-0,005	-0,103
-645,984	-110,892	0,088	0,013
-644,970	-150,558	-0,175	-0,010
-643,955	257,308	0,140	-0,178
-642,941	292,492	-0,102	0,138
-641,926	5,732	-0,100	0,055
-640,911	252,061	-0,059	-0,074
-639,897	800,000	0,044	0,098
-638,882	243,173	-0,096	0,119
-637,868	90,704	-0,037	0,030
-636,853	-14,960	-0,021	-0,010
-635,838	94,600	-0,171	-0,143
-634,824	-28,671	-0,049	0,021
-633,809	-144,026	0,121	0,008
-632,795	-19,073	0,066	0,030
-631,780	-200,000	-0,004	-0,067
-630,765	-200,000	0,026	0,097
-629,751	353,525	0,163	0,239
-628,736	194,633	-0,097	0,109
-627,722	-200,000	0,025	-0,115
-626,707	16,919	0,135	-0,079
-625,692	-115,992	0,041	-0,006
-624,678	800,000	0,038	0,079
-623,663	193,847	-0,006	0,007
-622,649	-200,000	-0,041	-0,174
-621,634	47,551	0,014	-0,009
-620,619	5,706	0,047	0,026
-619,605	329,334	-0,075	0,107
-618,590	-200,000	0,022	0,080
-617,576	-200,000	0,018	0,121
-616,561	16,113	0,036	0,021
-615,546	-67,700	-0,088	-0,025
-614,532	-200,000	-0,005	-0,063
-613,517	7,700	-0,070	0,038
-612,503	79,239	-0,006	0,005
-611,488	254,714	0,039	-0,049
-610,474	-55,479	-0,047	-0,015
-609,459	149,747	-0,054	0,054
-608,444	195,993	-0,022	-0,024
-607,430	800,000	0,059	0,140
-606,415	37,649	0,079	-0,052
-605,401	-200,000	0,003	-0,179
-604,386	198,896	0,090	-0,101
-603,371	474,148	-0,057	0,095
-602,357	31,249	0,088	0,055
-601,342	-180,257	-0,045	0,001
-600,328	-123,072	-0,124	-0,014
-599,313	800,000	0,038	-0,113
-598,298	-38,315	0,014	0,006
-597,284	18,699	0,018	-0,010
-596,269	-93,034	-0,132	-0,027
-595,255	-200,000	0,018	0,064
-594,240	-126,683	-0,098	-0,011
-593,225	-200,000	0,010	-0,170
-592,211	-113,249	-0,101	0,014
-591,196	-118,365	0,079	-0,010
-590,182	-200,000	0,013	-0,162
-589,167	-54,103	-0,088	0,029
-588,152	132,795	0,086	0,082
-587,138	-105,027	-0,159	0,026
-586,123	359,239	0,060	-0,089
-585,109	-77,524	-0,106	-0,027
-584,094	112,247	-0,114	-0,101
-583,079	-117,910	0,028	-0,004
-582,065	-42,228	0,074	-0,028
-581,050	-200,000	0,006	0,046
-580,036	-25,088	-0,123	0,054
-579,021	23,656	-0,106	-0,064
-578,006	79,348	-0,098	-0,077
-576,992	271,346	-0,089	-0,116
-575,977	-74,382	-0,045	-0,012
-574,963	800,000	0,033	0,092
-573,948	81,384	0,109	0,086
-572,934	800,000	0,019	-0,052
-571,919	-200,000	-0,010	0,052
-570,904	-200,000	0,003	0,018
-569,890	114,852	0,039	0,035
-568,875	-90,165	-0,102	-0,022
-567,861	568,233	0,076	0,136
-566,846	-142,903	0,181	0,013
-565,831	-48,387	-0,039	-0,014
-564,817	-200,000	-0,008	0,172
-563,802	707,233	0,041	0,079
-562,788	6,704	0,068	-0,037
-561,773	-31,456	-0,093	0,038
-560,758	-34,837	0,108	-0,043
-559,744	800,000	-0,039	-0,086
-558,729	-122,597	-0,083	0,010
-557,715	-200,000	0,031	-0,133
-556,700	-200,000	-0,009	-0,067
-555,685	-24,943	-0,125	-0,054
-554,671	397,548	0,050	0,077
-553,656	-17,070	0,031	-0,014
-552,642	-80,673	0,033	-0,008
-551,627	107,716	-0,086	-0,076
-550,612	800,000	0,048	0,109
-549,598	800,000	0,017	-0,040
-548,583	-140,798	-0,116	0,009
-547,569	-21,664	0,118	0,053
-546,554	243,143	0,027	0,034
-545,539	-200,000	0,037	0,147
-544,525	-88,667	-0,156	0,034
-543,510	755,774	-0,054	0,109
-542,496	-29,024	-0,057	0,024
-541,481	800,000	0,049	-0,118
-540,466	356,931	-0,079	0,115
-539,452	317,332	0,044	0,061
-538,437	-173,213	0,080	0,002
-537,423	800,000	-0,010	0,024
-536,408	205,532	-0,021	-0,024
-535,393	122,829	-0,035	-0,033
-534,379	274,951	0,066	0,086
-533,364	238,985	-0,109	-0,133
-532,350	-15,471	0,094	-0,044
-531,335	-200,000	0,007	-0,052
-530,321	-72,539	-0,056	0,015
-529,306	-200,000	0,007	-0,023
-528,291	-24,073	0,082	-0,036
-527,277	800,000	-0,019	-0,039
-526,262	-95,613	0,042	0,008
-525,248	407,832	0,066	0,103
-524,233	145,637	0,088	-0,087
-523,218	-200,000	0,011	0,052
-522,204	235,816	-0,038	-0,046
-521,189	86,764	-0,018	0,015
-520,175	-200,000	0,004	-0,054
-519,160	-45,239	-0,037	-0,014
-518,145	-200,000	0,010	-0,060
-517,131	-85,515	0,046	-0,010
-516,116	-48,416	0,123	-0,043
-515,102	-62,343	-0,053	-0,016
-514,087	-200,000	0,024	-0,102
-513,072	800,000	-0,043	-0,129
-512,058	-200,000	0,004	-0,091
-511,043	-180,263	0,136	0,002
-510,029	-200,000	-0,013	-0,077
-509,014	218,050	-0,011	0,013
-507,999	-200,000	0,004	0,108
-506,985	800,000	-0,018	-0,055
-505,970	294,101	0,034	-0,046
-504,956	800,000	0,028	-0,081
-503,941	-139,253	-0,071	0,006
-502,926	-48,595	0,066	-0,023
-501,912	-200,000	0,002	0,168
-500,897	800,000	0,024	0,059
-499,883	-70,451	-0,050	0,014
-498,868	800,000	0,061	-0,167
-497,853	-200,000	-0,000	0,039
-496,839	-50,906	-0,044	-0,015
-495,824	9,397	0,131	-0,073
-494,810	-80,773	0,040	0,010
-493,795	153,407	-0,039	0,039
-492,781	-200,000	0,009	-0,097
-491,766	143,466	0,064	-0,062
-490,751	80,117	-0,028	-0,022
-489,737	515,818	0,042	0,072
-488,722	-83,833	0,076	0,018
-487,708	480,174	0,023	-0,038
-486,693	371,431	-0,038	-0,057
-485,678	-200,000	-0,026	-0,122
-484,664	800,000	-0,064	-0,168
-483,649	-72,809	-0,024	-0,006
-482,635	348,402	-0,097	0,141
-481,620	-81,092	0,041	0,010
-480,605	-200,000	-0,002	-0,012
-479,591	-34,342	-0,062	-0,025
-478,576	21,161	0,103	0,061
-477,562	-154,014	-0,045	0,002
-476,547	107,656	-0,045	-0,040
-475,532	134,400	0,084	0,080
-474,518	735,814	0,062	0,123
-473,503	52,538	0,023	0,016
-472,489	745,708	0,011	0,022
-471,474	36,514	-0,038	0,024
-470,459	-35,456	-0,163	0,065
-469,445	-100,697	-0,113	0,020
-468,430	-12,441	0,080	-0,038
-467,416	-47,626	0,034	-0,012
-466,401	111,379	0,054	-0,048
-465,386	460,895	-0,013	-0,021
-464,372	28,622	-0,059	-0,037
-463,357	-102,703	0,143	-0,025
-462,343	680,881	0,050	-0,095
-461,328	-57,808	0,123	0,039
-460,313	252,294	-0,077	-0,097
-459,299	259,187	0,019	-0,024
-458,284	2,913	-0,077	0,041
-457,270	-64,886	-0,156	0,046
-456,255	-200,000	0,001	-0,119
-455,241	-200,000	-0,031	-0,128
-454,226	-200,000	-0,015	-0,049
-453,211	467,618	-0,032	0,053
-452,197	138,991	0,104	0,100
-451,182	200,962	-0,100	0,113
-450,168	-200,000	-0,013	0,067
-449,153	268,836	0,041	-0,053
-448,138	410,482	0,092	-0,144
-447,124	-121,240	-0,212	-0,026
-446,109	72,007	0,025	-0,019
-445,095	-200,000	-0,109	-0,000
-444,080	-129,968	0,038	-0,004
-443,065	-200,000	-0,006	0,135
-442,051	-167,168	-0,056	-0,002
-441,036	-4,657	0,163	-0,082
-440,022	50,763	-0,051	0,035
-439,007	359,887	0,079	0,116
-437,992	12,257	0,074	0,041
-436,978	-200,000	0,011	0,042
-435,963	-200,000	0,002	0,106
-434,949	-200,000	0,000	-0,159
-433,934	-200,000	-0,018	-0,067
-432,919	-200,000	0,004	0,037
-431,905	-2,138	-0,046	0,024
-430,890	-200,000	0,001	0,009
-429,876	-95,837	0,064	0,012
-428,861	147,113	-0,048	-0,048
-427,846	124,531	-0,087	-0,080
-426,832	-20,570	-0,069	-0,031
-425,817	-200,000	-0,003	0,018
-424,803	800,000	0,063	-0,183
-423,788	268,334	-0,028	0,036
-422,773	15,124	-0,018	0,010
-421,759	63,621	0,028	0,021
-420,744	45,674	0,070	-0,047
-419,730	192,875	-0,087	0,097
-418,715	800,000	-0,008	0,025
-417,701	86,097	0,032	0,025
-416,686	-62,709	-0,065	0,020
-415,671	470,718	0,098	-0,162
-414,657	-200,000	0,020	0,082
-413,642	-72,527	-0,054	0,014
-412,628	-200,000	0,002	-0,087
-411,613	378,732	-0,109	-0,164
-410,598	110,130	0,092	-0,081
-409,584	381,108	0,031	0,046
-408,569	47,771	0,099	-0,067
-407,555	296,675	-0,047	-0,063
-406,540	-200,000	0,007	-0,044
-405,525	-0,115	0,057	0,030
-404,511	-52,563	-0,100	0,034
-403,496	119,143	0,092	-0,083
-402,482	-116,074	-0,174	0,023
-401,467	720,071	-0,073	-0,143
-400,452	-119,554	0,189	0,024
-399,438	669,595	-0,088	-0,168
-398,423	676,821	-0,088	-0,167
-397,409	800,000	0,015	0,034
-396,394	800,000	0,056	0,126
-395,379	-103,806	-0,127	-0,021
-394,365	242,137	-0,041	0,050
-393,350	-200,000	0,000	-0,009
-392,336	3,634	-0,086	-0,046
-391,321	-120,998	-0,093	-0,011
-390,306	47,692	-0,077	-0,052
-389,292	-200,000	0,023	-0,096
-388,277	87,543	-0,136	0,110
-387,263	-140,016	-0,141	0,011
-386,248	25,770	0,190	0,115
-385,233	800,000	0,012	0,024
-384,219	-200,000	-0,008	0,116
-383,204	-67,808	-0,013	0,004
-382,190	502,706	0,061	-0,103
-381,175	410,221	-0,092	-0,143
-380,160	166,755	-0,109	-0,113
-379,146	15,874	0,090	-0,052
-378,131	126,325	-0,103	-0,095
-377,117	800,000	-0,004	0,009
-376,102	-200,000	-0,028	-0,151
-375,088	-135,188	-0,065	-0,006
-374,073	62,566	0,030	-0,022
-373,058	800,000	0,054	-0,149
-372,044	-109,147	0,048	0,007
-371,029	-145,044	-0,153	0,010
-370,015	-174,540	0,068	-0,001
-369,000	-32,459	0,139	-0,056
-367,985	-97,174	-0,168	-0,032
-366,971	-0,342	0,059	0,031
-365,956	-200,000	0,024	0,226
-364,942	200,314	0,091	0,102
-363,927	196,432	0,045	-0,050
-362,912	-123,051	-0,065	-0,008
-361,898	450,056	-0,011	-0,017
-360,883	6,622	-0,070	-0,038
-359,869	-64,587	-0,050	-0,015
-358,854	124,952	-0,075	0,069
-357,839	800,000	0,069	0,187
-356,825	800,000	0,017	-0,041
-355,810	710,488	0,087	-0,169
-354,796	204,621	-0,026	-0,030
-353,781	40,989	-0,081	0,054
-352,766	-159,778	0,052	0,002
-351,752	-66,724	-0,123	0,035
-350,737	-46,605	0,149	0,053
-349,723	-147,011	0,151	0,009
-348,708	98,396	0,066	0,056
-347,693	-200,000	0,037	0,184
-346,679	-164,699	0,017	0,001
-345,664	800,000	-0,033	-0,074
-344,650	170,287	0,096	0,100
-343,635	-200,000	-0,040	0,155
-342,620	13,226	-0,014	0,008
-341,606	705,839	0,055	0,107
-340,591	-43,862	0,040	0,014
-339,577	224,960	0,015	-0,017
-338,562	-200,000	-0,034	-0,199
-337,548	224,967	0,044	-0,052
-336,533	-108,563	0,044	0,007
-335,518	-200,000	0,021	0,111
-334,504	2,509	-0,141	0,074
-333,489	368,042	0,129	0,190
-332,475	-32,324	0,104	0,042
-331,460	7,983	-0,112	-0,061
-330,445	-200,000	0,009	-0,036
-329,431	-200,000	-0,004	0,199
-328,416	700,671	-0,072	0,139
-327,402	61,960	0,052	-0,038
-326,387	52,826	0,139	0,097
-325,372	-152,301	-0,048	-0,002
-324,358	-38,655	-0,062	0,024
-323,343	800,000	-0,042	0,106
-322,329	392,581	-0,009	-0,014
-321,314	122,700	0,078	-0,071
-320,299	-200,000	-0,030	0,110
-319,285	568,029	-0,019	0,033
-318,270	-42,827	-0,064	0,024
-317,256	-200,000	-0,019	-0,133
-316,241	-200,000	-0,012	-0,140
-315,226	-9,693	-0,063	0,030
-314,212	800,000	0,028	0,061
-313,197	-200,000	0,008	0,086
-312,183	32,552	0,036	0,022
-311,168	800,000	-0,020	0,061
-310,153	-200,000	-0,008	-0,152
-309,139	126,036	0,088	-0,081
-308,124	366,746	0,041	-0,061
-307,110	-200,000	0,016	-0,122
-306,095	800,000	0,015	-0,038
-305,080	361,538	0,022	0,032
-304,066	72,701	-0,066	-0,050
-303,051	800,000	0,038	0,102
-302,037	297,476	0,026	0,035
-301,022	-5,094	0,035	-0,017
-300,008	275,593	0,025	-0,032
-298,993	-200,000	-0,022	-0,149
-297,978	-200,000	-0,011	0,099
-296,964	-157,472	0,120	-0,005
-295,949	800,000	-0,067	-0,155
-294,935	-200,000	0,032	-0,179
-293,920	114,961	0,069	0,061
-292,905	-95,794	0,065	-0,013
-291,891	-41,341	-0,101	0,038
-290,876	-64,914	0,086	-0,025
-289,862	212,404	-0,085	0,098
-288,847	-200,000	-0,010	-0,060
-287,832	96,068	0,108	0,090
-286,818	-91,330	-0,073	0,015
-285,803	800,000	0,033	0,089
-284,789	800,000	0,019	0,059
-283,774	800,000	-0,038	0,096
-282,759	800,000	-0,027	0,064
-281,745	-200,000	0,024	0,136
-280,730	-60,644	-0,054	-0,017
-279,716	-81,092	-0,064	0,015
-278,701	-200,000	0,070	0,000
-277,686	-69,752	-0,042	-0,012
-276,672	-200,000	-0,026	0,204
-275,657	-200,000	-0,008	-0,070
-274,643	-200,000	0,029	0,123
-273,628	-95,403	0,037	-0,007
-272,613	13,173	-0,106	0,059
-271,599	-200,000	-0,022	0,075
-270,584	-200,000	0,132	-0,000
-269,570	64,020	-0,042	-0,031
-268,555	-61,806	0,037	-0,011
-267,540	-84,385	0,214	0,049
-266,526	-29,560	-0,104	-0,043
-265,511	57,426	0,091	-0,065
-264,497	-6,820	0,125	0,062
-263,482	-200,000	0,009	-0,105
-262,467	-111,921	0,082	-0,012
-261,453	-200,000	-0,017	0,157
-260,438	-32,225	-0,075	-0,030
-259,424	-200,000	-0,001	0,019
-258,409	-200,000	0,003	-0,013
-257,395	-200,000	-0,016	0,085
-256,380	800,000	-0,062	0,127
-255,365	-200,000	0,003	0,186
-254,351	-189,086	-0,023	-0,000
-253,336	-94,300	-0,096	0,019
-252,322	298,370	0,056	-0,075
-251,307	604,821	-0,080	-0,145
-250,292	800,000	-0,019	-0,044
-249,278	-1,836	0,154	0,078
-248,263	-200,000	-0,009	-0,029
-247,249	-65,269	-0,022	0,006
-246,234	18,237	0,077	-0,044
-245,219	-200,000	-0,041	-0,155
-244,205	752,937	0,019	-0,038
-243,190	115,525	0,063	-0,056
-242,176	236,295	-0,036	-0,043
-241,161	-90,893	0,125	0,026
-240,146	594,491	-0,077	0,138
-239,132	482,847	-0,025	-0,041
-238,117	-37,267	-0,122	-0,047
-237,103	225,348	-0,130	-0,154
-236,088	314,290	0,064	-0,088
-235,073	275,385	0,142	0,183
-234,059	-177,616	0,049	-0,001
-233,044	178,390	-0,043	0,046
-232,030	7,694	0,147	-0,080
-231,015	-179,523	-0,035	0,001
-230,000	-146,974	-0,167	-0,010
-228,986	-200,000	0,020	0,088
-227,971	5,244	0,057	-0,030
-226,957	-51,033	0,073	-0,025
-225,942	-200,000	0,016	-0,095
-224,927	800,000	-0,055	0,153
-223,913	-200,000	-0,018	-0,113
-222,898	-43,549	-0,231	-0,084
-221,884	-162,149	-0,238	-0,009
-220,869	800,000	-0,051	0,125
-219,855	-25,235	-0,036	0,015
-218,840	-91,665	0,073	-0,015
-217,825	-24,137	-0,046	-0,020
-216,811	553,335	0,058	-0,102
-215,796	800,000	-0,026	0,074
-214,782	504,296	-0,059	-0,099
-213,767	-12,688	0,126	0,060
-212,752	602,677	0,037	-0,067
-211,738	52,245	0,130	0,090
-210,723	282,352	-0,065	0,084
-209,709	397,316	-0,077	0,117
-208,694	-84,954	0,068	-0,015
-207,679	-200,000	-0,054	0,192
-206,665	-200,000	0,001	0,083
-205,650	-200,000	-0,009	0,039
-204,636	-67,304	-0,043	-0,012
-203,621	638,844	-0,028	-0,051
-202,606	346,691	0,034	0,048
-201,592	-200,000	0,002	0,023
-200,577	800,000	0,006	0,018
-199,563	59,474	0,090	-0,065
-198,548	-200,000	0,009	0,145
-197,533	-200,000	-0,018	0,132
-196,519	745,265	0,073	0,144
-195,504	25,675	-0,081	-0,049
-194,490	-200,000	-0,001	-0,031
-193,475	104,777	-0,140	-0,119
-192,460	390,721	0,057	-0,086
-191,446	-54,317	0,150	-0,049
-190,431	-22,753	0,038	-0,017
-189,417	-200,000	-0,025	0,142
-188,402	-124,558	0,157	-0,017
-187,387	678,773	0,074	-0,141
-186,373	331,208	-0,030	-0,041
-185,358	157,805	0,106	0,107
-184,344	100,666	0,068	0,057
-183,329	414,884	0,039	-0,061
-182,315	-200,000	0,012	0,135
-181,300	-200,000	0,005	0,072
-180,285	347,963	0,011	-0,015
-179,271	-200,000	0,020	0,091
-178,256	-200,000	0,035	0,114
-177,242	154,862	0,040	-0,040
-176,227	100,609	-0,050	0,042
-175,212	-200,000	-0,048	-0,157
-174,198	183,569	0,033	-0,035
-173,183	-200,000	0,004	-0,174
-172,169	-29,935	0,077	0,032
-171,154	108,716	0,036	-0,031
-170,139	211,340	0,056	0,064
-169,125	-121,493	0,040	-0,005
-168,110	-89,296	0,128	-0,027
-167,096	85,651	-0,081	-0,064
-166,081	456,254	-0,041	-0,066
-165,066	-8,789	-0,115	-0,056
-164,052	-200,000	-0,018	0,092
-163,037	81,641	-0,024	0,019
-162,023	59,230	0,046	0,033
-161,008	239,451	0,038	0,046
-159,993	-200,000	0,005	0,082
-158,979	-106,530	-0,153	-0,024
-157,964	-88,915	0,033	0,007
-156,950	148,934	-0,019	-0,018
-155,935	800,000	0,022	0,058
-154,920	-200,000	0,019	0,091
-153,906	48,262	0,033	0,023
-152,891	-200,000	-0,000	-0,127
-151,877	411,487	-0,034	-0,052
-150,862	204,942	-0,061	0,069
-149,847	-200,000	0,001	-0,153
-148,833	-101,206	-0,046	0,008
-147,818	-200,000	-0,004	-0,014
-146,804	311,232	0,112	0,152
-145,789	800,000	0,059	0,132
-144,775	-200,000	0,008	0,086
-143,760	-36,269	-0,135	-0,053
-142,745	-200,000	-0,012	0,169
-141,731	98,585	-0,138	-0,115
-140,716	-200,000	-0,028	0,172
-139,702	-71,372	-0,092	0,025
-138,687	213,257	-0,122	0,140
-137,672	645,609	-0,030	-0,056
-136,658	5,922	0,122	-0,065
-135,643	-200,000	0,007	-0,032
-134,629	-155,824	-0,139	0,006
-133,614	-95,702	0,063	0,012
-132,599	272,345	0,072	0,092
-131,585	-200,000	-0,004	0,060
-130,570	800,000	0,067	0,205
-129,556	124,158	0,074	0,067
-128,541	4,735	0,030	-0,016
-127,526	-200,000	0,007	-0,091
-126,512	104,830	0,135	-0,115
-125,497	-18,401	-0,114	0,051
-124,483	800,000	-0,043	0,097
-123,468	800,000	-0,038	0,096
-122,453	247,711	-0,046	0,056
-121,439	108,837	-0,105	-0,091
-120,424	-200,000	-0,015	-0,059
-119,410	-77,314	0,142	0,036
-118,395	416,574	0,100	0,154
-117,380	-200,000	-0,030	-0,124
-116,366	-200,000	-0,019	-0,063
-115,351	113,347	0,074	-0,065
-114,337	-200,000	-0,025	-0,088
-113,322	800,000	0,015	0,036
-112,307	-124,196	0,128	-0,014
-111,293	55,971	-0,057	0,040
-110,278	-200,000	-0,004	0,126
-109,264	83,958	0,007	0,005
-108,249	339,941	-0,090	-0,127
-107,234	800,000	-0,034	-0,076
-106,220	-86,836	0,066	0,014
-105,205	304,741	0,035	-0,047
-104,191	-7,644	-0,115	0,056
-103,176	779,522	0,021	-0,041
-102,162	92,179	0,055	0,045
-101,147	193,599	-0,064	-0,071
-100,132	-200,000	-0,056	0,203
-99,118	800,000	-0,002	-0,006
-98,103	-151,382	0,061	-0,003
-97,089	44,654	-0,014	-0,010
-96,074	800,000	-0,037	0,082
-95,059	-74,567	-0,115	0,030
-94,045	-19,260	0,084	0,038
-93,030	-74,172	0,040	0,010
-92,016	323,495	0,001	-0,001
-91,001	-23,840	-0,032	-0,014
-89,986	-92,889	0,115	0,023
-88,972	-200,000	-0,019	-0,069
-87,957	-200,000	-0,018	-0,124
-86,943	-126,997	-0,023	-0,002
-85,928	130,051	0,053	0,049
-84,913	788,827	-0,072	-0,143
-83,899	-200,000	-0,002	0,018
-82,884	-200,000	0,001	-0,016
-81,870	169,142	-0,099	0,102
-80,855	800,000	0,046	0,100
-79,840	267,229	-0,107	0,136
-78,826	-45,904	0,072	0,025
-77,811	-57,888	-0,025	-0,008
-76,797	529,409	-0,030	0,052
-75,782	-96,667	-0,157	-0,030
-74,767	-76,699	0,092	0,023
-73,753	-200,000	0,022	0,123
-72,738	24,692	-0,036	0,022
-71,724	-200,000	0,006	-0,090
-70,709	638,736	-0,056	-0,103
-69,694	52,958	0,068	-0,047
-68,680	42,216	-0,074	0,048
-67,665	55,772	-0,126	0,088
-66,651	800,000	0,024	-0,075
-65,636	-200,000	0,024	-0,105
-64,622	800,000	0,042	-0,087
-63,607	407,256	-0,035	0,054
-62,592	90,142	-0,050	0,040
-61,578	-200,000	0,011	0,122
-60,563	191,514	0,042	0,045
-59,549	-200,000	0,016	-0,089
-58,534	-20,506	-1,741	-0,769
-57,519	800,000	-0,431	-1,162
-56,505	-200,000	-1,158	-4,702
-55,490	-136,809	0,710	0,058
-54,476	800,000	5,197	12,411
-53,461	-200,000	16,021	278,711
-52,446	-200,000	703,542	2244,945
-51,432	561,743	1619,854	2837,806
-50,417	122,007	1623,463	1462,072
-49,403	82,967	1284,413	1007,092
-48,388	36,842	1028,798	654,779
-47,373	21,442	990,872	579,701
-46,359	20,381	979,500	569,528
-45,344	18,642	975,309	561,349
-44,330	18,709	974,128	560,866
-43,315	18,421	972,405	558,907
-42,300	18,361	971,445	558,137
-41,286	18,376	970,234	557,470
-40,271	18,321	969,291	556,725
-39,257	18,343	968,618	556,389
-38,242	18,352	967,713	555,875
-37,227	18,391	966,944	555,540
-36,213	18,313	966,182	554,826
-35,198	18,344	965,148	554,310
-34,184	18,392	964,490	554,067
-33,169	18,382	963,613	553,509
-32,154	18,381	962,709	552,965
-31,140	18,433	961,637	552,494
-30,125	18,385	961,236	552,087
-29,111	18,402	960,170	551,508
-28,096	18,363	959,807	551,153
-27,082	18,369	958,955	550,658
-26,067	18,322	958,204	550,055
-25,052	18,315	957,410	549,556
-24,038	18,367	956,554	549,210
-23,023	18,303	956,059	548,698
-22,009	18,332	955,367	548,371
-20,994	18,342	954,912	548,121
-19,979	18,349	954,247	547,738
-18,965	18,359	953,469	547,302
-17,950	18,361	952,705	546,851
-16,936	18,277	952,244	546,293
-15,921	18,253	951,658	545,857
-14,906	18,225	950,928	545,330
-13,892	18,216	950,177	544,845
-12,877	18,169	949,642	544,366
-11,863	18,182	948,941	543,987
-10,848	18,241	948,287	543,778
-9,833	18,342	947,840	543,824
-8,819	18,307	947,354	543,410
-7,804	18,226	946,679	542,744
-6,790	18,163	946,161	542,225
-5,775	18,267	945,397	542,097
-4,760	18,207	944,922	541,610
-3,746	18,256	944,099	541,272
-2,731	18,096	943,433	540,361
-1,717	18,052	942,711	539,788
-0,702	18,109	941,854	539,457
0,313	17,831	941,630	539,258
1,327	21,048	939,639	548,261
2,342	30,182	796,727	489,201
3,356	27,307	448,973	271,344
4,371	-2,354	294,793	148,506
5,386	-6,307	275,937	135,251
6,400	-7,664	270,307	131,219
7,415	-8,298	268,100	129,550
8,429	-7,791	266,561	129,261
9,444	-7,792	265,809	128,883
10,459	-7,892	265,265	128,517
11,473	-7,987	264,533	128,065
12,488	-8,157	263,984	127,633
13,502	-8,125	263,559	127,445
14,517	-8,328	263,090	127,023
15,531	-8,452	262,785	126,753
16,546	-8,115	262,313	126,817
17,561	-8,277	262,067	126,542
18,575	-8,295	261,632	126,304
19,590	-8,412	261,296	126,026
20,604	-8,234	261,069	126,064
21,619	-8,282	260,612	125,790
22,634	-8,344	260,327	125,586
23,648	-8,366	259,891	125,344
24,663	-8,459	259,740	125,177
25,677	-8,389	259,491	125,109
26,692	-8,438	259,325	124,974
27,707	-8,488	258,935	124,731
28,721	-8,521	258,674	124,564
29,736	-8,536	258,427	124,420
30,750	-8,401	258,144	124,393
31,765	-8,401	257,908	124,267
32,780	-8,563	257,850	124,085
33,794	-8,448	257,462	123,990
34,809	-8,500	257,314	123,861
35,823	-8,557	256,965	123,632
36,838	-8,537	256,790	123,555
37,853	-8,521	256,449	123,393
38,867	-8,646	256,207	123,156
39,882	-8,670	255,992	123,021
40,896	-8,713	255,973	122,963
41,911	-8,651	255,554	122,805
42,926	-8,519	255,304	122,789
43,940	-8,569	255,099	122,636
44,955	-8,763	254,892	122,356
45,969	-8,682	254,533	122,243
46,984	-8,915	254,339	121,936
47,999	-9,217	254,183	121,588
49,013	-9,297	253,812	121,330
50,028	-9,339	253,535	121,150
51,042	-9,567	253,255	120,807
52,057	-9,233	253,065	120,996
53,071	-9,402	252,870	120,745
54,086	-9,349	252,745	120,721
55,101	-8,978	252,453	120,892
56,115	-8,805	252,387	120,999
57,130	-8,358	252,349	121,356
58,144	-8,207	252,257	121,431
59,159	-8,086	252,025	121,413
60,174	-8,226	251,791	121,168
61,188	-8,399	251,639	120,935
62,203	-8,321	251,369	120,862
63,217	-8,498	251,133	120,586
64,232	-8,374	250,874	120,558
65,247	-8,186	250,745	120,646
66,261	-8,443	250,586	120,339
67,276	-8,625	250,248	120,009
68,290	-8,796	249,887	119,680
69,305	-8,830	249,712	119,556
70,320	-8,835	249,603	119,489
71,334	-8,532	249,368	119,624
72,349	-8,262	249,277	119,800
73,363	-8,119	249,053	119,803
74,378	-8,234	248,848	119,596
75,393	-8,483	248,736	119,320
76,407	-8,495	248,532	119,201
77,422	-8,471	248,414	119,154
78,436	-8,326	248,116	119,124
79,451	-8,406	247,843	118,914
80,466	-8,486	247,425	118,636
81,480	-8,641	247,363	118,464
82,495	-8,804	247,021	118,152
83,509	-8,669	247,167	118,325
84,524	-8,903	246,809	117,946
85,539	-9,152	246,614	117,633
86,553	-9,086	246,326	117,541
87,568	-8,958	246,171	117,564
88,582	-8,808	246,052	117,622
89,597	-8,924	245,888	117,436
90,611	-8,660	245,720	117,566
91,626	-8,363	245,676	117,785
92,641	-8,543	245,423	117,502
93,655	-8,614	245,071	117,263
94,670	-8,686	244,850	117,087
95,684	-8,575	244,729	117,111
96,699	-8,763	244,723	116,941
97,714	-8,557	244,423	116,960
98,728	-8,714	244,117	116,672
99,743	-8,912	243,912	116,399
100,757	-8,974	243,834	116,299
101,772	-8,768	243,460	116,281
102,787	-8,919	243,341	116,089
103,801	-8,689	243,383	116,290
104,816	-8,763	243,181	116,122
105,830	-8,538	242,966	116,195
106,845	-8,408	242,875	116,249
107,860	-8,430	242,657	116,116
108,874	-8,542	242,417	115,898
109,889	-8,504	242,186	115,808
110,903	-8,605	242,077	115,663
111,918	-8,780	241,826	115,388
112,933	-8,837	241,716	115,279
113,947	-8,628	241,522	115,348
114,962	-8,561	241,331	115,301
115,976	-8,470	241,194	115,300
116,991	-8,505	240,907	115,124
118,006	-8,628	240,882	115,001
119,020	-8,334	240,607	115,100
120,035	-8,326	240,586	115,087
121,049	-8,139	240,370	115,126
122,064	-8,273	240,276	114,961
123,079	-8,484	239,914	114,606
124,093	-8,831	239,761	114,239
125,108	-8,599	239,348	114,221
126,122	-8,787	239,375	114,070
127,137	-9,105	239,222	113,728
128,151	-9,177	239,027	113,567
129,166	-8,917	238,863	113,690
130,181	-8,769	238,459	113,608
131,195	-8,995	238,378	113,376
132,210	-8,734	238,331	113,555
133,224	-8,588	238,012	113,511
134,239	-8,705	238,045	113,422
135,254	-8,605	237,863	113,406
136,268	-8,834	237,688	113,128
137,283	-8,910	237,270	112,857
138,297	-8,970	237,161	112,746
139,312	-8,946	236,783	112,576
140,327	-8,818	237,005	112,775
141,341	-8,107	236,839	113,259
142,356	-8,171	236,714	113,137
143,370	-8,259	236,607	113,005
144,385	-8,279	236,509	112,932
145,400	-8,117	236,313	112,958
146,414	-8,052	235,921	112,813
147,429	-8,280	235,973	112,645
148,443	-8,134	235,667	112,606
149,458	-8,109	235,544	112,557
150,473	-8,240	235,367	112,357
151,487	-8,441	235,204	112,109
152,502	-8,188	235,105	112,254
153,516	-8,132	234,853	112,169
154,531	-8,042	234,764	112,188
155,546	-7,978	234,393	112,052
156,560	-8,360	234,309	111,697
157,575	-8,510	233,964	111,404
158,589	-8,289	233,874	111,526
159,604	-8,060	233,853	111,689
160,619	-7,839	233,656	111,759
161,633	-7,870	233,482	111,642
162,648	-8,115	233,454	111,424
163,662	-8,235	233,231	111,213
164,677	-8,386	233,139	111,040
165,692	-8,079	232,854	111,137
166,706	-8,067	232,916	111,165
167,721	-8,045	232,665	111,053
168,735	-7,976	232,650	111,091
169,750	-8,051	232,345	110,876
170,764	-7,998	232,160	110,820
171,779	-8,040	231,922	110,663
172,794	-8,178	231,936	110,551
173,808	-8,378	231,684	110,264
174,823	-8,744	231,470	109,865
175,837	-9,091	231,144	109,429
176,852	-8,462	231,158	109,919
177,867	-8,090	231,130	110,187
178,881	-7,877	230,923	110,245
179,896	-8,192	230,892	109,974
180,910	-7,972	230,578	109,987
181,925	-7,915	230,488	109,978
182,940	-8,027	230,437	109,856
183,954	-7,966	230,246	109,803
184,969	-8,033	230,081	109,663
185,983	-7,938	230,003	109,689
186,998	-7,882	229,816	109,635
188,013	-7,944	229,657	109,501
189,027	-7,924	229,593	109,476
190,042	-7,837	229,281	109,385
191,056	-7,697	229,046	109,372
192,071	-7,827	228,983	109,231
193,086	-8,008	228,917	109,050
194,100	-7,645	228,632	109,185
195,115	-7,845	228,365	108,893
196,129	-8,329	228,343	108,499
197,144	-4,303	229,572	112,196
198,159	0,321	230,944	116,456
199,173	3,201	231,545	118,991
200,188	3,798	231,501	119,421
201,202	3,889	231,544	119,504
202,217	3,925	231,288	119,389
203,232	3,886	231,235	119,321
204,246	4,246	231,125	119,532
205,261	4,126	231,031	119,380
206,275	4,352	230,932	119,494
207,290	4,323	230,763	119,373
208,304	4,611	230,474	119,436
209,319	4,338	230,353	119,152
210,334	4,105	230,215	118,889
211,348	3,830	230,049	118,581
212,363	3,473	229,748	118,140
213,377	3,298	229,503	117,869
214,392	3,284	229,498	117,845
215,407	3,560	229,206	117,896
216,421	3,534	229,096	117,810
217,436	3,393	228,921	117,601
218,450	3,209	228,688	117,330
219,465	3,289	228,497	117,283
220,480	3,349	228,448	117,293
221,494	3,176	228,282	117,065
222,509	3,430	228,161	117,186
223,523	3,366	227,993	117,041
224,538	3,289	227,898	116,923
225,553	3,482	227,747	116,982
226,567	3,693	227,688	117,102
227,582	3,711	227,607	117,064
228,596	3,686	227,508	116,983
229,611	3,512	227,195	116,680
230,626	3,388	226,912	116,430
231,640	3,328	226,725	116,278
232,655	3,716	226,794	116,598
233,669	3,981	226,769	116,776
234,684	4,015	226,705	116,757
235,699	3,718	226,391	116,361
236,713	3,666	226,154	116,190
237,728	3,461	226,049	115,970
238,742	3,265	225,870	115,719
239,757	3,203	225,583	115,516
240,772	3,321	225,470	115,537
241,786	3,630	225,345	115,695
242,801	3,793	225,270	115,768
243,815	3,898	225,270	115,837
244,830	3,697	225,044	115,560
245,844	3,463	224,922	115,311
246,859	3,480	224,652	115,175
247,874	3,685	224,645	115,315
248,888	3,756	224,470	115,269
249,903	3,282	224,301	114,816
250,917	3,607	224,065	114,928
251,932	3,499	223,785	114,693
252,947	3,356	223,748	114,557
253,961	3,342	223,661	114,492
254,976	3,314	223,557	114,407
255,990	3,662	223,456	114,605
257,005	3,556	223,270	114,421
258,020	3,581	223,279	114,434
259,034	3,773	223,088	114,469
260,049	3,646	222,885	114,260
261,063	3,779	222,679	114,243
262,078	3,638	222,550	114,062
263,093	3,815	222,564	114,191
264,107	3,806	222,349	114,063
265,122	3,770	222,115	113,906
266,136	3,968	221,959	113,963
267,151	3,787	221,933	113,805
268,166	3,383	221,733	113,394
269,180	3,257	221,426	113,134
270,195	3,412	221,262	113,154
271,209	3,365	221,124	113,039
272,224	3,489	221,007	113,060
273,239	3,673	220,918	113,140
274,253	3,311	220,803	112,805
275,268	3,280	220,616	112,676
276,282	3,138	220,473	112,488
277,297	3,026	220,263	112,290
278,312	3,268	220,070	112,359
279,326	3,323	220,115	112,412
280,341	3,327	219,837	112,263
281,355	3,507	219,812	112,372
282,370	3,466	219,586	112,216
283,384	3,070	219,432	111,838
284,399	2,999	219,267	111,692
285,414	2,992	219,239	111,663
286,428	3,425	219,162	111,930
287,443	3,618	218,899	111,926
288,457	3,494	218,786	111,768
289,472	3,465	218,739	111,713
290,487	3,036	218,330	111,182
291,501	3,031	218,281	111,144
292,516	3,139	218,121	111,131
293,530	3,143	218,020	111,072
294,545	2,896	217,964	110,855
295,560	3,271	217,834	111,051
296,574	3,484	217,625	111,089
297,589	3,406	217,420	110,917
298,603	3,857	217,308	111,177
299,618	3,661	217,194	110,966
300,633	3,406	217,316	110,835
301,647	3,899	216,955	110,997
302,662	3,780	216,796	110,819
303,676	3,629	216,711	110,657
304,691	3,751	216,552	110,654
305,706	3,871	216,395	110,650
306,720	3,799	216,391	110,587
307,735	3,541	216,194	110,291
308,749	3,269	216,132	110,054
309,764	3,590	215,934	110,174
310,779	3,723	215,866	110,225
311,793	3,619	215,619	110,014
312,808	3,611	215,525	109,950
313,822	3,591	215,297	109,811
314,837	3,314	215,176	109,540
315,852	3,297	214,957	109,407
316,866	3,263	214,678	109,231
317,881	3,591	214,738	109,486
318,895	3,806	214,678	109,598
319,910	3,708	214,532	109,445
320,925	3,241	214,339	109,004
321,939	3,039	214,090	108,724
322,954	3,055	214,050	108,705
323,968	3,526	214,000	109,005
324,983	3,481	214,051	108,989
325,997	3,810	213,728	109,049
327,012	3,664	213,567	108,853
328,027	3,649	213,498	108,797
329,041	3,992	213,332	108,946
330,056	3,838	213,304	108,813
331,070	3,365	213,045	108,337
332,085	3,398	212,732	108,191
333,100	3,337	212,657	108,100
334,114	3,562	212,627	108,234
335,129	3,478	212,565	108,134
336,143	3,500	212,303	108,006
337,158	3,372	212,155	107,831
338,173	3,562	212,002	107,878
339,187	3,390	211,835	107,662
340,202	3,251	211,534	107,402
341,216	3,138	211,503	107,297
342,231	3,136	211,529	107,300
343,246	3,274	211,382	107,312
344,260	3,370	211,251	107,303
345,275	3,181	211,183	107,127
346,289	3,283	211,145	107,170
347,304	3,467	210,979	107,205
348,319	3,528	210,729	107,111
349,333	3,473	210,542	106,967
350,348	3,348	210,449	106,824
351,362	3,629	210,263	106,916
352,377	3,588	210,285	106,888
353,392	3,517	210,023	106,697
354,406	3,558	209,930	106,668
355,421	193,788	1343,090	1423,038
356,435	154,672	1481,182	1423,083
